onset	duration	trial_type	response_time	Endowment	Endowment_pmod	Decision	Decision_pmod	Offer_pmod
4.510490	2	cue_nonsocial	n/a	16	-9	n/a	n/a	n/a
4.510490	2	cue_nonsocial_low	n/a	16	-11	n/a	n/a	n/a
12.160378	2	cue_nonsocial	n/a	16	-9	n/a	n/a	n/a
12.160378	2	cue_nonsocial_low	n/a	16	-11	n/a	n/a	n/a
21.410074	2	cue_nonsocial	n/a	32	7	n/a	n/a	n/a
21.410074	2	cue_nonsocial_high	n/a	32	5	n/a	n/a	n/a
32.356697	2	cue_social	n/a	32	5	n/a	n/a	n/a
32.356697	2	cue_social_high	n/a	32	7	n/a	n/a	n/a
39.995630	2	cue_social	n/a	32	5	n/a	n/a	n/a
39.995630	2	cue_social_high	n/a	32	7	n/a	n/a	n/a
46.829540	2	cue_social	n/a	32	5	n/a	n/a	n/a
46.829540	2	cue_social_high	n/a	32	7	n/a	n/a	n/a
54.393480	2	cue_nonsocial	n/a	32	7	n/a	n/a	n/a
54.393480	2	cue_nonsocial_high	n/a	32	5	n/a	n/a	n/a
66.951880	2	cue_social	n/a	32	5	n/a	n/a	n/a
66.951880	2	cue_social_high	n/a	32	7	n/a	n/a	n/a
74.526800	2	cue_nonsocial	n/a	32	7	n/a	n/a	n/a
74.526800	2	cue_nonsocial_high	n/a	32	5	n/a	n/a	n/a
81.359820	2	cue_nonsocial	n/a	32	7	n/a	n/a	n/a
81.359820	2	cue_nonsocial_high	n/a	32	5	n/a	n/a	n/a
89.063880	2	cue_social	n/a	32	5	n/a	n/a	n/a
89.063880	2	cue_social_high	n/a	32	7	n/a	n/a	n/a
98.347050	2	cue_social	n/a	32	5	n/a	n/a	n/a
98.347050	2	cue_social_high	n/a	32	7	n/a	n/a	n/a
105.093290	2	cue_nonsocial	n/a	16	-9	n/a	n/a	n/a
105.093290	2	cue_nonsocial_low	n/a	16	-11	n/a	n/a	n/a
111.991390	2	cue_social	n/a	16	-11	n/a	n/a	n/a
111.991390	2	cue_social_low	n/a	16	-9	n/a	n/a	n/a
118.816750	2	cue_social	n/a	32	5	n/a	n/a	n/a
118.816750	2	cue_social_high	n/a	32	7	n/a	n/a	n/a
128.026460	2	cue_nonsocial	n/a	32	7	n/a	n/a	n/a
128.026460	2	cue_nonsocial_high	n/a	32	5	n/a	n/a	n/a
135.737100	2	cue_social	n/a	16	-11	n/a	n/a	n/a
135.737100	2	cue_social_low	n/a	16	-9	n/a	n/a	n/a
142.510090	2	cue_nonsocial	n/a	32	7	n/a	n/a	n/a
142.510090	2	cue_nonsocial_high	n/a	32	5	n/a	n/a	n/a
149.436340	2	cue_social	n/a	16	-11	n/a	n/a	n/a
149.436340	2	cue_social_low	n/a	16	-9	n/a	n/a	n/a
158.593150	2	cue_nonsocial	n/a	32	7	n/a	n/a	n/a
158.593150	2	cue_nonsocial_high	n/a	32	5	n/a	n/a	n/a
165.426640	2	cue_nonsocial	n/a	16	-9	n/a	n/a	n/a
165.426640	2	cue_nonsocial_low	n/a	16	-11	n/a	n/a	n/a
172.259870	2	cue_nonsocial	n/a	32	7	n/a	n/a	n/a
172.259870	2	cue_nonsocial_high	n/a	32	5	n/a	n/a	n/a
179.093220	2	cue_nonsocial	n/a	16	-9	n/a	n/a	n/a
179.093220	2	cue_nonsocial_low	n/a	16	-11	n/a	n/a	n/a
185.982790	2	cue_social	n/a	32	5	n/a	n/a	n/a
185.982790	2	cue_social_high	n/a	32	7	n/a	n/a	n/a
195.225770	2	cue_social	n/a	16	-11	n/a	n/a	n/a
195.225770	2	cue_social_low	n/a	16	-9	n/a	n/a	n/a
202.826390	2	cue_nonsocial	n/a	32	7	n/a	n/a	n/a
202.826390	2	cue_nonsocial_high	n/a	32	5	n/a	n/a	n/a
212.126800	2	cue_social	n/a	32	5	n/a	n/a	n/a
212.126800	2	cue_social_high	n/a	32	7	n/a	n/a	n/a
218.980760	2	cue_social	n/a	16	-11	n/a	n/a	n/a
218.980760	2	cue_social_low	n/a	16	-9	n/a	n/a	n/a
226.576260	2	cue_nonsocial	n/a	32	7	n/a	n/a	n/a
226.576260	2	cue_nonsocial_high	n/a	32	5	n/a	n/a	n/a
234.274690	2	cue_social	n/a	32	5	n/a	n/a	n/a
234.274690	2	cue_social_high	n/a	32	7	n/a	n/a	n/a
241.086900	2	cue_social	n/a	32	5	n/a	n/a	n/a
241.086900	2	cue_social_high	n/a	32	7	n/a	n/a	n/a
247.876330	2	cue_nonsocial	n/a	32	7	n/a	n/a	n/a
247.876330	2	cue_nonsocial_high	n/a	32	5	n/a	n/a	n/a
255.570950	2	cue_social	n/a	32	5	n/a	n/a	n/a
255.570950	2	cue_social_high	n/a	32	7	n/a	n/a	n/a
262.359830	2	cue_nonsocial	n/a	32	7	n/a	n/a	n/a
262.359830	2	cue_nonsocial_high	n/a	32	5	n/a	n/a	n/a
269.241970	2	cue_social	n/a	16	-11	n/a	n/a	n/a
269.241970	2	cue_social_low	n/a	16	-9	n/a	n/a	n/a
276.095180	2	cue_social	n/a	32	5	n/a	n/a	n/a
276.095180	2	cue_social_high	n/a	32	7	n/a	n/a	n/a
283.710240	2	cue_social	n/a	32	5	n/a	n/a	n/a
283.710240	2	cue_social_high	n/a	32	7	n/a	n/a	n/a
290.509670	2	cue_nonsocial	n/a	16	-9	n/a	n/a	n/a
290.509670	2	cue_nonsocial_low	n/a	16	-11	n/a	n/a	n/a
297.396940	2	cue_social	n/a	16	-11	n/a	n/a	n/a
297.396940	2	cue_social_low	n/a	16	-9	n/a	n/a	n/a
308.209630	2	cue_nonsocial	n/a	32	7	n/a	n/a	n/a
308.209630	2	cue_nonsocial_high	n/a	32	5	n/a	n/a	n/a
315.043100	2	cue_nonsocial	n/a	16	-9	n/a	n/a	n/a
315.043100	2	cue_nonsocial_low	n/a	16	-11	n/a	n/a	n/a
321.924400	2	cue_social	n/a	32	5	n/a	n/a	n/a
321.924400	2	cue_social_high	n/a	32	7	n/a	n/a	n/a
329.526250	2	cue_nonsocial	n/a	32	7	n/a	n/a	n/a
329.526250	2	cue_nonsocial_high	n/a	32	5	n/a	n/a	n/a
336.426420	2	cue_social	n/a	32	5	n/a	n/a	n/a
336.426420	2	cue_social_high	n/a	32	7	n/a	n/a	n/a
344.009460	2	cue_nonsocial	n/a	16	-9	n/a	n/a	n/a
344.009460	2	cue_nonsocial_low	n/a	16	-11	n/a	n/a	n/a
354.876280	2	cue_nonsocial	n/a	16	-9	n/a	n/a	n/a
354.876280	2	cue_nonsocial_low	n/a	16	-11	n/a	n/a	n/a
361.754180	2	cue_social	n/a	32	5	n/a	n/a	n/a
361.754180	2	cue_social_high	n/a	32	7	n/a	n/a	n/a
368.542660	2	cue_nonsocial	n/a	16	-9	n/a	n/a	n/a
368.542660	2	cue_nonsocial_low	n/a	16	-11	n/a	n/a	n/a
6.516782	2.865845	dec_nonsocial_choice	2.865845	16.000000	n/a	2	-1.035156e-01	-1.035156e-01
6.516782	2.865845	dec_choice	2.865845	16.000000	n/a	2	-1.041667e-01	-1.041667e-01
6.516782	2.865845	dec_nonsocial_accept	2.865845	16.000000	n/a	2	-1.107337e-01	-1.107337e-01
6.516782	2.865845	dec_accept	2.865845	16.000000	n/a	2	-1.193182e-01	-1.193182e-01
6.516782	2.865845	dec_nonsocial_accept_low	2.865845	16.000000	n/a	2	-1.028646e-01	-1.028646e-01
14.166640	1.533105	dec_nonsocial_choice	1.533105	16.000000	n/a	8	2.714844e-01	2.714844e-01
14.166640	1.533105	dec_choice	1.533105	16.000000	n/a	8	2.708333e-01	2.708333e-01
14.166640	1.533105	dec_nonsocial_accept	1.533105	16.000000	n/a	8	2.642663e-01	2.642663e-01
14.166640	1.533105	dec_accept	1.533105	16.000000	n/a	8	2.556818e-01	2.556818e-01
14.166640	1.533105	dec_nonsocial_high	1.533105	16.000000	n/a	8	2.708333e-01	2.708333e-01
14.166640	1.533105	dec_nonsocial_accept_high	1.533105	16.000000	n/a	8	2.556818e-01	2.556818e-01
23.415617	1.217022	dec_nonsocial_choice	1.217022	32.000000	n/a	3	-1.347656e-01	-1.347656e-01
23.415617	1.217022	dec_choice	1.217022	32.000000	n/a	3	-1.354167e-01	-1.354167e-01
23.415617	1.217022	dec_nonsocial_accept	1.217022	32.000000	n/a	3	-1.419837e-01	-1.419837e-01
23.415617	1.217022	dec_accept	1.217022	32.000000	n/a	3	-1.505682e-01	-1.505682e-01
23.415617	1.217022	dec_nonsocial_low	1.217022	32.000000	n/a	3	-1.354167e-01	-1.354167e-01
23.415617	1.217022	dec_nonsocial_accept_low	1.217022	32.000000	n/a	3	-1.505682e-01	-1.505682e-01
34.283714	2.215881	dec_social_choice	2.215881	32.000000	n/a	2	-1.660156e-01	-1.660156e-01
34.283714	2.215881	dec_choice	2.215881	32.000000	n/a	2	-1.653646e-01	-1.653646e-01
34.283714	2.215881	dec_social_accept	2.215881	32.000000	n/a	2	-1.732337e-01	-1.732337e-01
34.283714	2.215881	dec_accept	2.215881	32.000000	n/a	2	-1.653646e-01	-1.653646e-01
34.283714	2.215881	dec_social_accept_low	2.215881	32.000000	n/a	2	-1.653646e-01	-1.653646e-01
41.933300	1.415865	dec_social_choice	1.415865	32.000000	n/a	16	2.714844e-01	2.714844e-01
41.933300	1.415865	dec_choice	1.415865	32.000000	n/a	16	2.721354e-01	2.721354e-01
41.933300	1.415865	dec_social_accept	1.415865	32.000000	n/a	16	2.642663e-01	2.642663e-01
41.933300	1.415865	dec_accept	1.415865	32.000000	n/a	16	2.721354e-01	2.721354e-01
41.933300	1.415865	dec_social_high	1.415865	32.000000	n/a	16	2.721354e-01	2.721354e-01
41.933300	1.415865	dec_social_accept_high	1.415865	32.000000	n/a	16	2.721354e-01	2.721354e-01
48.765545	2.117535	dec_social_choice	2.117535	32.000000	n/a	2	-1.660156e-01	-1.660156e-01
48.765545	2.117535	dec_choice	2.117535	32.000000	n/a	2	-1.653646e-01	-1.653646e-01
48.765545	2.117535	dec_social_accept	2.117535	32.000000	n/a	2	-1.732337e-01	-1.732337e-01
48.765545	2.117535	dec_accept	2.117535	32.000000	n/a	2	-1.653646e-01	-1.653646e-01
48.765545	2.117535	dec_social_accept_low	2.117535	32.000000	n/a	2	-1.653646e-01	-1.653646e-01
56.398834	1.834196	dec_nonsocial_choice	1.834196	32.000000	n/a	16	2.714844e-01	2.714844e-01
56.398834	1.834196	dec_choice	1.834196	32.000000	n/a	16	2.708333e-01	2.708333e-01
56.398834	1.834196	dec_nonsocial_accept	1.834196	32.000000	n/a	16	2.642663e-01	2.642663e-01
56.398834	1.834196	dec_accept	1.834196	32.000000	n/a	16	2.556818e-01	2.556818e-01
56.398834	1.834196	dec_nonsocial_high	1.834196	32.000000	n/a	16	2.708333e-01	2.708333e-01
56.398834	1.834196	dec_nonsocial_accept_high	1.834196	32.000000	n/a	16	2.556818e-01	2.556818e-01
68.882250	1.333983	dec_social_choice	1.333983	32.000000	n/a	8	2.148438e-02	2.148438e-02
68.882250	1.333983	dec_choice	1.333983	32.000000	n/a	8	2.213542e-02	2.213542e-02
68.882250	1.333983	dec_social_accept	1.333983	32.000000	n/a	8	1.426630e-02	1.426630e-02
68.882250	1.333983	dec_accept	1.333983	32.000000	n/a	8	2.213542e-02	2.213542e-02
68.882250	1.333983	dec_social_high	1.333983	32.000000	n/a	8	2.213542e-02	2.213542e-02
68.882250	1.333983	dec_social_accept_high	1.333983	32.000000	n/a	8	2.213542e-02	2.213542e-02
76.534065	1.848960	dec_nonsocial_choice	1.848960	32.000000	n/a	3	-1.347656e-01	-1.347656e-01
76.534065	1.848960	dec_choice	1.848960	32.000000	n/a	3	-1.354167e-01	-1.354167e-01
76.534065	1.848960	dec_nonsocial_accept	1.848960	32.000000	n/a	3	-1.419837e-01	-1.419837e-01
76.534065	1.848960	dec_accept	1.848960	32.000000	n/a	3	-1.505682e-01	-1.505682e-01
76.534065	1.848960	dec_nonsocial_low	1.848960	32.000000	n/a	3	-1.354167e-01	-1.354167e-01
76.534065	1.848960	dec_nonsocial_accept_low	1.848960	32.000000	n/a	3	-1.505682e-01	-1.505682e-01
83.365410	1.534147	dec_nonsocial_choice	1.534147	32.000000	n/a	8	2.148438e-02	2.148438e-02
83.365410	1.534147	dec_choice	1.534147	32.000000	n/a	8	2.083333e-02	2.083333e-02
83.365410	1.534147	dec_nonsocial_accept	1.534147	32.000000	n/a	8	1.426630e-02	1.426630e-02
83.365410	1.534147	dec_accept	1.534147	32.000000	n/a	8	5.681818e-03	5.681818e-03
83.365410	1.534147	dec_nonsocial_high	1.534147	32.000000	n/a	8	2.083333e-02	2.083333e-02
83.365410	1.534147	dec_nonsocial_accept_high	1.534147	32.000000	n/a	8	5.681818e-03	5.681818e-03
91.015915	1.633755	dec_social_choice	1.633755	32.000000	n/a	16	2.714844e-01	2.714844e-01
91.015915	1.633755	dec_choice	1.633755	32.000000	n/a	16	2.721354e-01	2.721354e-01
91.015915	1.633755	dec_social_accept	1.633755	32.000000	n/a	16	2.642663e-01	2.642663e-01
91.015915	1.633755	dec_accept	1.633755	32.000000	n/a	16	2.721354e-01	2.721354e-01
91.015915	1.633755	dec_social_high	1.633755	32.000000	n/a	16	2.721354e-01	2.721354e-01
91.015915	1.633755	dec_social_accept_high	1.633755	32.000000	n/a	16	2.721354e-01	2.721354e-01
100.266850	2.199330	dec_social_choice	2.199330	32.000000	n/a	2	-1.660156e-01	-1.660156e-01
100.266850	2.199330	dec_choice	2.199330	32.000000	n/a	2	-1.653646e-01	-1.653646e-01
100.266850	2.199330	dec_social_accept	2.199330	32.000000	n/a	2	-1.732337e-01	-1.732337e-01
100.266850	2.199330	dec_accept	2.199330	32.000000	n/a	2	-1.653646e-01	-1.653646e-01
100.266850	2.199330	dec_social_low	2.199330	32.000000	n/a	2	-1.653646e-01	-1.653646e-01
100.266850	2.199330	dec_social_accept_low	2.199330	32.000000	n/a	2	-1.653646e-01	-1.653646e-01
107.099580	3.066519	dec_nonsocial_choice	3.066519	16.000000	n/a	2	-1.035156e-01	-1.035156e-01
107.099580	3.066519	dec_choice	3.066519	16.000000	n/a	2	-1.041667e-01	-1.041667e-01
107.099580	3.066519	dec_nonsocial_accept	3.066519	16.000000	n/a	2	-1.107337e-01	-1.107337e-01
107.099580	3.066519	dec_accept	3.066519	16.000000	n/a	2	-1.193182e-01	-1.193182e-01
107.099580	3.066519	dec_nonsocial_accept_low	3.066519	16.000000	n/a	2	-1.028646e-01	-1.028646e-01
113.932050	2.434574	dec_social_choice	2.434574	16.000000	n/a	4	2.148438e-02	2.148438e-02
113.932050	2.434574	dec_choice	2.434574	16.000000	n/a	4	2.213542e-02	2.213542e-02
113.932050	2.434574	dec_social_accept	2.434574	16.000000	n/a	4	1.426630e-02	1.426630e-02
113.932050	2.434574	dec_accept	2.434574	16.000000	n/a	4	2.213542e-02	2.213542e-02
113.932050	2.434574	dec_social_accept_high	2.434574	16.000000	n/a	4	2.213542e-02	2.213542e-02
120.766000	2.116433	dec_social_choice	2.116433	32.000000	n/a	8	2.148438e-02	2.148438e-02
120.766000	2.116433	dec_choice	2.116433	32.000000	n/a	8	2.213542e-02	2.213542e-02
120.766000	2.116433	dec_social_accept	2.116433	32.000000	n/a	8	1.426630e-02	1.426630e-02
120.766000	2.116433	dec_accept	2.116433	32.000000	n/a	8	2.213542e-02	2.213542e-02
120.766000	2.116433	dec_social_accept_high	2.116433	32.000000	n/a	8	2.213542e-02	2.213542e-02
130.033140	1.466276	dec_nonsocial_choice	1.466276	32.000000	n/a	3	-1.347656e-01	-1.347656e-01
130.033140	1.466276	dec_choice	1.466276	32.000000	n/a	3	-1.354167e-01	-1.354167e-01
130.033140	1.466276	dec_nonsocial_accept	1.466276	32.000000	n/a	3	-1.419837e-01	-1.419837e-01
130.033140	1.466276	dec_accept	1.466276	32.000000	n/a	3	-1.505682e-01	-1.505682e-01
130.033140	1.466276	dec_nonsocial_low	1.466276	32.000000	n/a	3	-1.354167e-01	-1.354167e-01
130.033140	1.466276	dec_nonsocial_accept_low	1.466276	32.000000	n/a	3	-1.505682e-01	-1.505682e-01
137.682630	1.884262	dec_social_choice	1.884262	16.000000	n/a	4	2.148438e-02	2.148438e-02
137.682630	1.884262	dec_choice	1.884262	16.000000	n/a	4	2.213542e-02	2.213542e-02
137.682630	1.884262	dec_social_accept	1.884262	16.000000	n/a	4	1.426630e-02	1.426630e-02
137.682630	1.884262	dec_accept	1.884262	16.000000	n/a	4	2.213542e-02	2.213542e-02
137.682630	1.884262	dec_social_high	1.884262	16.000000	n/a	4	2.213542e-02	2.213542e-02
137.682630	1.884262	dec_social_accept_high	1.884262	16.000000	n/a	4	2.213542e-02	2.213542e-02
144.515490	1.967149	dec_nonsocial_choice	1.967149	32.000000	n/a	16	2.714844e-01	2.714844e-01
144.515490	1.967149	dec_choice	1.967149	32.000000	n/a	16	2.708333e-01	2.708333e-01
144.515490	1.967149	dec_nonsocial_accept	1.967149	32.000000	n/a	16	2.642663e-01	2.642663e-01
144.515490	1.967149	dec_accept	1.967149	32.000000	n/a	16	2.556818e-01	2.556818e-01
144.515490	1.967149	dec_nonsocial_accept_high	1.967149	32.000000	n/a	16	2.721354e-01	2.721354e-01
151.349620	1.666021	dec_social_choice	1.666021	16.000000	n/a	8	2.714844e-01	2.714844e-01
151.349620	1.666021	dec_choice	1.666021	16.000000	n/a	8	2.721354e-01	2.721354e-01
151.349620	1.666021	dec_social_accept	1.666021	16.000000	n/a	8	2.642663e-01	2.642663e-01
151.349620	1.666021	dec_accept	1.666021	16.000000	n/a	8	2.721354e-01	2.721354e-01
151.349620	1.666021	dec_social_accept_high	1.666021	16.000000	n/a	8	2.721354e-01	2.721354e-01
160.599320	2.250495	dec_nonsocial_choice	2.250495	32.000000	n/a	16	2.714844e-01	2.714844e-01
160.599320	2.250495	dec_choice	2.250495	32.000000	n/a	16	2.708333e-01	2.708333e-01
160.599320	2.250495	dec_nonsocial_accept	2.250495	32.000000	n/a	16	2.642663e-01	2.642663e-01
160.599320	2.250495	dec_accept	2.250495	32.000000	n/a	16	2.556818e-01	2.556818e-01
160.599320	2.250495	dec_nonsocial_accept_high	2.250495	32.000000	n/a	16	2.721354e-01	2.721354e-01
167.432630	2.350064	dec_nonsocial_choice	2.350064	16.000000	n/a	1	-1.660156e-01	-1.660156e-01
167.432630	2.350064	dec_choice	2.350064	16.000000	n/a	1	-1.666667e-01	-1.666667e-01
167.432630	2.350064	dec_nonsocial_accept	2.350064	16.000000	n/a	1	-1.732337e-01	-1.732337e-01
167.432630	2.350064	dec_accept	2.350064	16.000000	n/a	1	-1.818182e-01	-1.818182e-01
167.432630	2.350064	dec_nonsocial_accept_low	2.350064	16.000000	n/a	1	-1.653646e-01	-1.653646e-01
174.265950	2.000220	dec_nonsocial_choice	2.000220	32.000000	n/a	0	0	-2.285156e-01
174.265950	2.000220	dec_choice	2.000220	32.000000	n/a	0	0	-2.291667e-01
174.265950	2.000220	dec_nonsocial_reject	2.000220	32.000000	n/a	0	0	2.083333e-02
174.265950	2.000220	dec_reject	2.000220	32.000000	n/a	0	0	0
174.265950	2.000220	dec_nonsocial_reject_low	2.000220	32.000000	n/a	2	6.250000e-02	0
181.099240	2.333497	dec_nonsocial_choice	2.333497	16.000000	n/a	8	2.714844e-01	2.714844e-01
181.099240	2.333497	dec_choice	2.333497	16.000000	n/a	8	2.708333e-01	2.708333e-01
181.099240	2.333497	dec_nonsocial_accept	2.333497	16.000000	n/a	8	2.642663e-01	2.642663e-01
181.099240	2.333497	dec_accept	2.333497	16.000000	n/a	8	2.556818e-01	2.556818e-01
181.099240	2.333497	dec_nonsocial_accept_high	2.333497	16.000000	n/a	8	2.721354e-01	2.721354e-01
187.931900	2.350818	dec_social_choice	2.350818	32.000000	n/a	2	-1.660156e-01	-1.660156e-01
187.931900	2.350818	dec_choice	2.350818	32.000000	n/a	2	-1.653646e-01	-1.653646e-01
187.931900	2.350818	dec_social_accept	2.350818	32.000000	n/a	2	-1.732337e-01	-1.732337e-01
187.931900	2.350818	dec_accept	2.350818	32.000000	n/a	2	-1.653646e-01	-1.653646e-01
187.931900	2.350818	dec_social_accept_low	2.350818	32.000000	n/a	2	-1.653646e-01	-1.653646e-01
197.181810	3.017188	dec_social_choice	3.017188	16.000000	n/a	1	-1.660156e-01	-1.660156e-01
197.181810	3.017188	dec_choice	3.017188	16.000000	n/a	1	-1.653646e-01	-1.653646e-01
197.181810	3.017188	dec_social_accept	3.017188	16.000000	n/a	1	-1.732337e-01	-1.732337e-01
197.181810	3.017188	dec_accept	3.017188	16.000000	n/a	1	-1.653646e-01	-1.653646e-01
197.181810	3.017188	dec_social_low	3.017188	16.000000	n/a	1	-1.653646e-01	-1.653646e-01
197.181810	3.017188	dec_social_accept_low	3.017188	16.000000	n/a	1	-1.653646e-01	-1.653646e-01
204.833500	2.249258	dec_nonsocial_choice	2.249258	32.000000	n/a	16	2.714844e-01	2.714844e-01
204.833500	2.249258	dec_choice	2.249258	32.000000	n/a	16	2.708333e-01	2.708333e-01
204.833500	2.249258	dec_nonsocial_accept	2.249258	32.000000	n/a	16	2.642663e-01	2.642663e-01
204.833500	2.249258	dec_accept	2.249258	32.000000	n/a	16	2.556818e-01	2.556818e-01
204.833500	2.249258	dec_nonsocial_high	2.249258	32.000000	n/a	16	2.708333e-01	2.708333e-01
204.833500	2.249258	dec_nonsocial_accept_high	2.249258	32.000000	n/a	16	2.556818e-01	2.556818e-01
214.099170	2.066797	dec_social_choice	2.066797	32.000000	n/a	3	-1.347656e-01	-1.347656e-01
214.099170	2.066797	dec_choice	2.066797	32.000000	n/a	3	-1.341146e-01	-1.341146e-01
214.099170	2.066797	dec_social_accept	2.066797	32.000000	n/a	3	-1.419837e-01	-1.419837e-01
214.099170	2.066797	dec_accept	2.066797	32.000000	n/a	3	-1.341146e-01	-1.341146e-01
214.099170	2.066797	dec_social_accept_low	2.066797	32.000000	n/a	3	-1.341146e-01	-1.341146e-01
220.933490	1.999210	dec_social_choice	1.999210	16.000000	n/a	2	-1.035156e-01	-1.035156e-01
220.933490	1.999210	dec_choice	1.999210	16.000000	n/a	2	-1.028646e-01	-1.028646e-01
220.933490	1.999210	dec_social_accept	1.999210	16.000000	n/a	2	-1.107337e-01	-1.107337e-01
220.933490	1.999210	dec_accept	1.999210	16.000000	n/a	2	-1.028646e-01	-1.028646e-01
220.933490	1.999210	dec_social_low	1.999210	16.000000	n/a	2	-1.028646e-01	-1.028646e-01
220.933490	1.999210	dec_social_accept_low	1.999210	16.000000	n/a	2	-1.028646e-01	-1.028646e-01
228.582490	2.450506	dec_nonsocial_choice	2.450506	32.000000	n/a	8	2.148438e-02	2.148438e-02
228.582490	2.450506	dec_choice	2.450506	32.000000	n/a	8	2.083333e-02	2.083333e-02
228.582490	2.450506	dec_nonsocial_accept	2.450506	32.000000	n/a	8	1.426630e-02	1.426630e-02
228.582490	2.450506	dec_accept	2.450506	32.000000	n/a	8	5.681818e-03	5.681818e-03
228.582490	2.450506	dec_nonsocial_high	2.450506	32.000000	n/a	8	2.083333e-02	2.083333e-02
228.582490	2.450506	dec_nonsocial_accept_high	2.450506	32.000000	n/a	8	5.681818e-03	5.681818e-03
236.216370	2.199552	dec_social_choice	2.199552	32.000000	n/a	3	-1.347656e-01	-1.347656e-01
236.216370	2.199552	dec_choice	2.199552	32.000000	n/a	3	-1.341146e-01	-1.341146e-01
236.216370	2.199552	dec_social_accept	2.199552	32.000000	n/a	3	-1.419837e-01	-1.419837e-01
236.216370	2.199552	dec_accept	2.199552	32.000000	n/a	3	-1.341146e-01	-1.341146e-01
236.216370	2.199552	dec_social_accept_low	2.199552	32.000000	n/a	3	-1.341146e-01	-1.341146e-01
243.049580	2.165987	dec_social_choice	2.165987	32.000000	n/a	3	-1.347656e-01	-1.347656e-01
243.049580	2.165987	dec_choice	2.165987	32.000000	n/a	3	-1.341146e-01	-1.341146e-01
243.049580	2.165987	dec_social_accept	2.165987	32.000000	n/a	3	-1.419837e-01	-1.419837e-01
243.049580	2.165987	dec_accept	2.165987	32.000000	n/a	3	-1.341146e-01	-1.341146e-01
243.049580	2.165987	dec_social_accept_low	2.165987	32.000000	n/a	3	-1.341146e-01	-1.341146e-01
249.883530	2.115606	dec_nonsocial_choice	2.115606	32.000000	n/a	8	2.148438e-02	2.148438e-02
249.883530	2.115606	dec_choice	2.115606	32.000000	n/a	8	2.083333e-02	2.083333e-02
249.883530	2.115606	dec_nonsocial_accept	2.115606	32.000000	n/a	8	1.426630e-02	1.426630e-02
249.883530	2.115606	dec_accept	2.115606	32.000000	n/a	8	5.681818e-03	5.681818e-03
249.883530	2.115606	dec_nonsocial_high	2.115606	32.000000	n/a	8	2.083333e-02	2.083333e-02
249.883530	2.115606	dec_nonsocial_accept_high	2.115606	32.000000	n/a	8	5.681818e-03	5.681818e-03
257.531800	2.116737	dec_social_choice	2.116737	32.000000	n/a	16	2.714844e-01	2.714844e-01
257.531800	2.116737	dec_choice	2.116737	32.000000	n/a	16	2.721354e-01	2.721354e-01
257.531800	2.116737	dec_social_accept	2.116737	32.000000	n/a	16	2.642663e-01	2.642663e-01
257.531800	2.116737	dec_accept	2.116737	32.000000	n/a	16	2.721354e-01	2.721354e-01
257.531800	2.116737	dec_social_high	2.116737	32.000000	n/a	16	2.721354e-01	2.721354e-01
257.531800	2.116737	dec_social_accept_high	2.116737	32.000000	n/a	16	2.721354e-01	2.721354e-01
264.365750	2.016805	dec_nonsocial_choice	2.016805	32.000000	n/a	3	-1.347656e-01	-1.347656e-01
264.365750	2.016805	dec_choice	2.016805	32.000000	n/a	3	-1.354167e-01	-1.354167e-01
264.365750	2.016805	dec_nonsocial_accept	2.016805	32.000000	n/a	3	-1.419837e-01	-1.419837e-01
264.365750	2.016805	dec_accept	2.016805	32.000000	n/a	3	-1.505682e-01	-1.505682e-01
264.365750	2.016805	dec_nonsocial_accept_low	2.016805	32.000000	n/a	3	-1.341146e-01	-1.341146e-01
271.200500	1.781975	dec_social_choice	1.781975	16.000000	n/a	8	2.714844e-01	2.714844e-01
271.200500	1.781975	dec_choice	1.781975	16.000000	n/a	8	2.721354e-01	2.721354e-01
271.200500	1.781975	dec_social_accept	1.781975	16.000000	n/a	8	2.642663e-01	2.642663e-01
271.200500	1.781975	dec_accept	1.781975	16.000000	n/a	8	2.721354e-01	2.721354e-01
271.200500	1.781975	dec_social_high	1.781975	16.000000	n/a	8	2.721354e-01	2.721354e-01
271.200500	1.781975	dec_social_accept_high	1.781975	16.000000	n/a	8	2.721354e-01	2.721354e-01
278.032600	1.733427	dec_social_choice	1.733427	32.000000	n/a	3	-1.347656e-01	-1.347656e-01
278.032600	1.733427	dec_choice	1.733427	32.000000	n/a	3	-1.341146e-01	-1.341146e-01
278.032600	1.733427	dec_social_accept	1.733427	32.000000	n/a	3	-1.419837e-01	-1.419837e-01
278.032600	1.733427	dec_accept	1.733427	32.000000	n/a	3	-1.341146e-01	-1.341146e-01
278.032600	1.733427	dec_social_low	1.733427	32.000000	n/a	3	-1.341146e-01	-1.341146e-01
278.032600	1.733427	dec_social_accept_low	1.733427	32.000000	n/a	3	-1.341146e-01	-1.341146e-01
285.681730	2.134205	dec_social_choice	2.134205	32.000000	n/a	8	2.148438e-02	2.148438e-02
285.681730	2.134205	dec_choice	2.134205	32.000000	n/a	8	2.213542e-02	2.213542e-02
285.681730	2.134205	dec_social_accept	2.134205	32.000000	n/a	8	1.426630e-02	1.426630e-02
285.681730	2.134205	dec_accept	2.134205	32.000000	n/a	8	2.213542e-02	2.213542e-02
285.681730	2.134205	dec_social_accept_high	2.134205	32.000000	n/a	8	2.213542e-02	2.213542e-02
292.516450	2.165798	dec_nonsocial_choice	2.165798	16.000000	n/a	4	2.148438e-02	2.148438e-02
292.516450	2.165798	dec_choice	2.165798	16.000000	n/a	4	2.083333e-02	2.083333e-02
292.516450	2.165798	dec_nonsocial_accept	2.165798	16.000000	n/a	4	1.426630e-02	1.426630e-02
292.516450	2.165798	dec_accept	2.165798	16.000000	n/a	4	5.681818e-03	5.681818e-03
292.516450	2.165798	dec_nonsocial_accept_high	2.165798	16.000000	n/a	4	2.213542e-02	2.213542e-02
299.348820	2.200504	dec_social_choice	2.200504	16.000000	n/a	4	2.148438e-02	2.148438e-02
299.348820	2.200504	dec_choice	2.200504	16.000000	n/a	4	2.213542e-02	2.213542e-02
299.348820	2.200504	dec_social_accept	2.200504	16.000000	n/a	4	1.426630e-02	1.426630e-02
299.348820	2.200504	dec_accept	2.200504	16.000000	n/a	4	2.213542e-02	2.213542e-02
299.348820	2.200504	dec_social_high	2.200504	16.000000	n/a	4	2.213542e-02	2.213542e-02
299.348820	2.200504	dec_social_accept_high	2.200504	16.000000	n/a	4	2.213542e-02	2.213542e-02
310.215420	1.766677	dec_nonsocial_choice	1.766677	32.000000	n/a	8	2.148438e-02	2.148438e-02
310.215420	1.766677	dec_choice	1.766677	32.000000	n/a	8	2.083333e-02	2.083333e-02
310.215420	1.766677	dec_nonsocial_accept	1.766677	32.000000	n/a	8	1.426630e-02	1.426630e-02
310.215420	1.766677	dec_accept	1.766677	32.000000	n/a	8	5.681818e-03	5.681818e-03
310.215420	1.766677	dec_nonsocial_accept_high	1.766677	32.000000	n/a	8	2.213542e-02	2.213542e-02
317.049470	1.899702	dec_nonsocial_choice	1.899702	16.000000	n/a	1	-1.660156e-01	-1.660156e-01
317.049470	1.899702	dec_choice	1.899702	16.000000	n/a	1	-1.666667e-01	-1.666667e-01
317.049470	1.899702	dec_nonsocial_accept	1.899702	16.000000	n/a	1	-1.732337e-01	-1.732337e-01
317.049470	1.899702	dec_accept	1.899702	16.000000	n/a	1	-1.818182e-01	-1.818182e-01
317.049470	1.899702	dec_nonsocial_low	1.899702	16.000000	n/a	1	-1.666667e-01	-1.666667e-01
317.049470	1.899702	dec_nonsocial_accept_low	1.899702	16.000000	n/a	1	-1.818182e-01	-1.818182e-01
323.882570	2.133368	dec_social_choice	2.133368	32.000000	n/a	2	-1.660156e-01	-1.660156e-01
323.882570	2.133368	dec_choice	2.133368	32.000000	n/a	2	-1.653646e-01	-1.653646e-01
323.882570	2.133368	dec_social_accept	2.133368	32.000000	n/a	2	-1.732337e-01	-1.732337e-01
323.882570	2.133368	dec_accept	2.133368	32.000000	n/a	2	-1.653646e-01	-1.653646e-01
323.882570	2.133368	dec_social_low	2.133368	32.000000	n/a	2	-1.653646e-01	-1.653646e-01
323.882570	2.133368	dec_social_accept_low	2.133368	32.000000	n/a	2	-1.653646e-01	-1.653646e-01
331.533500	2.348991	dec_nonsocial_choice	2.348991	32.000000	n/a	2	-1.660156e-01	-1.660156e-01
331.533500	2.348991	dec_choice	2.348991	32.000000	n/a	2	-1.666667e-01	-1.666667e-01
331.533500	2.348991	dec_nonsocial_accept	2.348991	32.000000	n/a	2	-1.732337e-01	-1.732337e-01
331.533500	2.348991	dec_accept	2.348991	32.000000	n/a	2	-1.818182e-01	-1.818182e-01
331.533500	2.348991	dec_nonsocial_accept_low	2.348991	32.000000	n/a	2	-1.653646e-01	-1.653646e-01
338.365500	2.083820	dec_social_choice	2.083820	32.000000	n/a	3	-1.347656e-01	-1.347656e-01
338.365500	2.083820	dec_choice	2.083820	32.000000	n/a	3	-1.341146e-01	-1.341146e-01
338.365500	2.083820	dec_social_accept	2.083820	32.000000	n/a	3	-1.419837e-01	-1.419837e-01
338.365500	2.083820	dec_accept	2.083820	32.000000	n/a	3	-1.341146e-01	-1.341146e-01
338.365500	2.083820	dec_social_accept_low	2.083820	32.000000	n/a	3	-1.341146e-01	-1.341146e-01
346.014980	2.400871	dec_nonsocial_choice	2.400871	16.000000	n/a	4	2.148438e-02	2.148438e-02
346.014980	2.400871	dec_choice	2.400871	16.000000	n/a	4	2.083333e-02	2.083333e-02
346.014980	2.400871	dec_nonsocial_accept	2.400871	16.000000	n/a	4	1.426630e-02	1.426630e-02
346.014980	2.400871	dec_accept	2.400871	16.000000	n/a	4	5.681818e-03	5.681818e-03
346.014980	2.400871	dec_nonsocial_accept_high	2.400871	16.000000	n/a	4	2.213542e-02	2.213542e-02
356.882500	2.183307	dec_nonsocial_choice	2.183307	16.000000	n/a	1	-1.660156e-01	-1.660156e-01
356.882500	2.183307	dec_choice	2.183307	16.000000	n/a	1	-1.666667e-01	-1.666667e-01
356.882500	2.183307	dec_nonsocial_accept	2.183307	16.000000	n/a	1	-1.732337e-01	-1.732337e-01
356.882500	2.183307	dec_accept	2.183307	16.000000	n/a	1	-1.818182e-01	-1.818182e-01
356.882500	2.183307	dec_nonsocial_low	2.183307	16.000000	n/a	1	-1.666667e-01	-1.666667e-01
356.882500	2.183307	dec_nonsocial_accept_low	2.183307	16.000000	n/a	1	-1.818182e-01	-1.818182e-01
363.716100	2.015848	dec_social_choice	2.015848	32.000000	n/a	16	2.714844e-01	2.714844e-01
363.716100	2.015848	dec_choice	2.015848	32.000000	n/a	16	2.721354e-01	2.721354e-01
363.716100	2.015848	dec_social_accept	2.015848	32.000000	n/a	16	2.642663e-01	2.642663e-01
363.716100	2.015848	dec_accept	2.015848	32.000000	n/a	16	2.721354e-01	2.721354e-01
363.716100	2.015848	dec_social_accept_high	2.015848	32.000000	n/a	16	2.721354e-01	2.721354e-01
370.548770	2.900390	dec_nonsocial_choice	2.900390	16.000000	n/a	0	0	-2.285156e-01
370.548770	2.900390	dec_choice	2.900390	16.000000	n/a	0	0	-2.291667e-01
370.548770	2.900390	dec_nonsocial_reject	2.900390	16.000000	n/a	0	0	2.083333e-02
370.548770	2.900390	dec_reject	2.900390	16.000000	n/a	0	0	0
370.548770	2.900390	dec_nonsocial_low	2.900390	16.000000	n/a	0	-2.291667e-01	-2.291667e-01
370.548770	2.900390	dec_nonsocial_reject_low	2.900390	16.000000	n/a	1	0	-6.250000e-02
