onset	duration	trial_type	response_time	Endowment	Endowment_pmod	Decision	Decision_pmod	Offer_pmod
4.515763	2	cue_nonsocial	n/a	32	7	n/a	n/a	n/a
4.515763	2	cue_nonsocial_high	n/a	32	5	n/a	n/a	n/a
11.348942	2	cue_nonsocial	n/a	16	-9	n/a	n/a	n/a
11.348942	2	cue_nonsocial_low	n/a	16	-11	n/a	n/a	n/a
18.999146	2	cue_nonsocial	n/a	32	7	n/a	n/a	n/a
18.999146	2	cue_nonsocial_high	n/a	32	5	n/a	n/a	n/a
25.882430	2	cue_social	n/a	32	5	n/a	n/a	n/a
25.882430	2	cue_social_high	n/a	32	7	n/a	n/a	n/a
32.704533	2	cue_social	n/a	32	5	n/a	n/a	n/a
32.704533	2	cue_social_high	n/a	32	7	n/a	n/a	n/a
40.355244	2	cue_social	n/a	16	-11	n/a	n/a	n/a
40.355244	2	cue_social_low	n/a	16	-9	n/a	n/a	n/a
49.616430	2	cue_social	n/a	32	5	n/a	n/a	n/a
49.616430	2	cue_social_high	n/a	32	7	n/a	n/a	n/a
56.399100	2	cue_nonsocial	n/a	32	7	n/a	n/a	n/a
56.399100	2	cue_nonsocial_high	n/a	32	5	n/a	n/a	n/a
64.061050	2	cue_social	n/a	32	5	n/a	n/a	n/a
64.061050	2	cue_social_high	n/a	32	7	n/a	n/a	n/a
70.882130	2	cue_nonsocial	n/a	16	-9	n/a	n/a	n/a
70.882130	2	cue_nonsocial_low	n/a	16	-11	n/a	n/a	n/a
80.132340	2	cue_nonsocial	n/a	32	7	n/a	n/a	n/a
80.132340	2	cue_nonsocial_high	n/a	32	5	n/a	n/a	n/a
87.782120	2	cue_nonsocial	n/a	16	-9	n/a	n/a	n/a
87.782120	2	cue_nonsocial_low	n/a	16	-11	n/a	n/a	n/a
94.659150	2	cue_social	n/a	32	5	n/a	n/a	n/a
94.659150	2	cue_social_high	n/a	32	7	n/a	n/a	n/a
103.866295	2	cue_nonsocial	n/a	32	7	n/a	n/a	n/a
103.866295	2	cue_nonsocial_high	n/a	32	5	n/a	n/a	n/a
113.115530	2	cue_nonsocial	n/a	16	-9	n/a	n/a	n/a
113.115530	2	cue_nonsocial_low	n/a	16	-11	n/a	n/a	n/a
120.001810	2	cue_social	n/a	32	5	n/a	n/a	n/a
120.001810	2	cue_social_high	n/a	32	7	n/a	n/a	n/a
126.782060	2	cue_nonsocial	n/a	32	7	n/a	n/a	n/a
126.782060	2	cue_nonsocial_high	n/a	32	5	n/a	n/a	n/a
133.658940	2	cue_social	n/a	16	-11	n/a	n/a	n/a
133.658940	2	cue_social_low	n/a	16	-9	n/a	n/a	n/a
140.448840	2	cue_nonsocial	n/a	32	7	n/a	n/a	n/a
140.448840	2	cue_nonsocial_high	n/a	32	5	n/a	n/a	n/a
148.150120	2	cue_social	n/a	32	5	n/a	n/a	n/a
148.150120	2	cue_social_high	n/a	32	7	n/a	n/a	n/a
154.978530	2	cue_social	n/a	32	5	n/a	n/a	n/a
154.978530	2	cue_social_high	n/a	32	7	n/a	n/a	n/a
161.782230	2	cue_social	n/a	32	5	n/a	n/a	n/a
161.782230	2	cue_social_high	n/a	32	7	n/a	n/a	n/a
171.073060	2	cue_social	n/a	16	-11	n/a	n/a	n/a
171.073060	2	cue_social_low	n/a	16	-9	n/a	n/a	n/a
181.898970	2	cue_nonsocial	n/a	16	-9	n/a	n/a	n/a
181.898970	2	cue_nonsocial_low	n/a	16	-11	n/a	n/a	n/a
188.785980	2	cue_social	n/a	16	-11	n/a	n/a	n/a
188.785980	2	cue_social_low	n/a	16	-9	n/a	n/a	n/a
195.582030	2	cue_nonsocial	n/a	32	7	n/a	n/a	n/a
195.582030	2	cue_nonsocial_high	n/a	32	5	n/a	n/a	n/a
203.267270	2	cue_social	n/a	32	5	n/a	n/a	n/a
203.267270	2	cue_social_high	n/a	32	7	n/a	n/a	n/a
210.093400	2	cue_social	n/a	16	-11	n/a	n/a	n/a
210.093400	2	cue_social_low	n/a	16	-9	n/a	n/a	n/a
216.938450	2	cue_social	n/a	32	5	n/a	n/a	n/a
216.938450	2	cue_social_high	n/a	32	7	n/a	n/a	n/a
223.715760	2	cue_nonsocial	n/a	32	7	n/a	n/a	n/a
223.715760	2	cue_nonsocial_high	n/a	32	5	n/a	n/a	n/a
231.402100	2	cue_social	n/a	32	5	n/a	n/a	n/a
231.402100	2	cue_social_high	n/a	32	7	n/a	n/a	n/a
238.198530	2	cue_nonsocial	n/a	32	7	n/a	n/a	n/a
238.198530	2	cue_nonsocial_high	n/a	32	5	n/a	n/a	n/a
245.848460	2	cue_nonsocial	n/a	32	7	n/a	n/a	n/a
245.848460	2	cue_nonsocial_high	n/a	32	5	n/a	n/a	n/a
253.540700	2	cue_social	n/a	32	5	n/a	n/a	n/a
253.540700	2	cue_social_high	n/a	32	7	n/a	n/a	n/a
261.181180	2	cue_social	n/a	32	5	n/a	n/a	n/a
261.181180	2	cue_social_high	n/a	32	7	n/a	n/a	n/a
270.398400	2	cue_nonsocial	n/a	16	-9	n/a	n/a	n/a
270.398400	2	cue_nonsocial_low	n/a	16	-11	n/a	n/a	n/a
277.232030	2	cue_nonsocial	n/a	16	-9	n/a	n/a	n/a
277.232030	2	cue_nonsocial_low	n/a	16	-11	n/a	n/a	n/a
284.916560	2	cue_social	n/a	16	-11	n/a	n/a	n/a
284.916560	2	cue_social_low	n/a	16	-9	n/a	n/a	n/a
291.747620	2	cue_social	n/a	32	5	n/a	n/a	n/a
291.747620	2	cue_social_high	n/a	32	7	n/a	n/a	n/a
302.660640	2	cue_social	n/a	32	5	n/a	n/a	n/a
302.660640	2	cue_social_high	n/a	32	7	n/a	n/a	n/a
310.231720	2	cue_nonsocial	n/a	16	-9	n/a	n/a	n/a
310.231720	2	cue_nonsocial_low	n/a	16	-11	n/a	n/a	n/a
317.065060	2	cue_nonsocial	n/a	32	7	n/a	n/a	n/a
317.065060	2	cue_nonsocial_high	n/a	32	5	n/a	n/a	n/a
326.316130	2	cue_nonsocial	n/a	16	-9	n/a	n/a	n/a
326.316130	2	cue_nonsocial_low	n/a	16	-11	n/a	n/a	n/a
333.190030	2	cue_social	n/a	32	5	n/a	n/a	n/a
333.190030	2	cue_social_high	n/a	32	7	n/a	n/a	n/a
340.798100	2	cue_nonsocial	n/a	16	-9	n/a	n/a	n/a
340.798100	2	cue_nonsocial_low	n/a	16	-11	n/a	n/a	n/a
347.631560	2	cue_nonsocial	n/a	32	7	n/a	n/a	n/a
347.631560	2	cue_nonsocial_high	n/a	32	5	n/a	n/a	n/a
358.498260	2	cue_nonsocial	n/a	32	7	n/a	n/a	n/a
358.498260	2	cue_nonsocial_high	n/a	32	5	n/a	n/a	n/a
371.048650	2	cue_social	n/a	16	-11	n/a	n/a	n/a
371.048650	2	cue_social_low	n/a	16	-9	n/a	n/a	n/a
6.521949	3.266199	dec_nonsocial_choice	3.266199	32.000000	n/a	0	0	-2.347074e-01
6.521949	3.266199	dec_choice	3.266199	32.000000	n/a	0	0	-2.330729e-01
6.521949	3.266199	dec_nonsocial_reject	3.266199	32.000000	n/a	0	0	3.125000e-02
6.521949	3.266199	dec_reject	3.266199	32.000000	n/a	0	0	0
6.521949	3.266199	dec_nonsocial_low	3.266199	32.000000	n/a	0	-2.330729e-01	-2.330729e-01
6.521949	3.266199	dec_nonsocial_reject_low	3.266199	32.000000	n/a	2	0	-6.250000e-02
13.355820	1.465618	dec_nonsocial_choice	1.465618	16.000000	n/a	8	2.652926e-01	2.652926e-01
13.355820	1.465618	dec_choice	1.465618	16.000000	n/a	8	2.669271e-01	2.669271e-01
13.355820	1.465618	dec_nonsocial_accept	1.465618	16.000000	n/a	8	2.615489e-01	2.615489e-01
13.355820	1.465618	dec_accept	1.465618	16.000000	n/a	8	2.595109e-01	2.595109e-01
13.355820	1.465618	dec_nonsocial_accept_high	1.465618	16.000000	n/a	8	2.635870e-01	2.635870e-01
21.005423	1.733226	dec_nonsocial_choice	1.733226	32.000000	n/a	2	-1.722074e-01	-1.722074e-01
21.005423	1.733226	dec_choice	1.733226	32.000000	n/a	2	-1.705729e-01	-1.705729e-01
21.005423	1.733226	dec_nonsocial_accept	1.733226	32.000000	n/a	2	-1.759511e-01	-1.759511e-01
21.005423	1.733226	dec_accept	1.733226	32.000000	n/a	2	-1.779891e-01	-1.779891e-01
21.005423	1.733226	dec_nonsocial_low	1.733226	32.000000	n/a	2	-1.705729e-01	-1.705729e-01
21.005423	1.733226	dec_nonsocial_accept_low	1.733226	32.000000	n/a	2	-1.779891e-01	-1.779891e-01
27.838886	1.699763	dec_social_choice	1.699763	32.000000	n/a	16	2.652926e-01	2.652926e-01
27.838886	1.699763	dec_choice	1.699763	32.000000	n/a	16	2.635870e-01	2.635870e-01
27.838886	1.699763	dec_social_accept	1.699763	32.000000	n/a	16	2.615489e-01	2.615489e-01
27.838886	1.699763	dec_accept	1.699763	32.000000	n/a	16	2.635870e-01	2.635870e-01
27.838886	1.699763	dec_social_high	1.699763	32.000000	n/a	16	2.635870e-01	2.635870e-01
27.838886	1.699763	dec_social_accept_high	1.699763	32.000000	n/a	16	2.635870e-01	2.635870e-01
34.672640	1.882631	dec_social_choice	1.882631	32.000000	n/a	3	-1.409574e-01	-1.409574e-01
34.672640	1.882631	dec_choice	1.882631	32.000000	n/a	3	-1.426630e-01	-1.426630e-01
34.672640	1.882631	dec_social_accept	1.882631	32.000000	n/a	3	-1.447011e-01	-1.447011e-01
34.672640	1.882631	dec_accept	1.882631	32.000000	n/a	3	-1.426630e-01	-1.426630e-01
34.672640	1.882631	dec_social_accept_low	1.882631	32.000000	n/a	3	-1.426630e-01	-1.426630e-01
42.321840	2.149787	dec_social_choice	2.149787	16.000000	n/a	1	-1.722074e-01	-1.722074e-01
42.321840	2.149787	dec_choice	2.149787	16.000000	n/a	1	-1.739130e-01	-1.739130e-01
42.321840	2.149787	dec_social_accept	2.149787	16.000000	n/a	1	-1.759511e-01	-1.759511e-01
42.321840	2.149787	dec_accept	2.149787	16.000000	n/a	1	-1.739130e-01	-1.739130e-01
42.321840	2.149787	dec_social_low	2.149787	16.000000	n/a	1	-1.739130e-01	-1.739130e-01
42.321840	2.149787	dec_social_accept_low	2.149787	16.000000	n/a	1	-1.739130e-01	-1.739130e-01
51.571854	2.250374	dec_social_choice	2.250374	32.000000	n/a	3	-1.409574e-01	-1.409574e-01
51.571854	2.250374	dec_choice	2.250374	32.000000	n/a	3	-1.426630e-01	-1.426630e-01
51.571854	2.250374	dec_social_accept	2.250374	32.000000	n/a	3	-1.447011e-01	-1.447011e-01
51.571854	2.250374	dec_accept	2.250374	32.000000	n/a	3	-1.426630e-01	-1.426630e-01
51.571854	2.250374	dec_social_accept_low	2.250374	32.000000	n/a	3	-1.426630e-01	-1.426630e-01
58.405950	1.615442	dec_nonsocial_choice	1.615442	32.000000	n/a	2	-1.722074e-01	-1.722074e-01
58.405950	1.615442	dec_choice	1.615442	32.000000	n/a	2	-1.705729e-01	-1.705729e-01
58.405950	1.615442	dec_nonsocial_accept	1.615442	32.000000	n/a	2	-1.759511e-01	-1.759511e-01
58.405950	1.615442	dec_accept	1.615442	32.000000	n/a	2	-1.779891e-01	-1.779891e-01
58.405950	1.615442	dec_nonsocial_low	1.615442	32.000000	n/a	2	-1.705729e-01	-1.705729e-01
58.405950	1.615442	dec_nonsocial_accept_low	1.615442	32.000000	n/a	2	-1.779891e-01	-1.779891e-01
66.054380	1.517239	dec_social_choice	1.517239	32.000000	n/a	16	2.652926e-01	2.652926e-01
66.054380	1.517239	dec_choice	1.517239	32.000000	n/a	16	2.635870e-01	2.635870e-01
66.054380	1.517239	dec_social_accept	1.517239	32.000000	n/a	16	2.615489e-01	2.615489e-01
66.054380	1.517239	dec_accept	1.517239	32.000000	n/a	16	2.635870e-01	2.635870e-01
66.054380	1.517239	dec_social_accept_high	1.517239	32.000000	n/a	16	2.635870e-01	2.635870e-01
72.887860	2.167219	dec_nonsocial_choice	2.167219	16.000000	n/a	1	-1.722074e-01	-1.722074e-01
72.887860	2.167219	dec_choice	2.167219	16.000000	n/a	1	-1.705729e-01	-1.705729e-01
72.887860	2.167219	dec_nonsocial_accept	2.167219	16.000000	n/a	1	-1.759511e-01	-1.759511e-01
72.887860	2.167219	dec_accept	2.167219	16.000000	n/a	1	-1.779891e-01	-1.779891e-01
72.887860	2.167219	dec_nonsocial_low	2.167219	16.000000	n/a	1	-1.705729e-01	-1.705729e-01
72.887860	2.167219	dec_nonsocial_accept_low	2.167219	16.000000	n/a	1	-1.779891e-01	-1.779891e-01
82.138115	2.266322	dec_nonsocial_choice	2.266322	32.000000	n/a	8	1.529255e-02	1.529255e-02
82.138115	2.266322	dec_choice	2.266322	32.000000	n/a	8	1.692708e-02	1.692708e-02
82.138115	2.266322	dec_nonsocial_accept	2.266322	32.000000	n/a	8	1.154891e-02	1.154891e-02
82.138115	2.266322	dec_accept	2.266322	32.000000	n/a	8	9.510870e-03	9.510870e-03
82.138115	2.266322	dec_nonsocial_high	2.266322	32.000000	n/a	8	1.692708e-02	1.692708e-02
82.138115	2.266322	dec_nonsocial_accept_high	2.266322	32.000000	n/a	8	9.510870e-03	9.510870e-03
89.788610	2.783138	dec_nonsocial_choice	2.783138	16.000000	n/a	1	-1.722074e-01	-1.722074e-01
89.788610	2.783138	dec_choice	2.783138	16.000000	n/a	1	-1.705729e-01	-1.705729e-01
89.788610	2.783138	dec_nonsocial_accept	2.783138	16.000000	n/a	1	-1.759511e-01	-1.759511e-01
89.788610	2.783138	dec_accept	2.783138	16.000000	n/a	1	-1.779891e-01	-1.779891e-01
89.788610	2.783138	dec_nonsocial_low	2.783138	16.000000	n/a	1	-1.705729e-01	-1.705729e-01
89.788610	2.783138	dec_nonsocial_accept_low	2.783138	16.000000	n/a	1	-1.779891e-01	-1.779891e-01
96.621960	2.266087	dec_social_choice	2.266087	32.000000	n/a	3	-1.409574e-01	-1.409574e-01
96.621960	2.266087	dec_choice	2.266087	32.000000	n/a	3	-1.426630e-01	-1.426630e-01
96.621960	2.266087	dec_social_accept	2.266087	32.000000	n/a	3	-1.447011e-01	-1.447011e-01
96.621960	2.266087	dec_accept	2.266087	32.000000	n/a	3	-1.426630e-01	-1.426630e-01
96.621960	2.266087	dec_social_accept_low	2.266087	32.000000	n/a	3	-1.426630e-01	-1.426630e-01
105.871796	2.382786	dec_nonsocial_choice	2.382786	32.000000	n/a	16	2.652926e-01	2.652926e-01
105.871796	2.382786	dec_choice	2.382786	32.000000	n/a	16	2.669271e-01	2.669271e-01
105.871796	2.382786	dec_nonsocial_accept	2.382786	32.000000	n/a	16	2.615489e-01	2.615489e-01
105.871796	2.382786	dec_accept	2.382786	32.000000	n/a	16	2.595109e-01	2.595109e-01
105.871796	2.382786	dec_nonsocial_high	2.382786	32.000000	n/a	16	2.669271e-01	2.669271e-01
105.871796	2.382786	dec_nonsocial_accept_high	2.382786	32.000000	n/a	16	2.595109e-01	2.595109e-01
115.120926	1.967134	dec_nonsocial_choice	1.967134	16.000000	n/a	2	-1.097074e-01	-1.097074e-01
115.120926	1.967134	dec_choice	1.967134	16.000000	n/a	2	-1.080729e-01	-1.080729e-01
115.120926	1.967134	dec_nonsocial_accept	1.967134	16.000000	n/a	2	-1.134511e-01	-1.134511e-01
115.120926	1.967134	dec_accept	1.967134	16.000000	n/a	2	-1.154891e-01	-1.154891e-01
115.120926	1.967134	dec_nonsocial_low	1.967134	16.000000	n/a	2	-1.080729e-01	-1.080729e-01
115.120926	1.967134	dec_nonsocial_accept_low	1.967134	16.000000	n/a	2	-1.154891e-01	-1.154891e-01
121.955696	1.732533	dec_social_choice	1.732533	32.000000	n/a	3	-1.409574e-01	-1.409574e-01
121.955696	1.732533	dec_choice	1.732533	32.000000	n/a	3	-1.426630e-01	-1.426630e-01
121.955696	1.732533	dec_social_accept	1.732533	32.000000	n/a	3	-1.447011e-01	-1.447011e-01
121.955696	1.732533	dec_accept	1.732533	32.000000	n/a	3	-1.426630e-01	-1.426630e-01
121.955696	1.732533	dec_social_accept_low	1.732533	32.000000	n/a	3	-1.426630e-01	-1.426630e-01
128.788070	1.850100	dec_nonsocial_choice	1.850100	32.000000	n/a	16	2.652926e-01	2.652926e-01
128.788070	1.850100	dec_choice	1.850100	32.000000	n/a	16	2.669271e-01	2.669271e-01
128.788070	1.850100	dec_nonsocial_accept	1.850100	32.000000	n/a	16	2.615489e-01	2.615489e-01
128.788070	1.850100	dec_accept	1.850100	32.000000	n/a	16	2.595109e-01	2.595109e-01
128.788070	1.850100	dec_nonsocial_high	1.850100	32.000000	n/a	16	2.669271e-01	2.669271e-01
128.788070	1.850100	dec_nonsocial_accept_high	1.850100	32.000000	n/a	16	2.595109e-01	2.595109e-01
135.621670	2.383264	dec_social_choice	2.383264	16.000000	n/a	4	1.529255e-02	1.529255e-02
135.621670	2.383264	dec_choice	2.383264	16.000000	n/a	4	1.358696e-02	1.358696e-02
135.621670	2.383264	dec_social_accept	2.383264	16.000000	n/a	4	1.154891e-02	1.154891e-02
135.621670	2.383264	dec_accept	2.383264	16.000000	n/a	4	1.358696e-02	1.358696e-02
135.621670	2.383264	dec_social_high	2.383264	16.000000	n/a	4	1.358696e-02	1.358696e-02
135.621670	2.383264	dec_social_accept_high	2.383264	16.000000	n/a	4	1.358696e-02	1.358696e-02
142.455200	1.665935	dec_nonsocial_choice	1.665935	32.000000	n/a	8	1.529255e-02	1.529255e-02
142.455200	1.665935	dec_choice	1.665935	32.000000	n/a	8	1.692708e-02	1.692708e-02
142.455200	1.665935	dec_nonsocial_accept	1.665935	32.000000	n/a	8	1.154891e-02	1.154891e-02
142.455200	1.665935	dec_accept	1.665935	32.000000	n/a	8	9.510870e-03	9.510870e-03
142.455200	1.665935	dec_nonsocial_accept_high	1.665935	32.000000	n/a	8	1.358696e-02	1.358696e-02
150.105770	2.015889	dec_social_choice	2.015889	32.000000	n/a	8	1.529255e-02	1.529255e-02
150.105770	2.015889	dec_choice	2.015889	32.000000	n/a	8	1.358696e-02	1.358696e-02
150.105770	2.015889	dec_social_accept	2.015889	32.000000	n/a	8	1.154891e-02	1.154891e-02
150.105770	2.015889	dec_accept	2.015889	32.000000	n/a	8	1.358696e-02	1.358696e-02
150.105770	2.015889	dec_social_high	2.015889	32.000000	n/a	8	1.358696e-02	1.358696e-02
150.105770	2.015889	dec_social_accept_high	2.015889	32.000000	n/a	8	1.358696e-02	1.358696e-02
156.937820	2.016565	dec_social_choice	2.016565	32.000000	n/a	16	2.652926e-01	2.652926e-01
156.937820	2.016565	dec_choice	2.016565	32.000000	n/a	16	2.635870e-01	2.635870e-01
156.937820	2.016565	dec_social_accept	2.016565	32.000000	n/a	16	2.615489e-01	2.615489e-01
156.937820	2.016565	dec_accept	2.016565	32.000000	n/a	16	2.635870e-01	2.635870e-01
156.937820	2.016565	dec_social_high	2.016565	32.000000	n/a	16	2.635870e-01	2.635870e-01
156.937820	2.016565	dec_social_accept_high	2.016565	32.000000	n/a	16	2.635870e-01	2.635870e-01
163.771880	1.865862	dec_social_choice	1.865862	32.000000	n/a	8	1.529255e-02	1.529255e-02
163.771880	1.865862	dec_choice	1.865862	32.000000	n/a	8	1.358696e-02	1.358696e-02
163.771880	1.865862	dec_social_accept	1.865862	32.000000	n/a	8	1.154891e-02	1.154891e-02
163.771880	1.865862	dec_accept	1.865862	32.000000	n/a	8	1.358696e-02	1.358696e-02
163.771880	1.865862	dec_social_accept_high	1.865862	32.000000	n/a	8	1.358696e-02	1.358696e-02
173.038850	1.565605	dec_social_choice	1.565605	16.000000	n/a	2	-1.097074e-01	-1.097074e-01
173.038850	1.565605	dec_choice	1.565605	16.000000	n/a	2	-1.114130e-01	-1.114130e-01
173.038850	1.565605	dec_social_accept	1.565605	16.000000	n/a	2	-1.134511e-01	-1.134511e-01
173.038850	1.565605	dec_accept	1.565605	16.000000	n/a	2	-1.114130e-01	-1.114130e-01
173.038850	1.565605	dec_social_low	1.565605	16.000000	n/a	2	-1.114130e-01	-1.114130e-01
173.038850	1.565605	dec_social_accept_low	1.565605	16.000000	n/a	2	-1.114130e-01	-1.114130e-01
183.904770	2.533310	dec_nonsocial_choice	2.533310	16.000000	n/a	2	-1.097074e-01	-1.097074e-01
183.904770	2.533310	dec_choice	2.533310	16.000000	n/a	2	-1.080729e-01	-1.080729e-01
183.904770	2.533310	dec_nonsocial_accept	2.533310	16.000000	n/a	2	-1.134511e-01	-1.134511e-01
183.904770	2.533310	dec_accept	2.533310	16.000000	n/a	2	-1.154891e-01	-1.154891e-01
183.904770	2.533310	dec_nonsocial_accept_low	2.533310	16.000000	n/a	2	-1.114130e-01	-1.114130e-01
190.738880	3.766946	missed_trial	3.766946	16.000000	n/a	n/a	n/a	n/a
197.587480	1.700815	dec_nonsocial_choice	1.700815	32.000000	n/a	8	1.529255e-02	1.529255e-02
197.587480	1.700815	dec_choice	1.700815	32.000000	n/a	8	1.692708e-02	1.692708e-02
197.587480	1.700815	dec_nonsocial_accept	1.700815	32.000000	n/a	8	1.154891e-02	1.154891e-02
197.587480	1.700815	dec_accept	1.700815	32.000000	n/a	8	9.510870e-03	9.510870e-03
197.587480	1.700815	dec_nonsocial_accept_high	1.700815	32.000000	n/a	8	1.358696e-02	1.358696e-02
205.221900	1.682854	dec_social_choice	1.682854	32.000000	n/a	2	-1.722074e-01	-1.722074e-01
205.221900	1.682854	dec_choice	1.682854	32.000000	n/a	2	-1.739130e-01	-1.739130e-01
205.221900	1.682854	dec_social_accept	1.682854	32.000000	n/a	2	-1.759511e-01	-1.759511e-01
205.221900	1.682854	dec_accept	1.682854	32.000000	n/a	2	-1.739130e-01	-1.739130e-01
205.221900	1.682854	dec_social_low	1.682854	32.000000	n/a	2	-1.739130e-01	-1.739130e-01
205.221900	1.682854	dec_social_accept_low	1.682854	32.000000	n/a	2	-1.739130e-01	-1.739130e-01
212.054780	2.316325	dec_social_choice	2.316325	16.000000	n/a	2	-1.097074e-01	-1.097074e-01
212.054780	2.316325	dec_choice	2.316325	16.000000	n/a	2	-1.114130e-01	-1.114130e-01
212.054780	2.316325	dec_social_accept	2.316325	16.000000	n/a	2	-1.134511e-01	-1.134511e-01
212.054780	2.316325	dec_accept	2.316325	16.000000	n/a	2	-1.114130e-01	-1.114130e-01
212.054780	2.316325	dec_social_accept_low	2.316325	16.000000	n/a	2	-1.114130e-01	-1.114130e-01
218.888660	2.349283	dec_social_choice	2.349283	32.000000	n/a	2	-1.722074e-01	-1.722074e-01
218.888660	2.349283	dec_choice	2.349283	32.000000	n/a	2	-1.739130e-01	-1.739130e-01
218.888660	2.349283	dec_social_accept	2.349283	32.000000	n/a	2	-1.759511e-01	-1.759511e-01
218.888660	2.349283	dec_accept	2.349283	32.000000	n/a	2	-1.739130e-01	-1.739130e-01
218.888660	2.349283	dec_social_accept_low	2.349283	32.000000	n/a	2	-1.739130e-01	-1.739130e-01
225.721950	1.432868	dec_nonsocial_choice	1.432868	32.000000	n/a	16	2.652926e-01	2.652926e-01
225.721950	1.432868	dec_choice	1.432868	32.000000	n/a	16	2.669271e-01	2.669271e-01
225.721950	1.432868	dec_nonsocial_accept	1.432868	32.000000	n/a	16	2.615489e-01	2.615489e-01
225.721950	1.432868	dec_accept	1.432868	32.000000	n/a	16	2.595109e-01	2.595109e-01
225.721950	1.432868	dec_nonsocial_accept_high	1.432868	32.000000	n/a	16	2.635870e-01	2.635870e-01
233.370820	1.883343	dec_social_choice	1.883343	32.000000	n/a	16	2.652926e-01	2.652926e-01
233.370820	1.883343	dec_choice	1.883343	32.000000	n/a	16	2.635870e-01	2.635870e-01
233.370820	1.883343	dec_social_accept	1.883343	32.000000	n/a	16	2.615489e-01	2.615489e-01
233.370820	1.883343	dec_accept	1.883343	32.000000	n/a	16	2.635870e-01	2.635870e-01
233.370820	1.883343	dec_social_high	1.883343	32.000000	n/a	16	2.635870e-01	2.635870e-01
233.370820	1.883343	dec_social_accept_high	1.883343	32.000000	n/a	16	2.635870e-01	2.635870e-01
240.204240	2.283916	dec_nonsocial_choice	2.283916	32.000000	n/a	16	2.652926e-01	2.652926e-01
240.204240	2.283916	dec_choice	2.283916	32.000000	n/a	16	2.669271e-01	2.669271e-01
240.204240	2.283916	dec_nonsocial_accept	2.283916	32.000000	n/a	16	2.615489e-01	2.615489e-01
240.204240	2.283916	dec_accept	2.283916	32.000000	n/a	16	2.595109e-01	2.595109e-01
240.204240	2.283916	dec_nonsocial_high	2.283916	32.000000	n/a	16	2.669271e-01	2.669271e-01
240.204240	2.283916	dec_nonsocial_accept_high	2.283916	32.000000	n/a	16	2.595109e-01	2.595109e-01
247.853820	2.317099	dec_nonsocial_choice	2.317099	32.000000	n/a	3	-1.409574e-01	-1.409574e-01
247.853820	2.317099	dec_choice	2.317099	32.000000	n/a	3	-1.393229e-01	-1.393229e-01
247.853820	2.317099	dec_nonsocial_accept	2.317099	32.000000	n/a	3	-1.447011e-01	-1.447011e-01
247.853820	2.317099	dec_accept	2.317099	32.000000	n/a	3	-1.467391e-01	-1.467391e-01
247.853820	2.317099	dec_nonsocial_low	2.317099	32.000000	n/a	3	-1.393229e-01	-1.393229e-01
247.853820	2.317099	dec_nonsocial_accept_low	2.317099	32.000000	n/a	3	-1.467391e-01	-1.467391e-01
255.503880	1.567093	dec_social_choice	1.567093	32.000000	n/a	16	2.652926e-01	2.652926e-01
255.503880	1.567093	dec_choice	1.567093	32.000000	n/a	16	2.635870e-01	2.635870e-01
255.503880	1.567093	dec_social_accept	1.567093	32.000000	n/a	16	2.615489e-01	2.615489e-01
255.503880	1.567093	dec_accept	1.567093	32.000000	n/a	16	2.635870e-01	2.635870e-01
255.503880	1.567093	dec_social_accept_high	1.567093	32.000000	n/a	16	2.635870e-01	2.635870e-01
263.153900	1.417605	dec_social_choice	1.417605	32.000000	n/a	8	1.529255e-02	1.529255e-02
263.153900	1.417605	dec_choice	1.417605	32.000000	n/a	8	1.358696e-02	1.358696e-02
263.153900	1.417605	dec_social_accept	1.417605	32.000000	n/a	8	1.154891e-02	1.154891e-02
263.153900	1.417605	dec_accept	1.417605	32.000000	n/a	8	1.358696e-02	1.358696e-02
263.153900	1.417605	dec_social_accept_high	1.417605	32.000000	n/a	8	1.358696e-02	1.358696e-02
272.404540	1.383526	dec_nonsocial_choice	1.383526	16.000000	n/a	4	1.529255e-02	1.529255e-02
272.404540	1.383526	dec_choice	1.383526	16.000000	n/a	4	1.692708e-02	1.692708e-02
272.404540	1.383526	dec_nonsocial_accept	1.383526	16.000000	n/a	4	1.154891e-02	1.154891e-02
272.404540	1.383526	dec_accept	1.383526	16.000000	n/a	4	9.510870e-03	9.510870e-03
272.404540	1.383526	dec_nonsocial_accept_high	1.383526	16.000000	n/a	4	1.358696e-02	1.358696e-02
279.238770	1.565419	dec_nonsocial_choice	1.565419	16.000000	n/a	2	-1.097074e-01	-1.097074e-01
279.238770	1.565419	dec_choice	1.565419	16.000000	n/a	2	-1.080729e-01	-1.080729e-01
279.238770	1.565419	dec_nonsocial_accept	1.565419	16.000000	n/a	2	-1.134511e-01	-1.134511e-01
279.238770	1.565419	dec_accept	1.565419	16.000000	n/a	2	-1.154891e-01	-1.154891e-01
279.238770	1.565419	dec_nonsocial_accept_low	1.565419	16.000000	n/a	2	-1.114130e-01	-1.114130e-01
286.886780	1.683882	dec_social_choice	1.683882	16.000000	n/a	4	1.529255e-02	1.529255e-02
286.886780	1.683882	dec_choice	1.683882	16.000000	n/a	4	1.358696e-02	1.358696e-02
286.886780	1.683882	dec_social_accept	1.683882	16.000000	n/a	4	1.154891e-02	1.154891e-02
286.886780	1.683882	dec_accept	1.683882	16.000000	n/a	4	1.358696e-02	1.358696e-02
286.886780	1.683882	dec_social_high	1.683882	16.000000	n/a	4	1.358696e-02	1.358696e-02
286.886780	1.683882	dec_social_accept_high	1.683882	16.000000	n/a	4	1.358696e-02	1.358696e-02
293.720800	2.100514	dec_social_choice	2.100514	32.000000	n/a	2	-1.722074e-01	-1.722074e-01
293.720800	2.100514	dec_choice	2.100514	32.000000	n/a	2	-1.739130e-01	-1.739130e-01
293.720800	2.100514	dec_social_accept	2.100514	32.000000	n/a	2	-1.759511e-01	-1.759511e-01
293.720800	2.100514	dec_accept	2.100514	32.000000	n/a	2	-1.739130e-01	-1.739130e-01
293.720800	2.100514	dec_social_low	2.100514	32.000000	n/a	2	-1.739130e-01	-1.739130e-01
293.720800	2.100514	dec_social_accept_low	2.100514	32.000000	n/a	2	-1.739130e-01	-1.739130e-01
304.587070	2.033558	dec_social_choice	2.033558	32.000000	n/a	2	-1.722074e-01	-1.722074e-01
304.587070	2.033558	dec_choice	2.033558	32.000000	n/a	2	-1.739130e-01	-1.739130e-01
304.587070	2.033558	dec_social_accept	2.033558	32.000000	n/a	2	-1.759511e-01	-1.759511e-01
304.587070	2.033558	dec_accept	2.033558	32.000000	n/a	2	-1.739130e-01	-1.739130e-01
304.587070	2.033558	dec_social_low	2.033558	32.000000	n/a	2	-1.739130e-01	-1.739130e-01
304.587070	2.033558	dec_social_accept_low	2.033558	32.000000	n/a	2	-1.739130e-01	-1.739130e-01
312.237850	1.933273	dec_nonsocial_choice	1.933273	16.000000	n/a	4	1.529255e-02	1.529255e-02
312.237850	1.933273	dec_choice	1.933273	16.000000	n/a	4	1.692708e-02	1.692708e-02
312.237850	1.933273	dec_nonsocial_accept	1.933273	16.000000	n/a	4	1.154891e-02	1.154891e-02
312.237850	1.933273	dec_accept	1.933273	16.000000	n/a	4	9.510870e-03	9.510870e-03
312.237850	1.933273	dec_nonsocial_accept_high	1.933273	16.000000	n/a	4	1.358696e-02	1.358696e-02
319.071780	1.599483	dec_nonsocial_choice	1.599483	32.000000	n/a	2	-1.722074e-01	-1.722074e-01
319.071780	1.599483	dec_choice	1.599483	32.000000	n/a	2	-1.705729e-01	-1.705729e-01
319.071780	1.599483	dec_nonsocial_accept	1.599483	32.000000	n/a	2	-1.759511e-01	-1.759511e-01
319.071780	1.599483	dec_accept	1.599483	32.000000	n/a	2	-1.779891e-01	-1.779891e-01
319.071780	1.599483	dec_nonsocial_accept_low	1.599483	32.000000	n/a	2	-1.739130e-01	-1.739130e-01
328.320770	1.800264	dec_nonsocial_choice	1.800264	16.000000	n/a	2	-1.097074e-01	-1.097074e-01
328.320770	1.800264	dec_choice	1.800264	16.000000	n/a	2	-1.080729e-01	-1.080729e-01
328.320770	1.800264	dec_nonsocial_accept	1.800264	16.000000	n/a	2	-1.134511e-01	-1.134511e-01
328.320770	1.800264	dec_accept	1.800264	16.000000	n/a	2	-1.154891e-01	-1.154891e-01
328.320770	1.800264	dec_nonsocial_accept_low	1.800264	16.000000	n/a	2	-1.114130e-01	-1.114130e-01
335.154880	2.032989	dec_social_choice	2.032989	32.000000	n/a	8	1.529255e-02	1.529255e-02
335.154880	2.032989	dec_choice	2.032989	32.000000	n/a	8	1.358696e-02	1.358696e-02
335.154880	2.032989	dec_social_accept	2.032989	32.000000	n/a	8	1.154891e-02	1.154891e-02
335.154880	2.032989	dec_accept	2.032989	32.000000	n/a	8	1.358696e-02	1.358696e-02
335.154880	2.032989	dec_social_high	2.032989	32.000000	n/a	8	1.358696e-02	1.358696e-02
335.154880	2.032989	dec_social_accept_high	2.032989	32.000000	n/a	8	1.358696e-02	1.358696e-02
342.804020	2.400383	dec_nonsocial_choice	2.400383	16.000000	n/a	2	-1.097074e-01	-1.097074e-01
342.804020	2.400383	dec_choice	2.400383	16.000000	n/a	2	-1.080729e-01	-1.080729e-01
342.804020	2.400383	dec_nonsocial_accept	2.400383	16.000000	n/a	2	-1.134511e-01	-1.134511e-01
342.804020	2.400383	dec_accept	2.400383	16.000000	n/a	2	-1.154891e-01	-1.154891e-01
342.804020	2.400383	dec_nonsocial_accept_low	2.400383	16.000000	n/a	2	-1.114130e-01	-1.114130e-01
349.638100	2.299842	dec_nonsocial_choice	2.299842	32.000000	n/a	16	2.652926e-01	2.652926e-01
349.638100	2.299842	dec_choice	2.299842	32.000000	n/a	16	2.669271e-01	2.669271e-01
349.638100	2.299842	dec_nonsocial_accept	2.299842	32.000000	n/a	16	2.615489e-01	2.615489e-01
349.638100	2.299842	dec_accept	2.299842	32.000000	n/a	16	2.595109e-01	2.595109e-01
349.638100	2.299842	dec_nonsocial_high	2.299842	32.000000	n/a	16	2.669271e-01	2.669271e-01
349.638100	2.299842	dec_nonsocial_accept_high	2.299842	32.000000	n/a	16	2.595109e-01	2.595109e-01
360.504400	2.333354	dec_nonsocial_choice	2.333354	32.000000	n/a	8	1.529255e-02	1.529255e-02
360.504400	2.333354	dec_choice	2.333354	32.000000	n/a	8	1.692708e-02	1.692708e-02
360.504400	2.333354	dec_nonsocial_accept	2.333354	32.000000	n/a	8	1.154891e-02	1.154891e-02
360.504400	2.333354	dec_accept	2.333354	32.000000	n/a	8	9.510870e-03	9.510870e-03
360.504400	2.333354	dec_nonsocial_accept_high	2.333354	32.000000	n/a	8	1.358696e-02	1.358696e-02
372.988770	1.715200	dec_social_choice	1.715200	16.000000	n/a	8	2.652926e-01	2.652926e-01
372.988770	1.715200	dec_choice	1.715200	16.000000	n/a	8	2.635870e-01	2.635870e-01
372.988770	1.715200	dec_social_accept	1.715200	16.000000	n/a	8	2.615489e-01	2.615489e-01
372.988770	1.715200	dec_accept	1.715200	16.000000	n/a	8	2.635870e-01	2.635870e-01
372.988770	1.715200	dec_social_high	1.715200	16.000000	n/a	8	2.635870e-01	2.635870e-01
372.988770	1.715200	dec_social_accept_high	1.715200	16.000000	n/a	8	2.635870e-01	2.635870e-01
