onset	duration	trial_type	response_time	Endowment	Endowment_pmod	Decision	Decision_pmod	Offer_pmod
4.509813	2	cue_nonsocial	n/a	16	-8	n/a	n/a	n/a
4.509813	2	cue_nonsocial_low	n/a	16	-10	n/a	n/a	n/a
11.416108	2	cue_social	n/a	32	6	n/a	n/a	n/a
11.416108	2	cue_social_high	n/a	32	8	n/a	n/a	n/a
20.610170	2	cue_nonsocial	n/a	32	8	n/a	n/a	n/a
20.610170	2	cue_nonsocial_high	n/a	32	6	n/a	n/a	n/a
27.536348	2	cue_social	n/a	16	-10	n/a	n/a	n/a
27.536348	2	cue_social_low	n/a	16	-8	n/a	n/a	n/a
34.277450	2	cue_nonsocial	n/a	16	-8	n/a	n/a	n/a
34.277450	2	cue_nonsocial_low	n/a	16	-10	n/a	n/a	n/a
43.526580	2	cue_nonsocial	n/a	32	8	n/a	n/a	n/a
43.526580	2	cue_nonsocial_high	n/a	32	6	n/a	n/a	n/a
51.292797	2	cue_social	n/a	16	-10	n/a	n/a	n/a
51.292797	2	cue_social_low	n/a	16	-8	n/a	n/a	n/a
58.010548	2	cue_nonsocial	n/a	16	-8	n/a	n/a	n/a
58.010548	2	cue_nonsocial_low	n/a	16	-10	n/a	n/a	n/a
68.876350	2	cue_nonsocial	n/a	32	8	n/a	n/a	n/a
68.876350	2	cue_nonsocial_high	n/a	32	6	n/a	n/a	n/a
76.561190	2	cue_social	n/a	16	-10	n/a	n/a	n/a
76.561190	2	cue_social_low	n/a	16	-8	n/a	n/a	n/a
83.448160	2	cue_social	n/a	32	6	n/a	n/a	n/a
83.448160	2	cue_social_high	n/a	32	8	n/a	n/a	n/a
90.193540	2	cue_nonsocial	n/a	16	-8	n/a	n/a	n/a
90.193540	2	cue_nonsocial_low	n/a	16	-10	n/a	n/a	n/a
101.138210	2	cue_social	n/a	16	-10	n/a	n/a	n/a
101.138210	2	cue_social_low	n/a	16	-8	n/a	n/a	n/a
108.765740	2	cue_social	n/a	16	-10	n/a	n/a	n/a
108.765740	2	cue_social_low	n/a	16	-8	n/a	n/a	n/a
115.626220	2	cue_social	n/a	16	-10	n/a	n/a	n/a
115.626220	2	cue_social_low	n/a	16	-8	n/a	n/a	n/a
124.870094	2	cue_social	n/a	16	-10	n/a	n/a	n/a
124.870094	2	cue_social_low	n/a	16	-8	n/a	n/a	n/a
131.695270	2	cue_social	n/a	32	6	n/a	n/a	n/a
131.695270	2	cue_social_high	n/a	32	8	n/a	n/a	n/a
142.493270	2	cue_nonsocial	n/a	16	-8	n/a	n/a	n/a
142.493270	2	cue_nonsocial_low	n/a	16	-10	n/a	n/a	n/a
150.142760	2	cue_nonsocial	n/a	16	-8	n/a	n/a	n/a
150.142760	2	cue_nonsocial_low	n/a	16	-10	n/a	n/a	n/a
156.976140	2	cue_nonsocial	n/a	16	-8	n/a	n/a	n/a
156.976140	2	cue_nonsocial_low	n/a	16	-10	n/a	n/a	n/a
164.683550	2	cue_social	n/a	32	6	n/a	n/a	n/a
164.683550	2	cue_social_high	n/a	32	8	n/a	n/a	n/a
172.277040	2	cue_nonsocial	n/a	32	8	n/a	n/a	n/a
172.277040	2	cue_nonsocial_high	n/a	32	6	n/a	n/a	n/a
179.195130	2	cue_social	n/a	32	6	n/a	n/a	n/a
179.195130	2	cue_social_high	n/a	32	8	n/a	n/a	n/a
186.760220	2	cue_nonsocial	n/a	32	8	n/a	n/a	n/a
186.760220	2	cue_nonsocial_high	n/a	32	6	n/a	n/a	n/a
194.474150	2	cue_social	n/a	32	6	n/a	n/a	n/a
194.474150	2	cue_social_high	n/a	32	8	n/a	n/a	n/a
202.135450	2	cue_social	n/a	32	6	n/a	n/a	n/a
202.135450	2	cue_social_high	n/a	32	8	n/a	n/a	n/a
208.893430	2	cue_nonsocial	n/a	32	8	n/a	n/a	n/a
208.893430	2	cue_nonsocial_high	n/a	32	6	n/a	n/a	n/a
215.791140	2	cue_social	n/a	32	6	n/a	n/a	n/a
215.791140	2	cue_social_high	n/a	32	8	n/a	n/a	n/a
228.209530	2	cue_nonsocial	n/a	16	-8	n/a	n/a	n/a
228.209530	2	cue_nonsocial_low	n/a	16	-10	n/a	n/a	n/a
235.148820	2	cue_social	n/a	32	6	n/a	n/a	n/a
235.148820	2	cue_social_high	n/a	32	8	n/a	n/a	n/a
241.875630	2	cue_nonsocial	n/a	32	8	n/a	n/a	n/a
241.875630	2	cue_nonsocial_high	n/a	32	6	n/a	n/a	n/a
251.142680	2	cue_nonsocial	n/a	16	-8	n/a	n/a	n/a
251.142680	2	cue_nonsocial_low	n/a	16	-10	n/a	n/a	n/a
257.981100	2	cue_nonsocial	n/a	32	8	n/a	n/a	n/a
257.981100	2	cue_nonsocial_high	n/a	32	6	n/a	n/a	n/a
265.706120	2	cue_social	n/a	32	6	n/a	n/a	n/a
265.706120	2	cue_social_high	n/a	32	8	n/a	n/a	n/a
274.952200	2	cue_social	n/a	32	6	n/a	n/a	n/a
274.952200	2	cue_social_high	n/a	32	8	n/a	n/a	n/a
284.126300	2	cue_nonsocial	n/a	16	-8	n/a	n/a	n/a
284.126300	2	cue_nonsocial_low	n/a	16	-10	n/a	n/a	n/a
291.029200	2	cue_social	n/a	32	6	n/a	n/a	n/a
291.029200	2	cue_social_high	n/a	32	8	n/a	n/a	n/a
297.793120	2	cue_nonsocial	n/a	16	-8	n/a	n/a	n/a
297.793120	2	cue_nonsocial_low	n/a	16	-10	n/a	n/a	n/a
304.626040	2	cue_nonsocial	n/a	16	-8	n/a	n/a	n/a
304.626040	2	cue_nonsocial_low	n/a	16	-10	n/a	n/a	n/a
311.524200	2	cue_social	n/a	32	6	n/a	n/a	n/a
311.524200	2	cue_social_high	n/a	32	8	n/a	n/a	n/a
319.200200	2	cue_social	n/a	16	-10	n/a	n/a	n/a
319.200200	2	cue_social_low	n/a	16	-8	n/a	n/a	n/a
326.033420	2	cue_social	n/a	32	6	n/a	n/a	n/a
326.033420	2	cue_social_high	n/a	32	8	n/a	n/a	n/a
332.775700	2	cue_nonsocial	n/a	32	8	n/a	n/a	n/a
332.775700	2	cue_nonsocial_high	n/a	32	6	n/a	n/a	n/a
340.512600	2	cue_social	n/a	16	-10	n/a	n/a	n/a
340.512600	2	cue_social_low	n/a	16	-8	n/a	n/a	n/a
349.756740	2	cue_social	n/a	32	6	n/a	n/a	n/a
349.756740	2	cue_social_high	n/a	32	8	n/a	n/a	n/a
356.525760	2	cue_nonsocial	n/a	32	8	n/a	n/a	n/a
356.525760	2	cue_nonsocial_high	n/a	32	6	n/a	n/a	n/a
363.358760	2	cue_nonsocial	n/a	32	8	n/a	n/a	n/a
363.358760	2	cue_nonsocial_high	n/a	32	6	n/a	n/a	n/a
370.192350	2	cue_nonsocial	n/a	32	8	n/a	n/a	n/a
370.192350	2	cue_nonsocial_high	n/a	32	6	n/a	n/a	n/a
6.516129	2.599742	dec_nonsocial_choice	2.599742	16.000000	n/a	2	-1.097074e-01	-1.097074e-01
6.516129	2.599742	dec_choice	2.599742	16.000000	n/a	2	-1.067708e-01	-1.067708e-01
6.516129	2.599742	dec_nonsocial_accept	2.599742	16.000000	n/a	2	-1.552083e-01	-1.552083e-01
6.516129	2.599742	dec_accept	2.599742	16.000000	n/a	2	-1.445312e-01	-1.445312e-01
6.516129	2.599742	dec_nonsocial_accept_low	2.599742	16.000000	n/a	2	-1.674107e-01	-1.674107e-01
13.349056	1.432718	dec_social_choice	1.432718	32.000000	n/a	0	0	-2.347074e-01
13.349056	1.432718	dec_choice	1.432718	32.000000	n/a	0	0	-2.377717e-01
13.349056	1.432718	dec_social_reject	1.432718	32.000000	n/a	0	0	-9.191176e-02
13.349056	1.432718	dec_reject	1.432718	32.000000	n/a	0	0	-9.027778e-02
13.349056	1.432718	dec_social_low	1.432718	32.000000	n/a	0	-2.377717e-01	-2.377717e-01
13.349056	1.432718	dec_social_reject_low	1.432718	32.000000	n/a	2	-1.752717e-01	-2.377717e-01
22.615265	1.033986	dec_nonsocial_choice	1.033986	32.000000	n/a	0	0	-2.347074e-01
22.615265	1.033986	dec_choice	1.033986	32.000000	n/a	0	0	-2.317708e-01
22.615265	1.033986	dec_nonsocial_reject	1.033986	32.000000	n/a	0	0	9.558824e-02
22.615265	1.033986	dec_reject	1.033986	32.000000	n/a	0	0	9.375000e-02
22.615265	1.033986	dec_nonsocial_reject_low	1.033986	32.000000	n/a	8	9.722222e-02	-1.527778e-01
29.449142	2.083198	dec_social_choice	2.083198	16.000000	n/a	0	0	-2.347074e-01
29.449142	2.083198	dec_choice	2.083198	16.000000	n/a	0	0	-2.377717e-01
29.449142	2.083198	dec_social_reject	2.083198	16.000000	n/a	0	0	-2.941176e-02
29.449142	2.083198	dec_reject	2.083198	16.000000	n/a	0	0	-2.777778e-02
29.449142	2.083198	dec_social_low	2.083198	16.000000	n/a	0	-2.377717e-01	-2.377717e-01
29.449142	2.083198	dec_social_reject_low	2.083198	16.000000	n/a	2	-1.127717e-01	-2.377717e-01
36.282097	1.766654	dec_nonsocial_choice	1.766654	16.000000	n/a	1	-1.722074e-01	-1.722074e-01
36.282097	1.766654	dec_choice	1.766654	16.000000	n/a	1	-1.692708e-01	-1.692708e-01
36.282097	1.766654	dec_nonsocial_accept	1.766654	16.000000	n/a	1	-2.177083e-01	-2.177083e-01
36.282097	1.766654	dec_accept	1.766654	16.000000	n/a	1	-2.070312e-01	-2.070312e-01
36.282097	1.766654	dec_nonsocial_low	1.766654	16.000000	n/a	1	-1.692708e-01	-1.692708e-01
36.282097	1.766654	dec_nonsocial_accept_low	1.766654	16.000000	n/a	1	-2.070312e-01	-2.070312e-01
45.532043	1.900185	dec_nonsocial_choice	1.900185	32.000000	n/a	16	2.652926e-01	2.652926e-01
45.532043	1.900185	dec_choice	1.900185	32.000000	n/a	16	2.682292e-01	2.682292e-01
45.532043	1.900185	dec_nonsocial_accept	1.900185	32.000000	n/a	16	2.197917e-01	2.197917e-01
45.532043	1.900185	dec_accept	1.900185	32.000000	n/a	16	2.304688e-01	2.304688e-01
45.532043	1.900185	dec_nonsocial_accept_high	1.900185	32.000000	n/a	16	2.075893e-01	2.075893e-01
53.182820	0.649512	dec_social_choice	0.649512	16.000000	n/a	2	-1.097074e-01	-1.097074e-01
53.182820	0.649512	dec_choice	0.649512	16.000000	n/a	2	-1.127717e-01	-1.127717e-01
53.182820	0.649512	dec_social_accept	0.649512	16.000000	n/a	2	-1.552083e-01	-1.552083e-01
53.182820	0.649512	dec_accept	0.649512	16.000000	n/a	2	-1.674107e-01	-1.674107e-01
53.182820	0.649512	dec_social_accept_low	0.649512	16.000000	n/a	2	-1.127717e-01	-1.127717e-01
60.015896	0.865991	dec_nonsocial_choice	0.865991	16.000000	n/a	4	1.529255e-02	1.529255e-02
60.015896	0.865991	dec_choice	0.865991	16.000000	n/a	4	1.822917e-02	1.822917e-02
60.015896	0.865991	dec_nonsocial_accept	0.865991	16.000000	n/a	4	-3.020833e-02	-3.020833e-02
60.015896	0.865991	dec_accept	0.865991	16.000000	n/a	4	-1.953125e-02	-1.953125e-02
60.015896	0.865991	dec_nonsocial_accept_high	0.865991	16.000000	n/a	4	-4.241071e-02	-4.241071e-02
70.883170	1.732706	dec_nonsocial_choice	1.732706	32.000000	n/a	2	-1.722074e-01	-1.722074e-01
70.883170	1.732706	dec_choice	1.732706	32.000000	n/a	2	-1.692708e-01	-1.692708e-01
70.883170	1.732706	dec_nonsocial_accept	1.732706	32.000000	n/a	2	-2.177083e-01	-2.177083e-01
70.883170	1.732706	dec_accept	1.732706	32.000000	n/a	2	-2.070312e-01	-2.070312e-01
70.883170	1.732706	dec_nonsocial_low	1.732706	32.000000	n/a	2	-1.692708e-01	-1.692708e-01
70.883170	1.732706	dec_nonsocial_accept_low	1.732706	32.000000	n/a	2	-2.070312e-01	-2.070312e-01
78.531710	1.033603	dec_social_choice	1.033603	16.000000	n/a	1	-1.722074e-01	-1.722074e-01
78.531710	1.033603	dec_choice	1.033603	16.000000	n/a	1	-1.752717e-01	-1.752717e-01
78.531710	1.033603	dec_social_accept	1.033603	16.000000	n/a	1	-2.177083e-01	-2.177083e-01
78.531710	1.033603	dec_accept	1.033603	16.000000	n/a	1	-2.299107e-01	-2.299107e-01
78.531710	1.033603	dec_social_low	1.033603	16.000000	n/a	1	-1.752717e-01	-1.752717e-01
78.531710	1.033603	dec_social_accept_low	1.033603	16.000000	n/a	1	-1.752717e-01	-1.752717e-01
85.366070	1.349875	dec_social_choice	1.349875	32.000000	n/a	0	0	-2.347074e-01
85.366070	1.349875	dec_choice	1.349875	32.000000	n/a	0	0	-2.377717e-01
85.366070	1.349875	dec_social_reject	1.349875	32.000000	n/a	0	0	-9.191176e-02
85.366070	1.349875	dec_reject	1.349875	32.000000	n/a	0	0	-9.027778e-02
85.366070	1.349875	dec_social_reject_low	1.349875	32.000000	n/a	2	-1.752717e-01	-2.377717e-01
92.199070	2.616165	dec_nonsocial_choice	2.616165	16.000000	n/a	8	2.652926e-01	2.652926e-01
92.199070	2.616165	dec_choice	2.616165	16.000000	n/a	8	2.682292e-01	2.682292e-01
92.199070	2.616165	dec_nonsocial_accept	2.616165	16.000000	n/a	8	2.197917e-01	2.197917e-01
92.199070	2.616165	dec_accept	2.616165	16.000000	n/a	8	2.304688e-01	2.304688e-01
92.199070	2.616165	dec_nonsocial_high	2.616165	16.000000	n/a	8	2.682292e-01	2.682292e-01
92.199070	2.616165	dec_nonsocial_accept_high	2.616165	16.000000	n/a	8	2.304688e-01	2.304688e-01
103.065040	3.766946	missed_trial	3.766946	16.000000	n/a	n/a	n/a	n/a
110.716064	1.633223	dec_social_choice	1.633223	16.000000	n/a	4	1.529255e-02	1.529255e-02
110.716064	1.633223	dec_choice	1.633223	16.000000	n/a	4	1.222826e-02	1.222826e-02
110.716064	1.633223	dec_social_accept	1.633223	16.000000	n/a	4	-3.020833e-02	-3.020833e-02
110.716064	1.633223	dec_accept	1.633223	16.000000	n/a	4	-4.241071e-02	-4.241071e-02
110.716064	1.633223	dec_social_accept_high	1.633223	16.000000	n/a	4	1.222826e-02	1.222826e-02
117.549030	1.633188	dec_social_choice	1.633188	16.000000	n/a	0	0	-2.347074e-01
117.549030	1.633188	dec_choice	1.633188	16.000000	n/a	0	0	-2.377717e-01
117.549030	1.633188	dec_social_reject	1.633188	16.000000	n/a	0	0	-9.191176e-02
117.549030	1.633188	dec_reject	1.633188	16.000000	n/a	0	0	-9.027778e-02
117.549030	1.633188	dec_social_reject_low	1.633188	16.000000	n/a	1	-1.752717e-01	-2.377717e-01
126.799614	1.499009	dec_social_choice	1.499009	16.000000	n/a	4	1.529255e-02	1.529255e-02
126.799614	1.499009	dec_choice	1.499009	16.000000	n/a	4	1.222826e-02	1.222826e-02
126.799614	1.499009	dec_social_accept	1.499009	16.000000	n/a	4	-3.020833e-02	-3.020833e-02
126.799614	1.499009	dec_accept	1.499009	16.000000	n/a	4	-4.241071e-02	-4.241071e-02
126.799614	1.499009	dec_social_high	1.499009	16.000000	n/a	4	1.222826e-02	1.222826e-02
126.799614	1.499009	dec_social_accept_high	1.499009	16.000000	n/a	4	1.222826e-02	1.222826e-02
133.632900	1.982867	dec_social_choice	1.982867	32.000000	n/a	3	-1.409574e-01	-1.409574e-01
133.632900	1.982867	dec_choice	1.982867	32.000000	n/a	3	-1.440217e-01	-1.440217e-01
133.632900	1.982867	dec_social_accept	1.982867	32.000000	n/a	3	-1.864583e-01	-1.864583e-01
133.632900	1.982867	dec_accept	1.982867	32.000000	n/a	3	-1.986607e-01	-1.986607e-01
133.632900	1.982867	dec_social_low	1.982867	32.000000	n/a	3	-1.440217e-01	-1.440217e-01
133.632900	1.982867	dec_social_accept_low	1.982867	32.000000	n/a	3	-1.440217e-01	-1.440217e-01
144.499760	1.432317	dec_nonsocial_choice	1.432317	16.000000	n/a	8	2.652926e-01	2.652926e-01
144.499760	1.432317	dec_choice	1.432317	16.000000	n/a	8	2.682292e-01	2.682292e-01
144.499760	1.432317	dec_nonsocial_accept	1.432317	16.000000	n/a	8	2.197917e-01	2.197917e-01
144.499760	1.432317	dec_accept	1.432317	16.000000	n/a	8	2.304688e-01	2.304688e-01
144.499760	1.432317	dec_nonsocial_accept_high	1.432317	16.000000	n/a	8	2.075893e-01	2.075893e-01
152.149000	1.766143	dec_nonsocial_choice	1.766143	16.000000	n/a	4	1.529255e-02	1.529255e-02
152.149000	1.766143	dec_choice	1.766143	16.000000	n/a	4	1.822917e-02	1.822917e-02
152.149000	1.766143	dec_nonsocial_accept	1.766143	16.000000	n/a	4	-3.020833e-02	-3.020833e-02
152.149000	1.766143	dec_accept	1.766143	16.000000	n/a	4	-1.953125e-02	-1.953125e-02
152.149000	1.766143	dec_nonsocial_high	1.766143	16.000000	n/a	4	1.822917e-02	1.822917e-02
152.149000	1.766143	dec_nonsocial_accept_high	1.766143	16.000000	n/a	4	-1.953125e-02	-1.953125e-02
158.982000	1.166489	dec_nonsocial_choice	1.166489	16.000000	n/a	2	-1.097074e-01	-1.097074e-01
158.982000	1.166489	dec_choice	1.166489	16.000000	n/a	2	-1.067708e-01	-1.067708e-01
158.982000	1.166489	dec_nonsocial_accept	1.166489	16.000000	n/a	2	-1.552083e-01	-1.552083e-01
158.982000	1.166489	dec_accept	1.166489	16.000000	n/a	2	-1.445312e-01	-1.445312e-01
158.982000	1.166489	dec_nonsocial_accept_low	1.166489	16.000000	n/a	2	-1.674107e-01	-1.674107e-01
166.632200	1.383310	dec_social_choice	1.383310	32.000000	n/a	2	-1.722074e-01	-1.722074e-01
166.632200	1.383310	dec_choice	1.383310	32.000000	n/a	2	-1.752717e-01	-1.752717e-01
166.632200	1.383310	dec_social_accept	1.383310	32.000000	n/a	2	-2.177083e-01	-2.177083e-01
166.632200	1.383310	dec_accept	1.383310	32.000000	n/a	2	-2.299107e-01	-2.299107e-01
166.632200	1.383310	dec_social_low	1.383310	32.000000	n/a	2	-1.752717e-01	-1.752717e-01
166.632200	1.383310	dec_social_accept_low	1.383310	32.000000	n/a	2	-1.752717e-01	-1.752717e-01
174.282030	1.666248	dec_nonsocial_choice	1.666248	32.000000	n/a	0	0	-2.347074e-01
174.282030	1.666248	dec_choice	1.666248	32.000000	n/a	0	0	-2.317708e-01
174.282030	1.666248	dec_nonsocial_reject	1.666248	32.000000	n/a	0	0	-9.191176e-02
174.282030	1.666248	dec_reject	1.666248	32.000000	n/a	0	0	-9.375000e-02
174.282030	1.666248	dec_nonsocial_reject_low	1.666248	32.000000	n/a	2	-9.027778e-02	-1.527778e-01
181.114290	1.567895	dec_social_choice	1.567895	32.000000	n/a	16	2.652926e-01	2.652926e-01
181.114290	1.567895	dec_choice	1.567895	32.000000	n/a	16	2.622283e-01	2.622283e-01
181.114290	1.567895	dec_social_accept	1.567895	32.000000	n/a	16	2.197917e-01	2.197917e-01
181.114290	1.567895	dec_accept	1.567895	32.000000	n/a	16	2.075893e-01	2.075893e-01
181.114290	1.567895	dec_social_accept_high	1.567895	32.000000	n/a	16	2.622283e-01	2.622283e-01
188.765560	1.316611	dec_nonsocial_choice	1.316611	32.000000	n/a	8	1.529255e-02	1.529255e-02
188.765560	1.316611	dec_choice	1.316611	32.000000	n/a	8	1.822917e-02	1.822917e-02
188.765560	1.316611	dec_nonsocial_accept	1.316611	32.000000	n/a	8	-3.020833e-02	-3.020833e-02
188.765560	1.316611	dec_accept	1.316611	32.000000	n/a	8	-1.953125e-02	-1.953125e-02
188.765560	1.316611	dec_nonsocial_accept_high	1.316611	32.000000	n/a	8	-4.241071e-02	-4.241071e-02
196.416000	0.999352	dec_social_choice	0.999352	32.000000	n/a	0	0	-2.347074e-01
196.416000	0.999352	dec_choice	0.999352	32.000000	n/a	0	0	-2.377717e-01
196.416000	0.999352	dec_social_reject	0.999352	32.000000	n/a	0	0	3.455882e-01
196.416000	0.999352	dec_reject	0.999352	32.000000	n/a	0	0	3.472222e-01
196.416000	0.999352	dec_social_reject_low	0.999352	32.000000	n/a	16	2.622283e-01	-2.377717e-01
204.065020	1.300089	dec_social_choice	1.300089	32.000000	n/a	8	1.529255e-02	1.529255e-02
204.065020	1.300089	dec_choice	1.300089	32.000000	n/a	8	1.222826e-02	1.222826e-02
204.065020	1.300089	dec_social_accept	1.300089	32.000000	n/a	8	-3.020833e-02	-3.020833e-02
204.065020	1.300089	dec_accept	1.300089	32.000000	n/a	8	-4.241071e-02	-4.241071e-02
204.065020	1.300089	dec_social_high	1.300089	32.000000	n/a	8	1.222826e-02	1.222826e-02
204.065020	1.300089	dec_social_accept_high	1.300089	32.000000	n/a	8	1.222826e-02	1.222826e-02
210.898880	0.999288	dec_nonsocial_choice	0.999288	32.000000	n/a	2	-1.722074e-01	-1.722074e-01
210.898880	0.999288	dec_choice	0.999288	32.000000	n/a	2	-1.692708e-01	-1.692708e-01
210.898880	0.999288	dec_nonsocial_accept	0.999288	32.000000	n/a	2	-2.177083e-01	-2.177083e-01
210.898880	0.999288	dec_accept	0.999288	32.000000	n/a	2	-2.070312e-01	-2.070312e-01
210.898880	0.999288	dec_nonsocial_accept_low	0.999288	32.000000	n/a	2	-2.299107e-01	-2.299107e-01
217.732040	1.483565	dec_social_choice	1.483565	32.000000	n/a	16	2.652926e-01	2.652926e-01
217.732040	1.483565	dec_choice	1.483565	32.000000	n/a	16	2.622283e-01	2.622283e-01
217.732040	1.483565	dec_social_accept	1.483565	32.000000	n/a	16	2.197917e-01	2.197917e-01
217.732040	1.483565	dec_accept	1.483565	32.000000	n/a	16	2.075893e-01	2.075893e-01
217.732040	1.483565	dec_social_accept_high	1.483565	32.000000	n/a	16	2.622283e-01	2.622283e-01
230.216030	1.332851	dec_nonsocial_choice	1.332851	16.000000	n/a	8	2.652926e-01	2.652926e-01
230.216030	1.332851	dec_choice	1.332851	16.000000	n/a	8	2.682292e-01	2.682292e-01
230.216030	1.332851	dec_nonsocial_accept	1.332851	16.000000	n/a	8	2.197917e-01	2.197917e-01
230.216030	1.332851	dec_accept	1.332851	16.000000	n/a	8	2.304688e-01	2.304688e-01
230.216030	1.332851	dec_nonsocial_accept_high	1.332851	16.000000	n/a	8	2.075893e-01	2.075893e-01
237.048020	1.100802	dec_social_choice	1.100802	32.000000	n/a	8	1.529255e-02	1.529255e-02
237.048020	1.100802	dec_choice	1.100802	32.000000	n/a	8	1.222826e-02	1.222826e-02
237.048020	1.100802	dec_social_accept	1.100802	32.000000	n/a	8	-3.020833e-02	-3.020833e-02
237.048020	1.100802	dec_accept	1.100802	32.000000	n/a	8	-4.241071e-02	-4.241071e-02
237.048020	1.100802	dec_social_accept_high	1.100802	32.000000	n/a	8	1.222826e-02	1.222826e-02
243.882770	1.365364	dec_nonsocial_choice	1.365364	32.000000	n/a	0	0	-2.347074e-01
243.882770	1.365364	dec_choice	1.365364	32.000000	n/a	0	0	-2.317708e-01
243.882770	1.365364	dec_nonsocial_reject	1.365364	32.000000	n/a	0	0	-9.191176e-02
243.882770	1.365364	dec_reject	1.365364	32.000000	n/a	0	0	-9.375000e-02
243.882770	1.365364	dec_nonsocial_low	1.365364	32.000000	n/a	0	-2.317708e-01	-2.317708e-01
243.882770	1.365364	dec_nonsocial_reject_low	1.365364	32.000000	n/a	2	-9.375000e-02	-1.562500e-01
253.148010	1.184050	dec_nonsocial_choice	1.184050	16.000000	n/a	2	-1.097074e-01	-1.097074e-01
253.148010	1.184050	dec_choice	1.184050	16.000000	n/a	2	-1.067708e-01	-1.067708e-01
253.148010	1.184050	dec_nonsocial_accept	1.184050	16.000000	n/a	2	-1.552083e-01	-1.552083e-01
253.148010	1.184050	dec_accept	1.184050	16.000000	n/a	2	-1.445312e-01	-1.445312e-01
253.148010	1.184050	dec_nonsocial_low	1.184050	16.000000	n/a	2	-1.067708e-01	-1.067708e-01
253.148010	1.184050	dec_nonsocial_accept_low	1.184050	16.000000	n/a	2	-1.445312e-01	-1.445312e-01
259.982450	1.382970	dec_nonsocial_choice	1.382970	32.000000	n/a	8	1.529255e-02	1.529255e-02
259.982450	1.382970	dec_choice	1.382970	32.000000	n/a	8	1.822917e-02	1.822917e-02
259.982450	1.382970	dec_nonsocial_accept	1.382970	32.000000	n/a	8	-3.020833e-02	-3.020833e-02
259.982450	1.382970	dec_accept	1.382970	32.000000	n/a	8	-1.953125e-02	-1.953125e-02
259.982450	1.382970	dec_nonsocial_high	1.382970	32.000000	n/a	8	1.822917e-02	1.822917e-02
259.982450	1.382970	dec_nonsocial_accept_high	1.382970	32.000000	n/a	8	-1.953125e-02	-1.953125e-02
267.630950	1.550865	dec_social_choice	1.550865	32.000000	n/a	16	2.652926e-01	2.652926e-01
267.630950	1.550865	dec_choice	1.550865	32.000000	n/a	16	2.622283e-01	2.622283e-01
267.630950	1.550865	dec_social_accept	1.550865	32.000000	n/a	16	2.197917e-01	2.197917e-01
267.630950	1.550865	dec_accept	1.550865	32.000000	n/a	16	2.075893e-01	2.075893e-01
267.630950	1.550865	dec_social_high	1.550865	32.000000	n/a	16	2.622283e-01	2.622283e-01
267.630950	1.550865	dec_social_accept_high	1.550865	32.000000	n/a	16	2.622283e-01	2.622283e-01
276.881300	1.217250	dec_social_choice	1.217250	32.000000	n/a	16	2.652926e-01	2.652926e-01
276.881300	1.217250	dec_choice	1.217250	32.000000	n/a	16	2.622283e-01	2.622283e-01
276.881300	1.217250	dec_social_accept	1.217250	32.000000	n/a	16	2.197917e-01	2.197917e-01
276.881300	1.217250	dec_accept	1.217250	32.000000	n/a	16	2.075893e-01	2.075893e-01
276.881300	1.217250	dec_social_high	1.217250	32.000000	n/a	16	2.622283e-01	2.622283e-01
276.881300	1.217250	dec_social_accept_high	1.217250	32.000000	n/a	16	2.622283e-01	2.622283e-01
286.132000	1.516615	dec_nonsocial_choice	1.516615	16.000000	n/a	8	2.652926e-01	2.652926e-01
286.132000	1.516615	dec_choice	1.516615	16.000000	n/a	8	2.682292e-01	2.682292e-01
286.132000	1.516615	dec_nonsocial_accept	1.516615	16.000000	n/a	8	2.197917e-01	2.197917e-01
286.132000	1.516615	dec_accept	1.516615	16.000000	n/a	8	2.304688e-01	2.304688e-01
286.132000	1.516615	dec_nonsocial_accept_high	1.516615	16.000000	n/a	8	2.075893e-01	2.075893e-01
292.965270	1.365856	dec_social_choice	1.365856	32.000000	n/a	0	0	-2.347074e-01
292.965270	1.365856	dec_choice	1.365856	32.000000	n/a	0	0	-2.377717e-01
292.965270	1.365856	dec_social_reject	1.365856	32.000000	n/a	0	0	-9.191176e-02
292.965270	1.365856	dec_reject	1.365856	32.000000	n/a	0	0	-9.027778e-02
292.965270	1.365856	dec_social_reject_low	1.365856	32.000000	n/a	2	-1.752717e-01	-2.377717e-01
299.798400	1.133558	dec_nonsocial_choice	1.133558	16.000000	n/a	0	0	-2.347074e-01
299.798400	1.133558	dec_choice	1.133558	16.000000	n/a	0	0	-2.317708e-01
299.798400	1.133558	dec_nonsocial_reject	1.133558	16.000000	n/a	0	0	-2.941176e-02
299.798400	1.133558	dec_reject	1.133558	16.000000	n/a	0	0	-3.125000e-02
299.798400	1.133558	dec_nonsocial_reject_low	1.133558	16.000000	n/a	2	-2.777778e-02	-1.527778e-01
306.632630	2.131839	dec_nonsocial_choice	2.131839	16.000000	n/a	4	1.529255e-02	1.529255e-02
306.632630	2.131839	dec_choice	2.131839	16.000000	n/a	4	1.822917e-02	1.822917e-02
306.632630	2.131839	dec_nonsocial_accept	2.131839	16.000000	n/a	4	-3.020833e-02	-3.020833e-02
306.632630	2.131839	dec_accept	2.131839	16.000000	n/a	4	-1.953125e-02	-1.953125e-02
306.632630	2.131839	dec_nonsocial_high	2.131839	16.000000	n/a	4	1.822917e-02	1.822917e-02
306.632630	2.131839	dec_nonsocial_accept_high	2.131839	16.000000	n/a	4	-1.953125e-02	-1.953125e-02
313.465000	1.199912	dec_social_choice	1.199912	32.000000	n/a	16	2.652926e-01	2.652926e-01
313.465000	1.199912	dec_choice	1.199912	32.000000	n/a	16	2.622283e-01	2.622283e-01
313.465000	1.199912	dec_social_accept	1.199912	32.000000	n/a	16	2.197917e-01	2.197917e-01
313.465000	1.199912	dec_accept	1.199912	32.000000	n/a	16	2.075893e-01	2.075893e-01
313.465000	1.199912	dec_social_high	1.199912	32.000000	n/a	16	2.622283e-01	2.622283e-01
313.465000	1.199912	dec_social_accept_high	1.199912	32.000000	n/a	16	2.622283e-01	2.622283e-01
321.115000	1.766406	dec_social_choice	1.766406	16.000000	n/a	0	0	-2.347074e-01
321.115000	1.766406	dec_choice	1.766406	16.000000	n/a	0	0	-2.377717e-01
321.115000	1.766406	dec_social_reject	1.766406	16.000000	n/a	0	0	-2.941176e-02
321.115000	1.766406	dec_reject	1.766406	16.000000	n/a	0	0	-2.777778e-02
321.115000	1.766406	dec_social_low	1.766406	16.000000	n/a	0	-2.377717e-01	-2.377717e-01
321.115000	1.766406	dec_social_reject_low	1.766406	16.000000	n/a	2	-1.127717e-01	-2.377717e-01
327.948000	1.450578	dec_social_choice	1.450578	32.000000	n/a	8	1.529255e-02	1.529255e-02
327.948000	1.450578	dec_choice	1.450578	32.000000	n/a	8	1.222826e-02	1.222826e-02
327.948000	1.450578	dec_social_accept	1.450578	32.000000	n/a	8	-3.020833e-02	-3.020833e-02
327.948000	1.450578	dec_accept	1.450578	32.000000	n/a	8	-4.241071e-02	-4.241071e-02
327.948000	1.450578	dec_social_accept_high	1.450578	32.000000	n/a	8	1.222826e-02	1.222826e-02
334.781770	1.466049	dec_nonsocial_choice	1.466049	32.000000	n/a	0	0	-2.347074e-01
334.781770	1.466049	dec_choice	1.466049	32.000000	n/a	0	0	-2.317708e-01
334.781770	1.466049	dec_nonsocial_reject	1.466049	32.000000	n/a	0	0	-9.191176e-02
334.781770	1.466049	dec_reject	1.466049	32.000000	n/a	0	0	-9.375000e-02
334.781770	1.466049	dec_nonsocial_low	1.466049	32.000000	n/a	0	-2.317708e-01	-2.317708e-01
334.781770	1.466049	dec_nonsocial_reject_low	1.466049	32.000000	n/a	2	-9.375000e-02	-1.562500e-01
342.430940	1.900987	dec_social_choice	1.900987	16.000000	n/a	0	0	-2.347074e-01
342.430940	1.900987	dec_choice	1.900987	16.000000	n/a	0	0	-2.377717e-01
342.430940	1.900987	dec_social_reject	1.900987	16.000000	n/a	0	0	-2.941176e-02
342.430940	1.900987	dec_reject	1.900987	16.000000	n/a	0	0	-2.777778e-02
342.430940	1.900987	dec_social_reject_low	1.900987	16.000000	n/a	2	-1.127717e-01	-2.377717e-01
351.699000	1.332963	dec_social_choice	1.332963	32.000000	n/a	0	0	-2.347074e-01
351.699000	1.332963	dec_choice	1.332963	32.000000	n/a	0	0	-2.377717e-01
351.699000	1.332963	dec_social_reject	1.332963	32.000000	n/a	0	0	9.558824e-02
351.699000	1.332963	dec_reject	1.332963	32.000000	n/a	0	0	9.722222e-02
351.699000	1.332963	dec_social_low	1.332963	32.000000	n/a	0	-2.377717e-01	-2.377717e-01
351.699000	1.332963	dec_social_reject_low	1.332963	32.000000	n/a	8	1.222826e-02	-2.377717e-01
358.531830	1.066077	dec_nonsocial_choice	1.066077	32.000000	n/a	0	0	-2.347074e-01
358.531830	1.066077	dec_choice	1.066077	32.000000	n/a	0	0	-2.317708e-01
358.531830	1.066077	dec_nonsocial_reject	1.066077	32.000000	n/a	0	0	3.455882e-01
358.531830	1.066077	dec_reject	1.066077	32.000000	n/a	0	0	3.437500e-01
358.531830	1.066077	dec_nonsocial_reject_low	1.066077	32.000000	n/a	16	3.472222e-01	-1.527778e-01
365.365080	1.650192	dec_nonsocial_choice	1.650192	32.000000	n/a	0	0	-2.347074e-01
365.365080	1.650192	dec_choice	1.650192	32.000000	n/a	0	0	-2.317708e-01
365.365080	1.650192	dec_nonsocial_reject	1.650192	32.000000	n/a	0	0	-6.066176e-02
365.365080	1.650192	dec_reject	1.650192	32.000000	n/a	0	0	-6.250000e-02
365.365080	1.650192	dec_nonsocial_reject_low	1.650192	32.000000	n/a	3	-5.902778e-02	-1.527778e-01
372.199070	1.299030	dec_nonsocial_choice	1.299030	32.000000	n/a	0	0	-2.347074e-01
372.199070	1.299030	dec_choice	1.299030	32.000000	n/a	0	0	-2.317708e-01
372.199070	1.299030	dec_nonsocial_reject	1.299030	32.000000	n/a	0	0	-6.066176e-02
372.199070	1.299030	dec_reject	1.299030	32.000000	n/a	0	0	-6.250000e-02
372.199070	1.299030	dec_nonsocial_reject_low	1.299030	32.000000	n/a	3	-5.902778e-02	-1.527778e-01
