onset	duration	trial_type	response_time	Endowment	Endowment_pmod	Decision	Decision_pmod	Offer_pmod
4.519616	2	cue_nonsocial	n/a	32	7	n/a	n/a	n/a
4.519616	2	cue_nonsocial_high	n/a	32	7	n/a	n/a	n/a
15.491688	2	cue_social	n/a	16	-9	n/a	n/a	n/a
15.491688	2	cue_social_low	n/a	16	-9	n/a	n/a	n/a
24.653680	2	cue_nonsocial	n/a	32	7	n/a	n/a	n/a
24.653680	2	cue_nonsocial_high	n/a	32	7	n/a	n/a	n/a
37.140514	2	cue_social	n/a	32	7	n/a	n/a	n/a
37.140514	2	cue_social_high	n/a	32	7	n/a	n/a	n/a
46.386190	2	cue_nonsocial	n/a	32	7	n/a	n/a	n/a
46.386190	2	cue_nonsocial_high	n/a	32	7	n/a	n/a	n/a
57.270172	2	cue_nonsocial	n/a	16	-9	n/a	n/a	n/a
57.270172	2	cue_nonsocial_low	n/a	16	-9	n/a	n/a	n/a
64.212870	2	cue_social	n/a	32	7	n/a	n/a	n/a
64.212870	2	cue_social_high	n/a	32	7	n/a	n/a	n/a
70.935900	2	cue_social	n/a	32	7	n/a	n/a	n/a
70.935900	2	cue_social_high	n/a	32	7	n/a	n/a	n/a
77.770070	2	cue_nonsocial	n/a	32	7	n/a	n/a	n/a
77.770070	2	cue_nonsocial_high	n/a	32	7	n/a	n/a	n/a
84.607285	2	cue_nonsocial	n/a	32	7	n/a	n/a	n/a
84.607285	2	cue_nonsocial_high	n/a	32	7	n/a	n/a	n/a
92.350174	2	cue_social	n/a	32	7	n/a	n/a	n/a
92.350174	2	cue_social_high	n/a	32	7	n/a	n/a	n/a
99.086890	2	cue_nonsocial	n/a	16	-9	n/a	n/a	n/a
99.086890	2	cue_nonsocial_low	n/a	16	-9	n/a	n/a	n/a
105.948040	2	cue_social	n/a	16	-9	n/a	n/a	n/a
105.948040	2	cue_social_low	n/a	16	-9	n/a	n/a	n/a
112.888590	2	cue_social	n/a	16	-9	n/a	n/a	n/a
112.888590	2	cue_social_low	n/a	16	-9	n/a	n/a	n/a
120.542860	2	cue_social	n/a	32	7	n/a	n/a	n/a
120.542860	2	cue_social_high	n/a	32	7	n/a	n/a	n/a
129.703230	2	cue_nonsocial	n/a	32	7	n/a	n/a	n/a
129.703230	2	cue_nonsocial_high	n/a	32	7	n/a	n/a	n/a
137.457670	2	cue_social	n/a	32	7	n/a	n/a	n/a
137.457670	2	cue_social_high	n/a	32	7	n/a	n/a	n/a
144.186100	2	cue_nonsocial	n/a	16	-9	n/a	n/a	n/a
144.186100	2	cue_nonsocial_low	n/a	16	-9	n/a	n/a	n/a
151.836470	2	cue_nonsocial	n/a	32	7	n/a	n/a	n/a
151.836470	2	cue_nonsocial_high	n/a	32	7	n/a	n/a	n/a
158.778380	2	cue_social	n/a	16	-9	n/a	n/a	n/a
158.778380	2	cue_social_low	n/a	16	-9	n/a	n/a	n/a
166.372300	2	cue_social	n/a	32	7	n/a	n/a	n/a
166.372300	2	cue_social_high	n/a	32	7	n/a	n/a	n/a
173.259980	2	cue_social	n/a	32	7	n/a	n/a	n/a
173.259980	2	cue_social_high	n/a	32	7	n/a	n/a	n/a
180.064830	2	cue_social	n/a	32	7	n/a	n/a	n/a
180.064830	2	cue_social_high	n/a	32	7	n/a	n/a	n/a
189.236480	2	cue_nonsocial	n/a	32	7	n/a	n/a	n/a
189.236480	2	cue_nonsocial_high	n/a	32	7	n/a	n/a	n/a
196.886060	2	cue_nonsocial	n/a	16	-9	n/a	n/a	n/a
196.886060	2	cue_nonsocial_low	n/a	16	-9	n/a	n/a	n/a
203.719240	2	cue_nonsocial	n/a	16	-9	n/a	n/a	n/a
203.719240	2	cue_nonsocial_low	n/a	16	-9	n/a	n/a	n/a
212.969400	2	cue_nonsocial	n/a	32	7	n/a	n/a	n/a
212.969400	2	cue_nonsocial_high	n/a	32	7	n/a	n/a	n/a
220.720500	2	cue_social	n/a	32	7	n/a	n/a	n/a
220.720500	2	cue_social_high	n/a	32	7	n/a	n/a	n/a
227.452650	2	cue_nonsocial	n/a	16	-9	n/a	n/a	n/a
227.452650	2	cue_nonsocial_low	n/a	16	-9	n/a	n/a	n/a
234.376450	2	cue_social	n/a	16	-9	n/a	n/a	n/a
234.376450	2	cue_social_low	n/a	16	-9	n/a	n/a	n/a
241.119720	2	cue_nonsocial	n/a	32	7	n/a	n/a	n/a
241.119720	2	cue_nonsocial_high	n/a	32	7	n/a	n/a	n/a
248.769290	2	cue_nonsocial	n/a	32	7	n/a	n/a	n/a
248.769290	2	cue_nonsocial_high	n/a	32	7	n/a	n/a	n/a
255.683460	2	cue_social	n/a	16	-9	n/a	n/a	n/a
255.683460	2	cue_social_low	n/a	16	-9	n/a	n/a	n/a
262.435600	2	cue_nonsocial	n/a	16	-9	n/a	n/a	n/a
262.435600	2	cue_nonsocial_low	n/a	16	-9	n/a	n/a	n/a
269.269260	2	cue_nonsocial	n/a	16	-9	n/a	n/a	n/a
269.269260	2	cue_nonsocial_low	n/a	16	-9	n/a	n/a	n/a
280.136380	2	cue_nonsocial	n/a	32	7	n/a	n/a	n/a
280.136380	2	cue_nonsocial_high	n/a	32	7	n/a	n/a	n/a
289.402920	2	cue_nonsocial	n/a	16	-9	n/a	n/a	n/a
289.402920	2	cue_nonsocial_low	n/a	16	-9	n/a	n/a	n/a
297.110840	2	cue_social	n/a	32	7	n/a	n/a	n/a
297.110840	2	cue_social_high	n/a	32	7	n/a	n/a	n/a
303.886230	2	cue_nonsocial	n/a	32	7	n/a	n/a	n/a
303.886230	2	cue_nonsocial_high	n/a	32	7	n/a	n/a	n/a
310.804230	2	cue_social	n/a	32	7	n/a	n/a	n/a
310.804230	2	cue_social_high	n/a	32	7	n/a	n/a	n/a
318.411320	2	cue_social	n/a	32	7	n/a	n/a	n/a
318.411320	2	cue_social_high	n/a	32	7	n/a	n/a	n/a
325.186370	2	cue_nonsocial	n/a	16	-9	n/a	n/a	n/a
325.186370	2	cue_nonsocial_low	n/a	16	-9	n/a	n/a	n/a
332.129670	2	cue_social	n/a	16	-9	n/a	n/a	n/a
332.129670	2	cue_social_low	n/a	16	-9	n/a	n/a	n/a
341.393860	2	cue_social	n/a	16	-9	n/a	n/a	n/a
341.393860	2	cue_social_low	n/a	16	-9	n/a	n/a	n/a
348.995970	2	cue_social	n/a	16	-9	n/a	n/a	n/a
348.995970	2	cue_social_low	n/a	16	-9	n/a	n/a	n/a
356.654800	2	cue_social	n/a	16	-9	n/a	n/a	n/a
356.654800	2	cue_social_low	n/a	16	-9	n/a	n/a	n/a
364.310460	2	cue_social	n/a	16	-9	n/a	n/a	n/a
364.310460	2	cue_social_low	n/a	16	-9	n/a	n/a	n/a
371.069850	2	cue_nonsocial	n/a	32	7	n/a	n/a	n/a
371.069850	2	cue_nonsocial_high	n/a	32	7	n/a	n/a	n/a
6.527036	2.782064	dec_nonsocial_choice	2.782064	32.000000	n/a	3	-1.360677e-01	-1.360677e-01
6.527036	2.782064	dec_choice	2.782064	32.000000	n/a	3	-1.367188e-01	-1.367188e-01
6.527036	2.782064	dec_nonsocial_accept	2.782064	32.000000	n/a	3	-1.584052e-01	-1.584052e-01
6.527036	2.782064	dec_accept	2.782064	32.000000	n/a	3	-1.395833e-01	-1.395833e-01
6.527036	2.782064	dec_nonsocial_low	2.782064	32.000000	n/a	3	-1.367188e-01	-1.367188e-01
6.527036	2.782064	dec_nonsocial_accept_low	2.782064	32.000000	n/a	3	-1.395833e-01	-1.395833e-01
17.393015	1.315471	dec_social_choice	1.315471	16.000000	n/a	0	0	-2.298177e-01
17.393015	1.315471	dec_choice	1.315471	16.000000	n/a	0	0	-2.291667e-01
17.393015	1.315471	dec_social_reject	1.315471	16.000000	n/a	0	0	3.042763e-01
17.393015	1.315471	dec_reject	1.315471	16.000000	n/a	0	0	3.312500e-01
17.393015	1.315471	dec_social_low	1.315471	16.000000	n/a	0	-2.291667e-01	-2.291667e-01
17.393015	1.315471	dec_social_reject_low	1.315471	16.000000	n/a	8	2.708333e-01	-2.291667e-01
26.660002	2.182405	dec_nonsocial_choice	2.182405	32.000000	n/a	2	-1.673177e-01	-1.673177e-01
26.660002	2.182405	dec_choice	2.182405	32.000000	n/a	2	-1.679688e-01	-1.679688e-01
26.660002	2.182405	dec_nonsocial_accept	2.182405	32.000000	n/a	2	-1.896552e-01	-1.896552e-01
26.660002	2.182405	dec_accept	2.182405	32.000000	n/a	2	-1.708333e-01	-1.708333e-01
26.660002	2.182405	dec_nonsocial_accept_low	2.182405	32.000000	n/a	2	-2.098214e-01	-2.098214e-01
39.143090	0.515973	dec_social_choice	0.515973	32.000000	n/a	0	0	-2.298177e-01
39.143090	0.515973	dec_choice	0.515973	32.000000	n/a	0	0	-2.291667e-01
39.143090	0.515973	dec_social_reject	0.515973	32.000000	n/a	0	0	5.427632e-02
39.143090	0.515973	dec_reject	0.515973	32.000000	n/a	0	0	8.125000e-02
39.143090	0.515973	dec_social_reject_low	0.515973	32.000000	n/a	8	2.083333e-02	-2.291667e-01
48.393055	0.665376	dec_nonsocial_choice	0.665376	32.000000	n/a	0	0	-2.298177e-01
48.393055	0.665376	dec_choice	0.665376	32.000000	n/a	0	0	-2.304688e-01
48.393055	0.665376	dec_nonsocial_reject	0.665376	32.000000	n/a	0	0	-1.019737e-01
48.393055	0.665376	dec_reject	0.665376	32.000000	n/a	0	0	-1.319444e-01
48.393055	0.665376	dec_nonsocial_reject_low	0.665376	32.000000	n/a	3	-7.500000e-02	-1.687500e-01
59.275640	1.716176	dec_nonsocial_choice	1.716176	16.000000	n/a	4	2.018229e-02	2.018229e-02
59.275640	1.716176	dec_choice	1.716176	16.000000	n/a	4	1.953125e-02	1.953125e-02
59.275640	1.716176	dec_nonsocial_accept	1.716176	16.000000	n/a	4	-2.155172e-03	-2.155172e-03
59.275640	1.716176	dec_accept	1.716176	16.000000	n/a	4	1.666667e-02	1.666667e-02
59.275640	1.716176	dec_nonsocial_accept_high	1.716176	16.000000	n/a	4	-2.232143e-02	-2.232143e-02
66.109000	0.450153	dec_social_choice	0.450153	32.000000	n/a	0	0	-2.298177e-01
66.109000	0.450153	dec_choice	0.450153	32.000000	n/a	0	0	-2.291667e-01
66.109000	0.450153	dec_social_reject	0.450153	32.000000	n/a	0	0	-1.019737e-01
66.109000	0.450153	dec_reject	0.450153	32.000000	n/a	0	0	-7.500000e-02
66.109000	0.450153	dec_social_reject_low	0.450153	32.000000	n/a	3	-1.354167e-01	-2.291667e-01
72.942050	0.817257	dec_social_choice	0.817257	32.000000	n/a	3	-1.360677e-01	-1.360677e-01
72.942050	0.817257	dec_choice	0.817257	32.000000	n/a	3	-1.354167e-01	-1.354167e-01
72.942050	0.817257	dec_social_accept	0.817257	32.000000	n/a	3	-1.584052e-01	-1.584052e-01
72.942050	0.817257	dec_accept	0.817257	32.000000	n/a	3	-1.785714e-01	-1.785714e-01
72.942050	0.817257	dec_social_accept_low	0.817257	32.000000	n/a	3	-1.354167e-01	-1.354167e-01
79.776030	0.449788	dec_nonsocial_choice	0.449788	32.000000	n/a	0	0	-2.298177e-01
79.776030	0.449788	dec_choice	0.449788	32.000000	n/a	0	0	-2.304688e-01
79.776030	0.449788	dec_nonsocial_reject	0.449788	32.000000	n/a	0	0	3.042763e-01
79.776030	0.449788	dec_reject	0.449788	32.000000	n/a	0	0	2.743056e-01
79.776030	0.449788	dec_nonsocial_reject_low	0.449788	32.000000	n/a	16	3.312500e-01	-1.687500e-01
86.610220	0.898557	dec_nonsocial_choice	0.898557	32.000000	n/a	0	0	-2.298177e-01
86.610220	0.898557	dec_choice	0.898557	32.000000	n/a	0	0	-2.304688e-01
86.610220	0.898557	dec_nonsocial_reject	0.898557	32.000000	n/a	0	0	3.042763e-01
86.610220	0.898557	dec_reject	0.898557	32.000000	n/a	0	0	2.743056e-01
86.610220	0.898557	dec_nonsocial_reject_low	0.898557	32.000000	n/a	16	3.312500e-01	-1.687500e-01
94.258940	1.716275	dec_social_choice	1.716275	32.000000	n/a	16	2.701823e-01	2.701823e-01
94.258940	1.716275	dec_choice	1.716275	32.000000	n/a	16	2.708333e-01	2.708333e-01
94.258940	1.716275	dec_social_accept	1.716275	32.000000	n/a	16	2.478448e-01	2.478448e-01
94.258940	1.716275	dec_accept	1.716275	32.000000	n/a	16	2.276786e-01	2.276786e-01
94.258940	1.716275	dec_social_accept_high	1.716275	32.000000	n/a	16	2.708333e-01	2.708333e-01
101.093020	1.099185	dec_nonsocial_choice	1.099185	16.000000	n/a	1	-1.673177e-01	-1.673177e-01
101.093020	1.099185	dec_choice	1.099185	16.000000	n/a	1	-1.679688e-01	-1.679688e-01
101.093020	1.099185	dec_nonsocial_accept	1.099185	16.000000	n/a	1	-1.896552e-01	-1.896552e-01
101.093020	1.099185	dec_accept	1.099185	16.000000	n/a	1	-1.708333e-01	-1.708333e-01
101.093020	1.099185	dec_nonsocial_accept_low	1.099185	16.000000	n/a	1	-2.098214e-01	-2.098214e-01
107.924965	1.167701	dec_social_choice	1.167701	16.000000	n/a	2	-1.048177e-01	-1.048177e-01
107.924965	1.167701	dec_choice	1.167701	16.000000	n/a	2	-1.041667e-01	-1.041667e-01
107.924965	1.167701	dec_social_accept	1.167701	16.000000	n/a	2	-1.271552e-01	-1.271552e-01
107.924965	1.167701	dec_accept	1.167701	16.000000	n/a	2	-1.473214e-01	-1.473214e-01
107.924965	1.167701	dec_social_accept_low	1.167701	16.000000	n/a	2	-1.041667e-01	-1.041667e-01
114.758880	0.432512	dec_social_choice	0.432512	16.000000	n/a	2	-1.048177e-01	-1.048177e-01
114.758880	0.432512	dec_choice	0.432512	16.000000	n/a	2	-1.041667e-01	-1.041667e-01
114.758880	0.432512	dec_social_accept	0.432512	16.000000	n/a	2	-1.271552e-01	-1.271552e-01
114.758880	0.432512	dec_accept	0.432512	16.000000	n/a	2	-1.473214e-01	-1.473214e-01
114.758880	0.432512	dec_social_accept_low	0.432512	16.000000	n/a	2	-1.041667e-01	-1.041667e-01
122.442986	0.382449	dec_social_choice	0.382449	32.000000	n/a	16	2.701823e-01	2.701823e-01
122.442986	0.382449	dec_choice	0.382449	32.000000	n/a	16	2.708333e-01	2.708333e-01
122.442986	0.382449	dec_social_accept	0.382449	32.000000	n/a	16	2.478448e-01	2.478448e-01
122.442986	0.382449	dec_accept	0.382449	32.000000	n/a	16	2.276786e-01	2.276786e-01
122.442986	0.382449	dec_social_accept_high	0.382449	32.000000	n/a	16	2.708333e-01	2.708333e-01
131.709000	1.783032	dec_nonsocial_choice	1.783032	32.000000	n/a	3	-1.360677e-01	-1.360677e-01
131.709000	1.783032	dec_choice	1.783032	32.000000	n/a	3	-1.367188e-01	-1.367188e-01
131.709000	1.783032	dec_nonsocial_accept	1.783032	32.000000	n/a	3	-1.584052e-01	-1.584052e-01
131.709000	1.783032	dec_accept	1.783032	32.000000	n/a	3	-1.395833e-01	-1.395833e-01
131.709000	1.783032	dec_nonsocial_low	1.783032	32.000000	n/a	3	-1.367188e-01	-1.367188e-01
131.709000	1.783032	dec_nonsocial_accept_low	1.783032	32.000000	n/a	3	-1.395833e-01	-1.395833e-01
139.358810	0.999429	dec_social_choice	0.999429	32.000000	n/a	8	2.018229e-02	2.018229e-02
139.358810	0.999429	dec_choice	0.999429	32.000000	n/a	8	2.083333e-02	2.083333e-02
139.358810	0.999429	dec_social_accept	0.999429	32.000000	n/a	8	-2.155172e-03	-2.155172e-03
139.358810	0.999429	dec_accept	0.999429	32.000000	n/a	8	-2.232143e-02	-2.232143e-02
139.358810	0.999429	dec_social_high	0.999429	32.000000	n/a	8	2.083333e-02	2.083333e-02
139.358810	0.999429	dec_social_accept_high	0.999429	32.000000	n/a	8	2.083333e-02	2.083333e-02
146.193000	2.548940	dec_nonsocial_choice	2.548940	16.000000	n/a	0	0	-2.298177e-01
146.193000	2.548940	dec_choice	2.548940	16.000000	n/a	0	0	-2.304688e-01
146.193000	2.548940	dec_nonsocial_reject	2.548940	16.000000	n/a	0	0	-7.072368e-02
146.193000	2.548940	dec_reject	2.548940	16.000000	n/a	0	0	-1.006944e-01
146.193000	2.548940	dec_nonsocial_reject_low	2.548940	16.000000	n/a	2	-4.375000e-02	-1.687500e-01
153.842100	0.615955	dec_nonsocial_choice	0.615955	32.000000	n/a	0	0	-2.298177e-01
153.842100	0.615955	dec_choice	0.615955	32.000000	n/a	0	0	-2.304688e-01
153.842100	0.615955	dec_nonsocial_reject	0.615955	32.000000	n/a	0	0	3.042763e-01
153.842100	0.615955	dec_reject	0.615955	32.000000	n/a	0	0	2.743056e-01
153.842100	0.615955	dec_nonsocial_reject_low	0.615955	32.000000	n/a	16	3.312500e-01	-1.687500e-01
160.674960	0.700450	dec_social_choice	0.700450	16.000000	n/a	0	0	-2.298177e-01
160.674960	0.700450	dec_choice	0.700450	16.000000	n/a	0	0	-2.291667e-01
160.674960	0.700450	dec_social_reject	0.700450	16.000000	n/a	0	0	5.427632e-02
160.674960	0.700450	dec_reject	0.700450	16.000000	n/a	0	0	8.125000e-02
160.674960	0.700450	dec_social_low	0.700450	16.000000	n/a	0	-2.291667e-01	-2.291667e-01
160.674960	0.700450	dec_social_reject_low	0.700450	16.000000	n/a	4	2.083333e-02	-2.291667e-01
168.309130	0.549658	dec_social_choice	0.549658	32.000000	n/a	16	2.701823e-01	2.701823e-01
168.309130	0.549658	dec_choice	0.549658	32.000000	n/a	16	2.708333e-01	2.708333e-01
168.309130	0.549658	dec_social_accept	0.549658	32.000000	n/a	16	2.478448e-01	2.478448e-01
168.309130	0.549658	dec_accept	0.549658	32.000000	n/a	16	2.276786e-01	2.276786e-01
168.309130	0.549658	dec_social_accept_high	0.549658	32.000000	n/a	16	2.708333e-01	2.708333e-01
175.141980	0.716424	dec_social_choice	0.716424	32.000000	n/a	0	0	-2.298177e-01
175.141980	0.716424	dec_choice	0.716424	32.000000	n/a	0	0	-2.291667e-01
175.141980	0.716424	dec_social_reject	0.716424	32.000000	n/a	0	0	-1.019737e-01
175.141980	0.716424	dec_reject	0.716424	32.000000	n/a	0	0	-7.500000e-02
175.141980	0.716424	dec_social_reject_low	0.716424	32.000000	n/a	3	-1.354167e-01	-2.291667e-01
181.976000	1.065288	dec_social_choice	1.065288	32.000000	n/a	16	2.701823e-01	2.701823e-01
181.976000	1.065288	dec_choice	1.065288	32.000000	n/a	16	2.708333e-01	2.708333e-01
181.976000	1.065288	dec_social_accept	1.065288	32.000000	n/a	16	2.478448e-01	2.478448e-01
181.976000	1.065288	dec_accept	1.065288	32.000000	n/a	16	2.276786e-01	2.276786e-01
181.976000	1.065288	dec_social_accept_high	1.065288	32.000000	n/a	16	2.708333e-01	2.708333e-01
191.242190	0.782466	dec_nonsocial_choice	0.782466	32.000000	n/a	2	-1.673177e-01	-1.673177e-01
191.242190	0.782466	dec_choice	0.782466	32.000000	n/a	2	-1.679688e-01	-1.679688e-01
191.242190	0.782466	dec_nonsocial_accept	0.782466	32.000000	n/a	2	-1.896552e-01	-1.896552e-01
191.242190	0.782466	dec_accept	0.782466	32.000000	n/a	2	-1.708333e-01	-1.708333e-01
191.242190	0.782466	dec_nonsocial_accept_low	0.782466	32.000000	n/a	2	-2.098214e-01	-2.098214e-01
198.892100	1.150226	dec_nonsocial_choice	1.150226	16.000000	n/a	4	2.018229e-02	2.018229e-02
198.892100	1.150226	dec_choice	1.150226	16.000000	n/a	4	1.953125e-02	1.953125e-02
198.892100	1.150226	dec_nonsocial_accept	1.150226	16.000000	n/a	4	-2.155172e-03	-2.155172e-03
198.892100	1.150226	dec_accept	1.150226	16.000000	n/a	4	1.666667e-02	1.666667e-02
198.892100	1.150226	dec_nonsocial_accept_high	1.150226	16.000000	n/a	4	-2.232143e-02	-2.232143e-02
205.726030	1.749177	dec_nonsocial_choice	1.749177	16.000000	n/a	0	0	-2.298177e-01
205.726030	1.749177	dec_choice	1.749177	16.000000	n/a	0	0	-2.304688e-01
205.726030	1.749177	dec_nonsocial_reject	1.749177	16.000000	n/a	0	0	-1.332237e-01
205.726030	1.749177	dec_reject	1.749177	16.000000	n/a	0	0	-1.631944e-01
205.726030	1.749177	dec_nonsocial_reject_low	1.749177	16.000000	n/a	1	-1.062500e-01	-1.687500e-01
214.975980	2.099241	dec_nonsocial_choice	2.099241	32.000000	n/a	0	0	-2.298177e-01
214.975980	2.099241	dec_choice	2.099241	32.000000	n/a	0	0	-2.304688e-01
214.975980	2.099241	dec_nonsocial_reject	2.099241	32.000000	n/a	0	0	-1.332237e-01
214.975980	2.099241	dec_reject	2.099241	32.000000	n/a	0	0	-1.631944e-01
214.975980	2.099241	dec_nonsocial_low	2.099241	32.000000	n/a	0	-2.304688e-01	-2.304688e-01
214.975980	2.099241	dec_nonsocial_reject_low	2.099241	32.000000	n/a	2	-1.631944e-01	-2.256944e-01
222.625490	2.699721	dec_social_choice	2.699721	32.000000	n/a	2	-1.673177e-01	-1.673177e-01
222.625490	2.699721	dec_choice	2.699721	32.000000	n/a	2	-1.666667e-01	-1.666667e-01
222.625490	2.699721	dec_social_accept	2.699721	32.000000	n/a	2	-1.896552e-01	-1.896552e-01
222.625490	2.699721	dec_accept	2.699721	32.000000	n/a	2	-2.098214e-01	-2.098214e-01
222.625490	2.699721	dec_social_low	2.699721	32.000000	n/a	2	-1.666667e-01	-1.666667e-01
222.625490	2.699721	dec_social_accept_low	2.699721	32.000000	n/a	2	-1.666667e-01	-1.666667e-01
229.458920	0.615905	dec_nonsocial_choice	0.615905	16.000000	n/a	4	2.018229e-02	2.018229e-02
229.458920	0.615905	dec_choice	0.615905	16.000000	n/a	4	1.953125e-02	1.953125e-02
229.458920	0.615905	dec_nonsocial_accept	0.615905	16.000000	n/a	4	-2.155172e-03	-2.155172e-03
229.458920	0.615905	dec_accept	0.615905	16.000000	n/a	4	1.666667e-02	1.666667e-02
229.458920	0.615905	dec_nonsocial_high	0.615905	16.000000	n/a	4	1.953125e-02	1.953125e-02
229.458920	0.615905	dec_nonsocial_accept_high	0.615905	16.000000	n/a	4	1.666667e-02	1.666667e-02
236.291990	1.500060	dec_social_choice	1.500060	16.000000	n/a	4	2.018229e-02	2.018229e-02
236.291990	1.500060	dec_choice	1.500060	16.000000	n/a	4	2.083333e-02	2.083333e-02
236.291990	1.500060	dec_social_accept	1.500060	16.000000	n/a	4	-2.155172e-03	-2.155172e-03
236.291990	1.500060	dec_accept	1.500060	16.000000	n/a	4	-2.232143e-02	-2.232143e-02
236.291990	1.500060	dec_social_high	1.500060	16.000000	n/a	4	2.083333e-02	2.083333e-02
236.291990	1.500060	dec_social_accept_high	1.500060	16.000000	n/a	4	2.083333e-02	2.083333e-02
243.125990	1.199143	dec_nonsocial_choice	1.199143	32.000000	n/a	8	2.018229e-02	2.018229e-02
243.125990	1.199143	dec_choice	1.199143	32.000000	n/a	8	1.953125e-02	1.953125e-02
243.125990	1.199143	dec_nonsocial_accept	1.199143	32.000000	n/a	8	-2.155172e-03	-2.155172e-03
243.125990	1.199143	dec_accept	1.199143	32.000000	n/a	8	1.666667e-02	1.666667e-02
243.125990	1.199143	dec_nonsocial_accept_high	1.199143	32.000000	n/a	8	-2.232143e-02	-2.232143e-02
250.775940	1.232493	dec_nonsocial_choice	1.232493	32.000000	n/a	8	2.018229e-02	2.018229e-02
250.775940	1.232493	dec_choice	1.232493	32.000000	n/a	8	1.953125e-02	1.953125e-02
250.775940	1.232493	dec_nonsocial_accept	1.232493	32.000000	n/a	8	-2.155172e-03	-2.155172e-03
250.775940	1.232493	dec_accept	1.232493	32.000000	n/a	8	1.666667e-02	1.666667e-02
250.775940	1.232493	dec_nonsocial_accept_high	1.232493	32.000000	n/a	8	-2.232143e-02	-2.232143e-02
257.608000	1.817290	dec_social_choice	1.817290	16.000000	n/a	0	0	-2.298177e-01
257.608000	1.817290	dec_choice	1.817290	16.000000	n/a	0	0	-2.291667e-01
257.608000	1.817290	dec_social_reject	1.817290	16.000000	n/a	0	0	-1.332237e-01
257.608000	1.817290	dec_reject	1.817290	16.000000	n/a	0	0	-1.062500e-01
257.608000	1.817290	dec_social_low	1.817290	16.000000	n/a	0	-2.291667e-01	-2.291667e-01
257.608000	1.817290	dec_social_reject_low	1.817290	16.000000	n/a	1	-1.666667e-01	-2.291667e-01
264.442020	2.265980	dec_nonsocial_choice	2.265980	16.000000	n/a	8	2.701823e-01	2.701823e-01
264.442020	2.265980	dec_choice	2.265980	16.000000	n/a	8	2.695312e-01	2.695312e-01
264.442020	2.265980	dec_nonsocial_accept	2.265980	16.000000	n/a	8	2.478448e-01	2.478448e-01
264.442020	2.265980	dec_accept	2.265980	16.000000	n/a	8	2.666667e-01	2.666667e-01
264.442020	2.265980	dec_nonsocial_high	2.265980	16.000000	n/a	8	2.695312e-01	2.695312e-01
264.442020	2.265980	dec_nonsocial_accept_high	2.265980	16.000000	n/a	8	2.666667e-01	2.666667e-01
271.275450	0.782542	dec_nonsocial_choice	0.782542	16.000000	n/a	8	2.701823e-01	2.701823e-01
271.275450	0.782542	dec_choice	0.782542	16.000000	n/a	8	2.695312e-01	2.695312e-01
271.275450	0.782542	dec_nonsocial_accept	0.782542	16.000000	n/a	8	2.478448e-01	2.478448e-01
271.275450	0.782542	dec_accept	0.782542	16.000000	n/a	8	2.666667e-01	2.666667e-01
271.275450	0.782542	dec_nonsocial_high	0.782542	16.000000	n/a	8	2.695312e-01	2.695312e-01
271.275450	0.782542	dec_nonsocial_accept_high	0.782542	16.000000	n/a	8	2.666667e-01	2.666667e-01
282.141750	1.266236	dec_nonsocial_choice	1.266236	32.000000	n/a	0	0	-2.298177e-01
282.141750	1.266236	dec_choice	1.266236	32.000000	n/a	0	0	-2.304688e-01
282.141750	1.266236	dec_nonsocial_reject	1.266236	32.000000	n/a	0	0	-1.332237e-01
282.141750	1.266236	dec_reject	1.266236	32.000000	n/a	0	0	-1.631944e-01
282.141750	1.266236	dec_nonsocial_reject_low	1.266236	32.000000	n/a	2	-1.062500e-01	-1.687500e-01
291.408870	1.265566	dec_nonsocial_choice	1.265566	16.000000	n/a	2	-1.048177e-01	-1.048177e-01
291.408870	1.265566	dec_choice	1.265566	16.000000	n/a	2	-1.054688e-01	-1.054688e-01
291.408870	1.265566	dec_nonsocial_accept	1.265566	16.000000	n/a	2	-1.271552e-01	-1.271552e-01
291.408870	1.265566	dec_accept	1.265566	16.000000	n/a	2	-1.083333e-01	-1.083333e-01
291.408870	1.265566	dec_nonsocial_low	1.265566	16.000000	n/a	2	-1.054688e-01	-1.054688e-01
291.408870	1.265566	dec_nonsocial_accept_low	1.265566	16.000000	n/a	2	-1.083333e-01	-1.083333e-01
299.058100	0.950639	dec_social_choice	0.950639	32.000000	n/a	3	-1.360677e-01	-1.360677e-01
299.058100	0.950639	dec_choice	0.950639	32.000000	n/a	3	-1.354167e-01	-1.354167e-01
299.058100	0.950639	dec_social_accept	0.950639	32.000000	n/a	3	-1.584052e-01	-1.584052e-01
299.058100	0.950639	dec_accept	0.950639	32.000000	n/a	3	-1.785714e-01	-1.785714e-01
299.058100	0.950639	dec_social_low	0.950639	32.000000	n/a	3	-1.354167e-01	-1.354167e-01
299.058100	0.950639	dec_social_accept_low	0.950639	32.000000	n/a	3	-1.354167e-01	-1.354167e-01
305.891720	0.849960	dec_nonsocial_choice	0.849960	32.000000	n/a	8	2.018229e-02	2.018229e-02
305.891720	0.849960	dec_choice	0.849960	32.000000	n/a	8	1.953125e-02	1.953125e-02
305.891720	0.849960	dec_nonsocial_accept	0.849960	32.000000	n/a	8	-2.155172e-03	-2.155172e-03
305.891720	0.849960	dec_accept	0.849960	32.000000	n/a	8	1.666667e-02	1.666667e-02
305.891720	0.849960	dec_nonsocial_accept_high	0.849960	32.000000	n/a	8	-2.232143e-02	-2.232143e-02
312.724000	1.034283	dec_social_choice	1.034283	32.000000	n/a	2	-1.673177e-01	-1.673177e-01
312.724000	1.034283	dec_choice	1.034283	32.000000	n/a	2	-1.666667e-01	-1.666667e-01
312.724000	1.034283	dec_social_accept	1.034283	32.000000	n/a	2	-1.896552e-01	-1.896552e-01
312.724000	1.034283	dec_accept	1.034283	32.000000	n/a	2	-2.098214e-01	-2.098214e-01
312.724000	1.034283	dec_social_low	1.034283	32.000000	n/a	2	-1.666667e-01	-1.666667e-01
312.724000	1.034283	dec_social_accept_low	1.034283	32.000000	n/a	2	-1.666667e-01	-1.666667e-01
320.358600	1.183413	dec_social_choice	1.183413	32.000000	n/a	0	0	-2.298177e-01
320.358600	1.183413	dec_choice	1.183413	32.000000	n/a	0	0	-2.291667e-01
320.358600	1.183413	dec_social_reject	1.183413	32.000000	n/a	0	0	-1.332237e-01
320.358600	1.183413	dec_reject	1.183413	32.000000	n/a	0	0	-1.062500e-01
320.358600	1.183413	dec_social_reject_low	1.183413	32.000000	n/a	2	-1.666667e-01	-2.291667e-01
327.191930	0.799981	dec_nonsocial_choice	0.799981	16.000000	n/a	0	0	-2.298177e-01
327.191930	0.799981	dec_choice	0.799981	16.000000	n/a	0	0	-2.304688e-01
327.191930	0.799981	dec_nonsocial_reject	0.799981	16.000000	n/a	0	0	-7.072368e-02
327.191930	0.799981	dec_reject	0.799981	16.000000	n/a	0	0	-1.006944e-01
327.191930	0.799981	dec_nonsocial_reject_low	0.799981	16.000000	n/a	2	-4.375000e-02	-1.687500e-01
334.025020	1.216156	dec_social_choice	1.216156	16.000000	n/a	0	0	-2.298177e-01
334.025020	1.216156	dec_choice	1.216156	16.000000	n/a	0	0	-2.291667e-01
334.025020	1.216156	dec_social_reject	1.216156	16.000000	n/a	0	0	5.427632e-02
334.025020	1.216156	dec_reject	1.216156	16.000000	n/a	0	0	8.125000e-02
334.025020	1.216156	dec_social_reject_low	1.216156	16.000000	n/a	4	2.083333e-02	-2.291667e-01
343.291750	2.016553	dec_social_choice	2.016553	16.000000	n/a	0	0	-2.298177e-01
343.291750	2.016553	dec_choice	2.016553	16.000000	n/a	0	0	-2.291667e-01
343.291750	2.016553	dec_social_reject	2.016553	16.000000	n/a	0	0	-1.332237e-01
343.291750	2.016553	dec_reject	2.016553	16.000000	n/a	0	0	-1.062500e-01
343.291750	2.016553	dec_social_reject_low	2.016553	16.000000	n/a	1	-1.666667e-01	-2.291667e-01
350.941960	1.515655	dec_social_choice	1.515655	16.000000	n/a	0	0	-2.298177e-01
350.941960	1.515655	dec_choice	1.515655	16.000000	n/a	0	0	-2.291667e-01
350.941960	1.515655	dec_social_reject	1.515655	16.000000	n/a	0	0	-1.332237e-01
350.941960	1.515655	dec_reject	1.515655	16.000000	n/a	0	0	-1.062500e-01
350.941960	1.515655	dec_social_reject_low	1.515655	16.000000	n/a	1	-1.666667e-01	-2.291667e-01
358.592040	1.265217	dec_social_choice	1.265217	16.000000	n/a	4	2.018229e-02	2.018229e-02
358.592040	1.265217	dec_choice	1.265217	16.000000	n/a	4	2.083333e-02	2.083333e-02
358.592040	1.265217	dec_social_accept	1.265217	16.000000	n/a	4	-2.155172e-03	-2.155172e-03
358.592040	1.265217	dec_accept	1.265217	16.000000	n/a	4	-2.232143e-02	-2.232143e-02
358.592040	1.265217	dec_social_high	1.265217	16.000000	n/a	4	2.083333e-02	2.083333e-02
358.592040	1.265217	dec_social_accept_high	1.265217	16.000000	n/a	4	2.083333e-02	2.083333e-02
366.240940	1.650727	dec_social_choice	1.650727	16.000000	n/a	8	2.701823e-01	2.701823e-01
366.240940	1.650727	dec_choice	1.650727	16.000000	n/a	8	2.708333e-01	2.708333e-01
366.240940	1.650727	dec_social_accept	1.650727	16.000000	n/a	8	2.478448e-01	2.478448e-01
366.240940	1.650727	dec_accept	1.650727	16.000000	n/a	8	2.276786e-01	2.276786e-01
366.240940	1.650727	dec_social_accept_high	1.650727	16.000000	n/a	8	2.708333e-01	2.708333e-01
373.074950	1.116602	dec_nonsocial_choice	1.116602	32.000000	n/a	16	2.701823e-01	2.701823e-01
373.074950	1.116602	dec_choice	1.116602	32.000000	n/a	16	2.695312e-01	2.695312e-01
373.074950	1.116602	dec_nonsocial_accept	1.116602	32.000000	n/a	16	2.478448e-01	2.478448e-01
373.074950	1.116602	dec_accept	1.116602	32.000000	n/a	16	2.666667e-01	2.666667e-01
373.074950	1.116602	dec_nonsocial_accept_high	1.116602	32.000000	n/a	16	2.276786e-01	2.276786e-01
