onset	duration	trial_type	rt	resp
0.00038599997060373425	0.5932203000411391	fixation_1	999	999
0.5936612000223249	3.0004560999805108	face	1.5322450999519788	1
3.5941567000118084	0.5932203000411391	fixation_2	999	999
4.1435139999957755	1.016450299997814	feedback win	999	999
5.159966500010341	5.317903399991337	ITI	999	999
10.49636340001598	0.5967321000061929	fixation_1	999	999
11.093149799969979	3.0016417000442743	face	1.2827212000265718	2
14.094833199982531	0.5967321000061929	fixation_2	999	999
14.643074600026011	1.000231799960602	feedback loss	999	999
15.643308600003365	1.1175643000169657	ITI	999	999
16.763964299985673	0.5960094000329264	fixation_1	999	999
17.36002969997935	3.0007918000337668	face	1.2830448000459	2
20.360861899971496	0.5960094000329264	fixation_2	999	999
20.909751300001517	1.0002332999720238	feedback win	999	999
21.90998669998953	1.116947800037451	ITI	999	999
23.029939999978524	0.5965181000065058	fixation_1	999	999
23.626513800001703	3.001909799990244	face	1.282455199980177	2
26.62846430001082	0.5965181000065058	fixation_2	999	999
27.176883200008888	1.0001335999695584	feedback win	999	999
28.17701909999596	3.2172484999755397	ITI	999	999
31.397377700021025	0.5959180999780074	fixation_1	999	999
31.993353000027128	3.0004304999602027	face	1.032270299969241	1
34.99382129998412	0.5959180999780074	fixation_2	999	999
35.54311859997688	1.0167299000313506	feedback loss	999	999
36.55985070002498	5.315994199947454	ITI	999	999
41.87892190000275	0.5974932999815792	fixation_1	999	999
42.476463600003626	3.0010228999890387	face	1.0333491999772377	1
45.47752630000468	0.5974932999815792	fixation_2	999	999
46.02657069999259	1.0165634999866597	feedback loss	999	999
47.043136399996	3.2168496000231244	ITI	999	999
50.26324260002002	0.6132892000023276	fixation_1	999	999
50.87659330002498	3.0010185999562964	face	1.033553099958226	1
53.877650999987964	0.6132892000023276	fixation_2	999	999
54.42672529997071	1.016636100015603	feedback win	999	999
55.44336360000307	3.2165907999733463	ITI	999	999
58.663059299986344	0.6134860999882221	fixation_1	999	999
59.27663340000436	3.001108500000555	face	1.0331628000130877	1
62.277814299974125	0.6134860999882221	fixation_2	999	999
62.82653219997883	1.016801999998279	feedback loss	999	999
63.84333659999538	1.117312500020489	ITI	999	999
64.96409770002356	0.612571699952241	fixation_1	999	999
65.57673480000813	3.0020534999785013	face	1.0319134999881499	2
68.57882679998875	0.612571699952241	fixation_2	999	999
69.12671779998345	1.016287500038743	feedback win	999	999
70.14300739997998	1.1177634000196122	ITI	999	999
71.26399469998432	0.5957721000304446	fixation_1	999	999
71.85983329999726	3.002231099992059	face	1.032944199978374	2
74.86210359999677	0.5957721000304446	fixation_2	999	999
75.40968059998704	1.0002045999863185	feedback win	999	999
76.40988739999011	1.1171473999856971	ITI	999	999
77.53025200002594	0.5959339999826625	fixation_1	999	999
78.1262366999872	3.000578699982725	face	1.0327224000357091	1
81.12685409997357	0.5959339999826625	fixation_2	999	999
81.67631329997675	1.0169668000307865	feedback loss	999	999
82.69328260002658	3.2165167999919504	ITI	999	999
85.91315269999905	0.6130651999847032	fixation_1	999	999
86.52626810001675	3.0009553999989294	face	1.033308699959889	2
89.52726210001856	0.6130651999847032	fixation_2	999	999
90.07619769999292	1.0001226000022143	feedback loss	999	999
91.07632260001265	1.1175985999871045	ITI	999	999
92.19725369999651	0.5960956999915652	fixation_1	999	999
92.79341929999646	3.0014353999868035	face	1.0329318000003695	2
95.79489399999147	0.5960956999915652	fixation_2	999	999
96.34308879997116	1.0163959000492468	feedback win	999	999
97.35948679997819	5.317063599999528	ITI	999	999
102.67988090001745	0.5964374999748543	fixation_1	999	999
103.27637340000365	3.0008138999692164	face	0.7843210999853909	2
106.27722529997118	0.5964374999748543	fixation_2	999	999
106.82622210000409	1.0166789999930188	feedback win	999	999
107.84290340001462	1.1178402999648824	ITI	999	999
108.964101199992	0.5955319000058807	fixation_1	999	999
109.55970799998613	3.0010328000062145	face	1.0331557000172324	1
112.5607799999998	0.5955319000058807	fixation_2	999	999
113.10941829998046	1.0002813000464812	feedback win	999	999
114.10970199998701	5.316904200008139	ITI	999	999
119.42999949998921	0.5962684000260197	fixation_1	999	999
120.02634109999053	3.0005338999908417	face	1.0330578000284731	1
123.02691339998273	0.5962684000260197	fixation_2	999	999
123.57625729998108	1.000222600006964	feedback win	999	999
124.5764821000048	3.2162710999837145	ITI	999	999
127.79624930000864	0.6130925000179559	fixation_1	999	999
128.40940240002237	3.0011664999765344	face	1.0327163999900222	1
131.41061229998013	0.6130925000179559	fixation_2	999	999
131.9596823999891	1.0164691000245512	feedback win	999	999
132.97615359997144	3.2194410000229254	ITI	999	999
136.199055199977	0.6269405000493862	fixation_1	999	999
136.82605660002446	3.0006203999510035	face	1.0331727999728173	2
139.82671839999966	0.6269405000493862	fixation_2	999	999
140.37610489997314	1.00036689999979	feedback win	999	999
141.37647389998892	3.216177200025413	ITI	999	999
144.5960735999979	0.5969293999951333	fixation_1	999	999
145.19306359998882	3.001376000000164	face	1.0322775000240654	1
148.19447799999034	0.5969293999951333	fixation_2	999	999
148.74263980000978	1.0000750999897718	feedback win	999	999
149.7427171000163	11.616627699986566	ITI	999	999
161.36293890001252	0.5963887000107206	fixation_1	999	999
161.9594038000214	3.001012999971863	face	1.2830429999739863	2
164.96045620000223	0.5963887000107206	fixation_2	999	999
165.50963179999962	1.0001368999946862	feedback loss	999	999
166.50977070000954	5.31682790000923	ITI	999	999
171.8302352000028	0.5957523999968544	fixation_1	999	999
172.4260519000236	3.0013870999682695	face	1.0332441999926232	2
175.42748499999288	0.5957523999968544	fixation_2	999	999
175.97603020002134	1.0173441999941133	feedback win	999	999
176.993376599974	5.317229800042696	ITI	999	999
182.314208100026	0.5950925999786705	fixation_1	999	999
182.90937599999597	3.0008072999771684	face	1.0333363999961875	2
185.91022189997602	0.5950925999786705	fixation_2	999	999
186.4593074999866	1.0165467000333592	feedback loss	999	999
187.4758563999785	3.216682000027504	ITI	999	999
190.69650149997324	0.5963190000038594	fixation_1	999	999
191.2928985999897	3.001293200009968	face	1.0328419000143185	2
194.29423250001855	0.5963190000038594	fixation_2	999	999
194.84248089999892	1.000265299982857	feedback loss	999	999
195.84274860000005	1.1166293999995105	ITI	999	999
196.96323699998902	0.6292210000101477	fixation_1	999	999
197.59252970002126	3.000846399983857	face	1.2830039999680594	2
200.59341460000724	0.6292210000101477	fixation_2	999	999
201.14248899999075	1.0169954000157304	feedback loss	999	999
202.159486700024	1.1165757999988273	ITI	999	999
203.27971690002596	0.5961767999688163	fixation_1	999	999
203.87596209999174	3.000395099981688	face	1.0325259999954142	2
206.87639769999078	0.5961767999688163	fixation_2	999	999
207.42616370000178	1.0163409999804571	feedback win	999	999
208.44250669999747	5.315933900012169	ITI	999	999
213.7621017000056	0.5970796999754384	fixation_1	999	999
214.35924929997418	3.0013631000183523	face	1.0324276000028476	1
217.36065149999922	0.5970796999754384	fixation_2	999	999
217.90917040000204	1.0004017999744974	feedback loss	999	999
218.9095743999933	5.316808299976401	ITI	999	999
224.23008319997462	0.5957973000477068	fixation_1	999	999
224.8259500999702	3.001450300042052	face	1.0329762000474147	1
227.82743900001515	0.5957973000477068	fixation_2	999	999
228.37578050000593	1.0164575999951921	feedback win	999	999
229.39224010001635	3.217163899971638	ITI	999	999
232.61308709997684	0.5960183000424877	fixation_1	999	999
233.20917589997407	3.001195300021209	face	1.2833318000193685	1
236.21040809998522	0.5960183000424877	fixation_2	999	999
236.75940480001736	1.0164012999739498	feedback loss	999	999
237.7758085000096	1.1177286999882199	ITI	999	999
238.89724989997922	0.5950832000235096	fixation_1	999	999
239.49240589997498	3.001086000003852	face	1.033648600045126	1
242.4935299999779	0.5950832000235096	fixation_2	999	999
243.0420591000002	1.0002569999778643	feedback win	999	999
244.0423185999971	3.216201599978376	ITI	999	999
247.2624040999799	0.5966804000199772	fixation_1	999	999
247.85915420000674	3.001030699990224	face	1.0334989000111818	2
250.8602239000029	0.5966804000199772	fixation_2	999	999
251.40904569998384	1.0002238000161014	feedback loss	999	999
252.40927160001593	1.1172467999858782	ITI	999	999
253.5302864999976	0.5954359999741428	fixation_1	999	999
254.12581120000686	3.001709599979222	face	1.782770599995274	1
257.12755919998745	0.5954359999741428	fixation_2	999	999
257.6756399999722	1.0000880000297911	feedback loss	999	999
258.6757300000172	1.118698799982667	ITI	999	999
259.79826449998654	0.6107671000063419	fixation_1	999	999
260.40910519997124	3.0013850000104867	face	1.032845100038685	1
263.4105274999747	0.6107671000063419	fixation_2	999	999
263.95901370001957	1.000230899953749	feedback loss	999	999
264.9592466999893	1.1171399999875575	ITI	999	999
266.0800943999784	0.5956633000168949	fixation_1	999	999
266.6758301000227	3.0012758999946527	face	1.0340285999700427	1
269.6771432000096	0.5956633000168949	fixation_2	999	999
270.2256447999971	1.016541299992241	feedback win	999	999
271.2421883000061	5.316332100017462	ITI	999	999
276.56243990000803	0.5963746999623254	fixation_1	999	999
277.15888790000463	3.001255700015463	face	1.0326813000137918	1
280.1601838999777	0.5963746999623254	fixation_2	999	999
280.70927759999176	1.0162962999893352	feedback loss	999	999
281.72557609999785	1.1168138000066392	ITI	999	999
282.8463322999887	0.6126063999836333	fixation_1	999	999
283.45901240000967	3.001341799972579	face	1.2833825999987312	1
286.4603922999813	0.6126063999836333	fixation_2	999	999
287.00890499999514	1.0000664999824949	feedback loss	999	999
288.00897349999286	3.2165728000109084	ITI	999	999
291.2295414999826	0.595885000017006	fixation_1	999	999
291.82550779997837	3.0018984000198543	face	1.5325627000420354	1
294.82744550000643	0.595885000017006	fixation_2	999	999
295.3755296000163	1.0003475999692455	feedback win	999	999
296.37587930000154	5.316586399974767	ITI	999	999
301.6963606000063	0.5961238999734633	fixation_1	999	999
302.29257980000693	3.0017410999862477	face	1.2826656000106595	2
305.29436030000215	0.5961238999734633	fixation_2	999	999
305.842431499972	1.016443900007289	feedback loss	999	999
306.8588774999953	5.317229499982204	ITI	999	999
312.18003659998067	0.6121126000070944	fixation_1	999	999
312.79223830002593	3.0010627000010572	face	0.784099199983757	2
315.7933399999747	0.6121126000070944	fixation_2	999	999
316.34213050000835	1.0000721999676898	feedback win	999	999
317.34220479999203	1.1182846000301652	ITI	999	999
318.46440739999525	0.5943948000203818	fixation_1	999	999
319.0588788000168	3.001102699956391	face	1.282586099987384	2
322.06002079998143	0.5943948000203818	fixation_2	999	999
322.6087601999752	1.0002327000256628	feedback loss	999	999
323.6089949000161	1.1167156999581493	ITI	999	999
324.7298412999953	0.595884800015483	fixation_1	999	999
325.3258083999972	3.0006150000263005	face	1.282134099979885	1
328.32646050001495	0.595884800015483	fixation_2	999	999
328.87535380001646	1.0003805999876931	feedback loss	999	999
329.8757366000209	5.317561899952125	ITI	999	999
