onset	duration	trial_type	rt	resp	gender	image_left	image_right
0.593661200022325	3.00045609998051	decision	1.53224509995198	left	S	SD001.jpg	SD002.jpg
4.14351399999578	1.01645029999781	win	NaN	n/a	n/a	SD001.jpg	SD002.jpg
11.09314979997	3.00164170004427	decision	1.28272120002657	right	S	SD003.jpg	SD004.jpg
14.643074600026	1.0002317999606	loss	NaN	n/a	n/a	SD003.jpg	SD004.jpg
17.3600296999793	3.00079180003377	decision	1.2830448000459	right	S	SD005.jpg	SD006.jpg
20.9097513000015	1.00023329997202	win	NaN	n/a	n/a	SD005.jpg	SD006.jpg
23.6265138000017	3.00190979999024	decision	1.28245519998018	right	D	DD001.jpg	DD002.jpg
27.1768832000089	1.00013359996956	win	NaN	n/a	n/a	DD001.jpg	DD002.jpg
31.9933530000271	3.0004304999602	decision	1.03227029996924	left	D	DD003.jpg	DD004.jpg
35.5431185999769	1.01672990003135	loss	NaN	n/a	n/a	DD003.jpg	DD004.jpg
42.4764636000036	3.00102289998904	decision	1.03334919997724	left	S	SD007.jpg	SD008.jpg
46.0265706999926	1.01656349998666	loss	NaN	n/a	n/a	SD007.jpg	SD008.jpg
50.876593300025	3.0010185999563	decision	1.03355309995823	left	S	SD009.jpg	SD010.jpg
54.4267252999707	1.0166361000156	win	NaN	n/a	n/a	SD009.jpg	SD010.jpg
59.2766334000044	3.00110850000056	decision	1.03316280001309	left	D	DD005.jpg	DD006.jpg
62.8265321999788	1.01680199999828	loss	NaN	n/a	n/a	DD005.jpg	DD006.jpg
65.5767348000081	3.0020534999785	decision	1.03191349998815	right	D	DD007.jpg	DD008.jpg
69.1267177999835	1.01628750003874	win	NaN	n/a	n/a	DD007.jpg	DD008.jpg
71.8598332999973	3.00223109999206	decision	1.03294419997837	right	D	DD009.jpg	DD010.jpg
75.409680599987	1.00020459998632	win	NaN	n/a	n/a	DD009.jpg	DD010.jpg
78.1262366999872	3.00057869998273	decision	1.03272240003571	left	D	DD011.jpg	DD012.jpg
81.6763132999768	1.01696680003079	loss	NaN	n/a	n/a	DD011.jpg	DD012.jpg
86.5262681000168	3.00095539999893	decision	1.03330869995989	right	S	SD011.jpg	SD012.jpg
90.0761976999929	1.00012260000221	loss	NaN	n/a	n/a	SD011.jpg	SD012.jpg
92.7934192999965	3.0014353999868	decision	1.03293180000037	right	S	SD013.jpg	SD014.jpg
96.3430887999712	1.01639590004925	win	NaN	n/a	n/a	SD013.jpg	SD014.jpg
103.276373400004	3.00081389996922	decision	0.784321099985391	right	S	SD015.jpg	SD016.jpg
106.826222100004	1.01667899999302	win	NaN	n/a	n/a	SD015.jpg	SD016.jpg
109.559707999986	3.00103280000621	decision	1.03315570001723	left	D	DD013.jpg	DD014.jpg
113.10941829998	1.00028130004648	win	NaN	n/a	n/a	DD013.jpg	DD014.jpg
120.026341099991	3.00053389999084	decision	1.03305780002847	left	S	SD017.jpg	SD018.jpg
123.576257299981	1.00022260000696	win	NaN	n/a	n/a	SD017.jpg	SD018.jpg
128.409402400022	3.00116649997653	decision	1.03271639999002	left	D	DD015.jpg	DD016.jpg
131.959682399989	1.01646910002455	win	NaN	n/a	n/a	DD015.jpg	DD016.jpg
136.826056600024	3.000620399951	decision	1.03317279997282	right	S	SD019.jpg	SD020.jpg
140.376104899973	1.00036689999979	win	NaN	n/a	n/a	SD019.jpg	SD020.jpg
145.193063599989	3.00137600000016	decision	1.03227750002407	left	D	DD017.jpg	DD018.jpg
148.74263980001	1.00007509998977	win	NaN	n/a	n/a	DD017.jpg	DD018.jpg
161.959403800021	3.00101299997186	decision	1.28304299997399	right	S	SD021.jpg	SD022.jpg
165.5096318	1.00013689999469	loss	NaN	n/a	n/a	SD021.jpg	SD022.jpg
172.426051900024	3.00138709996827	decision	1.03324419999262	right	S	SD023.jpg	SD024.jpg
175.976030200021	1.01734419999411	win	NaN	n/a	n/a	SD023.jpg	SD024.jpg
182.909375999996	3.00080729997717	decision	1.03333639999619	right	S	SD025.jpg	SD026.jpg
186.459307499987	1.01654670003336	loss	NaN	n/a	n/a	SD025.jpg	SD026.jpg
191.29289859999	3.00129320000997	decision	1.03284190001432	right	S	SD027.jpg	SD028.jpg
194.842480899999	1.00026529998286	loss	NaN	n/a	n/a	SD027.jpg	SD028.jpg
197.592529700021	3.00084639998386	decision	1.28300399996806	right	D	DD019.jpg	DD020.jpg
201.142488999991	1.01699540001573	loss	NaN	n/a	n/a	DD019.jpg	DD020.jpg
203.875962099992	3.00039509998169	decision	1.03252599999541	right	D	DD021.jpg	DD022.jpg
207.426163700002	1.01634099998046	win	NaN	n/a	n/a	DD021.jpg	DD022.jpg
214.359249299974	3.00136310001835	decision	1.03242760000285	left	S	SD029.jpg	SD030.jpg
217.909170400002	1.0004017999745	loss	NaN	n/a	n/a	SD029.jpg	SD030.jpg
224.82595009997	3.00145030004205	decision	1.03297620004741	left	S	SD031.jpg	SD032.jpg
228.375780500006	1.01645759999519	win	NaN	n/a	n/a	SD031.jpg	SD032.jpg
233.209175899974	3.00119530002121	decision	1.28333180001937	left	D	DD023.jpg	DD024.jpg
236.759404800017	1.01640129997395	loss	NaN	n/a	n/a	DD023.jpg	DD024.jpg
239.492405899975	3.00108600000385	decision	1.03364860004513	left	D	DD025.jpg	DD026.jpg
243.0420591	1.00025699997786	win	NaN	n/a	n/a	DD025.jpg	DD026.jpg
247.859154200007	3.00103069999022	decision	1.03349890001118	right	D	DD027.jpg	DD028.jpg
251.409045699984	1.0002238000161	loss	NaN	n/a	n/a	DD027.jpg	DD028.jpg
254.125811200007	3.00170959997922	decision	1.78277059999527	left	S	SD033.jpg	SD034.jpg
257.675639999972	1.00008800002979	loss	NaN	n/a	n/a	SD033.jpg	SD034.jpg
260.409105199971	3.00138500001049	decision	1.03284510003868	left	S	SD035.jpg	SD036.jpg
263.95901370002	1.00023089995375	loss	NaN	n/a	n/a	SD035.jpg	SD036.jpg
266.675830100023	3.00127589999465	decision	1.03402859997004	left	S	SD037.jpg	SD038.jpg
270.225644799997	1.01654129999224	win	NaN	n/a	n/a	SD037.jpg	SD038.jpg
277.158887900005	3.00125570001546	decision	1.03268130001379	left	D	DD029.jpg	DD030.jpg
280.709277599992	1.01629629998934	loss	NaN	n/a	n/a	DD029.jpg	DD030.jpg
283.45901240001	3.00134179997258	decision	1.28338259999873	left	D	DD031.jpg	DD032.jpg
287.008904999995	1.00006649998249	loss	NaN	n/a	n/a	DD031.jpg	DD032.jpg
291.825507799978	3.00189840001985	decision	1.53256270004204	left	D	DD033.jpg	DD034.jpg
295.375529600016	1.00034759996925	win	NaN	n/a	n/a	DD033.jpg	DD034.jpg
302.292579800007	3.00174109998625	decision	1.28266560001066	right	S	SD039.jpg	SD040.jpg
305.842431499972	1.01644390000729	loss	NaN	n/a	n/a	SD039.jpg	SD040.jpg
312.792238300026	3.00106270000106	decision	0.784099199983757	right	D	DD035.jpg	DD036.jpg
316.342130500008	1.00007219996769	win	NaN	n/a	n/a	DD035.jpg	DD036.jpg
319.058878800017	3.00110269995639	decision	1.28258609998738	right	D	DD037.jpg	DD038.jpg
322.608760199975	1.00023270002566	loss	NaN	n/a	n/a	DD037.jpg	DD038.jpg
325.325808399997	3.0006150000263	decision	1.28213409997988	left	D	DD039.jpg	DD040.jpg
328.875353800016	1.00038059998769	loss	NaN	n/a	n/a	DD039.jpg	DD040.jpg
