TrialNumber,Trial,cLeft,cRight,Partner,Reciprocate,ISI,ITI,ran,order,onset,bpress,resp,resp_onset,highlow,rt,ISIpad,ISI_onset,ISI_offset,outcome_onset,outcome_offset,duration,ITI_onset,ITI_offset
1,1,8,2,3,0,5.000000e-01,2.422500e+00,1.0,0.0,4.0323014,2.0,2,6.4012,low,2.3688984,0.6311017,6.9208364,9.282776,9.28492,11.287762,7.2554607,11.288233,13.704634
2,2,8,4,2,0,2,8.075000e-01,1.0,1.0,13.822506,2.0,4,15.634667,low,1.8121607,1.1878393,16.15477,20.572798,20.574743,22.577772,8.755265,22.578184,23.381031
3,3,2,8,3,1,3.500000e+00,8.075000e-01,1.0,2.0,23.396418,1.0,2,25.417927,low,2.0215087,0.9784914,25.937763,31.646708,31.648819,33.651466,10.255049,33.651905,34.454742
4,4,2,4,2,0,2,2.422500e+00,1.0,3.0,34.57097,1.0,2,36.51734,low,1.9463727,1.0536273,37.037704,41.32133,41.32321,43.32637,8.7554035,43.3268,45.742798
5,5,2,8,3,1,5.000000e-01,8.075000e-01,1.0,4.0,45.756294,2.0,8,48.601147,high,2.844852,0.155148,49.1205,51.005836,51.007996,53.01048,7.2541847,53.01088,53.814194
6,6,0,2,1,0,5.000000e-01,2.422500e+00,1.0,5.0,53.81989,2.0,2,56.334007,high,2.5141208,0.4858792,56.854153,59.070095,59.07207,61.074474,7.2545853,61.07491,63.49268
7,7,8,0,1,0,2,8.075000e-01,1.0,6.0,63.49751,1.0,8,66.250786,high,2.7532814,0.2467186,66.77108,70.247635,70.248085,72.250656,8.753152,72.25107,73.05525
8,8,0,8,1,1,5.000000e-01,2.422500e+00,1.0,7.0,73.05995,1.0,0,75.56748,low,2.5075355,0.4924646,76.08799,78.31046,78.31059,80.312035,7.2520814,80.31245,82.7328
9,9,0,2,2,0,5.000000e-01,2.422500e+00,1.0,8.0,82.85139,2.0,2,84.550865,high,1.6994745,1.3005255,85.071526,88.10163,88.10376,90.10639,7.255005,90.10682,92.52483
10,10,8,2,1,0,5.000000e-01,2.422500e+00,1.0,9.0,92.52943,2.0,2,94.70127,low,2.1718454,0.8281546,95.22115,97.78023,97.78237,99.78515,7.255723,99.785576,102.20204
11,11,2,8,2,1,5.000000e-01,8.075000e-01,1.0,10.0,102.32486,1.0,2,104.43447,low,2.1096098,0.8903901,104.95442,107.57546,107.577736,109.58072,7.2558584,109.58115,110.382355
12,12,8,2,2,0,5.000000e-01,8.075000e-01,1.0,11.0,110.506874,2.0,2,112.40064,low,1.8937681,1.1062319,112.9207,115.757225,115.75909,117.7616,7.25472,117.76202,118.56456
13,13,2,0,3,1,2,2.422500e+00,1.0,12.0,118.579056,1.0,2,120.81781,high,2.2387578,0.7612421,121.33731,125.32962,125.33164,127.33418,8.755126,127.33463,129.75264
14,14,4,0,2,0,5.000000e-01,4.037500e+00,1.0,13.0,129.87294,1.0,4,132.15112,high,2.2781813,0.7218187,132.67058,135.12315,135.12505,137.1286,7.255662,137.12903,141.16167
15,15,2,8,1,1,5.000000e-01,8.075000e-01,1.0,14.0,141.16714,1.0,2,143.65059,low,2.483435,0.516565,144.1708,146.41814,146.42023,148.42337,7.2562213,148.4238,149.22493
16,16,2,0,3,0,2,8.075000e-01,1.0,15.0,149.23837,1.0,2,150.96768,high,1.7293074,1.2706926,151.48764,155.98853,155.99046,157.99272,8.754345,157.99315,158.7967
17,17,4,0,3,0,5.000000e-01,8.075000e-01,1.0,16.0,158.80887,1.0,4,160.56721,high,1.7583416,1.2416584,161.08748,164.06,164.06042,166.06262,7.2537565,166.06303,166.8666
18,18,0,8,2,1,2,7.267500e+00,1.0,17.0,166.98885,1.0,0,169.26768,low,2.2788467,0.7211533,169.7876,173.73993,173.74007,175.74207,8.753224,175.74248,183.00674
19,19,4,2,2,1,2,5.652500e+00,1.0,18.0,183.13664,2.0,2,185.23395,low,2.0973067,0.9026933,185.75485,189.88655,189.88857,191.89165,8.755008,191.89209,197.53957
20,20,4,2,1,0,5.000000e-01,8.075000e-01,1.0,19.0,197.54279,1.0,4,199.88435,high,2.3415716,0.6584285,200.40388,202.79395,202.79613,204.79848,7.2557015,204.7989,205.60075
21,21,4,8,3,1,5.000000e-01,8.075000e-01,1.0,20.0,205.61407,2.0,8,207.68436,high,2.070281,0.9297189,208.20343,210.86427,210.86626,212.86931,7.2552447,212.86974,213.67258
22,22,0,8,3,1,2,8.075000e-01,1.0,21.0,213.6849,2.0,8,215.5341,high,1.8492116,1.1507884,216.05392,220.43488,220.4353,222.43755,8.75265,222.43797,223.2433
23,23,8,2,2,0,3.500000e+00,8.075000e-01,1.0,22.0,223.36472,2.0,2,226.26749,low,2.9027615,0.0972385,226.7874,231.6148,231.61674,233.62024,10.255512,233.62067,234.42224
24,24,8,2,1,1,3.500000e+00,2.422500e+00,1.0,23.0,234.42542,2.0,2,236.51761,low,2.0921986,0.9078015,237.0361,242.6762,242.67831,244.68076,10.255335,244.68117,247.09865
25,25,0,8,2,0,5.000000e-01,8.075000e-01,1.0,24.0,247.21994,2.0,8,248.86711,high,1.6471831,1.3528169,249.38708,252.4707,252.47258,254.47469,7.2547493,254.4751,255.27855
26,26,8,4,2,1,5.000000e-01,4.037500e+00,1.0,25.0,255.39732,2.0,4,257.16745,low,1.770115,1.229885,257.68622,260.6481,260.65027,262.6531,7.255762,262.65353,266.68555
27,27,2,4,3,1,5.000000e-01,5.652500e+00,1.0,26.0,266.69897,2.0,4,268.58383,high,1.8848622,1.1151378,269.10403,271.94916,271.95123,273.95398,7.254984,273.95438,279.60153
28,28,0,8,3,0,5.000000e-01,8.075000e-01,1.0,27.0,279.6148,2.0,8,281.3007,high,1.685885,1.314115,281.82098,284.86478,284.86682,286.86853,7.2537303,286.869,287.67233
29,29,0,4,3,1,2,7.267500e+00,1.0,28.0,287.68475,2.0,4,289.3504,high,1.6656601,1.3343399,289.8714,294.43536,294.4375,296.44028,8.755519,296.4407,303.7035
30,30,4,8,1,0,3.500000e+00,8.075000e-01,1.0,29.0,303.70926,1.0,4,305.50043,low,1.7911675,1.2088325,306.0194,311.96017,311.96222,313.96506,10.25579,313.96545,314.7666
31,31,8,4,3,0,5.000000e-01,2.422500e+00,1.0,30.0,314.78073,2.0,4,317.1177,low,2.3369806,0.6630194,317.63644,320.03055,320.03265,322.03586,7.255139,322.0363,324.45352
32,32,0,2,1,1,5.000000e-01,8.075000e-01,1.0,31.0,324.4591,2.0,2,326.25058,high,1.7914451,1.2085549,326.76993,329.70975,329.71182,331.71335,7.254221,331.71378,332.51758
33,33,8,2,2,1,5.000000e-01,2.422500e+00,1.0,32.0,332.6404,2.0,2,334.58365,low,1.9432302,1.0567698,335.10406,337.8913,337.89346,339.8965,7.256097,339.89694,342.31363
34,34,2,4,1,1,5.000000e-01,8.075000e-01,1.0,33.0,342.3194,2.0,4,344.20078,high,1.8813837,1.1186163,344.72095,347.5706,347.5731,349.57666,7.257281,349.5771,350.37775
35,35,2,8,1,0,2,8.075000e-01,1.0,34.0,350.38126,1.0,2,352.3173,low,1.9360256,1.0639744,352.83658,357.132,357.13406,359.1374,8.756145,359.13785,359.9398
36,36,0,4,1,0,2,4.037500e+00,1.0,35.0,359.9445,2.0,4,361.88397,high,1.9394866,1.0605134,362.4034,366.69507,366.6955,368.69803,8.753539,368.69843,372.73322
37,37,4,0,2,1,5.000000e-01,8.075000e-01,1.0,36.0,372.85458,1.0,4,374.75027,high,1.895702,1.104298,375.27048,378.10434,378.1064,380.10934,7.254761,380.1098,380.91196
38,38,8,4,1,1,5.000000e-01,4.037500e+00,1.0,37.0,380.91763,2.0,4,382.7335,low,1.8158745,1.1841255,383.25323,386.16812,386.1702,388.1734,7.255775,388.17383,392.20517
39,39,2,8,3,0,2,8.075000e-01,1.0,38.0,392.21964,2.0,8,394.2007,high,1.9810723,1.0189277,394.71964,398.97095,398.97324,400.97617,8.756522,400.9766,401.77722
40,40,2,4,3,0,2,2.422500e+00,1.0,39.0,401.7892,2.0,4,403.91733,high,2.1281042,0.8718957,404.4366,408.53964,408.54007,410.54303,8.753818,410.54346,412.96167
41,41,4,0,1,1,2,8.882500e+00,1.0,40.0,412.96753,1.0,4,415.13336,high,2.1658347,0.8341654,415.6538,419.7188,419.7209,421.72397,8.756431,421.72437,430.60013
42,42,0,2,2,1,2,4.037500e+00,1.0,41.0,430.7483,2.0,2,432.48334,high,1.7350374,1.2649626,433.00296,437.4993,437.5014,439.50455,8.756235,439.50494,443.53622
