onset	duration	trial_type	response_time	Endowment	Endowment_pmod	Decision	Decision_pmod	Offer_pmod
4.504585	2	cue_nonsocial	n/a	16	-6	n/a	n/a	n/a
4.504585	2	cue_nonsocial_low	n/a	16	-7	n/a	n/a	n/a
12.154485	2	cue_nonsocial	n/a	16	-6	n/a	n/a	n/a
12.154485	2	cue_nonsocial_low	n/a	16	-7	n/a	n/a	n/a
19.103296	2	cue_social	n/a	32	9	n/a	n/a	n/a
19.103296	2	cue_social_high	n/a	32	10	n/a	n/a	n/a
28.254564	2	cue_nonsocial	n/a	32	10	n/a	n/a	n/a
28.254564	2	cue_nonsocial_high	n/a	32	9	n/a	n/a	n/a
35.155690	2	cue_social	n/a	16	-7	n/a	n/a	n/a
35.155690	2	cue_social_low	n/a	16	-6	n/a	n/a	n/a
42.004116	2	cue_social	n/a	16	-7	n/a	n/a	n/a
42.004116	2	cue_social_low	n/a	16	-6	n/a	n/a	n/a
48.812855	2	cue_social	n/a	16	-7	n/a	n/a	n/a
48.812855	2	cue_social_low	n/a	16	-6	n/a	n/a	n/a
56.476860	2	cue_social	n/a	16	-7	n/a	n/a	n/a
56.476860	2	cue_social_low	n/a	16	-6	n/a	n/a	n/a
68.887500	2	cue_nonsocial	n/a	16	-6	n/a	n/a	n/a
68.887500	2	cue_nonsocial_low	n/a	16	-7	n/a	n/a	n/a
76.537360	2	cue_nonsocial	n/a	32	10	n/a	n/a	n/a
76.537360	2	cue_nonsocial_high	n/a	32	9	n/a	n/a	n/a
83.371040	2	cue_nonsocial	n/a	16	-6	n/a	n/a	n/a
83.371040	2	cue_nonsocial_low	n/a	16	-7	n/a	n/a	n/a
91.021520	2	cue_nonsocial	n/a	16	-6	n/a	n/a	n/a
91.021520	2	cue_nonsocial_low	n/a	16	-7	n/a	n/a	n/a
97.932755	2	cue_social	n/a	32	9	n/a	n/a	n/a
97.932755	2	cue_social_high	n/a	32	10	n/a	n/a	n/a
105.573940	2	cue_social	n/a	32	9	n/a	n/a	n/a
105.573940	2	cue_social_high	n/a	32	10	n/a	n/a	n/a
112.417940	2	cue_social	n/a	16	-7	n/a	n/a	n/a
112.417940	2	cue_social_low	n/a	16	-6	n/a	n/a	n/a
119.240740	2	cue_social	n/a	16	-7	n/a	n/a	n/a
119.240740	2	cue_social_low	n/a	16	-6	n/a	n/a	n/a
126.884610	2	cue_social	n/a	16	-7	n/a	n/a	n/a
126.884610	2	cue_social_low	n/a	16	-6	n/a	n/a	n/a
133.654330	2	cue_nonsocial	n/a	32	10	n/a	n/a	n/a
133.654330	2	cue_nonsocial_high	n/a	32	9	n/a	n/a	n/a
140.487720	2	cue_nonsocial	n/a	32	10	n/a	n/a	n/a
140.487720	2	cue_nonsocial_high	n/a	32	9	n/a	n/a	n/a
149.803150	2	cue_social	n/a	32	9	n/a	n/a	n/a
149.803150	2	cue_social_high	n/a	32	10	n/a	n/a	n/a
156.570760	2	cue_nonsocial	n/a	32	10	n/a	n/a	n/a
156.570760	2	cue_nonsocial_high	n/a	32	9	n/a	n/a	n/a
165.916350	2	cue_social	n/a	32	9	n/a	n/a	n/a
165.916350	2	cue_social_high	n/a	32	10	n/a	n/a	n/a
172.734220	2	cue_social	n/a	32	9	n/a	n/a	n/a
172.734220	2	cue_social_high	n/a	32	10	n/a	n/a	n/a
179.504010	2	cue_nonsocial	n/a	32	10	n/a	n/a	n/a
179.504010	2	cue_nonsocial_high	n/a	32	9	n/a	n/a	n/a
186.406170	2	cue_social	n/a	32	9	n/a	n/a	n/a
186.406170	2	cue_social_high	n/a	32	10	n/a	n/a	n/a
197.204060	2	cue_nonsocial	n/a	16	-6	n/a	n/a	n/a
197.204060	2	cue_nonsocial_low	n/a	16	-7	n/a	n/a	n/a
204.107150	2	cue_social	n/a	16	-7	n/a	n/a	n/a
204.107150	2	cue_social_low	n/a	16	-6	n/a	n/a	n/a
210.944990	2	cue_social	n/a	16	-7	n/a	n/a	n/a
210.944990	2	cue_social_low	n/a	16	-6	n/a	n/a	n/a
217.770920	2	cue_social	n/a	16	-7	n/a	n/a	n/a
217.770920	2	cue_social_low	n/a	16	-6	n/a	n/a	n/a
225.353600	2	cue_nonsocial	n/a	16	-6	n/a	n/a	n/a
225.353600	2	cue_nonsocial_low	n/a	16	-7	n/a	n/a	n/a
234.674800	2	cue_social	n/a	16	-7	n/a	n/a	n/a
234.674800	2	cue_social_low	n/a	16	-6	n/a	n/a	n/a
242.318440	2	cue_social	n/a	16	-7	n/a	n/a	n/a
242.318440	2	cue_social_low	n/a	16	-6	n/a	n/a	n/a
249.903870	2	cue_nonsocial	n/a	32	10	n/a	n/a	n/a
249.903870	2	cue_nonsocial_high	n/a	32	9	n/a	n/a	n/a
259.153660	2	cue_nonsocial	n/a	16	-6	n/a	n/a	n/a
259.153660	2	cue_nonsocial_low	n/a	16	-7	n/a	n/a	n/a
266.803560	2	cue_nonsocial	n/a	16	-6	n/a	n/a	n/a
266.803560	2	cue_nonsocial_low	n/a	16	-7	n/a	n/a	n/a
276.053740	2	cue_nonsocial	n/a	16	-6	n/a	n/a	n/a
276.053740	2	cue_nonsocial_low	n/a	16	-7	n/a	n/a	n/a
283.704040	2	cue_nonsocial	n/a	32	10	n/a	n/a	n/a
283.704040	2	cue_nonsocial_high	n/a	32	9	n/a	n/a	n/a
290.537140	2	cue_nonsocial	n/a	32	10	n/a	n/a	n/a
290.537140	2	cue_nonsocial_high	n/a	32	9	n/a	n/a	n/a
297.431920	2	cue_social	n/a	32	9	n/a	n/a	n/a
297.431920	2	cue_social_high	n/a	32	10	n/a	n/a	n/a
304.203670	2	cue_nonsocial	n/a	16	-6	n/a	n/a	n/a
304.203670	2	cue_nonsocial_low	n/a	16	-7	n/a	n/a	n/a
311.853600	2	cue_nonsocial	n/a	16	-6	n/a	n/a	n/a
311.853600	2	cue_nonsocial_low	n/a	16	-7	n/a	n/a	n/a
322.805660	2	cue_social	n/a	32	9	n/a	n/a	n/a
322.805660	2	cue_social_high	n/a	32	10	n/a	n/a	n/a
330.466550	2	cue_social	n/a	16	-7	n/a	n/a	n/a
330.466550	2	cue_social_low	n/a	16	-6	n/a	n/a	n/a
337.268370	2	cue_social	n/a	16	-7	n/a	n/a	n/a
337.268370	2	cue_social_low	n/a	16	-6	n/a	n/a	n/a
348.136470	2	cue_social	n/a	32	9	n/a	n/a	n/a
348.136470	2	cue_social_high	n/a	32	10	n/a	n/a	n/a
354.903470	2	cue_nonsocial	n/a	16	-6	n/a	n/a	n/a
354.903470	2	cue_nonsocial_low	n/a	16	-7	n/a	n/a	n/a
361.736820	2	cue_nonsocial	n/a	16	-6	n/a	n/a	n/a
361.736820	2	cue_nonsocial_low	n/a	16	-7	n/a	n/a	n/a
368.570530	2	cue_nonsocial	n/a	16	-6	n/a	n/a	n/a
368.570530	2	cue_nonsocial_low	n/a	16	-7	n/a	n/a	n/a
6.512118	1.215366	dec_nonsocial_choice	1.215366	16.000000	n/a	1	-1.692708e-01	-1.692708e-01
6.512118	1.215366	dec_choice	1.215366	16.000000	n/a	1	-1.692708e-01	-1.692708e-01
6.512118	1.215366	dec_nonsocial_accept	1.215366	16.000000	n/a	1	-1.715426e-01	-1.715426e-01
6.512118	1.215366	dec_accept	1.215366	16.000000	n/a	1	-1.692708e-01	-1.692708e-01
6.512118	1.215366	dec_nonsocial_accept_low	1.215366	16.000000	n/a	1	-1.739130e-01	-1.739130e-01
14.160957	1.366466	dec_nonsocial_choice	1.366466	16.000000	n/a	1	-1.692708e-01	-1.692708e-01
14.160957	1.366466	dec_choice	1.366466	16.000000	n/a	1	-1.692708e-01	-1.692708e-01
14.160957	1.366466	dec_nonsocial_accept	1.366466	16.000000	n/a	1	-1.715426e-01	-1.715426e-01
14.160957	1.366466	dec_accept	1.366466	16.000000	n/a	1	-1.692708e-01	-1.692708e-01
14.160957	1.366466	dec_nonsocial_low	1.366466	16.000000	n/a	1	-1.692708e-01	-1.692708e-01
14.160957	1.366466	dec_nonsocial_accept_low	1.366466	16.000000	n/a	1	-1.692708e-01	-1.692708e-01
20.994238	0.933836	dec_social_choice	0.933836	32.000000	n/a	8	1.822917e-02	1.822917e-02
20.994238	0.933836	dec_choice	0.933836	32.000000	n/a	8	1.822917e-02	1.822917e-02
20.994238	0.933836	dec_social_accept	0.933836	32.000000	n/a	8	1.595745e-02	1.595745e-02
20.994238	0.933836	dec_accept	0.933836	32.000000	n/a	8	1.358696e-02	1.358696e-02
20.994238	0.933836	dec_social_high	0.933836	32.000000	n/a	8	1.822917e-02	1.822917e-02
20.994238	0.933836	dec_social_accept_high	0.933836	32.000000	n/a	8	1.822917e-02	1.822917e-02
30.261091	1.016594	dec_nonsocial_choice	1.016594	32.000000	n/a	8	1.822917e-02	1.822917e-02
30.261091	1.016594	dec_choice	1.016594	32.000000	n/a	8	1.822917e-02	1.822917e-02
30.261091	1.016594	dec_nonsocial_accept	1.016594	32.000000	n/a	8	1.595745e-02	1.595745e-02
30.261091	1.016594	dec_accept	1.016594	32.000000	n/a	8	1.822917e-02	1.822917e-02
30.261091	1.016594	dec_nonsocial_accept_high	1.016594	32.000000	n/a	8	1.358696e-02	1.358696e-02
37.095000	0.799649	dec_social_choice	0.799649	16.000000	n/a	8	2.682292e-01	2.682292e-01
37.095000	0.799649	dec_choice	0.799649	16.000000	n/a	8	2.682292e-01	2.682292e-01
37.095000	0.799649	dec_social_accept	0.799649	16.000000	n/a	8	2.659574e-01	2.659574e-01
37.095000	0.799649	dec_accept	0.799649	16.000000	n/a	8	2.635870e-01	2.635870e-01
37.095000	0.799649	dec_social_accept_high	0.799649	16.000000	n/a	8	2.682292e-01	2.682292e-01
43.928010	0.800087	dec_social_choice	0.800087	16.000000	n/a	4	1.822917e-02	1.822917e-02
43.928010	0.800087	dec_choice	0.800087	16.000000	n/a	4	1.822917e-02	1.822917e-02
43.928010	0.800087	dec_social_accept	0.800087	16.000000	n/a	4	1.595745e-02	1.595745e-02
43.928010	0.800087	dec_accept	0.800087	16.000000	n/a	4	1.358696e-02	1.358696e-02
43.928010	0.800087	dec_social_accept_high	0.800087	16.000000	n/a	4	1.822917e-02	1.822917e-02
50.762024	0.949205	dec_social_choice	0.949205	16.000000	n/a	2	-1.067708e-01	-1.067708e-01
50.762024	0.949205	dec_choice	0.949205	16.000000	n/a	2	-1.067708e-01	-1.067708e-01
50.762024	0.949205	dec_social_accept	0.949205	16.000000	n/a	2	-1.090426e-01	-1.090426e-01
50.762024	0.949205	dec_accept	0.949205	16.000000	n/a	2	-1.114130e-01	-1.114130e-01
50.762024	0.949205	dec_social_accept_low	0.949205	16.000000	n/a	2	-1.067708e-01	-1.067708e-01
58.410088	0.684191	dec_social_choice	0.684191	16.000000	n/a	8	2.682292e-01	2.682292e-01
58.410088	0.684191	dec_choice	0.684191	16.000000	n/a	8	2.682292e-01	2.682292e-01
58.410088	0.684191	dec_social_accept	0.684191	16.000000	n/a	8	2.659574e-01	2.659574e-01
58.410088	0.684191	dec_accept	0.684191	16.000000	n/a	8	2.635870e-01	2.635870e-01
58.410088	0.684191	dec_social_accept_high	0.684191	16.000000	n/a	8	2.682292e-01	2.682292e-01
70.893970	0.983686	dec_nonsocial_choice	0.983686	16.000000	n/a	1	-1.692708e-01	-1.692708e-01
70.893970	0.983686	dec_choice	0.983686	16.000000	n/a	1	-1.692708e-01	-1.692708e-01
70.893970	0.983686	dec_nonsocial_accept	0.983686	16.000000	n/a	1	-1.715426e-01	-1.715426e-01
70.893970	0.983686	dec_accept	0.983686	16.000000	n/a	1	-1.692708e-01	-1.692708e-01
70.893970	0.983686	dec_nonsocial_low	0.983686	16.000000	n/a	1	-1.692708e-01	-1.692708e-01
70.893970	0.983686	dec_nonsocial_accept_low	0.983686	16.000000	n/a	1	-1.692708e-01	-1.692708e-01
78.544060	0.866650	dec_nonsocial_choice	0.866650	32.000000	n/a	8	1.822917e-02	1.822917e-02
78.544060	0.866650	dec_choice	0.866650	32.000000	n/a	8	1.822917e-02	1.822917e-02
78.544060	0.866650	dec_nonsocial_accept	0.866650	32.000000	n/a	8	1.595745e-02	1.595745e-02
78.544060	0.866650	dec_accept	0.866650	32.000000	n/a	8	1.822917e-02	1.822917e-02
78.544060	0.866650	dec_nonsocial_high	0.866650	32.000000	n/a	8	1.822917e-02	1.822917e-02
78.544060	0.866650	dec_nonsocial_accept_high	0.866650	32.000000	n/a	8	1.822917e-02	1.822917e-02
85.377920	0.883126	dec_nonsocial_choice	0.883126	16.000000	n/a	4	1.822917e-02	1.822917e-02
85.377920	0.883126	dec_choice	0.883126	16.000000	n/a	4	1.822917e-02	1.822917e-02
85.377920	0.883126	dec_nonsocial_accept	0.883126	16.000000	n/a	4	1.595745e-02	1.595745e-02
85.377920	0.883126	dec_accept	0.883126	16.000000	n/a	4	1.822917e-02	1.822917e-02
85.377920	0.883126	dec_nonsocial_accept_high	0.883126	16.000000	n/a	4	1.358696e-02	1.358696e-02
93.027020	0.884092	dec_nonsocial_choice	0.884092	16.000000	n/a	4	1.822917e-02	1.822917e-02
93.027020	0.884092	dec_choice	0.884092	16.000000	n/a	4	1.822917e-02	1.822917e-02
93.027020	0.884092	dec_nonsocial_accept	0.884092	16.000000	n/a	4	1.595745e-02	1.595745e-02
93.027020	0.884092	dec_accept	0.884092	16.000000	n/a	4	1.822917e-02	1.822917e-02
93.027020	0.884092	dec_nonsocial_high	0.884092	16.000000	n/a	4	1.822917e-02	1.822917e-02
93.027020	0.884092	dec_nonsocial_accept_high	0.884092	16.000000	n/a	4	1.822917e-02	1.822917e-02
99.860970	0.816979	dec_social_choice	0.816979	32.000000	n/a	3	-1.380208e-01	-1.380208e-01
99.860970	0.816979	dec_choice	0.816979	32.000000	n/a	3	-1.380208e-01	-1.380208e-01
99.860970	0.816979	dec_social_accept	0.816979	32.000000	n/a	3	-1.402926e-01	-1.402926e-01
99.860970	0.816979	dec_accept	0.816979	32.000000	n/a	3	-1.426630e-01	-1.426630e-01
99.860970	0.816979	dec_social_low	0.816979	32.000000	n/a	3	-1.380208e-01	-1.380208e-01
99.860970	0.816979	dec_social_accept_low	0.816979	32.000000	n/a	3	-1.380208e-01	-1.380208e-01
107.512010	0.848869	dec_social_choice	0.848869	32.000000	n/a	2	-1.692708e-01	-1.692708e-01
107.512010	0.848869	dec_choice	0.848869	32.000000	n/a	2	-1.692708e-01	-1.692708e-01
107.512010	0.848869	dec_social_accept	0.848869	32.000000	n/a	2	-1.715426e-01	-1.715426e-01
107.512010	0.848869	dec_accept	0.848869	32.000000	n/a	2	-1.739130e-01	-1.739130e-01
107.512010	0.848869	dec_social_accept_low	0.848869	32.000000	n/a	2	-1.692708e-01	-1.692708e-01
114.344710	0.816000	dec_social_choice	0.816000	16.000000	n/a	4	1.822917e-02	1.822917e-02
114.344710	0.816000	dec_choice	0.816000	16.000000	n/a	4	1.822917e-02	1.822917e-02
114.344710	0.816000	dec_social_accept	0.816000	16.000000	n/a	4	1.595745e-02	1.595745e-02
114.344710	0.816000	dec_accept	0.816000	16.000000	n/a	4	1.358696e-02	1.358696e-02
114.344710	0.816000	dec_social_high	0.816000	16.000000	n/a	4	1.822917e-02	1.822917e-02
114.344710	0.816000	dec_social_accept_high	0.816000	16.000000	n/a	4	1.822917e-02	1.822917e-02
121.176990	0.934125	dec_social_choice	0.934125	16.000000	n/a	8	2.682292e-01	2.682292e-01
121.176990	0.934125	dec_choice	0.934125	16.000000	n/a	8	2.682292e-01	2.682292e-01
121.176990	0.934125	dec_social_accept	0.934125	16.000000	n/a	8	2.659574e-01	2.659574e-01
121.176990	0.934125	dec_accept	0.934125	16.000000	n/a	8	2.635870e-01	2.635870e-01
121.176990	0.934125	dec_social_high	0.934125	16.000000	n/a	8	2.682292e-01	2.682292e-01
121.176990	0.934125	dec_social_accept_high	0.934125	16.000000	n/a	8	2.682292e-01	2.682292e-01
128.827970	0.632886	dec_social_choice	0.632886	16.000000	n/a	0	0	-2.317708e-01
128.827970	0.632886	dec_choice	0.632886	16.000000	n/a	0	0	-2.317708e-01
128.827970	0.632886	dec_social_reject	0.632886	16.000000	n/a	0	0	6.250000e-02
128.827970	0.632886	dec_reject	0.632886	16.000000	n/a	0	0	0
128.827970	0.632886	dec_social_low	0.632886	16.000000	n/a	0	-2.317708e-01	-2.317708e-01
128.827970	0.632886	dec_social_reject_low	0.632886	16.000000	n/a	2	-1.067708e-01	-2.317708e-01
135.660900	0.800148	dec_nonsocial_choice	0.800148	32.000000	n/a	16	2.682292e-01	2.682292e-01
135.660900	0.800148	dec_choice	0.800148	32.000000	n/a	16	2.682292e-01	2.682292e-01
135.660900	0.800148	dec_nonsocial_accept	0.800148	32.000000	n/a	16	2.659574e-01	2.659574e-01
135.660900	0.800148	dec_accept	0.800148	32.000000	n/a	16	2.682292e-01	2.682292e-01
135.660900	0.800148	dec_nonsocial_high	0.800148	32.000000	n/a	16	2.682292e-01	2.682292e-01
135.660900	0.800148	dec_nonsocial_accept_high	0.800148	32.000000	n/a	16	2.682292e-01	2.682292e-01
142.493850	0.750188	dec_nonsocial_choice	0.750188	32.000000	n/a	2	-1.692708e-01	-1.692708e-01
142.493850	0.750188	dec_choice	0.750188	32.000000	n/a	2	-1.692708e-01	-1.692708e-01
142.493850	0.750188	dec_nonsocial_accept	0.750188	32.000000	n/a	2	-1.715426e-01	-1.715426e-01
142.493850	0.750188	dec_accept	0.750188	32.000000	n/a	2	-1.692708e-01	-1.692708e-01
142.493850	0.750188	dec_nonsocial_accept_low	0.750188	32.000000	n/a	2	-1.739130e-01	-1.739130e-01
151.744480	0.766083	dec_social_choice	0.766083	32.000000	n/a	2	-1.692708e-01	-1.692708e-01
151.744480	0.766083	dec_choice	0.766083	32.000000	n/a	2	-1.692708e-01	-1.692708e-01
151.744480	0.766083	dec_social_accept	0.766083	32.000000	n/a	2	-1.715426e-01	-1.715426e-01
151.744480	0.766083	dec_accept	0.766083	32.000000	n/a	2	-1.739130e-01	-1.739130e-01
151.744480	0.766083	dec_social_low	0.766083	32.000000	n/a	2	-1.692708e-01	-1.692708e-01
151.744480	0.766083	dec_social_accept_low	0.766083	32.000000	n/a	2	-1.692708e-01	-1.692708e-01
158.577160	0.916803	dec_nonsocial_choice	0.916803	32.000000	n/a	3	-1.380208e-01	-1.380208e-01
158.577160	0.916803	dec_choice	0.916803	32.000000	n/a	3	-1.380208e-01	-1.380208e-01
158.577160	0.916803	dec_nonsocial_accept	0.916803	32.000000	n/a	3	-1.402926e-01	-1.402926e-01
158.577160	0.916803	dec_accept	0.916803	32.000000	n/a	3	-1.380208e-01	-1.380208e-01
158.577160	0.916803	dec_nonsocial_low	0.916803	32.000000	n/a	3	-1.380208e-01	-1.380208e-01
158.577160	0.916803	dec_nonsocial_accept_low	0.916803	32.000000	n/a	3	-1.380208e-01	-1.380208e-01
167.843860	0.650368	dec_social_choice	0.650368	32.000000	n/a	2	-1.692708e-01	-1.692708e-01
167.843860	0.650368	dec_choice	0.650368	32.000000	n/a	2	-1.692708e-01	-1.692708e-01
167.843860	0.650368	dec_social_accept	0.650368	32.000000	n/a	2	-1.715426e-01	-1.715426e-01
167.843860	0.650368	dec_accept	0.650368	32.000000	n/a	2	-1.739130e-01	-1.739130e-01
167.843860	0.650368	dec_social_accept_low	0.650368	32.000000	n/a	2	-1.692708e-01	-1.692708e-01
174.676990	0.700662	dec_social_choice	0.700662	32.000000	n/a	3	-1.380208e-01	-1.380208e-01
174.676990	0.700662	dec_choice	0.700662	32.000000	n/a	3	-1.380208e-01	-1.380208e-01
174.676990	0.700662	dec_social_accept	0.700662	32.000000	n/a	3	-1.402926e-01	-1.402926e-01
174.676990	0.700662	dec_accept	0.700662	32.000000	n/a	3	-1.426630e-01	-1.426630e-01
174.676990	0.700662	dec_social_accept_low	0.700662	32.000000	n/a	3	-1.380208e-01	-1.380208e-01
181.510900	0.883356	dec_nonsocial_choice	0.883356	32.000000	n/a	16	2.682292e-01	2.682292e-01
181.510900	0.883356	dec_choice	0.883356	32.000000	n/a	16	2.682292e-01	2.682292e-01
181.510900	0.883356	dec_nonsocial_accept	0.883356	32.000000	n/a	16	2.659574e-01	2.659574e-01
181.510900	0.883356	dec_accept	0.883356	32.000000	n/a	16	2.682292e-01	2.682292e-01
181.510900	0.883356	dec_nonsocial_high	0.883356	32.000000	n/a	16	2.682292e-01	2.682292e-01
181.510900	0.883356	dec_nonsocial_accept_high	0.883356	32.000000	n/a	16	2.682292e-01	2.682292e-01
188.343260	1.000576	dec_social_choice	1.000576	32.000000	n/a	2	-1.692708e-01	-1.692708e-01
188.343260	1.000576	dec_choice	1.000576	32.000000	n/a	2	-1.692708e-01	-1.692708e-01
188.343260	1.000576	dec_social_accept	1.000576	32.000000	n/a	2	-1.715426e-01	-1.715426e-01
188.343260	1.000576	dec_accept	1.000576	32.000000	n/a	2	-1.739130e-01	-1.739130e-01
188.343260	1.000576	dec_social_accept_low	1.000576	32.000000	n/a	2	-1.692708e-01	-1.692708e-01
199.210800	0.849648	dec_nonsocial_choice	0.849648	16.000000	n/a	1	-1.692708e-01	-1.692708e-01
199.210800	0.849648	dec_choice	0.849648	16.000000	n/a	1	-1.692708e-01	-1.692708e-01
199.210800	0.849648	dec_nonsocial_accept	0.849648	16.000000	n/a	1	-1.715426e-01	-1.715426e-01
199.210800	0.849648	dec_accept	0.849648	16.000000	n/a	1	-1.692708e-01	-1.692708e-01
199.210800	0.849648	dec_nonsocial_accept_low	0.849648	16.000000	n/a	1	-1.739130e-01	-1.739130e-01
206.044830	0.615396	dec_social_choice	0.615396	16.000000	n/a	4	1.822917e-02	1.822917e-02
206.044830	0.615396	dec_choice	0.615396	16.000000	n/a	4	1.822917e-02	1.822917e-02
206.044830	0.615396	dec_social_accept	0.615396	16.000000	n/a	4	1.595745e-02	1.595745e-02
206.044830	0.615396	dec_accept	0.615396	16.000000	n/a	4	1.358696e-02	1.358696e-02
206.044830	0.615396	dec_social_accept_high	0.615396	16.000000	n/a	4	1.822917e-02	1.822917e-02
212.876460	0.567107	dec_social_choice	0.567107	16.000000	n/a	1	-1.692708e-01	-1.692708e-01
212.876460	0.567107	dec_choice	0.567107	16.000000	n/a	1	-1.692708e-01	-1.692708e-01
212.876460	0.567107	dec_social_accept	0.567107	16.000000	n/a	1	-1.715426e-01	-1.715426e-01
212.876460	0.567107	dec_accept	0.567107	16.000000	n/a	1	-1.739130e-01	-1.739130e-01
212.876460	0.567107	dec_social_accept_low	0.567107	16.000000	n/a	1	-1.692708e-01	-1.692708e-01
219.710830	1.015829	dec_social_choice	1.015829	16.000000	n/a	2	-1.067708e-01	-1.067708e-01
219.710830	1.015829	dec_choice	1.015829	16.000000	n/a	2	-1.067708e-01	-1.067708e-01
219.710830	1.015829	dec_social_accept	1.015829	16.000000	n/a	2	-1.090426e-01	-1.090426e-01
219.710830	1.015829	dec_accept	1.015829	16.000000	n/a	2	-1.114130e-01	-1.114130e-01
219.710830	1.015829	dec_social_accept_low	1.015829	16.000000	n/a	2	-1.067708e-01	-1.067708e-01
227.361480	0.799005	dec_nonsocial_choice	0.799005	16.000000	n/a	2	-1.067708e-01	-1.067708e-01
227.361480	0.799005	dec_choice	0.799005	16.000000	n/a	2	-1.067708e-01	-1.067708e-01
227.361480	0.799005	dec_nonsocial_accept	0.799005	16.000000	n/a	2	-1.090426e-01	-1.090426e-01
227.361480	0.799005	dec_accept	0.799005	16.000000	n/a	2	-1.067708e-01	-1.067708e-01
227.361480	0.799005	dec_nonsocial_low	0.799005	16.000000	n/a	2	-1.067708e-01	-1.067708e-01
227.361480	0.799005	dec_nonsocial_accept_low	0.799005	16.000000	n/a	2	-1.067708e-01	-1.067708e-01
236.611800	0.732680	dec_social_choice	0.732680	16.000000	n/a	8	2.682292e-01	2.682292e-01
236.611800	0.732680	dec_choice	0.732680	16.000000	n/a	8	2.682292e-01	2.682292e-01
236.611800	0.732680	dec_social_accept	0.732680	16.000000	n/a	8	2.659574e-01	2.659574e-01
236.611800	0.732680	dec_accept	0.732680	16.000000	n/a	8	2.635870e-01	2.635870e-01
236.611800	0.732680	dec_social_high	0.732680	16.000000	n/a	8	2.682292e-01	2.682292e-01
236.611800	0.732680	dec_social_accept_high	0.732680	16.000000	n/a	8	2.682292e-01	2.682292e-01
244.260800	0.765906	dec_social_choice	0.765906	16.000000	n/a	1	-1.692708e-01	-1.692708e-01
244.260800	0.765906	dec_choice	0.765906	16.000000	n/a	1	-1.692708e-01	-1.692708e-01
244.260800	0.765906	dec_social_accept	0.765906	16.000000	n/a	1	-1.715426e-01	-1.715426e-01
244.260800	0.765906	dec_accept	0.765906	16.000000	n/a	1	-1.739130e-01	-1.739130e-01
244.260800	0.765906	dec_social_low	0.765906	16.000000	n/a	1	-1.692708e-01	-1.692708e-01
244.260800	0.765906	dec_social_accept_low	0.765906	16.000000	n/a	1	-1.692708e-01	-1.692708e-01
251.910800	1.249728	dec_nonsocial_choice	1.249728	32.000000	n/a	16	2.682292e-01	2.682292e-01
251.910800	1.249728	dec_choice	1.249728	32.000000	n/a	16	2.682292e-01	2.682292e-01
251.910800	1.249728	dec_nonsocial_accept	1.249728	32.000000	n/a	16	2.659574e-01	2.659574e-01
251.910800	1.249728	dec_accept	1.249728	32.000000	n/a	16	2.682292e-01	2.682292e-01
251.910800	1.249728	dec_nonsocial_accept_high	1.249728	32.000000	n/a	16	2.635870e-01	2.635870e-01
261.160100	0.766432	dec_nonsocial_choice	0.766432	16.000000	n/a	8	2.682292e-01	2.682292e-01
261.160100	0.766432	dec_choice	0.766432	16.000000	n/a	8	2.682292e-01	2.682292e-01
261.160100	0.766432	dec_nonsocial_accept	0.766432	16.000000	n/a	8	2.659574e-01	2.659574e-01
261.160100	0.766432	dec_accept	0.766432	16.000000	n/a	8	2.682292e-01	2.682292e-01
261.160100	0.766432	dec_nonsocial_accept_high	0.766432	16.000000	n/a	8	2.635870e-01	2.635870e-01
268.809750	0.484227	dec_nonsocial_choice	0.484227	16.000000	n/a	4	1.822917e-02	1.822917e-02
268.809750	0.484227	dec_choice	0.484227	16.000000	n/a	4	1.822917e-02	1.822917e-02
268.809750	0.484227	dec_nonsocial_accept	0.484227	16.000000	n/a	4	1.595745e-02	1.595745e-02
268.809750	0.484227	dec_accept	0.484227	16.000000	n/a	4	1.822917e-02	1.822917e-02
268.809750	0.484227	dec_nonsocial_accept_high	0.484227	16.000000	n/a	4	1.358696e-02	1.358696e-02
278.060550	0.516415	dec_nonsocial_choice	0.516415	16.000000	n/a	4	1.822917e-02	1.822917e-02
278.060550	0.516415	dec_choice	0.516415	16.000000	n/a	4	1.822917e-02	1.822917e-02
278.060550	0.516415	dec_nonsocial_accept	0.516415	16.000000	n/a	4	1.595745e-02	1.595745e-02
278.060550	0.516415	dec_accept	0.516415	16.000000	n/a	4	1.822917e-02	1.822917e-02
278.060550	0.516415	dec_nonsocial_accept_high	0.516415	16.000000	n/a	4	1.358696e-02	1.358696e-02
285.711300	0.832625	dec_nonsocial_choice	0.832625	32.000000	n/a	3	-1.380208e-01	-1.380208e-01
285.711300	0.832625	dec_choice	0.832625	32.000000	n/a	3	-1.380208e-01	-1.380208e-01
285.711300	0.832625	dec_nonsocial_accept	0.832625	32.000000	n/a	3	-1.402926e-01	-1.402926e-01
285.711300	0.832625	dec_accept	0.832625	32.000000	n/a	3	-1.380208e-01	-1.380208e-01
285.711300	0.832625	dec_nonsocial_accept_low	0.832625	32.000000	n/a	3	-1.426630e-01	-1.426630e-01
292.544800	0.732097	dec_nonsocial_choice	0.732097	32.000000	n/a	2	-1.692708e-01	-1.692708e-01
292.544800	0.732097	dec_choice	0.732097	32.000000	n/a	2	-1.692708e-01	-1.692708e-01
292.544800	0.732097	dec_nonsocial_accept	0.732097	32.000000	n/a	2	-1.715426e-01	-1.715426e-01
292.544800	0.732097	dec_accept	0.732097	32.000000	n/a	2	-1.692708e-01	-1.692708e-01
292.544800	0.732097	dec_nonsocial_accept_low	0.732097	32.000000	n/a	2	-1.739130e-01	-1.739130e-01
299.378300	0.781989	dec_social_choice	0.781989	32.000000	n/a	16	2.682292e-01	2.682292e-01
299.378300	0.781989	dec_choice	0.781989	32.000000	n/a	16	2.682292e-01	2.682292e-01
299.378300	0.781989	dec_social_accept	0.781989	32.000000	n/a	16	2.659574e-01	2.659574e-01
299.378300	0.781989	dec_accept	0.781989	32.000000	n/a	16	2.635870e-01	2.635870e-01
299.378300	0.781989	dec_social_high	0.781989	32.000000	n/a	16	2.682292e-01	2.682292e-01
299.378300	0.781989	dec_social_accept_high	0.781989	32.000000	n/a	16	2.682292e-01	2.682292e-01
306.210700	0.899682	dec_nonsocial_choice	0.899682	16.000000	n/a	8	2.682292e-01	2.682292e-01
306.210700	0.899682	dec_choice	0.899682	16.000000	n/a	8	2.682292e-01	2.682292e-01
306.210700	0.899682	dec_nonsocial_accept	0.899682	16.000000	n/a	8	2.659574e-01	2.659574e-01
306.210700	0.899682	dec_accept	0.899682	16.000000	n/a	8	2.682292e-01	2.682292e-01
306.210700	0.899682	dec_nonsocial_high	0.899682	16.000000	n/a	8	2.682292e-01	2.682292e-01
306.210700	0.899682	dec_nonsocial_accept_high	0.899682	16.000000	n/a	8	2.682292e-01	2.682292e-01
313.860000	0.633713	dec_nonsocial_choice	0.633713	16.000000	n/a	8	2.682292e-01	2.682292e-01
313.860000	0.633713	dec_choice	0.633713	16.000000	n/a	8	2.682292e-01	2.682292e-01
313.860000	0.633713	dec_nonsocial_accept	0.633713	16.000000	n/a	8	2.659574e-01	2.659574e-01
313.860000	0.633713	dec_accept	0.633713	16.000000	n/a	8	2.682292e-01	2.682292e-01
313.860000	0.633713	dec_nonsocial_high	0.633713	16.000000	n/a	8	2.682292e-01	2.682292e-01
313.860000	0.633713	dec_nonsocial_accept_high	0.633713	16.000000	n/a	8	2.682292e-01	2.682292e-01
324.726700	1.050240	dec_social_choice	1.050240	32.000000	n/a	16	2.682292e-01	2.682292e-01
324.726700	1.050240	dec_choice	1.050240	32.000000	n/a	16	2.682292e-01	2.682292e-01
324.726700	1.050240	dec_social_accept	1.050240	32.000000	n/a	16	2.659574e-01	2.659574e-01
324.726700	1.050240	dec_accept	1.050240	32.000000	n/a	16	2.635870e-01	2.635870e-01
324.726700	1.050240	dec_social_accept_high	1.050240	32.000000	n/a	16	2.682292e-01	2.682292e-01
332.377750	0.632722	dec_social_choice	0.632722	16.000000	n/a	4	1.822917e-02	1.822917e-02
332.377750	0.632722	dec_choice	0.632722	16.000000	n/a	4	1.822917e-02	1.822917e-02
332.377750	0.632722	dec_social_accept	0.632722	16.000000	n/a	4	1.595745e-02	1.595745e-02
332.377750	0.632722	dec_accept	0.632722	16.000000	n/a	4	1.358696e-02	1.358696e-02
332.377750	0.632722	dec_social_accept_high	0.632722	16.000000	n/a	4	1.822917e-02	1.822917e-02
339.210660	0.715759	dec_social_choice	0.715759	16.000000	n/a	2	-1.067708e-01	-1.067708e-01
339.210660	0.715759	dec_choice	0.715759	16.000000	n/a	2	-1.067708e-01	-1.067708e-01
339.210660	0.715759	dec_social_accept	0.715759	16.000000	n/a	2	-1.090426e-01	-1.090426e-01
339.210660	0.715759	dec_accept	0.715759	16.000000	n/a	2	-1.114130e-01	-1.114130e-01
339.210660	0.715759	dec_social_accept_low	0.715759	16.000000	n/a	2	-1.067708e-01	-1.067708e-01
350.077730	0.582731	dec_social_choice	0.582731	32.000000	n/a	8	1.822917e-02	1.822917e-02
350.077730	0.582731	dec_choice	0.582731	32.000000	n/a	8	1.822917e-02	1.822917e-02
350.077730	0.582731	dec_social_accept	0.582731	32.000000	n/a	8	1.595745e-02	1.595745e-02
350.077730	0.582731	dec_accept	0.582731	32.000000	n/a	8	1.358696e-02	1.358696e-02
350.077730	0.582731	dec_social_accept_high	0.582731	32.000000	n/a	8	1.822917e-02	1.822917e-02
356.909820	0.716508	dec_nonsocial_choice	0.716508	16.000000	n/a	2	-1.067708e-01	-1.067708e-01
356.909820	0.716508	dec_choice	0.716508	16.000000	n/a	2	-1.067708e-01	-1.067708e-01
356.909820	0.716508	dec_nonsocial_accept	0.716508	16.000000	n/a	2	-1.090426e-01	-1.090426e-01
356.909820	0.716508	dec_accept	0.716508	16.000000	n/a	2	-1.067708e-01	-1.067708e-01
356.909820	0.716508	dec_nonsocial_low	0.716508	16.000000	n/a	2	-1.067708e-01	-1.067708e-01
356.909820	0.716508	dec_nonsocial_accept_low	0.716508	16.000000	n/a	2	-1.067708e-01	-1.067708e-01
363.744300	0.549364	dec_nonsocial_choice	0.549364	16.000000	n/a	2	-1.067708e-01	-1.067708e-01
363.744300	0.549364	dec_choice	0.549364	16.000000	n/a	2	-1.067708e-01	-1.067708e-01
363.744300	0.549364	dec_nonsocial_accept	0.549364	16.000000	n/a	2	-1.090426e-01	-1.090426e-01
363.744300	0.549364	dec_accept	0.549364	16.000000	n/a	2	-1.067708e-01	-1.067708e-01
363.744300	0.549364	dec_nonsocial_accept_low	0.549364	16.000000	n/a	2	-1.114130e-01	-1.114130e-01
370.576700	0.633623	dec_nonsocial_choice	0.633623	16.000000	n/a	2	-1.067708e-01	-1.067708e-01
370.576700	0.633623	dec_choice	0.633623	16.000000	n/a	2	-1.067708e-01	-1.067708e-01
370.576700	0.633623	dec_nonsocial_accept	0.633623	16.000000	n/a	2	-1.090426e-01	-1.090426e-01
370.576700	0.633623	dec_accept	0.633623	16.000000	n/a	2	-1.067708e-01	-1.067708e-01
370.576700	0.633623	dec_nonsocial_accept_low	0.633623	16.000000	n/a	2	-1.114130e-01	-1.114130e-01
