onset	duration	trial_type	response_time	Endowment	Endowment_pmod	Decision	Decision_pmod	Offer_pmod
4.512526	2	cue_nonsocial	n/a	16	-7	n/a	n/a	n/a
4.512526	2	cue_nonsocial_low	n/a	16	-6	n/a	n/a	n/a
11.396382	2	cue_social	n/a	16	-6	n/a	n/a	n/a
11.396382	2	cue_social_low	n/a	16	-7	n/a	n/a	n/a
19.044409	2	cue_social	n/a	16	-6	n/a	n/a	n/a
19.044409	2	cue_social_low	n/a	16	-7	n/a	n/a	n/a
25.882393	2	cue_social	n/a	16	-6	n/a	n/a	n/a
25.882393	2	cue_social_low	n/a	16	-7	n/a	n/a	n/a
35.079067	2	cue_nonsocial	n/a	16	-7	n/a	n/a	n/a
35.079067	2	cue_nonsocial_low	n/a	16	-6	n/a	n/a	n/a
41.912210	2	cue_nonsocial	n/a	32	9	n/a	n/a	n/a
41.912210	2	cue_nonsocial_high	n/a	32	10	n/a	n/a	n/a
48.820835	2	cue_social	n/a	32	10	n/a	n/a	n/a
48.820835	2	cue_social_high	n/a	32	9	n/a	n/a	n/a
56.432476	2	cue_social	n/a	16	-6	n/a	n/a	n/a
56.432476	2	cue_social_low	n/a	16	-7	n/a	n/a	n/a
64.070366	2	cue_social	n/a	16	-6	n/a	n/a	n/a
64.070366	2	cue_social_low	n/a	16	-7	n/a	n/a	n/a
71.679150	2	cue_nonsocial	n/a	16	-7	n/a	n/a	n/a
71.679150	2	cue_nonsocial_low	n/a	16	-6	n/a	n/a	n/a
84.162186	2	cue_nonsocial	n/a	32	9	n/a	n/a	n/a
84.162186	2	cue_nonsocial_high	n/a	32	10	n/a	n/a	n/a
90.995770	2	cue_nonsocial	n/a	16	-7	n/a	n/a	n/a
90.995770	2	cue_nonsocial_low	n/a	16	-6	n/a	n/a	n/a
97.883896	2	cue_social	n/a	16	-6	n/a	n/a	n/a
97.883896	2	cue_social_low	n/a	16	-7	n/a	n/a	n/a
105.519230	2	cue_social	n/a	32	10	n/a	n/a	n/a
105.519230	2	cue_social_high	n/a	32	9	n/a	n/a	n/a
112.311950	2	cue_nonsocial	n/a	32	9	n/a	n/a	n/a
112.311950	2	cue_nonsocial_high	n/a	32	10	n/a	n/a	n/a
119.145515	2	cue_nonsocial	n/a	16	-7	n/a	n/a	n/a
119.145515	2	cue_nonsocial_low	n/a	16	-6	n/a	n/a	n/a
130.012120	2	cue_nonsocial	n/a	16	-7	n/a	n/a	n/a
130.012120	2	cue_nonsocial_low	n/a	16	-6	n/a	n/a	n/a
137.661940	2	cue_nonsocial	n/a	16	-7	n/a	n/a	n/a
137.661940	2	cue_nonsocial_low	n/a	16	-6	n/a	n/a	n/a
145.350590	2	cue_social	n/a	32	10	n/a	n/a	n/a
145.350590	2	cue_social_high	n/a	32	9	n/a	n/a	n/a
152.145000	2	cue_nonsocial	n/a	32	9	n/a	n/a	n/a
152.145000	2	cue_nonsocial_high	n/a	32	10	n/a	n/a	n/a
159.020300	2	cue_social	n/a	16	-6	n/a	n/a	n/a
159.020300	2	cue_social_low	n/a	16	-7	n/a	n/a	n/a
168.298550	2	cue_social	n/a	16	-6	n/a	n/a	n/a
168.298550	2	cue_social_low	n/a	16	-7	n/a	n/a	n/a
175.078810	2	cue_nonsocial	n/a	16	-7	n/a	n/a	n/a
175.078810	2	cue_nonsocial_low	n/a	16	-6	n/a	n/a	n/a
182.777080	2	cue_social	n/a	32	10	n/a	n/a	n/a
182.777080	2	cue_social_high	n/a	32	9	n/a	n/a	n/a
191.995210	2	cue_nonsocial	n/a	16	-7	n/a	n/a	n/a
191.995210	2	cue_nonsocial_low	n/a	16	-6	n/a	n/a	n/a
198.915100	2	cue_social	n/a	32	10	n/a	n/a	n/a
198.915100	2	cue_social_high	n/a	32	9	n/a	n/a	n/a
205.661910	2	cue_nonsocial	n/a	32	9	n/a	n/a	n/a
205.661910	2	cue_nonsocial_high	n/a	32	10	n/a	n/a	n/a
212.495210	2	cue_nonsocial	n/a	32	9	n/a	n/a	n/a
212.495210	2	cue_nonsocial_high	n/a	32	10	n/a	n/a	n/a
220.145130	2	cue_nonsocial	n/a	16	-7	n/a	n/a	n/a
220.145130	2	cue_nonsocial_low	n/a	16	-6	n/a	n/a	n/a
226.978350	2	cue_nonsocial	n/a	32	9	n/a	n/a	n/a
226.978350	2	cue_nonsocial_high	n/a	32	10	n/a	n/a	n/a
234.628900	2	cue_nonsocial	n/a	16	-7	n/a	n/a	n/a
234.628900	2	cue_nonsocial_low	n/a	16	-6	n/a	n/a	n/a
241.529680	2	cue_social	n/a	32	10	n/a	n/a	n/a
241.529680	2	cue_social_high	n/a	32	9	n/a	n/a	n/a
252.328430	2	cue_nonsocial	n/a	32	9	n/a	n/a	n/a
252.328430	2	cue_nonsocial_high	n/a	32	10	n/a	n/a	n/a
259.223720	2	cue_social	n/a	16	-6	n/a	n/a	n/a
259.223720	2	cue_social_low	n/a	16	-7	n/a	n/a	n/a
266.869400	2	cue_social	n/a	16	-6	n/a	n/a	n/a
266.869400	2	cue_social_low	n/a	16	-7	n/a	n/a	n/a
273.645260	2	cue_nonsocial	n/a	32	9	n/a	n/a	n/a
273.645260	2	cue_nonsocial_high	n/a	32	10	n/a	n/a	n/a
280.589540	2	cue_social	n/a	32	10	n/a	n/a	n/a
280.589540	2	cue_social_high	n/a	32	9	n/a	n/a	n/a
289.800720	2	cue_social	n/a	32	10	n/a	n/a	n/a
289.800720	2	cue_social_high	n/a	32	9	n/a	n/a	n/a
296.578250	2	cue_nonsocial	n/a	16	-7	n/a	n/a	n/a
296.578250	2	cue_nonsocial_low	n/a	16	-6	n/a	n/a	n/a
305.907000	2	cue_social	n/a	16	-6	n/a	n/a	n/a
305.907000	2	cue_social_low	n/a	16	-7	n/a	n/a	n/a
312.700530	2	cue_social	n/a	16	-6	n/a	n/a	n/a
312.700530	2	cue_social_low	n/a	16	-7	n/a	n/a	n/a
321.928130	2	cue_nonsocial	n/a	16	-7	n/a	n/a	n/a
321.928130	2	cue_nonsocial_low	n/a	16	-6	n/a	n/a	n/a
328.761500	2	cue_nonsocial	n/a	16	-7	n/a	n/a	n/a
328.761500	2	cue_nonsocial_low	n/a	16	-6	n/a	n/a	n/a
335.665000	2	cue_social	n/a	16	-6	n/a	n/a	n/a
335.665000	2	cue_social_low	n/a	16	-7	n/a	n/a	n/a
344.917700	2	cue_social	n/a	32	10	n/a	n/a	n/a
344.917700	2	cue_social_high	n/a	32	9	n/a	n/a	n/a
351.748470	2	cue_social	n/a	16	-6	n/a	n/a	n/a
351.748470	2	cue_social_low	n/a	16	-7	n/a	n/a	n/a
359.405430	2	cue_social	n/a	16	-6	n/a	n/a	n/a
359.405430	2	cue_social_low	n/a	16	-7	n/a	n/a	n/a
366.960970	2	cue_nonsocial	n/a	32	9	n/a	n/a	n/a
366.960970	2	cue_nonsocial_high	n/a	32	10	n/a	n/a	n/a
6.519123	0.833507	dec_nonsocial_choice	0.833507	16.000000	n/a	4	1.822917e-02	1.822917e-02
6.519123	0.833507	dec_choice	0.833507	16.000000	n/a	4	1.822917e-02	1.822917e-02
6.519123	0.833507	dec_nonsocial_accept	0.833507	16.000000	n/a	4	1.822917e-02	1.822917e-02
6.519123	0.833507	dec_accept	0.833507	16.000000	n/a	4	1.822917e-02	1.822917e-02
6.519123	0.833507	dec_nonsocial_accept_high	0.833507	16.000000	n/a	4	1.822917e-02	1.822917e-02
13.352952	0.849449	dec_social_choice	0.849449	16.000000	n/a	1	-1.692708e-01	-1.692708e-01
13.352952	0.849449	dec_choice	0.849449	16.000000	n/a	1	-1.692708e-01	-1.692708e-01
13.352952	0.849449	dec_social_accept	0.849449	16.000000	n/a	1	-1.692708e-01	-1.692708e-01
13.352952	0.849449	dec_accept	0.849449	16.000000	n/a	1	-1.692708e-01	-1.692708e-01
13.352952	0.849449	dec_social_low	0.849449	16.000000	n/a	1	-1.692708e-01	-1.692708e-01
13.352952	0.849449	dec_social_accept_low	0.849449	16.000000	n/a	1	-1.692708e-01	-1.692708e-01
21.001990	0.816631	dec_social_choice	0.816631	16.000000	n/a	1	-1.692708e-01	-1.692708e-01
21.001990	0.816631	dec_choice	0.816631	16.000000	n/a	1	-1.692708e-01	-1.692708e-01
21.001990	0.816631	dec_social_accept	0.816631	16.000000	n/a	1	-1.692708e-01	-1.692708e-01
21.001990	0.816631	dec_accept	0.816631	16.000000	n/a	1	-1.692708e-01	-1.692708e-01
21.001990	0.816631	dec_social_accept_low	0.816631	16.000000	n/a	1	-1.692708e-01	-1.692708e-01
27.835890	0.749839	dec_social_choice	0.749839	16.000000	n/a	4	1.822917e-02	1.822917e-02
27.835890	0.749839	dec_choice	0.749839	16.000000	n/a	4	1.822917e-02	1.822917e-02
27.835890	0.749839	dec_social_accept	0.749839	16.000000	n/a	4	1.822917e-02	1.822917e-02
27.835890	0.749839	dec_accept	0.749839	16.000000	n/a	4	1.822917e-02	1.822917e-02
27.835890	0.749839	dec_social_high	0.749839	16.000000	n/a	4	1.822917e-02	1.822917e-02
27.835890	0.749839	dec_social_accept_high	0.749839	16.000000	n/a	4	1.822917e-02	1.822917e-02
37.085987	0.783027	dec_nonsocial_choice	0.783027	16.000000	n/a	4	1.822917e-02	1.822917e-02
37.085987	0.783027	dec_choice	0.783027	16.000000	n/a	4	1.822917e-02	1.822917e-02
37.085987	0.783027	dec_nonsocial_accept	0.783027	16.000000	n/a	4	1.822917e-02	1.822917e-02
37.085987	0.783027	dec_accept	0.783027	16.000000	n/a	4	1.822917e-02	1.822917e-02
37.085987	0.783027	dec_nonsocial_high	0.783027	16.000000	n/a	4	1.822917e-02	1.822917e-02
37.085987	0.783027	dec_nonsocial_accept_high	0.783027	16.000000	n/a	4	1.822917e-02	1.822917e-02
43.919888	0.882173	dec_nonsocial_choice	0.882173	32.000000	n/a	16	2.682292e-01	2.682292e-01
43.919888	0.882173	dec_choice	0.882173	32.000000	n/a	16	2.682292e-01	2.682292e-01
43.919888	0.882173	dec_nonsocial_accept	0.882173	32.000000	n/a	16	2.682292e-01	2.682292e-01
43.919888	0.882173	dec_accept	0.882173	32.000000	n/a	16	2.682292e-01	2.682292e-01
43.919888	0.882173	dec_nonsocial_accept_high	0.882173	32.000000	n/a	16	2.682292e-01	2.682292e-01
50.751892	0.800289	dec_social_choice	0.800289	32.000000	n/a	3	-1.380208e-01	-1.380208e-01
50.751892	0.800289	dec_choice	0.800289	32.000000	n/a	3	-1.380208e-01	-1.380208e-01
50.751892	0.800289	dec_social_accept	0.800289	32.000000	n/a	3	-1.380208e-01	-1.380208e-01
50.751892	0.800289	dec_accept	0.800289	32.000000	n/a	3	-1.380208e-01	-1.380208e-01
50.751892	0.800289	dec_social_low	0.800289	32.000000	n/a	3	-1.380208e-01	-1.380208e-01
50.751892	0.800289	dec_social_accept_low	0.800289	32.000000	n/a	3	-1.380208e-01	-1.380208e-01
58.385920	0.683160	dec_social_choice	0.683160	16.000000	n/a	8	2.682292e-01	2.682292e-01
58.385920	0.683160	dec_choice	0.683160	16.000000	n/a	8	2.682292e-01	2.682292e-01
58.385920	0.683160	dec_social_accept	0.683160	16.000000	n/a	8	2.682292e-01	2.682292e-01
58.385920	0.683160	dec_accept	0.683160	16.000000	n/a	8	2.682292e-01	2.682292e-01
58.385920	0.683160	dec_social_high	0.683160	16.000000	n/a	8	2.682292e-01	2.682292e-01
58.385920	0.683160	dec_social_accept_high	0.683160	16.000000	n/a	8	2.682292e-01	2.682292e-01
66.035870	0.932842	dec_social_choice	0.932842	16.000000	n/a	2	-1.067708e-01	-1.067708e-01
66.035870	0.932842	dec_choice	0.932842	16.000000	n/a	2	-1.067708e-01	-1.067708e-01
66.035870	0.932842	dec_social_accept	0.932842	16.000000	n/a	2	-1.067708e-01	-1.067708e-01
66.035870	0.932842	dec_accept	0.932842	16.000000	n/a	2	-1.067708e-01	-1.067708e-01
66.035870	0.932842	dec_social_low	0.932842	16.000000	n/a	2	-1.067708e-01	-1.067708e-01
66.035870	0.932842	dec_social_accept_low	0.932842	16.000000	n/a	2	-1.067708e-01	-1.067708e-01
73.686880	0.681967	dec_nonsocial_choice	0.681967	16.000000	n/a	2	-1.067708e-01	-1.067708e-01
73.686880	0.681967	dec_choice	0.681967	16.000000	n/a	2	-1.067708e-01	-1.067708e-01
73.686880	0.681967	dec_nonsocial_accept	0.681967	16.000000	n/a	2	-1.067708e-01	-1.067708e-01
73.686880	0.681967	dec_accept	0.681967	16.000000	n/a	2	-1.067708e-01	-1.067708e-01
73.686880	0.681967	dec_nonsocial_accept_low	0.681967	16.000000	n/a	2	-1.067708e-01	-1.067708e-01
86.168840	0.783478	dec_nonsocial_choice	0.783478	32.000000	n/a	8	1.822917e-02	1.822917e-02
86.168840	0.783478	dec_choice	0.783478	32.000000	n/a	8	1.822917e-02	1.822917e-02
86.168840	0.783478	dec_nonsocial_accept	0.783478	32.000000	n/a	8	1.822917e-02	1.822917e-02
86.168840	0.783478	dec_accept	0.783478	32.000000	n/a	8	1.822917e-02	1.822917e-02
86.168840	0.783478	dec_nonsocial_accept_high	0.783478	32.000000	n/a	8	1.822917e-02	1.822917e-02
93.001870	0.716437	dec_nonsocial_choice	0.716437	16.000000	n/a	1	-1.692708e-01	-1.692708e-01
93.001870	0.716437	dec_choice	0.716437	16.000000	n/a	1	-1.692708e-01	-1.692708e-01
93.001870	0.716437	dec_nonsocial_accept	0.716437	16.000000	n/a	1	-1.692708e-01	-1.692708e-01
93.001870	0.716437	dec_accept	0.716437	16.000000	n/a	1	-1.692708e-01	-1.692708e-01
93.001870	0.716437	dec_nonsocial_low	0.716437	16.000000	n/a	1	-1.692708e-01	-1.692708e-01
93.001870	0.716437	dec_nonsocial_accept_low	0.716437	16.000000	n/a	1	-1.692708e-01	-1.692708e-01
99.835890	0.682683	dec_social_choice	0.682683	16.000000	n/a	1	-1.692708e-01	-1.692708e-01
99.835890	0.682683	dec_choice	0.682683	16.000000	n/a	1	-1.692708e-01	-1.692708e-01
99.835890	0.682683	dec_social_accept	0.682683	16.000000	n/a	1	-1.692708e-01	-1.692708e-01
99.835890	0.682683	dec_accept	0.682683	16.000000	n/a	1	-1.692708e-01	-1.692708e-01
99.835890	0.682683	dec_social_accept_low	0.682683	16.000000	n/a	1	-1.692708e-01	-1.692708e-01
107.485825	0.865884	dec_social_choice	0.865884	32.000000	n/a	8	1.822917e-02	1.822917e-02
107.485825	0.865884	dec_choice	0.865884	32.000000	n/a	8	1.822917e-02	1.822917e-02
107.485825	0.865884	dec_social_accept	0.865884	32.000000	n/a	8	1.822917e-02	1.822917e-02
107.485825	0.865884	dec_accept	0.865884	32.000000	n/a	8	1.822917e-02	1.822917e-02
107.485825	0.865884	dec_social_high	0.865884	32.000000	n/a	8	1.822917e-02	1.822917e-02
107.485825	0.865884	dec_social_accept_high	0.865884	32.000000	n/a	8	1.822917e-02	1.822917e-02
114.317890	0.834534	dec_nonsocial_choice	0.834534	32.000000	n/a	16	2.682292e-01	2.682292e-01
114.317890	0.834534	dec_choice	0.834534	32.000000	n/a	16	2.682292e-01	2.682292e-01
114.317890	0.834534	dec_nonsocial_accept	0.834534	32.000000	n/a	16	2.682292e-01	2.682292e-01
114.317890	0.834534	dec_accept	0.834534	32.000000	n/a	16	2.682292e-01	2.682292e-01
114.317890	0.834534	dec_nonsocial_high	0.834534	32.000000	n/a	16	2.682292e-01	2.682292e-01
114.317890	0.834534	dec_nonsocial_accept_high	0.834534	32.000000	n/a	16	2.682292e-01	2.682292e-01
121.151800	0.784161	dec_nonsocial_choice	0.784161	16.000000	n/a	1	-1.692708e-01	-1.692708e-01
121.151800	0.784161	dec_choice	0.784161	16.000000	n/a	1	-1.692708e-01	-1.692708e-01
121.151800	0.784161	dec_nonsocial_accept	0.784161	16.000000	n/a	1	-1.692708e-01	-1.692708e-01
121.151800	0.784161	dec_accept	0.784161	16.000000	n/a	1	-1.692708e-01	-1.692708e-01
121.151800	0.784161	dec_nonsocial_low	0.784161	16.000000	n/a	1	-1.692708e-01	-1.692708e-01
121.151800	0.784161	dec_nonsocial_accept_low	0.784161	16.000000	n/a	1	-1.692708e-01	-1.692708e-01
132.018830	0.816283	dec_nonsocial_choice	0.816283	16.000000	n/a	2	-1.067708e-01	-1.067708e-01
132.018830	0.816283	dec_choice	0.816283	16.000000	n/a	2	-1.067708e-01	-1.067708e-01
132.018830	0.816283	dec_nonsocial_accept	0.816283	16.000000	n/a	2	-1.067708e-01	-1.067708e-01
132.018830	0.816283	dec_accept	0.816283	16.000000	n/a	2	-1.067708e-01	-1.067708e-01
132.018830	0.816283	dec_nonsocial_low	0.816283	16.000000	n/a	2	-1.067708e-01	-1.067708e-01
132.018830	0.816283	dec_nonsocial_accept_low	0.816283	16.000000	n/a	2	-1.067708e-01	-1.067708e-01
139.668810	1.016016	dec_nonsocial_choice	1.016016	16.000000	n/a	2	-1.067708e-01	-1.067708e-01
139.668810	1.016016	dec_choice	1.016016	16.000000	n/a	2	-1.067708e-01	-1.067708e-01
139.668810	1.016016	dec_nonsocial_accept	1.016016	16.000000	n/a	2	-1.067708e-01	-1.067708e-01
139.668810	1.016016	dec_accept	1.016016	16.000000	n/a	2	-1.067708e-01	-1.067708e-01
139.668810	1.016016	dec_nonsocial_accept_low	1.016016	16.000000	n/a	2	-1.067708e-01	-1.067708e-01
147.318820	0.732973	dec_social_choice	0.732973	32.000000	n/a	8	1.822917e-02	1.822917e-02
147.318820	0.732973	dec_choice	0.732973	32.000000	n/a	8	1.822917e-02	1.822917e-02
147.318820	0.732973	dec_social_accept	0.732973	32.000000	n/a	8	1.822917e-02	1.822917e-02
147.318820	0.732973	dec_accept	0.732973	32.000000	n/a	8	1.822917e-02	1.822917e-02
147.318820	0.732973	dec_social_high	0.732973	32.000000	n/a	8	1.822917e-02	1.822917e-02
147.318820	0.732973	dec_social_accept_high	0.732973	32.000000	n/a	8	1.822917e-02	1.822917e-02
154.151780	0.583775	dec_nonsocial_choice	0.583775	32.000000	n/a	8	1.822917e-02	1.822917e-02
154.151780	0.583775	dec_choice	0.583775	32.000000	n/a	8	1.822917e-02	1.822917e-02
154.151780	0.583775	dec_nonsocial_accept	0.583775	32.000000	n/a	8	1.822917e-02	1.822917e-02
154.151780	0.583775	dec_accept	0.583775	32.000000	n/a	8	1.822917e-02	1.822917e-02
154.151780	0.583775	dec_nonsocial_accept_high	0.583775	32.000000	n/a	8	1.822917e-02	1.822917e-02
160.985640	0.715882	dec_social_choice	0.715882	16.000000	n/a	8	2.682292e-01	2.682292e-01
160.985640	0.715882	dec_choice	0.715882	16.000000	n/a	8	2.682292e-01	2.682292e-01
160.985640	0.715882	dec_social_accept	0.715882	16.000000	n/a	8	2.682292e-01	2.682292e-01
160.985640	0.715882	dec_accept	0.715882	16.000000	n/a	8	2.682292e-01	2.682292e-01
160.985640	0.715882	dec_social_accept_high	0.715882	16.000000	n/a	8	2.682292e-01	2.682292e-01
170.252780	0.749335	dec_social_choice	0.749335	16.000000	n/a	8	2.682292e-01	2.682292e-01
170.252780	0.749335	dec_choice	0.749335	16.000000	n/a	8	2.682292e-01	2.682292e-01
170.252780	0.749335	dec_social_accept	0.749335	16.000000	n/a	8	2.682292e-01	2.682292e-01
170.252780	0.749335	dec_accept	0.749335	16.000000	n/a	8	2.682292e-01	2.682292e-01
170.252780	0.749335	dec_social_high	0.749335	16.000000	n/a	8	2.682292e-01	2.682292e-01
170.252780	0.749335	dec_social_accept_high	0.749335	16.000000	n/a	8	2.682292e-01	2.682292e-01
177.085570	0.583006	dec_nonsocial_choice	0.583006	16.000000	n/a	8	2.682292e-01	2.682292e-01
177.085570	0.583006	dec_choice	0.583006	16.000000	n/a	8	2.682292e-01	2.682292e-01
177.085570	0.583006	dec_nonsocial_accept	0.583006	16.000000	n/a	8	2.682292e-01	2.682292e-01
177.085570	0.583006	dec_accept	0.583006	16.000000	n/a	8	2.682292e-01	2.682292e-01
177.085570	0.583006	dec_nonsocial_accept_high	0.583006	16.000000	n/a	8	2.682292e-01	2.682292e-01
184.735290	0.565957	dec_social_choice	0.565957	32.000000	n/a	2	-1.692708e-01	-1.692708e-01
184.735290	0.565957	dec_choice	0.565957	32.000000	n/a	2	-1.692708e-01	-1.692708e-01
184.735290	0.565957	dec_social_accept	0.565957	32.000000	n/a	2	-1.692708e-01	-1.692708e-01
184.735290	0.565957	dec_accept	0.565957	32.000000	n/a	2	-1.692708e-01	-1.692708e-01
184.735290	0.565957	dec_social_accept_low	0.565957	32.000000	n/a	2	-1.692708e-01	-1.692708e-01
194.001750	0.749871	dec_nonsocial_choice	0.749871	16.000000	n/a	1	-1.692708e-01	-1.692708e-01
194.001750	0.749871	dec_choice	0.749871	16.000000	n/a	1	-1.692708e-01	-1.692708e-01
194.001750	0.749871	dec_nonsocial_accept	0.749871	16.000000	n/a	1	-1.692708e-01	-1.692708e-01
194.001750	0.749871	dec_accept	0.749871	16.000000	n/a	1	-1.692708e-01	-1.692708e-01
194.001750	0.749871	dec_nonsocial_accept_low	0.749871	16.000000	n/a	1	-1.692708e-01	-1.692708e-01
200.834820	0.633509	dec_social_choice	0.633509	32.000000	n/a	3	-1.380208e-01	-1.380208e-01
200.834820	0.633509	dec_choice	0.633509	32.000000	n/a	3	-1.380208e-01	-1.380208e-01
200.834820	0.633509	dec_social_accept	0.633509	32.000000	n/a	3	-1.380208e-01	-1.380208e-01
200.834820	0.633509	dec_accept	0.633509	32.000000	n/a	3	-1.380208e-01	-1.380208e-01
200.834820	0.633509	dec_social_low	0.633509	32.000000	n/a	3	-1.380208e-01	-1.380208e-01
200.834820	0.633509	dec_social_accept_low	0.633509	32.000000	n/a	3	-1.380208e-01	-1.380208e-01
207.669740	0.599415	dec_nonsocial_choice	0.599415	32.000000	n/a	3	-1.380208e-01	-1.380208e-01
207.669740	0.599415	dec_choice	0.599415	32.000000	n/a	3	-1.380208e-01	-1.380208e-01
207.669740	0.599415	dec_nonsocial_accept	0.599415	32.000000	n/a	3	-1.380208e-01	-1.380208e-01
207.669740	0.599415	dec_accept	0.599415	32.000000	n/a	3	-1.380208e-01	-1.380208e-01
207.669740	0.599415	dec_nonsocial_accept_low	0.599415	32.000000	n/a	3	-1.380208e-01	-1.380208e-01
214.502700	0.915519	dec_nonsocial_choice	0.915519	32.000000	n/a	3	-1.380208e-01	-1.380208e-01
214.502700	0.915519	dec_choice	0.915519	32.000000	n/a	3	-1.380208e-01	-1.380208e-01
214.502700	0.915519	dec_nonsocial_accept	0.915519	32.000000	n/a	3	-1.380208e-01	-1.380208e-01
214.502700	0.915519	dec_accept	0.915519	32.000000	n/a	3	-1.380208e-01	-1.380208e-01
214.502700	0.915519	dec_nonsocial_low	0.915519	32.000000	n/a	3	-1.380208e-01	-1.380208e-01
214.502700	0.915519	dec_nonsocial_accept_low	0.915519	32.000000	n/a	3	-1.380208e-01	-1.380208e-01
222.152500	0.682766	dec_nonsocial_choice	0.682766	16.000000	n/a	1	-1.692708e-01	-1.692708e-01
222.152500	0.682766	dec_choice	0.682766	16.000000	n/a	1	-1.692708e-01	-1.692708e-01
222.152500	0.682766	dec_nonsocial_accept	0.682766	16.000000	n/a	1	-1.692708e-01	-1.692708e-01
222.152500	0.682766	dec_accept	0.682766	16.000000	n/a	1	-1.692708e-01	-1.692708e-01
222.152500	0.682766	dec_nonsocial_low	0.682766	16.000000	n/a	1	-1.692708e-01	-1.692708e-01
222.152500	0.682766	dec_nonsocial_accept_low	0.682766	16.000000	n/a	1	-1.692708e-01	-1.692708e-01
228.985730	0.582932	dec_nonsocial_choice	0.582932	32.000000	n/a	16	2.682292e-01	2.682292e-01
228.985730	0.582932	dec_choice	0.582932	32.000000	n/a	16	2.682292e-01	2.682292e-01
228.985730	0.582932	dec_nonsocial_accept	0.582932	32.000000	n/a	16	2.682292e-01	2.682292e-01
228.985730	0.582932	dec_accept	0.582932	32.000000	n/a	16	2.682292e-01	2.682292e-01
228.985730	0.582932	dec_nonsocial_high	0.582932	32.000000	n/a	16	2.682292e-01	2.682292e-01
228.985730	0.582932	dec_nonsocial_accept_high	0.582932	32.000000	n/a	16	2.682292e-01	2.682292e-01
236.635280	0.799253	dec_nonsocial_choice	0.799253	16.000000	n/a	8	2.682292e-01	2.682292e-01
236.635280	0.799253	dec_choice	0.799253	16.000000	n/a	8	2.682292e-01	2.682292e-01
236.635280	0.799253	dec_nonsocial_accept	0.799253	16.000000	n/a	8	2.682292e-01	2.682292e-01
236.635280	0.799253	dec_accept	0.799253	16.000000	n/a	8	2.682292e-01	2.682292e-01
236.635280	0.799253	dec_nonsocial_accept_high	0.799253	16.000000	n/a	8	2.682292e-01	2.682292e-01
243.468690	0.949227	dec_social_choice	0.949227	32.000000	n/a	16	2.682292e-01	2.682292e-01
243.468690	0.949227	dec_choice	0.949227	32.000000	n/a	16	2.682292e-01	2.682292e-01
243.468690	0.949227	dec_social_accept	0.949227	32.000000	n/a	16	2.682292e-01	2.682292e-01
243.468690	0.949227	dec_accept	0.949227	32.000000	n/a	16	2.682292e-01	2.682292e-01
243.468690	0.949227	dec_social_high	0.949227	32.000000	n/a	16	2.682292e-01	2.682292e-01
243.468690	0.949227	dec_social_accept_high	0.949227	32.000000	n/a	16	2.682292e-01	2.682292e-01
254.335570	0.915374	dec_nonsocial_choice	0.915374	32.000000	n/a	8	1.822917e-02	1.822917e-02
254.335570	0.915374	dec_choice	0.915374	32.000000	n/a	8	1.822917e-02	1.822917e-02
254.335570	0.915374	dec_nonsocial_accept	0.915374	32.000000	n/a	8	1.822917e-02	1.822917e-02
254.335570	0.915374	dec_accept	0.915374	32.000000	n/a	8	1.822917e-02	1.822917e-02
254.335570	0.915374	dec_nonsocial_accept_high	0.915374	32.000000	n/a	8	1.822917e-02	1.822917e-02
261.167600	1.066886	dec_social_choice	1.066886	16.000000	n/a	4	1.822917e-02	1.822917e-02
261.167600	1.066886	dec_choice	1.066886	16.000000	n/a	4	1.822917e-02	1.822917e-02
261.167600	1.066886	dec_social_accept	1.066886	16.000000	n/a	4	1.822917e-02	1.822917e-02
261.167600	1.066886	dec_accept	1.066886	16.000000	n/a	4	1.822917e-02	1.822917e-02
261.167600	1.066886	dec_social_accept_high	1.066886	16.000000	n/a	4	1.822917e-02	1.822917e-02
268.818450	0.766109	dec_social_choice	0.766109	16.000000	n/a	8	2.682292e-01	2.682292e-01
268.818450	0.766109	dec_choice	0.766109	16.000000	n/a	8	2.682292e-01	2.682292e-01
268.818450	0.766109	dec_social_accept	0.766109	16.000000	n/a	8	2.682292e-01	2.682292e-01
268.818450	0.766109	dec_accept	0.766109	16.000000	n/a	8	2.682292e-01	2.682292e-01
268.818450	0.766109	dec_social_accept_high	0.766109	16.000000	n/a	8	2.682292e-01	2.682292e-01
275.651640	0.949933	dec_nonsocial_choice	0.949933	32.000000	n/a	2	-1.692708e-01	-1.692708e-01
275.651640	0.949933	dec_choice	0.949933	32.000000	n/a	2	-1.692708e-01	-1.692708e-01
275.651640	0.949933	dec_nonsocial_accept	0.949933	32.000000	n/a	2	-1.692708e-01	-1.692708e-01
275.651640	0.949933	dec_accept	0.949933	32.000000	n/a	2	-1.692708e-01	-1.692708e-01
275.651640	0.949933	dec_nonsocial_low	0.949933	32.000000	n/a	2	-1.692708e-01	-1.692708e-01
275.651640	0.949933	dec_nonsocial_accept_low	0.949933	32.000000	n/a	2	-1.692708e-01	-1.692708e-01
282.485570	0.815388	dec_social_choice	0.815388	32.000000	n/a	2	-1.692708e-01	-1.692708e-01
282.485570	0.815388	dec_choice	0.815388	32.000000	n/a	2	-1.692708e-01	-1.692708e-01
282.485570	0.815388	dec_social_accept	0.815388	32.000000	n/a	2	-1.692708e-01	-1.692708e-01
282.485570	0.815388	dec_accept	0.815388	32.000000	n/a	2	-1.692708e-01	-1.692708e-01
282.485570	0.815388	dec_social_accept_low	0.815388	32.000000	n/a	2	-1.692708e-01	-1.692708e-01
291.752400	0.615397	dec_social_choice	0.615397	32.000000	n/a	8	1.822917e-02	1.822917e-02
291.752400	0.615397	dec_choice	0.615397	32.000000	n/a	8	1.822917e-02	1.822917e-02
291.752400	0.615397	dec_social_accept	0.615397	32.000000	n/a	8	1.822917e-02	1.822917e-02
291.752400	0.615397	dec_accept	0.615397	32.000000	n/a	8	1.822917e-02	1.822917e-02
291.752400	0.615397	dec_social_accept_high	0.615397	32.000000	n/a	8	1.822917e-02	1.822917e-02
298.585630	0.749076	dec_nonsocial_choice	0.749076	16.000000	n/a	8	2.682292e-01	2.682292e-01
298.585630	0.749076	dec_choice	0.749076	16.000000	n/a	8	2.682292e-01	2.682292e-01
298.585630	0.749076	dec_nonsocial_accept	0.749076	16.000000	n/a	8	2.682292e-01	2.682292e-01
298.585630	0.749076	dec_accept	0.749076	16.000000	n/a	8	2.682292e-01	2.682292e-01
298.585630	0.749076	dec_nonsocial_high	0.749076	16.000000	n/a	8	2.682292e-01	2.682292e-01
298.585630	0.749076	dec_nonsocial_accept_high	0.749076	16.000000	n/a	8	2.682292e-01	2.682292e-01
307.851870	0.715829	dec_social_choice	0.715829	16.000000	n/a	1	-1.692708e-01	-1.692708e-01
307.851870	0.715829	dec_choice	0.715829	16.000000	n/a	1	-1.692708e-01	-1.692708e-01
307.851870	0.715829	dec_social_accept	0.715829	16.000000	n/a	1	-1.692708e-01	-1.692708e-01
307.851870	0.715829	dec_accept	0.715829	16.000000	n/a	1	-1.692708e-01	-1.692708e-01
307.851870	0.715829	dec_social_accept_low	0.715829	16.000000	n/a	1	-1.692708e-01	-1.692708e-01
314.683800	0.867942	dec_social_choice	0.867942	16.000000	n/a	4	1.822917e-02	1.822917e-02
314.683800	0.867942	dec_choice	0.867942	16.000000	n/a	4	1.822917e-02	1.822917e-02
314.683800	0.867942	dec_social_accept	0.867942	16.000000	n/a	4	1.822917e-02	1.822917e-02
314.683800	0.867942	dec_accept	0.867942	16.000000	n/a	4	1.822917e-02	1.822917e-02
314.683800	0.867942	dec_social_accept_high	0.867942	16.000000	n/a	4	1.822917e-02	1.822917e-02
323.934660	0.799831	dec_nonsocial_choice	0.799831	16.000000	n/a	4	1.822917e-02	1.822917e-02
323.934660	0.799831	dec_choice	0.799831	16.000000	n/a	4	1.822917e-02	1.822917e-02
323.934660	0.799831	dec_nonsocial_accept	0.799831	16.000000	n/a	4	1.822917e-02	1.822917e-02
323.934660	0.799831	dec_accept	0.799831	16.000000	n/a	4	1.822917e-02	1.822917e-02
323.934660	0.799831	dec_nonsocial_high	0.799831	16.000000	n/a	4	1.822917e-02	1.822917e-02
323.934660	0.799831	dec_nonsocial_accept_high	0.799831	16.000000	n/a	4	1.822917e-02	1.822917e-02
330.768250	0.882999	dec_nonsocial_choice	0.882999	16.000000	n/a	2	-1.067708e-01	-1.067708e-01
330.768250	0.882999	dec_choice	0.882999	16.000000	n/a	2	-1.067708e-01	-1.067708e-01
330.768250	0.882999	dec_nonsocial_accept	0.882999	16.000000	n/a	2	-1.067708e-01	-1.067708e-01
330.768250	0.882999	dec_accept	0.882999	16.000000	n/a	2	-1.067708e-01	-1.067708e-01
330.768250	0.882999	dec_nonsocial_accept_low	0.882999	16.000000	n/a	2	-1.067708e-01	-1.067708e-01
337.601620	0.599964	dec_social_choice	0.599964	16.000000	n/a	2	-1.067708e-01	-1.067708e-01
337.601620	0.599964	dec_choice	0.599964	16.000000	n/a	2	-1.067708e-01	-1.067708e-01
337.601620	0.599964	dec_social_accept	0.599964	16.000000	n/a	2	-1.067708e-01	-1.067708e-01
337.601620	0.599964	dec_accept	0.599964	16.000000	n/a	2	-1.067708e-01	-1.067708e-01
337.601620	0.599964	dec_social_accept_low	0.599964	16.000000	n/a	2	-1.067708e-01	-1.067708e-01
346.850740	0.950753	dec_social_choice	0.950753	32.000000	n/a	16	2.682292e-01	2.682292e-01
346.850740	0.950753	dec_choice	0.950753	32.000000	n/a	16	2.682292e-01	2.682292e-01
346.850740	0.950753	dec_social_accept	0.950753	32.000000	n/a	16	2.682292e-01	2.682292e-01
346.850740	0.950753	dec_accept	0.950753	32.000000	n/a	16	2.682292e-01	2.682292e-01
346.850740	0.950753	dec_social_high	0.950753	32.000000	n/a	16	2.682292e-01	2.682292e-01
346.850740	0.950753	dec_social_accept_high	0.950753	32.000000	n/a	16	2.682292e-01	2.682292e-01
353.684700	0.665978	dec_social_choice	0.665978	16.000000	n/a	2	-1.067708e-01	-1.067708e-01
353.684700	0.665978	dec_choice	0.665978	16.000000	n/a	2	-1.067708e-01	-1.067708e-01
353.684700	0.665978	dec_social_accept	0.665978	16.000000	n/a	2	-1.067708e-01	-1.067708e-01
353.684700	0.665978	dec_accept	0.665978	16.000000	n/a	2	-1.067708e-01	-1.067708e-01
353.684700	0.665978	dec_social_low	0.665978	16.000000	n/a	2	-1.067708e-01	-1.067708e-01
353.684700	0.665978	dec_social_accept_low	0.665978	16.000000	n/a	2	-1.067708e-01	-1.067708e-01
361.333740	0.551016	dec_social_choice	0.551016	16.000000	n/a	2	-1.067708e-01	-1.067708e-01
361.333740	0.551016	dec_choice	0.551016	16.000000	n/a	2	-1.067708e-01	-1.067708e-01
361.333740	0.551016	dec_social_accept	0.551016	16.000000	n/a	2	-1.067708e-01	-1.067708e-01
361.333740	0.551016	dec_accept	0.551016	16.000000	n/a	2	-1.067708e-01	-1.067708e-01
361.333740	0.551016	dec_social_accept_low	0.551016	16.000000	n/a	2	-1.067708e-01	-1.067708e-01
368.967960	0.566202	dec_nonsocial_choice	0.566202	32.000000	n/a	2	-1.692708e-01	-1.692708e-01
368.967960	0.566202	dec_choice	0.566202	32.000000	n/a	2	-1.692708e-01	-1.692708e-01
368.967960	0.566202	dec_nonsocial_accept	0.566202	32.000000	n/a	2	-1.692708e-01	-1.692708e-01
368.967960	0.566202	dec_accept	0.566202	32.000000	n/a	2	-1.692708e-01	-1.692708e-01
368.967960	0.566202	dec_nonsocial_low	0.566202	32.000000	n/a	2	-1.692708e-01	-1.692708e-01
368.967960	0.566202	dec_nonsocial_accept_low	0.566202	32.000000	n/a	2	-1.692708e-01	-1.692708e-01
