onset	duration	trial_type	response_time	Endowment	Endowment_pmod	Decision	Decision_pmod	Offer_pmod
4.602200	2	cue_social	n/a	32	8	n/a	n/a	n/a
4.602200	2	cue_social_high	n/a	32	4	n/a	n/a	n/a
11.347553	2	cue_nonsocial	n/a	32	4	n/a	n/a	n/a
11.347553	2	cue_nonsocial_high	n/a	32	8	n/a	n/a	n/a
18.998262	2	cue_nonsocial	n/a	32	4	n/a	n/a	n/a
18.998262	2	cue_nonsocial_high	n/a	32	8	n/a	n/a	n/a
28.264235	2	cue_nonsocial	n/a	32	4	n/a	n/a	n/a
28.264235	2	cue_nonsocial_high	n/a	32	8	n/a	n/a	n/a
35.179436	2	cue_social	n/a	32	8	n/a	n/a	n/a
35.179436	2	cue_social_high	n/a	32	4	n/a	n/a	n/a
42.016293	2	cue_social	n/a	16	-8	n/a	n/a	n/a
42.016293	2	cue_social_low	n/a	16	-12	n/a	n/a	n/a
48.849094	2	cue_social	n/a	16	-8	n/a	n/a	n/a
48.849094	2	cue_social_low	n/a	16	-12	n/a	n/a	n/a
56.479290	2	cue_social	n/a	16	-8	n/a	n/a	n/a
56.479290	2	cue_social_low	n/a	16	-12	n/a	n/a	n/a
63.363940	2	cue_social	n/a	32	8	n/a	n/a	n/a
63.363940	2	cue_social_high	n/a	32	4	n/a	n/a	n/a
72.497640	2	cue_nonsocial	n/a	32	4	n/a	n/a	n/a
72.497640	2	cue_nonsocial_high	n/a	32	8	n/a	n/a	n/a
85.075440	2	cue_social	n/a	32	8	n/a	n/a	n/a
85.075440	2	cue_social_high	n/a	32	4	n/a	n/a	n/a
94.230606	2	cue_nonsocial	n/a	32	4	n/a	n/a	n/a
94.230606	2	cue_nonsocial_high	n/a	32	8	n/a	n/a	n/a
103.480670	2	cue_nonsocial	n/a	16	-12	n/a	n/a	n/a
103.480670	2	cue_nonsocial_low	n/a	16	-8	n/a	n/a	n/a
111.130990	2	cue_nonsocial	n/a	32	4	n/a	n/a	n/a
111.130990	2	cue_nonsocial_high	n/a	32	8	n/a	n/a	n/a
118.855520	2	cue_social	n/a	16	-8	n/a	n/a	n/a
118.855520	2	cue_social_low	n/a	16	-12	n/a	n/a	n/a
129.747060	2	cue_social	n/a	32	8	n/a	n/a	n/a
129.747060	2	cue_social_high	n/a	32	4	n/a	n/a	n/a
136.580280	2	cue_social	n/a	32	8	n/a	n/a	n/a
136.580280	2	cue_social_high	n/a	32	4	n/a	n/a	n/a
144.130720	2	cue_nonsocial	n/a	32	4	n/a	n/a	n/a
144.130720	2	cue_nonsocial_high	n/a	32	8	n/a	n/a	n/a
150.963910	2	cue_nonsocial	n/a	32	4	n/a	n/a	n/a
150.963910	2	cue_nonsocial_high	n/a	32	8	n/a	n/a	n/a
157.797360	2	cue_nonsocial	n/a	32	4	n/a	n/a	n/a
157.797360	2	cue_nonsocial_high	n/a	32	8	n/a	n/a	n/a
164.708720	2	cue_social	n/a	32	8	n/a	n/a	n/a
164.708720	2	cue_social_high	n/a	32	4	n/a	n/a	n/a
175.497250	2	cue_nonsocial	n/a	32	4	n/a	n/a	n/a
175.497250	2	cue_nonsocial_high	n/a	32	8	n/a	n/a	n/a
183.147100	2	cue_nonsocial	n/a	32	4	n/a	n/a	n/a
183.147100	2	cue_nonsocial_high	n/a	32	8	n/a	n/a	n/a
192.472370	2	cue_social	n/a	16	-8	n/a	n/a	n/a
192.472370	2	cue_social_low	n/a	16	-12	n/a	n/a	n/a
199.318560	2	cue_social	n/a	16	-8	n/a	n/a	n/a
199.318560	2	cue_social_low	n/a	16	-12	n/a	n/a	n/a
206.080110	2	cue_nonsocial	n/a	32	4	n/a	n/a	n/a
206.080110	2	cue_nonsocial_high	n/a	32	8	n/a	n/a	n/a
212.984150	2	cue_social	n/a	16	-8	n/a	n/a	n/a
212.984150	2	cue_social_low	n/a	16	-12	n/a	n/a	n/a
219.747100	2	cue_nonsocial	n/a	16	-12	n/a	n/a	n/a
219.747100	2	cue_nonsocial_low	n/a	16	-8	n/a	n/a	n/a
226.645200	2	cue_social	n/a	16	-8	n/a	n/a	n/a
226.645200	2	cue_social_low	n/a	16	-12	n/a	n/a	n/a
233.413600	2	cue_nonsocial	n/a	32	4	n/a	n/a	n/a
233.413600	2	cue_nonsocial_high	n/a	32	8	n/a	n/a	n/a
241.114760	2	cue_social	n/a	16	-8	n/a	n/a	n/a
241.114760	2	cue_social_low	n/a	16	-12	n/a	n/a	n/a
248.779700	2	cue_social	n/a	32	8	n/a	n/a	n/a
248.779700	2	cue_social_high	n/a	32	4	n/a	n/a	n/a
256.364700	2	cue_nonsocial	n/a	16	-12	n/a	n/a	n/a
256.364700	2	cue_nonsocial_low	n/a	16	-8	n/a	n/a	n/a
263.197540	2	cue_nonsocial	n/a	32	4	n/a	n/a	n/a
263.197540	2	cue_nonsocial_high	n/a	32	8	n/a	n/a	n/a
270.845100	2	cue_social	n/a	16	-8	n/a	n/a	n/a
270.845100	2	cue_social_low	n/a	16	-12	n/a	n/a	n/a
277.680420	2	cue_nonsocial	n/a	32	4	n/a	n/a	n/a
277.680420	2	cue_nonsocial_high	n/a	32	8	n/a	n/a	n/a
284.513730	2	cue_nonsocial	n/a	16	-12	n/a	n/a	n/a
284.513730	2	cue_nonsocial_low	n/a	16	-8	n/a	n/a	n/a
291.426670	2	cue_social	n/a	32	8	n/a	n/a	n/a
291.426670	2	cue_social_high	n/a	32	4	n/a	n/a	n/a
299.099100	2	cue_social	n/a	16	-8	n/a	n/a	n/a
299.099100	2	cue_social_low	n/a	16	-12	n/a	n/a	n/a
305.923200	2	cue_social	n/a	32	8	n/a	n/a	n/a
305.923200	2	cue_social_high	n/a	32	4	n/a	n/a	n/a
312.663570	2	cue_nonsocial	n/a	16	-12	n/a	n/a	n/a
312.663570	2	cue_nonsocial_low	n/a	16	-8	n/a	n/a	n/a
320.313800	2	cue_nonsocial	n/a	32	4	n/a	n/a	n/a
320.313800	2	cue_nonsocial_high	n/a	32	8	n/a	n/a	n/a
327.226040	2	cue_social	n/a	16	-8	n/a	n/a	n/a
327.226040	2	cue_social_low	n/a	16	-12	n/a	n/a	n/a
336.396940	2	cue_nonsocial	n/a	32	4	n/a	n/a	n/a
336.396940	2	cue_nonsocial_high	n/a	32	8	n/a	n/a	n/a
343.229740	2	cue_nonsocial	n/a	32	4	n/a	n/a	n/a
343.229740	2	cue_nonsocial_high	n/a	32	8	n/a	n/a	n/a
350.063700	2	cue_nonsocial	n/a	16	-12	n/a	n/a	n/a
350.063700	2	cue_nonsocial_low	n/a	16	-8	n/a	n/a	n/a
361.050300	2	cue_social	n/a	32	8	n/a	n/a	n/a
361.050300	2	cue_social_high	n/a	32	4	n/a	n/a	n/a
370.280940	2	cue_social	n/a	32	8	n/a	n/a	n/a
370.280940	2	cue_social_high	n/a	32	4	n/a	n/a	n/a
6.520702	1.716139	dec_social_choice	1.716139	32.000000	n/a	16	2.708333e-01	2.708333e-01
6.520702	1.716139	dec_choice	1.716139	32.000000	n/a	16	2.708333e-01	2.708333e-01
6.520702	1.716139	dec_social_accept	1.716139	32.000000	n/a	16	2.670455e-01	2.670455e-01
6.520702	1.716139	dec_accept	1.716139	32.000000	n/a	16	2.585227e-01	2.585227e-01
6.520702	1.716139	dec_social_accept_high	1.716139	32.000000	n/a	16	2.708333e-01	2.708333e-01
13.354959	1.582353	dec_nonsocial_choice	1.582353	32.000000	n/a	8	2.083333e-02	2.083333e-02
13.354959	1.582353	dec_choice	1.582353	32.000000	n/a	8	2.083333e-02	2.083333e-02
13.354959	1.582353	dec_nonsocial_accept	1.582353	32.000000	n/a	8	1.704545e-02	1.704545e-02
13.354959	1.582353	dec_accept	1.582353	32.000000	n/a	8	2.556818e-02	2.556818e-02
13.354959	1.582353	dec_nonsocial_accept_high	1.582353	32.000000	n/a	8	8.522727e-03	8.522727e-03
21.004510	1.682689	dec_nonsocial_choice	1.682689	32.000000	n/a	16	2.708333e-01	2.708333e-01
21.004510	1.682689	dec_choice	1.682689	32.000000	n/a	16	2.708333e-01	2.708333e-01
21.004510	1.682689	dec_nonsocial_accept	1.682689	32.000000	n/a	16	2.670455e-01	2.670455e-01
21.004510	1.682689	dec_accept	1.682689	32.000000	n/a	16	2.755682e-01	2.755682e-01
21.004510	1.682689	dec_nonsocial_accept_high	1.682689	32.000000	n/a	16	2.585227e-01	2.585227e-01
30.270170	2.216691	dec_nonsocial_choice	2.216691	32.000000	n/a	16	2.708333e-01	2.708333e-01
30.270170	2.216691	dec_choice	2.216691	32.000000	n/a	16	2.708333e-01	2.708333e-01
30.270170	2.216691	dec_nonsocial_accept	2.216691	32.000000	n/a	16	2.670455e-01	2.670455e-01
30.270170	2.216691	dec_accept	2.216691	32.000000	n/a	16	2.755682e-01	2.755682e-01
30.270170	2.216691	dec_nonsocial_accept_high	2.216691	32.000000	n/a	16	2.585227e-01	2.585227e-01
37.103737	2.550212	dec_social_choice	2.550212	32.000000	n/a	0	0	-2.291667e-01
37.103737	2.550212	dec_choice	2.550212	32.000000	n/a	0	0	-2.291667e-01
37.103737	2.550212	dec_social_reject	2.550212	32.000000	n/a	0	0	-9.375000e-02
37.103737	2.550212	dec_reject	2.550212	32.000000	n/a	0	0	0
37.103737	2.550212	dec_social_low	2.550212	32.000000	n/a	0	-2.291667e-01	-2.291667e-01
37.103737	2.550212	dec_social_reject_low	2.550212	32.000000	n/a	3	-1.354167e-01	-2.291667e-01
43.936333	1.700870	dec_social_choice	1.700870	16.000000	n/a	8	2.708333e-01	2.708333e-01
43.936333	1.700870	dec_choice	1.700870	16.000000	n/a	8	2.708333e-01	2.708333e-01
43.936333	1.700870	dec_social_accept	1.700870	16.000000	n/a	8	2.670455e-01	2.670455e-01
43.936333	1.700870	dec_accept	1.700870	16.000000	n/a	8	2.585227e-01	2.585227e-01
43.936333	1.700870	dec_social_high	1.700870	16.000000	n/a	8	2.708333e-01	2.708333e-01
43.936333	1.700870	dec_social_accept_high	1.700870	16.000000	n/a	8	2.708333e-01	2.708333e-01
50.770428	2.833046	dec_social_choice	2.833046	16.000000	n/a	2	-1.041667e-01	-1.041667e-01
50.770428	2.833046	dec_choice	2.833046	16.000000	n/a	2	-1.041667e-01	-1.041667e-01
50.770428	2.833046	dec_social_accept	2.833046	16.000000	n/a	2	-1.079545e-01	-1.079545e-01
50.770428	2.833046	dec_accept	2.833046	16.000000	n/a	2	-1.164773e-01	-1.164773e-01
50.770428	2.833046	dec_social_accept_low	2.833046	16.000000	n/a	2	-1.041667e-01	-1.041667e-01
58.419575	1.067491	dec_social_choice	1.067491	16.000000	n/a	8	2.708333e-01	2.708333e-01
58.419575	1.067491	dec_choice	1.067491	16.000000	n/a	8	2.708333e-01	2.708333e-01
58.419575	1.067491	dec_social_accept	1.067491	16.000000	n/a	8	2.670455e-01	2.670455e-01
58.419575	1.067491	dec_accept	1.067491	16.000000	n/a	8	2.585227e-01	2.585227e-01
58.419575	1.067491	dec_social_high	1.067491	16.000000	n/a	8	2.708333e-01	2.708333e-01
58.419575	1.067491	dec_social_accept_high	1.067491	16.000000	n/a	8	2.708333e-01	2.708333e-01
65.253395	2.633678	dec_social_choice	2.633678	32.000000	n/a	0	0	-2.291667e-01
65.253395	2.633678	dec_choice	2.633678	32.000000	n/a	0	0	-2.291667e-01
65.253395	2.633678	dec_social_reject	2.633678	32.000000	n/a	0	0	-9.375000e-02
65.253395	2.633678	dec_reject	2.633678	32.000000	n/a	0	0	0
65.253395	2.633678	dec_social_reject_low	2.633678	32.000000	n/a	3	-1.354167e-01	-2.291667e-01
74.504460	1.799367	dec_nonsocial_choice	1.799367	32.000000	n/a	0	0	-2.291667e-01
74.504460	1.799367	dec_choice	1.799367	32.000000	n/a	0	0	-2.291667e-01
74.504460	1.799367	dec_nonsocial_reject	1.799367	32.000000	n/a	0	0	-1.250000e-01
74.504460	1.799367	dec_reject	1.799367	32.000000	n/a	0	0	-2.187500e-01
74.504460	1.799367	dec_nonsocial_reject_low	1.799367	32.000000	n/a	2	-3.125000e-02	-9.375000e-02
86.986305	2.016734	dec_social_choice	2.016734	32.000000	n/a	2	-1.666667e-01	-1.666667e-01
86.986305	2.016734	dec_choice	2.016734	32.000000	n/a	2	-1.666667e-01	-1.666667e-01
86.986305	2.016734	dec_social_accept	2.016734	32.000000	n/a	2	-1.704545e-01	-1.704545e-01
86.986305	2.016734	dec_accept	2.016734	32.000000	n/a	2	-1.789773e-01	-1.789773e-01
86.986305	2.016734	dec_social_low	2.016734	32.000000	n/a	2	-1.666667e-01	-1.666667e-01
86.986305	2.016734	dec_social_accept_low	2.016734	32.000000	n/a	2	-1.666667e-01	-1.666667e-01
96.236700	0.883606	dec_nonsocial_choice	0.883606	32.000000	n/a	3	-1.354167e-01	-1.354167e-01
96.236700	0.883606	dec_choice	0.883606	32.000000	n/a	3	-1.354167e-01	-1.354167e-01
96.236700	0.883606	dec_nonsocial_accept	0.883606	32.000000	n/a	3	-1.392045e-01	-1.392045e-01
96.236700	0.883606	dec_accept	0.883606	32.000000	n/a	3	-1.306818e-01	-1.306818e-01
96.236700	0.883606	dec_nonsocial_low	0.883606	32.000000	n/a	3	-1.354167e-01	-1.354167e-01
96.236700	0.883606	dec_nonsocial_accept_low	0.883606	32.000000	n/a	3	-1.306818e-01	-1.306818e-01
105.487520	0.799487	dec_nonsocial_choice	0.799487	16.000000	n/a	8	2.708333e-01	2.708333e-01
105.487520	0.799487	dec_choice	0.799487	16.000000	n/a	8	2.708333e-01	2.708333e-01
105.487520	0.799487	dec_nonsocial_accept	0.799487	16.000000	n/a	8	2.670455e-01	2.670455e-01
105.487520	0.799487	dec_accept	0.799487	16.000000	n/a	8	2.755682e-01	2.755682e-01
105.487520	0.799487	dec_nonsocial_high	0.799487	16.000000	n/a	8	2.708333e-01	2.708333e-01
105.487520	0.799487	dec_nonsocial_accept_high	0.799487	16.000000	n/a	8	2.755682e-01	2.755682e-01
113.136760	0.916406	dec_nonsocial_choice	0.916406	32.000000	n/a	16	2.708333e-01	2.708333e-01
113.136760	0.916406	dec_choice	0.916406	32.000000	n/a	16	2.708333e-01	2.708333e-01
113.136760	0.916406	dec_nonsocial_accept	0.916406	32.000000	n/a	16	2.670455e-01	2.670455e-01
113.136760	0.916406	dec_accept	0.916406	32.000000	n/a	16	2.755682e-01	2.755682e-01
113.136760	0.916406	dec_nonsocial_high	0.916406	32.000000	n/a	16	2.708333e-01	2.708333e-01
113.136760	0.916406	dec_nonsocial_accept_high	0.916406	32.000000	n/a	16	2.755682e-01	2.755682e-01
120.787040	1.516505	dec_social_choice	1.516505	16.000000	n/a	2	-1.041667e-01	-1.041667e-01
120.787040	1.516505	dec_choice	1.516505	16.000000	n/a	2	-1.041667e-01	-1.041667e-01
120.787040	1.516505	dec_social_accept	1.516505	16.000000	n/a	2	-1.079545e-01	-1.079545e-01
120.787040	1.516505	dec_accept	1.516505	16.000000	n/a	2	-1.164773e-01	-1.164773e-01
120.787040	1.516505	dec_social_accept_low	1.516505	16.000000	n/a	2	-1.041667e-01	-1.041667e-01
131.653370	0.716485	dec_social_choice	0.716485	32.000000	n/a	8	2.083333e-02	2.083333e-02
131.653370	0.716485	dec_choice	0.716485	32.000000	n/a	8	2.083333e-02	2.083333e-02
131.653370	0.716485	dec_social_accept	0.716485	32.000000	n/a	8	1.704545e-02	1.704545e-02
131.653370	0.716485	dec_accept	0.716485	32.000000	n/a	8	8.522727e-03	8.522727e-03
131.653370	0.716485	dec_social_high	0.716485	32.000000	n/a	8	2.083333e-02	2.083333e-02
131.653370	0.716485	dec_social_accept_high	0.716485	32.000000	n/a	8	2.083333e-02	2.083333e-02
138.486900	1.249979	dec_social_choice	1.249979	32.000000	n/a	2	-1.666667e-01	-1.666667e-01
138.486900	1.249979	dec_choice	1.249979	32.000000	n/a	2	-1.666667e-01	-1.666667e-01
138.486900	1.249979	dec_social_accept	1.249979	32.000000	n/a	2	-1.704545e-01	-1.704545e-01
138.486900	1.249979	dec_accept	1.249979	32.000000	n/a	2	-1.789773e-01	-1.789773e-01
138.486900	1.249979	dec_social_accept_low	1.249979	32.000000	n/a	2	-1.666667e-01	-1.666667e-01
146.137790	1.049009	dec_nonsocial_choice	1.049009	32.000000	n/a	8	2.083333e-02	2.083333e-02
146.137790	1.049009	dec_choice	1.049009	32.000000	n/a	8	2.083333e-02	2.083333e-02
146.137790	1.049009	dec_nonsocial_accept	1.049009	32.000000	n/a	8	1.704545e-02	1.704545e-02
146.137790	1.049009	dec_accept	1.049009	32.000000	n/a	8	2.556818e-02	2.556818e-02
146.137790	1.049009	dec_nonsocial_high	1.049009	32.000000	n/a	8	2.083333e-02	2.083333e-02
146.137790	1.049009	dec_nonsocial_accept_high	1.049009	32.000000	n/a	8	2.556818e-02	2.556818e-02
152.969960	0.850158	dec_nonsocial_choice	0.850158	32.000000	n/a	8	2.083333e-02	2.083333e-02
152.969960	0.850158	dec_choice	0.850158	32.000000	n/a	8	2.083333e-02	2.083333e-02
152.969960	0.850158	dec_nonsocial_accept	0.850158	32.000000	n/a	8	1.704545e-02	1.704545e-02
152.969960	0.850158	dec_accept	0.850158	32.000000	n/a	8	2.556818e-02	2.556818e-02
152.969960	0.850158	dec_nonsocial_high	0.850158	32.000000	n/a	8	2.083333e-02	2.083333e-02
152.969960	0.850158	dec_nonsocial_accept_high	0.850158	32.000000	n/a	8	2.556818e-02	2.556818e-02
159.803530	0.733362	dec_nonsocial_choice	0.733362	32.000000	n/a	3	-1.354167e-01	-1.354167e-01
159.803530	0.733362	dec_choice	0.733362	32.000000	n/a	3	-1.354167e-01	-1.354167e-01
159.803530	0.733362	dec_nonsocial_accept	0.733362	32.000000	n/a	3	-1.392045e-01	-1.392045e-01
159.803530	0.733362	dec_accept	0.733362	32.000000	n/a	3	-1.306818e-01	-1.306818e-01
159.803530	0.733362	dec_nonsocial_low	0.733362	32.000000	n/a	3	-1.354167e-01	-1.354167e-01
159.803530	0.733362	dec_nonsocial_accept_low	0.733362	32.000000	n/a	3	-1.306818e-01	-1.306818e-01
166.637390	0.882361	dec_social_choice	0.882361	32.000000	n/a	2	-1.666667e-01	-1.666667e-01
166.637390	0.882361	dec_choice	0.882361	32.000000	n/a	2	-1.666667e-01	-1.666667e-01
166.637390	0.882361	dec_social_accept	0.882361	32.000000	n/a	2	-1.704545e-01	-1.704545e-01
166.637390	0.882361	dec_accept	0.882361	32.000000	n/a	2	-1.789773e-01	-1.789773e-01
166.637390	0.882361	dec_social_low	0.882361	32.000000	n/a	2	-1.666667e-01	-1.666667e-01
166.637390	0.882361	dec_social_accept_low	0.882361	32.000000	n/a	2	-1.666667e-01	-1.666667e-01
177.503510	1.099675	dec_nonsocial_choice	1.099675	32.000000	n/a	2	-1.666667e-01	-1.666667e-01
177.503510	1.099675	dec_choice	1.099675	32.000000	n/a	2	-1.666667e-01	-1.666667e-01
177.503510	1.099675	dec_nonsocial_accept	1.099675	32.000000	n/a	2	-1.704545e-01	-1.704545e-01
177.503510	1.099675	dec_accept	1.099675	32.000000	n/a	2	-1.619318e-01	-1.619318e-01
177.503510	1.099675	dec_nonsocial_accept_low	1.099675	32.000000	n/a	2	-1.789773e-01	-1.789773e-01
185.153500	0.699778	dec_nonsocial_choice	0.699778	32.000000	n/a	8	2.083333e-02	2.083333e-02
185.153500	0.699778	dec_choice	0.699778	32.000000	n/a	8	2.083333e-02	2.083333e-02
185.153500	0.699778	dec_nonsocial_accept	0.699778	32.000000	n/a	8	1.704545e-02	1.704545e-02
185.153500	0.699778	dec_accept	0.699778	32.000000	n/a	8	2.556818e-02	2.556818e-02
185.153500	0.699778	dec_nonsocial_accept_high	0.699778	32.000000	n/a	8	8.522727e-03	8.522727e-03
194.420010	0.900092	dec_social_choice	0.900092	16.000000	n/a	8	2.708333e-01	2.708333e-01
194.420010	0.900092	dec_choice	0.900092	16.000000	n/a	8	2.708333e-01	2.708333e-01
194.420010	0.900092	dec_social_accept	0.900092	16.000000	n/a	8	2.670455e-01	2.670455e-01
194.420010	0.900092	dec_accept	0.900092	16.000000	n/a	8	2.585227e-01	2.585227e-01
194.420010	0.900092	dec_social_high	0.900092	16.000000	n/a	8	2.708333e-01	2.708333e-01
194.420010	0.900092	dec_social_accept_high	0.900092	16.000000	n/a	8	2.708333e-01	2.708333e-01
201.252620	1.067441	dec_social_choice	1.067441	16.000000	n/a	1	-1.666667e-01	-1.666667e-01
201.252620	1.067441	dec_choice	1.067441	16.000000	n/a	1	-1.666667e-01	-1.666667e-01
201.252620	1.067441	dec_social_accept	1.067441	16.000000	n/a	1	-1.704545e-01	-1.704545e-01
201.252620	1.067441	dec_accept	1.067441	16.000000	n/a	1	-1.789773e-01	-1.789773e-01
201.252620	1.067441	dec_social_accept_low	1.067441	16.000000	n/a	1	-1.666667e-01	-1.666667e-01
208.087300	1.015520	dec_nonsocial_choice	1.015520	32.000000	n/a	2	-1.666667e-01	-1.666667e-01
208.087300	1.015520	dec_choice	1.015520	32.000000	n/a	2	-1.666667e-01	-1.666667e-01
208.087300	1.015520	dec_nonsocial_accept	1.015520	32.000000	n/a	2	-1.704545e-01	-1.704545e-01
208.087300	1.015520	dec_accept	1.015520	32.000000	n/a	2	-1.619318e-01	-1.619318e-01
208.087300	1.015520	dec_nonsocial_low	1.015520	32.000000	n/a	2	-1.666667e-01	-1.666667e-01
208.087300	1.015520	dec_nonsocial_accept_low	1.015520	32.000000	n/a	2	-1.619318e-01	-1.619318e-01
214.919850	0.833623	dec_social_choice	0.833623	16.000000	n/a	4	2.083333e-02	2.083333e-02
214.919850	0.833623	dec_choice	0.833623	16.000000	n/a	4	2.083333e-02	2.083333e-02
214.919850	0.833623	dec_social_accept	0.833623	16.000000	n/a	4	1.704545e-02	1.704545e-02
214.919850	0.833623	dec_accept	0.833623	16.000000	n/a	4	8.522727e-03	8.522727e-03
214.919850	0.833623	dec_social_accept_high	0.833623	16.000000	n/a	4	2.083333e-02	2.083333e-02
221.753270	1.033529	dec_nonsocial_choice	1.033529	16.000000	n/a	2	-1.041667e-01	-1.041667e-01
221.753270	1.033529	dec_choice	1.033529	16.000000	n/a	2	-1.041667e-01	-1.041667e-01
221.753270	1.033529	dec_nonsocial_accept	1.033529	16.000000	n/a	2	-1.079545e-01	-1.079545e-01
221.753270	1.033529	dec_accept	1.033529	16.000000	n/a	2	-9.943182e-02	-9.943182e-02
221.753270	1.033529	dec_nonsocial_accept_low	1.033529	16.000000	n/a	2	-1.164773e-01	-1.164773e-01
228.586560	0.933519	dec_social_choice	0.933519	16.000000	n/a	8	2.708333e-01	2.708333e-01
228.586560	0.933519	dec_choice	0.933519	16.000000	n/a	8	2.708333e-01	2.708333e-01
228.586560	0.933519	dec_social_accept	0.933519	16.000000	n/a	8	2.670455e-01	2.670455e-01
228.586560	0.933519	dec_accept	0.933519	16.000000	n/a	8	2.585227e-01	2.585227e-01
228.586560	0.933519	dec_social_accept_high	0.933519	16.000000	n/a	8	2.708333e-01	2.708333e-01
235.420560	0.999266	dec_nonsocial_choice	0.999266	32.000000	n/a	2	-1.666667e-01	-1.666667e-01
235.420560	0.999266	dec_choice	0.999266	32.000000	n/a	2	-1.666667e-01	-1.666667e-01
235.420560	0.999266	dec_nonsocial_accept	0.999266	32.000000	n/a	2	-1.704545e-01	-1.704545e-01
235.420560	0.999266	dec_accept	0.999266	32.000000	n/a	2	-1.619318e-01	-1.619318e-01
235.420560	0.999266	dec_nonsocial_low	0.999266	32.000000	n/a	2	-1.666667e-01	-1.666667e-01
235.420560	0.999266	dec_nonsocial_accept_low	0.999266	32.000000	n/a	2	-1.619318e-01	-1.619318e-01
243.069350	1.000414	dec_social_choice	1.000414	16.000000	n/a	4	2.083333e-02	2.083333e-02
243.069350	1.000414	dec_choice	1.000414	16.000000	n/a	4	2.083333e-02	2.083333e-02
243.069350	1.000414	dec_social_accept	1.000414	16.000000	n/a	4	1.704545e-02	1.704545e-02
243.069350	1.000414	dec_accept	1.000414	16.000000	n/a	4	8.522727e-03	8.522727e-03
243.069350	1.000414	dec_social_high	1.000414	16.000000	n/a	4	2.083333e-02	2.083333e-02
243.069350	1.000414	dec_social_accept_high	1.000414	16.000000	n/a	4	2.083333e-02	2.083333e-02
250.720100	0.916061	dec_social_choice	0.916061	32.000000	n/a	2	-1.666667e-01	-1.666667e-01
250.720100	0.916061	dec_choice	0.916061	32.000000	n/a	2	-1.666667e-01	-1.666667e-01
250.720100	0.916061	dec_social_accept	0.916061	32.000000	n/a	2	-1.704545e-01	-1.704545e-01
250.720100	0.916061	dec_accept	0.916061	32.000000	n/a	2	-1.789773e-01	-1.789773e-01
250.720100	0.916061	dec_social_low	0.916061	32.000000	n/a	2	-1.666667e-01	-1.666667e-01
250.720100	0.916061	dec_social_accept_low	0.916061	32.000000	n/a	2	-1.666667e-01	-1.666667e-01
258.370120	0.965859	dec_nonsocial_choice	0.965859	16.000000	n/a	0	0	-2.291667e-01
258.370120	0.965859	dec_choice	0.965859	16.000000	n/a	0	0	-2.291667e-01
258.370120	0.965859	dec_nonsocial_reject	0.965859	16.000000	n/a	0	0	3.125000e-01
258.370120	0.965859	dec_reject	0.965859	16.000000	n/a	0	0	2.187500e-01
258.370120	0.965859	dec_nonsocial_low	0.965859	16.000000	n/a	0	-2.291667e-01	-2.291667e-01
258.370120	0.965859	dec_nonsocial_reject_low	0.965859	16.000000	n/a	8	2.187500e-01	-2.812500e-01
265.203830	0.682746	dec_nonsocial_choice	0.682746	32.000000	n/a	8	2.083333e-02	2.083333e-02
265.203830	0.682746	dec_choice	0.682746	32.000000	n/a	8	2.083333e-02	2.083333e-02
265.203830	0.682746	dec_nonsocial_accept	0.682746	32.000000	n/a	8	1.704545e-02	1.704545e-02
265.203830	0.682746	dec_accept	0.682746	32.000000	n/a	8	2.556818e-02	2.556818e-02
265.203830	0.682746	dec_nonsocial_high	0.682746	32.000000	n/a	8	2.083333e-02	2.083333e-02
265.203830	0.682746	dec_nonsocial_accept_high	0.682746	32.000000	n/a	8	2.556818e-02	2.556818e-02
272.853820	0.815513	dec_social_choice	0.815513	16.000000	n/a	4	2.083333e-02	2.083333e-02
272.853820	0.815513	dec_choice	0.815513	16.000000	n/a	4	2.083333e-02	2.083333e-02
272.853820	0.815513	dec_social_accept	0.815513	16.000000	n/a	4	1.704545e-02	1.704545e-02
272.853820	0.815513	dec_accept	0.815513	16.000000	n/a	4	8.522727e-03	8.522727e-03
272.853820	0.815513	dec_social_accept_high	0.815513	16.000000	n/a	4	2.083333e-02	2.083333e-02
279.686740	1.133194	dec_nonsocial_choice	1.133194	32.000000	n/a	3	-1.354167e-01	-1.354167e-01
279.686740	1.133194	dec_choice	1.133194	32.000000	n/a	3	-1.354167e-01	-1.354167e-01
279.686740	1.133194	dec_nonsocial_accept	1.133194	32.000000	n/a	3	-1.392045e-01	-1.392045e-01
279.686740	1.133194	dec_accept	1.133194	32.000000	n/a	3	-1.306818e-01	-1.306818e-01
279.686740	1.133194	dec_nonsocial_accept_low	1.133194	32.000000	n/a	3	-1.477273e-01	-1.477273e-01
286.519500	0.900332	dec_nonsocial_choice	0.900332	16.000000	n/a	2	-1.041667e-01	-1.041667e-01
286.519500	0.900332	dec_choice	0.900332	16.000000	n/a	2	-1.041667e-01	-1.041667e-01
286.519500	0.900332	dec_nonsocial_accept	0.900332	16.000000	n/a	2	-1.079545e-01	-1.079545e-01
286.519500	0.900332	dec_accept	0.900332	16.000000	n/a	2	-9.943182e-02	-9.943182e-02
286.519500	0.900332	dec_nonsocial_low	0.900332	16.000000	n/a	2	-1.041667e-01	-1.041667e-01
286.519500	0.900332	dec_nonsocial_accept_low	0.900332	16.000000	n/a	2	-9.943182e-02	-9.943182e-02
293.353120	0.850148	dec_social_choice	0.850148	32.000000	n/a	2	-1.666667e-01	-1.666667e-01
293.353120	0.850148	dec_choice	0.850148	32.000000	n/a	2	-1.666667e-01	-1.666667e-01
293.353120	0.850148	dec_social_accept	0.850148	32.000000	n/a	2	-1.704545e-01	-1.704545e-01
293.353120	0.850148	dec_accept	0.850148	32.000000	n/a	2	-1.789773e-01	-1.789773e-01
293.353120	0.850148	dec_social_accept_low	0.850148	32.000000	n/a	2	-1.666667e-01	-1.666667e-01
301.003170	0.900024	dec_social_choice	0.900024	16.000000	n/a	8	2.708333e-01	2.708333e-01
301.003170	0.900024	dec_choice	0.900024	16.000000	n/a	8	2.708333e-01	2.708333e-01
301.003170	0.900024	dec_social_accept	0.900024	16.000000	n/a	8	2.670455e-01	2.670455e-01
301.003170	0.900024	dec_accept	0.900024	16.000000	n/a	8	2.585227e-01	2.585227e-01
301.003170	0.900024	dec_social_high	0.900024	16.000000	n/a	8	2.708333e-01	2.708333e-01
301.003170	0.900024	dec_social_accept_high	0.900024	16.000000	n/a	8	2.708333e-01	2.708333e-01
307.836430	0.766333	dec_social_choice	0.766333	32.000000	n/a	3	-1.354167e-01	-1.354167e-01
307.836430	0.766333	dec_choice	0.766333	32.000000	n/a	3	-1.354167e-01	-1.354167e-01
307.836430	0.766333	dec_social_accept	0.766333	32.000000	n/a	3	-1.392045e-01	-1.392045e-01
307.836430	0.766333	dec_accept	0.766333	32.000000	n/a	3	-1.477273e-01	-1.477273e-01
307.836430	0.766333	dec_social_low	0.766333	32.000000	n/a	3	-1.354167e-01	-1.354167e-01
307.836430	0.766333	dec_social_accept_low	0.766333	32.000000	n/a	3	-1.354167e-01	-1.354167e-01
314.670170	0.599621	dec_nonsocial_choice	0.599621	16.000000	n/a	8	2.708333e-01	2.708333e-01
314.670170	0.599621	dec_choice	0.599621	16.000000	n/a	8	2.708333e-01	2.708333e-01
314.670170	0.599621	dec_nonsocial_accept	0.599621	16.000000	n/a	8	2.670455e-01	2.670455e-01
314.670170	0.599621	dec_accept	0.599621	16.000000	n/a	8	2.755682e-01	2.755682e-01
314.670170	0.599621	dec_nonsocial_high	0.599621	16.000000	n/a	8	2.708333e-01	2.708333e-01
314.670170	0.599621	dec_nonsocial_accept_high	0.599621	16.000000	n/a	8	2.755682e-01	2.755682e-01
322.320740	0.632601	dec_nonsocial_choice	0.632601	32.000000	n/a	3	-1.354167e-01	-1.354167e-01
322.320740	0.632601	dec_choice	0.632601	32.000000	n/a	3	-1.354167e-01	-1.354167e-01
322.320740	0.632601	dec_nonsocial_accept	0.632601	32.000000	n/a	3	-1.392045e-01	-1.392045e-01
322.320740	0.632601	dec_accept	0.632601	32.000000	n/a	3	-1.306818e-01	-1.306818e-01
322.320740	0.632601	dec_nonsocial_low	0.632601	32.000000	n/a	3	-1.354167e-01	-1.354167e-01
322.320740	0.632601	dec_nonsocial_accept_low	0.632601	32.000000	n/a	3	-1.306818e-01	-1.306818e-01
329.152620	1.033430	dec_social_choice	1.033430	16.000000	n/a	4	2.083333e-02	2.083333e-02
329.152620	1.033430	dec_choice	1.033430	16.000000	n/a	4	2.083333e-02	2.083333e-02
329.152620	1.033430	dec_social_accept	1.033430	16.000000	n/a	4	1.704545e-02	1.704545e-02
329.152620	1.033430	dec_accept	1.033430	16.000000	n/a	4	8.522727e-03	8.522727e-03
329.152620	1.033430	dec_social_high	1.033430	16.000000	n/a	4	2.083333e-02	2.083333e-02
329.152620	1.033430	dec_social_accept_high	1.033430	16.000000	n/a	4	2.083333e-02	2.083333e-02
338.402830	0.783582	dec_nonsocial_choice	0.783582	32.000000	n/a	2	-1.666667e-01	-1.666667e-01
338.402830	0.783582	dec_choice	0.783582	32.000000	n/a	2	-1.666667e-01	-1.666667e-01
338.402830	0.783582	dec_nonsocial_accept	0.783582	32.000000	n/a	2	-1.704545e-01	-1.704545e-01
338.402830	0.783582	dec_accept	0.783582	32.000000	n/a	2	-1.619318e-01	-1.619318e-01
338.402830	0.783582	dec_nonsocial_low	0.783582	32.000000	n/a	2	-1.666667e-01	-1.666667e-01
338.402830	0.783582	dec_nonsocial_accept_low	0.783582	32.000000	n/a	2	-1.619318e-01	-1.619318e-01
345.236630	0.966093	dec_nonsocial_choice	0.966093	32.000000	n/a	2	-1.666667e-01	-1.666667e-01
345.236630	0.966093	dec_choice	0.966093	32.000000	n/a	2	-1.666667e-01	-1.666667e-01
345.236630	0.966093	dec_nonsocial_accept	0.966093	32.000000	n/a	2	-1.704545e-01	-1.704545e-01
345.236630	0.966093	dec_accept	0.966093	32.000000	n/a	2	-1.619318e-01	-1.619318e-01
345.236630	0.966093	dec_nonsocial_low	0.966093	32.000000	n/a	2	-1.666667e-01	-1.666667e-01
345.236630	0.966093	dec_nonsocial_accept_low	0.966093	32.000000	n/a	2	-1.619318e-01	-1.619318e-01
352.069340	1.150438	dec_nonsocial_choice	1.150438	16.000000	n/a	4	2.083333e-02	2.083333e-02
352.069340	1.150438	dec_choice	1.150438	16.000000	n/a	4	2.083333e-02	2.083333e-02
352.069340	1.150438	dec_nonsocial_accept	1.150438	16.000000	n/a	4	1.704545e-02	1.704545e-02
352.069340	1.150438	dec_accept	1.150438	16.000000	n/a	4	2.556818e-02	2.556818e-02
352.069340	1.150438	dec_nonsocial_high	1.150438	16.000000	n/a	4	2.083333e-02	2.083333e-02
352.069340	1.150438	dec_nonsocial_accept_high	1.150438	16.000000	n/a	4	2.556818e-02	2.556818e-02
362.936430	0.950190	dec_social_choice	0.950190	32.000000	n/a	8	2.083333e-02	2.083333e-02
362.936430	0.950190	dec_choice	0.950190	32.000000	n/a	8	2.083333e-02	2.083333e-02
362.936430	0.950190	dec_social_accept	0.950190	32.000000	n/a	8	1.704545e-02	1.704545e-02
362.936430	0.950190	dec_accept	0.950190	32.000000	n/a	8	8.522727e-03	8.522727e-03
362.936430	0.950190	dec_social_accept_high	0.950190	32.000000	n/a	8	2.083333e-02	2.083333e-02
372.186700	0.983215	dec_social_choice	0.983215	32.000000	n/a	3	-1.354167e-01	-1.354167e-01
372.186700	0.983215	dec_choice	0.983215	32.000000	n/a	3	-1.354167e-01	-1.354167e-01
372.186700	0.983215	dec_social_accept	0.983215	32.000000	n/a	3	-1.392045e-01	-1.392045e-01
372.186700	0.983215	dec_accept	0.983215	32.000000	n/a	3	-1.477273e-01	-1.477273e-01
372.186700	0.983215	dec_social_low	0.983215	32.000000	n/a	3	-1.354167e-01	-1.354167e-01
372.186700	0.983215	dec_social_accept_low	0.983215	32.000000	n/a	3	-1.354167e-01	-1.354167e-01
