onset	duration	trial_type	response_time	Endowment	Endowment_pmod	Decision	Decision_pmod	Offer_pmod
4.532324	2	cue_social	n/a	16	-7	n/a	n/a	n/a
4.532324	2	cue_social_low	n/a	16	-7	n/a	n/a	n/a
12.164889	2	cue_nonsocial	n/a	32	9	n/a	n/a	n/a
12.164889	2	cue_nonsocial_high	n/a	32	9	n/a	n/a	n/a
19.873322	2	cue_social	n/a	32	9	n/a	n/a	n/a
19.873322	2	cue_social_high	n/a	32	9	n/a	n/a	n/a
29.127928	2	cue_social	n/a	32	9	n/a	n/a	n/a
29.127928	2	cue_social_high	n/a	32	9	n/a	n/a	n/a
41.548540	2	cue_nonsocial	n/a	32	9	n/a	n/a	n/a
41.548540	2	cue_nonsocial_high	n/a	32	9	n/a	n/a	n/a
48.382240	2	cue_nonsocial	n/a	32	9	n/a	n/a	n/a
48.382240	2	cue_nonsocial_high	n/a	32	9	n/a	n/a	n/a
57.700790	2	cue_social	n/a	16	-7	n/a	n/a	n/a
57.700790	2	cue_social_low	n/a	16	-7	n/a	n/a	n/a
64.481674	2	cue_nonsocial	n/a	16	-7	n/a	n/a	n/a
64.481674	2	cue_nonsocial_low	n/a	16	-7	n/a	n/a	n/a
71.361450	2	cue_social	n/a	32	9	n/a	n/a	n/a
71.361450	2	cue_social_high	n/a	32	9	n/a	n/a	n/a
82.240190	2	cue_social	n/a	16	-7	n/a	n/a	n/a
82.240190	2	cue_social_low	n/a	16	-7	n/a	n/a	n/a
89.015160	2	cue_nonsocial	n/a	16	-7	n/a	n/a	n/a
89.015160	2	cue_nonsocial_low	n/a	16	-7	n/a	n/a	n/a
95.847664	2	cue_nonsocial	n/a	16	-7	n/a	n/a	n/a
95.847664	2	cue_nonsocial_low	n/a	16	-7	n/a	n/a	n/a
103.579605	2	cue_social	n/a	16	-7	n/a	n/a	n/a
103.579605	2	cue_social_low	n/a	16	-7	n/a	n/a	n/a
114.420370	2	cue_social	n/a	32	9	n/a	n/a	n/a
114.420370	2	cue_social_high	n/a	32	9	n/a	n/a	n/a
122.014930	2	cue_nonsocial	n/a	32	9	n/a	n/a	n/a
122.014930	2	cue_nonsocial_high	n/a	32	9	n/a	n/a	n/a
128.902900	2	cue_social	n/a	32	9	n/a	n/a	n/a
128.902900	2	cue_social_high	n/a	32	9	n/a	n/a	n/a
136.543930	2	cue_social	n/a	32	9	n/a	n/a	n/a
136.543930	2	cue_social_high	n/a	32	9	n/a	n/a	n/a
143.386170	2	cue_social	n/a	16	-7	n/a	n/a	n/a
143.386170	2	cue_social_low	n/a	16	-7	n/a	n/a	n/a
152.581360	2	cue_nonsocial	n/a	32	9	n/a	n/a	n/a
152.581360	2	cue_nonsocial_high	n/a	32	9	n/a	n/a	n/a
159.481490	2	cue_social	n/a	16	-7	n/a	n/a	n/a
159.481490	2	cue_social_low	n/a	16	-7	n/a	n/a	n/a
166.304080	2	cue_social	n/a	16	-7	n/a	n/a	n/a
166.304080	2	cue_social_low	n/a	16	-7	n/a	n/a	n/a
173.081530	2	cue_nonsocial	n/a	16	-7	n/a	n/a	n/a
173.081530	2	cue_nonsocial_low	n/a	16	-7	n/a	n/a	n/a
179.985600	2	cue_social	n/a	16	-7	n/a	n/a	n/a
179.985600	2	cue_social_low	n/a	16	-7	n/a	n/a	n/a
187.629300	2	cue_social	n/a	16	-7	n/a	n/a	n/a
187.629300	2	cue_social_low	n/a	16	-7	n/a	n/a	n/a
194.397980	2	cue_nonsocial	n/a	16	-7	n/a	n/a	n/a
194.397980	2	cue_nonsocial_low	n/a	16	-7	n/a	n/a	n/a
203.664370	2	cue_nonsocial	n/a	32	9	n/a	n/a	n/a
203.664370	2	cue_nonsocial_high	n/a	32	9	n/a	n/a	n/a
210.555500	2	cue_social	n/a	16	-7	n/a	n/a	n/a
210.555500	2	cue_social_low	n/a	16	-7	n/a	n/a	n/a
217.331250	2	cue_nonsocial	n/a	16	-7	n/a	n/a	n/a
217.331250	2	cue_nonsocial_low	n/a	16	-7	n/a	n/a	n/a
225.059950	2	cue_social	n/a	16	-7	n/a	n/a	n/a
225.059950	2	cue_social_low	n/a	16	-7	n/a	n/a	n/a
231.873300	2	cue_social	n/a	32	9	n/a	n/a	n/a
231.873300	2	cue_social_high	n/a	32	9	n/a	n/a	n/a
241.048080	2	cue_nonsocial	n/a	32	9	n/a	n/a	n/a
241.048080	2	cue_nonsocial_high	n/a	32	9	n/a	n/a	n/a
247.935780	2	cue_social	n/a	32	9	n/a	n/a	n/a
247.935780	2	cue_social_high	n/a	32	9	n/a	n/a	n/a
255.531070	2	cue_nonsocial	n/a	16	-7	n/a	n/a	n/a
255.531070	2	cue_nonsocial_low	n/a	16	-7	n/a	n/a	n/a
263.228700	2	cue_social	n/a	32	9	n/a	n/a	n/a
263.228700	2	cue_social_high	n/a	32	9	n/a	n/a	n/a
270.871280	2	cue_social	n/a	16	-7	n/a	n/a	n/a
270.871280	2	cue_social_low	n/a	16	-7	n/a	n/a	n/a
278.464540	2	cue_nonsocial	n/a	16	-7	n/a	n/a	n/a
278.464540	2	cue_nonsocial_low	n/a	16	-7	n/a	n/a	n/a
287.714630	2	cue_nonsocial	n/a	16	-7	n/a	n/a	n/a
287.714630	2	cue_nonsocial_low	n/a	16	-7	n/a	n/a	n/a
295.364600	2	cue_nonsocial	n/a	32	9	n/a	n/a	n/a
295.364600	2	cue_nonsocial_high	n/a	32	9	n/a	n/a	n/a
306.231050	2	cue_nonsocial	n/a	16	-7	n/a	n/a	n/a
306.231050	2	cue_nonsocial_low	n/a	16	-7	n/a	n/a	n/a
313.139430	2	cue_social	n/a	32	9	n/a	n/a	n/a
313.139430	2	cue_social_high	n/a	32	9	n/a	n/a	n/a
319.897900	2	cue_nonsocial	n/a	32	9	n/a	n/a	n/a
319.897900	2	cue_nonsocial_high	n/a	32	9	n/a	n/a	n/a
329.231050	2	cue_social	n/a	16	-7	n/a	n/a	n/a
329.231050	2	cue_social_low	n/a	16	-7	n/a	n/a	n/a
335.997830	2	cue_nonsocial	n/a	16	-7	n/a	n/a	n/a
335.997830	2	cue_nonsocial_low	n/a	16	-7	n/a	n/a	n/a
342.847720	2	cue_nonsocial	n/a	32	9	n/a	n/a	n/a
342.847720	2	cue_nonsocial_high	n/a	32	9	n/a	n/a	n/a
349.680820	2	cue_nonsocial	n/a	16	-7	n/a	n/a	n/a
349.680820	2	cue_nonsocial_low	n/a	16	-7	n/a	n/a	n/a
356.514220	2	cue_nonsocial	n/a	16	-7	n/a	n/a	n/a
356.514220	2	cue_nonsocial_low	n/a	16	-7	n/a	n/a	n/a
363.413640	2	cue_social	n/a	32	9	n/a	n/a	n/a
363.413640	2	cue_social_high	n/a	32	9	n/a	n/a	n/a
370.997740	2	cue_nonsocial	n/a	16	-7	n/a	n/a	n/a
370.997740	2	cue_nonsocial_low	n/a	16	-7	n/a	n/a	n/a
6.521947	1.532902	dec_social_choice	1.532902	16.000000	n/a	2	-1.119186e-01	-1.119186e-01
6.521947	1.532902	dec_choice	1.532902	16.000000	n/a	2	-1.187500e-01	-1.187500e-01
6.521947	1.532902	dec_social_accept	1.532902	16.000000	n/a	2	-1.180556e-01	-1.180556e-01
6.521947	1.532902	dec_accept	1.532902	16.000000	n/a	2	-1.286765e-01	-1.286765e-01
6.521947	1.532902	dec_social_accept_low	1.532902	16.000000	n/a	2	-1.187500e-01	-1.187500e-01
14.170818	0.867249	dec_nonsocial_choice	0.867249	32.000000	n/a	2	-1.744186e-01	-1.744186e-01
14.170818	0.867249	dec_choice	0.867249	32.000000	n/a	2	-1.684783e-01	-1.684783e-01
14.170818	0.867249	dec_nonsocial_accept	0.867249	32.000000	n/a	2	-1.805556e-01	-1.805556e-01
14.170818	0.867249	dec_accept	0.867249	32.000000	n/a	2	-1.710526e-01	-1.710526e-01
14.170818	0.867249	dec_nonsocial_accept_low	0.867249	32.000000	n/a	2	-1.911765e-01	-1.911765e-01
21.821043	0.900325	dec_social_choice	0.900325	32.000000	n/a	16	2.630814e-01	2.630814e-01
21.821043	0.900325	dec_choice	0.900325	32.000000	n/a	16	2.562500e-01	2.562500e-01
21.821043	0.900325	dec_social_accept	0.900325	32.000000	n/a	16	2.569444e-01	2.569444e-01
21.821043	0.900325	dec_accept	0.900325	32.000000	n/a	16	2.463235e-01	2.463235e-01
21.821043	0.900325	dec_social_accept_high	0.900325	32.000000	n/a	16	2.562500e-01	2.562500e-01
31.071182	1.216645	dec_social_choice	1.216645	32.000000	n/a	2	-1.744186e-01	-1.744186e-01
31.071182	1.216645	dec_choice	1.216645	32.000000	n/a	2	-1.812500e-01	-1.812500e-01
31.071182	1.216645	dec_social_accept	1.216645	32.000000	n/a	2	-1.805556e-01	-1.805556e-01
31.071182	1.216645	dec_accept	1.216645	32.000000	n/a	2	-1.911765e-01	-1.911765e-01
31.071182	1.216645	dec_social_low	1.216645	32.000000	n/a	2	-1.812500e-01	-1.812500e-01
31.071182	1.216645	dec_social_accept_low	1.216645	32.000000	n/a	2	-1.812500e-01	-1.812500e-01
43.555058	0.899721	dec_nonsocial_choice	0.899721	32.000000	n/a	16	2.630814e-01	2.630814e-01
43.555058	0.899721	dec_choice	0.899721	32.000000	n/a	16	2.690217e-01	2.690217e-01
43.555058	0.899721	dec_nonsocial_accept	0.899721	32.000000	n/a	16	2.569444e-01	2.569444e-01
43.555058	0.899721	dec_accept	0.899721	32.000000	n/a	16	2.664474e-01	2.664474e-01
43.555058	0.899721	dec_nonsocial_accept_high	0.899721	32.000000	n/a	16	2.463235e-01	2.463235e-01
50.388508	0.633026	dec_nonsocial_choice	0.633026	32.000000	n/a	16	2.630814e-01	2.630814e-01
50.388508	0.633026	dec_choice	0.633026	32.000000	n/a	16	2.690217e-01	2.690217e-01
50.388508	0.633026	dec_nonsocial_accept	0.633026	32.000000	n/a	16	2.569444e-01	2.569444e-01
50.388508	0.633026	dec_accept	0.633026	32.000000	n/a	16	2.664474e-01	2.664474e-01
50.388508	0.633026	dec_nonsocial_accept_high	0.633026	32.000000	n/a	16	2.463235e-01	2.463235e-01
59.655040	1.315861	dec_social_choice	1.315861	16.000000	n/a	8	2.630814e-01	2.630814e-01
59.655040	1.315861	dec_choice	1.315861	16.000000	n/a	8	2.562500e-01	2.562500e-01
59.655040	1.315861	dec_social_accept	1.315861	16.000000	n/a	8	2.569444e-01	2.569444e-01
59.655040	1.315861	dec_accept	1.315861	16.000000	n/a	8	2.463235e-01	2.463235e-01
59.655040	1.315861	dec_social_accept_high	1.315861	16.000000	n/a	8	2.562500e-01	2.562500e-01
66.487970	1.416356	dec_nonsocial_choice	1.416356	16.000000	n/a	0	0	-2.369186e-01
66.487970	1.416356	dec_choice	1.416356	16.000000	n/a	0	0	-2.309783e-01
66.487970	1.416356	dec_nonsocial_reject	1.416356	16.000000	n/a	0	0	-1.428571e-01
66.487970	1.416356	dec_reject	1.416356	16.000000	n/a	0	0	-1.562500e-01
66.487970	1.416356	dec_nonsocial_low	1.416356	16.000000	n/a	0	-2.309783e-01	-2.309783e-01
66.487970	1.416356	dec_nonsocial_reject_low	1.416356	16.000000	n/a	1	-1.562500e-01	-2.187500e-01
73.320946	3.766946	missed_trial	3.766946	32.000000	n/a	n/a	n/a	n/a
84.187810	1.034200	dec_social_choice	1.034200	16.000000	n/a	0	0	-2.369186e-01
84.187810	1.034200	dec_choice	1.034200	16.000000	n/a	0	0	-2.437500e-01
84.187810	1.034200	dec_social_reject	1.034200	16.000000	n/a	0	0	-1.428571e-01
84.187810	1.034200	dec_reject	1.034200	16.000000	n/a	0	0	-1.250000e-01
84.187810	1.034200	dec_social_low	1.034200	16.000000	n/a	0	-2.437500e-01	-2.437500e-01
84.187810	1.034200	dec_social_reject_low	1.034200	16.000000	n/a	1	-1.812500e-01	-2.437500e-01
91.020935	0.700144	dec_nonsocial_choice	0.700144	16.000000	n/a	4	1.308140e-02	1.308140e-02
91.020935	0.700144	dec_choice	0.700144	16.000000	n/a	4	1.902174e-02	1.902174e-02
91.020935	0.700144	dec_nonsocial_accept	0.700144	16.000000	n/a	4	6.944444e-03	6.944444e-03
91.020935	0.700144	dec_accept	0.700144	16.000000	n/a	4	1.644737e-02	1.644737e-02
91.020935	0.700144	dec_nonsocial_accept_high	0.700144	16.000000	n/a	4	-3.676471e-03	-3.676471e-03
97.854010	1.034115	dec_nonsocial_choice	1.034115	16.000000	n/a	8	2.630814e-01	2.630814e-01
97.854010	1.034115	dec_choice	1.034115	16.000000	n/a	8	2.690217e-01	2.690217e-01
97.854010	1.034115	dec_nonsocial_accept	1.034115	16.000000	n/a	8	2.569444e-01	2.569444e-01
97.854010	1.034115	dec_accept	1.034115	16.000000	n/a	8	2.664474e-01	2.664474e-01
97.854010	1.034115	dec_nonsocial_accept_high	1.034115	16.000000	n/a	8	2.463235e-01	2.463235e-01
105.503845	0.750919	dec_social_choice	0.750919	16.000000	n/a	1	-1.744186e-01	-1.744186e-01
105.503845	0.750919	dec_choice	0.750919	16.000000	n/a	1	-1.812500e-01	-1.812500e-01
105.503845	0.750919	dec_social_accept	0.750919	16.000000	n/a	1	-1.805556e-01	-1.805556e-01
105.503845	0.750919	dec_accept	0.750919	16.000000	n/a	1	-1.911765e-01	-1.911765e-01
105.503845	0.750919	dec_social_accept_low	0.750919	16.000000	n/a	1	-1.812500e-01	-1.812500e-01
116.370610	1.016896	dec_social_choice	1.016896	32.000000	n/a	16	2.630814e-01	2.630814e-01
116.370610	1.016896	dec_choice	1.016896	32.000000	n/a	16	2.562500e-01	2.562500e-01
116.370610	1.016896	dec_social_accept	1.016896	32.000000	n/a	16	2.569444e-01	2.569444e-01
116.370610	1.016896	dec_accept	1.016896	32.000000	n/a	16	2.463235e-01	2.463235e-01
116.370610	1.016896	dec_social_high	1.016896	32.000000	n/a	16	2.562500e-01	2.562500e-01
116.370610	1.016896	dec_social_accept_high	1.016896	32.000000	n/a	16	2.562500e-01	2.562500e-01
124.022026	1.632408	dec_nonsocial_choice	1.632408	32.000000	n/a	2	-1.744186e-01	-1.744186e-01
124.022026	1.632408	dec_choice	1.632408	32.000000	n/a	2	-1.684783e-01	-1.684783e-01
124.022026	1.632408	dec_nonsocial_accept	1.632408	32.000000	n/a	2	-1.805556e-01	-1.805556e-01
124.022026	1.632408	dec_accept	1.632408	32.000000	n/a	2	-1.710526e-01	-1.710526e-01
124.022026	1.632408	dec_nonsocial_low	1.632408	32.000000	n/a	2	-1.684783e-01	-1.684783e-01
124.022026	1.632408	dec_nonsocial_accept_low	1.632408	32.000000	n/a	2	-1.710526e-01	-1.710526e-01
130.855350	1.465653	dec_social_choice	1.465653	32.000000	n/a	8	1.308140e-02	1.308140e-02
130.855350	1.465653	dec_choice	1.465653	32.000000	n/a	8	6.250000e-03	6.250000e-03
130.855350	1.465653	dec_social_accept	1.465653	32.000000	n/a	8	6.944444e-03	6.944444e-03
130.855350	1.465653	dec_accept	1.465653	32.000000	n/a	8	-3.676471e-03	-3.676471e-03
130.855350	1.465653	dec_social_high	1.465653	32.000000	n/a	8	6.250000e-03	6.250000e-03
130.855350	1.465653	dec_social_accept_high	1.465653	32.000000	n/a	8	6.250000e-03	6.250000e-03
138.504900	1.365988	dec_social_choice	1.365988	32.000000	n/a	8	1.308140e-02	1.308140e-02
138.504900	1.365988	dec_choice	1.365988	32.000000	n/a	8	6.250000e-03	6.250000e-03
138.504900	1.365988	dec_social_accept	1.365988	32.000000	n/a	8	6.944444e-03	6.944444e-03
138.504900	1.365988	dec_accept	1.365988	32.000000	n/a	8	-3.676471e-03	-3.676471e-03
138.504900	1.365988	dec_social_accept_high	1.365988	32.000000	n/a	8	6.250000e-03	6.250000e-03
145.337880	2.900044	dec_social_choice	2.900044	16.000000	n/a	0	0	-2.369186e-01
145.337880	2.900044	dec_choice	2.900044	16.000000	n/a	0	0	-2.437500e-01
145.337880	2.900044	dec_social_reject	2.900044	16.000000	n/a	0	0	4.464286e-02
145.337880	2.900044	dec_reject	2.900044	16.000000	n/a	0	0	6.250000e-02
145.337880	2.900044	dec_social_reject_low	2.900044	16.000000	n/a	4	6.250000e-03	-2.437500e-01
154.588410	2.982806	dec_nonsocial_choice	2.982806	32.000000	n/a	2	-1.744186e-01	-1.744186e-01
154.588410	2.982806	dec_choice	2.982806	32.000000	n/a	2	-1.684783e-01	-1.684783e-01
154.588410	2.982806	dec_nonsocial_accept	2.982806	32.000000	n/a	2	-1.805556e-01	-1.805556e-01
154.588410	2.982806	dec_accept	2.982806	32.000000	n/a	2	-1.710526e-01	-1.710526e-01
154.588410	2.982806	dec_nonsocial_accept_low	2.982806	32.000000	n/a	2	-1.911765e-01	-1.911765e-01
161.421140	0.766023	dec_social_choice	0.766023	16.000000	n/a	8	2.630814e-01	2.630814e-01
161.421140	0.766023	dec_choice	0.766023	16.000000	n/a	8	2.562500e-01	2.562500e-01
161.421140	0.766023	dec_social_accept	0.766023	16.000000	n/a	8	2.569444e-01	2.569444e-01
161.421140	0.766023	dec_accept	0.766023	16.000000	n/a	8	2.463235e-01	2.463235e-01
161.421140	0.766023	dec_social_accept_high	0.766023	16.000000	n/a	8	2.562500e-01	2.562500e-01
168.254260	3.766946	missed_trial	3.766946	16.000000	n/a	n/a	n/a	n/a
175.088040	0.699611	dec_nonsocial_choice	0.699611	16.000000	n/a	2	-1.119186e-01	-1.119186e-01
175.088040	0.699611	dec_choice	0.699611	16.000000	n/a	2	-1.059783e-01	-1.059783e-01
175.088040	0.699611	dec_nonsocial_accept	0.699611	16.000000	n/a	2	-1.180556e-01	-1.180556e-01
175.088040	0.699611	dec_accept	0.699611	16.000000	n/a	2	-1.085526e-01	-1.085526e-01
175.088040	0.699611	dec_nonsocial_accept_low	0.699611	16.000000	n/a	2	-1.286765e-01	-1.286765e-01
181.921900	0.682647	dec_social_choice	0.682647	16.000000	n/a	0	0	-2.369186e-01
181.921900	0.682647	dec_choice	0.682647	16.000000	n/a	0	0	-2.437500e-01
181.921900	0.682647	dec_social_reject	0.682647	16.000000	n/a	0	0	4.464286e-02
181.921900	0.682647	dec_reject	0.682647	16.000000	n/a	0	0	6.250000e-02
181.921900	0.682647	dec_social_reject_low	0.682647	16.000000	n/a	4	6.250000e-03	-2.437500e-01
189.570390	1.101094	dec_social_choice	1.101094	16.000000	n/a	2	-1.119186e-01	-1.119186e-01
189.570390	1.101094	dec_choice	1.101094	16.000000	n/a	2	-1.187500e-01	-1.187500e-01
189.570390	1.101094	dec_social_accept	1.101094	16.000000	n/a	2	-1.180556e-01	-1.180556e-01
189.570390	1.101094	dec_accept	1.101094	16.000000	n/a	2	-1.286765e-01	-1.286765e-01
189.570390	1.101094	dec_social_low	1.101094	16.000000	n/a	2	-1.187500e-01	-1.187500e-01
189.570390	1.101094	dec_social_accept_low	1.101094	16.000000	n/a	2	-1.187500e-01	-1.187500e-01
196.405040	0.865757	dec_nonsocial_choice	0.865757	16.000000	n/a	2	-1.119186e-01	-1.119186e-01
196.405040	0.865757	dec_choice	0.865757	16.000000	n/a	2	-1.059783e-01	-1.059783e-01
196.405040	0.865757	dec_nonsocial_accept	0.865757	16.000000	n/a	2	-1.180556e-01	-1.180556e-01
196.405040	0.865757	dec_accept	0.865757	16.000000	n/a	2	-1.085526e-01	-1.085526e-01
196.405040	0.865757	dec_nonsocial_low	0.865757	16.000000	n/a	2	-1.059783e-01	-1.059783e-01
196.405040	0.865757	dec_nonsocial_accept_low	0.865757	16.000000	n/a	2	-1.085526e-01	-1.085526e-01
205.671020	0.800049	dec_nonsocial_choice	0.800049	32.000000	n/a	3	-1.431686e-01	-1.431686e-01
205.671020	0.800049	dec_choice	0.800049	32.000000	n/a	3	-1.372283e-01	-1.372283e-01
205.671020	0.800049	dec_nonsocial_accept	0.800049	32.000000	n/a	3	-1.493056e-01	-1.493056e-01
205.671020	0.800049	dec_accept	0.800049	32.000000	n/a	3	-1.398026e-01	-1.398026e-01
205.671020	0.800049	dec_nonsocial_low	0.800049	32.000000	n/a	3	-1.372283e-01	-1.372283e-01
205.671020	0.800049	dec_nonsocial_accept_low	0.800049	32.000000	n/a	3	-1.398026e-01	-1.398026e-01
212.504870	2.982900	dec_social_choice	2.982900	16.000000	n/a	2	-1.119186e-01	-1.119186e-01
212.504870	2.982900	dec_choice	2.982900	16.000000	n/a	2	-1.187500e-01	-1.187500e-01
212.504870	2.982900	dec_social_accept	2.982900	16.000000	n/a	2	-1.180556e-01	-1.180556e-01
212.504870	2.982900	dec_accept	2.982900	16.000000	n/a	2	-1.286765e-01	-1.286765e-01
212.504870	2.982900	dec_social_low	2.982900	16.000000	n/a	2	-1.187500e-01	-1.187500e-01
212.504870	2.982900	dec_social_accept_low	2.982900	16.000000	n/a	2	-1.187500e-01	-1.187500e-01
219.337040	1.667096	dec_nonsocial_choice	1.667096	16.000000	n/a	4	1.308140e-02	1.308140e-02
219.337040	1.667096	dec_choice	1.667096	16.000000	n/a	4	1.902174e-02	1.902174e-02
219.337040	1.667096	dec_nonsocial_accept	1.667096	16.000000	n/a	4	6.944444e-03	6.944444e-03
219.337040	1.667096	dec_accept	1.667096	16.000000	n/a	4	1.644737e-02	1.644737e-02
219.337040	1.667096	dec_nonsocial_high	1.667096	16.000000	n/a	4	1.902174e-02	1.902174e-02
219.337040	1.667096	dec_nonsocial_accept_high	1.667096	16.000000	n/a	4	1.644737e-02	1.644737e-02
226.971180	2.866148	dec_social_choice	2.866148	16.000000	n/a	4	1.308140e-02	1.308140e-02
226.971180	2.866148	dec_choice	2.866148	16.000000	n/a	4	6.250000e-03	6.250000e-03
226.971180	2.866148	dec_social_accept	2.866148	16.000000	n/a	4	6.944444e-03	6.944444e-03
226.971180	2.866148	dec_accept	2.866148	16.000000	n/a	4	-3.676471e-03	-3.676471e-03
226.971180	2.866148	dec_social_high	2.866148	16.000000	n/a	4	6.250000e-03	6.250000e-03
226.971180	2.866148	dec_social_accept_high	2.866148	16.000000	n/a	4	6.250000e-03	6.250000e-03
233.803900	3.766946	missed_trial	3.766946	32.000000	n/a	n/a	n/a	n/a
243.053820	0.933876	dec_nonsocial_choice	0.933876	32.000000	n/a	8	1.308140e-02	1.308140e-02
243.053820	0.933876	dec_choice	0.933876	32.000000	n/a	8	1.902174e-02	1.902174e-02
243.053820	0.933876	dec_nonsocial_accept	0.933876	32.000000	n/a	8	6.944444e-03	6.944444e-03
243.053820	0.933876	dec_accept	0.933876	32.000000	n/a	8	1.644737e-02	1.644737e-02
243.053820	0.933876	dec_nonsocial_accept_high	0.933876	32.000000	n/a	8	-3.676471e-03	-3.676471e-03
249.887160	3.766946	missed_trial	3.766946	32.000000	n/a	n/a	n/a	n/a
257.537140	0.700354	dec_nonsocial_choice	0.700354	16.000000	n/a	2	-1.119186e-01	-1.119186e-01
257.537140	0.700354	dec_choice	0.700354	16.000000	n/a	2	-1.059783e-01	-1.059783e-01
257.537140	0.700354	dec_nonsocial_accept	0.700354	16.000000	n/a	2	-1.180556e-01	-1.180556e-01
257.537140	0.700354	dec_accept	0.700354	16.000000	n/a	2	-1.085526e-01	-1.085526e-01
257.537140	0.700354	dec_nonsocial_low	0.700354	16.000000	n/a	2	-1.059783e-01	-1.059783e-01
257.537140	0.700354	dec_nonsocial_accept_low	0.700354	16.000000	n/a	2	-1.085526e-01	-1.085526e-01
265.170100	0.884142	dec_social_choice	0.884142	32.000000	n/a	3	-1.431686e-01	-1.431686e-01
265.170100	0.884142	dec_choice	0.884142	32.000000	n/a	3	-1.500000e-01	-1.500000e-01
265.170100	0.884142	dec_social_accept	0.884142	32.000000	n/a	3	-1.493056e-01	-1.493056e-01
265.170100	0.884142	dec_accept	0.884142	32.000000	n/a	3	-1.599265e-01	-1.599265e-01
265.170100	0.884142	dec_social_low	0.884142	32.000000	n/a	3	-1.500000e-01	-1.500000e-01
265.170100	0.884142	dec_social_accept_low	0.884142	32.000000	n/a	3	-1.500000e-01	-1.500000e-01
272.820470	1.000409	dec_social_choice	1.000409	16.000000	n/a	2	-1.119186e-01	-1.119186e-01
272.820470	1.000409	dec_choice	1.000409	16.000000	n/a	2	-1.187500e-01	-1.187500e-01
272.820470	1.000409	dec_social_accept	1.000409	16.000000	n/a	2	-1.180556e-01	-1.180556e-01
272.820470	1.000409	dec_accept	1.000409	16.000000	n/a	2	-1.286765e-01	-1.286765e-01
272.820470	1.000409	dec_social_low	1.000409	16.000000	n/a	2	-1.187500e-01	-1.187500e-01
272.820470	1.000409	dec_social_accept_low	1.000409	16.000000	n/a	2	-1.187500e-01	-1.187500e-01
280.470180	1.983999	dec_nonsocial_choice	1.983999	16.000000	n/a	1	-1.744186e-01	-1.744186e-01
280.470180	1.983999	dec_choice	1.983999	16.000000	n/a	1	-1.684783e-01	-1.684783e-01
280.470180	1.983999	dec_nonsocial_accept	1.983999	16.000000	n/a	1	-1.805556e-01	-1.805556e-01
280.470180	1.983999	dec_accept	1.983999	16.000000	n/a	1	-1.710526e-01	-1.710526e-01
280.470180	1.983999	dec_nonsocial_low	1.983999	16.000000	n/a	1	-1.684783e-01	-1.684783e-01
280.470180	1.983999	dec_nonsocial_accept_low	1.983999	16.000000	n/a	1	-1.710526e-01	-1.710526e-01
289.720060	1.917101	dec_nonsocial_choice	1.917101	16.000000	n/a	4	1.308140e-02	1.308140e-02
289.720060	1.917101	dec_choice	1.917101	16.000000	n/a	4	1.902174e-02	1.902174e-02
289.720060	1.917101	dec_nonsocial_accept	1.917101	16.000000	n/a	4	6.944444e-03	6.944444e-03
289.720060	1.917101	dec_accept	1.917101	16.000000	n/a	4	1.644737e-02	1.644737e-02
289.720060	1.917101	dec_nonsocial_high	1.917101	16.000000	n/a	4	1.902174e-02	1.902174e-02
289.720060	1.917101	dec_nonsocial_accept_high	1.917101	16.000000	n/a	4	1.644737e-02	1.644737e-02
297.370540	0.883568	dec_nonsocial_choice	0.883568	32.000000	n/a	3	-1.431686e-01	-1.431686e-01
297.370540	0.883568	dec_choice	0.883568	32.000000	n/a	3	-1.372283e-01	-1.372283e-01
297.370540	0.883568	dec_nonsocial_accept	0.883568	32.000000	n/a	3	-1.493056e-01	-1.493056e-01
297.370540	0.883568	dec_accept	0.883568	32.000000	n/a	3	-1.398026e-01	-1.398026e-01
297.370540	0.883568	dec_nonsocial_low	0.883568	32.000000	n/a	3	-1.372283e-01	-1.372283e-01
297.370540	0.883568	dec_nonsocial_accept_low	0.883568	32.000000	n/a	3	-1.398026e-01	-1.398026e-01
308.237580	0.849739	dec_nonsocial_choice	0.849739	16.000000	n/a	8	2.630814e-01	2.630814e-01
308.237580	0.849739	dec_choice	0.849739	16.000000	n/a	8	2.690217e-01	2.690217e-01
308.237580	0.849739	dec_nonsocial_accept	0.849739	16.000000	n/a	8	2.569444e-01	2.569444e-01
308.237580	0.849739	dec_accept	0.849739	16.000000	n/a	8	2.664474e-01	2.664474e-01
308.237580	0.849739	dec_nonsocial_accept_high	0.849739	16.000000	n/a	8	2.463235e-01	2.463235e-01
315.069900	0.800893	dec_social_choice	0.800893	32.000000	n/a	8	1.308140e-02	1.308140e-02
315.069900	0.800893	dec_choice	0.800893	32.000000	n/a	8	6.250000e-03	6.250000e-03
315.069900	0.800893	dec_social_accept	0.800893	32.000000	n/a	8	6.944444e-03	6.944444e-03
315.069900	0.800893	dec_accept	0.800893	32.000000	n/a	8	-3.676471e-03	-3.676471e-03
315.069900	0.800893	dec_social_high	0.800893	32.000000	n/a	8	6.250000e-03	6.250000e-03
315.069900	0.800893	dec_social_accept_high	0.800893	32.000000	n/a	8	6.250000e-03	6.250000e-03
321.904140	2.066078	dec_nonsocial_choice	2.066078	32.000000	n/a	0	0	-2.369186e-01
321.904140	2.066078	dec_choice	2.066078	32.000000	n/a	0	0	-2.309783e-01
321.904140	2.066078	dec_nonsocial_reject	2.066078	32.000000	n/a	0	0	4.464286e-02
321.904140	2.066078	dec_reject	2.066078	32.000000	n/a	0	0	3.125000e-02
321.904140	2.066078	dec_nonsocial_low	2.066078	32.000000	n/a	0	-2.309783e-01	-2.309783e-01
321.904140	2.066078	dec_nonsocial_reject_low	2.066078	32.000000	n/a	8	3.125000e-02	-2.187500e-01
331.169980	1.750801	dec_social_choice	1.750801	16.000000	n/a	8	2.630814e-01	2.630814e-01
331.169980	1.750801	dec_choice	1.750801	16.000000	n/a	8	2.562500e-01	2.562500e-01
331.169980	1.750801	dec_social_accept	1.750801	16.000000	n/a	8	2.569444e-01	2.569444e-01
331.169980	1.750801	dec_accept	1.750801	16.000000	n/a	8	2.463235e-01	2.463235e-01
331.169980	1.750801	dec_social_accept_high	1.750801	16.000000	n/a	8	2.562500e-01	2.562500e-01
338.004000	3.766946	missed_trial	3.766946	16.000000	n/a	n/a	n/a	n/a
344.855070	0.932378	dec_nonsocial_choice	0.932378	32.000000	n/a	16	2.630814e-01	2.630814e-01
344.855070	0.932378	dec_choice	0.932378	32.000000	n/a	16	2.690217e-01	2.690217e-01
344.855070	0.932378	dec_nonsocial_accept	0.932378	32.000000	n/a	16	2.569444e-01	2.569444e-01
344.855070	0.932378	dec_accept	0.932378	32.000000	n/a	16	2.664474e-01	2.664474e-01
344.855070	0.932378	dec_nonsocial_high	0.932378	32.000000	n/a	16	2.690217e-01	2.690217e-01
344.855070	0.932378	dec_nonsocial_accept_high	0.932378	32.000000	n/a	16	2.664474e-01	2.664474e-01
351.686920	1.400482	dec_nonsocial_choice	1.400482	16.000000	n/a	0	0	-2.369186e-01
351.686920	1.400482	dec_choice	1.400482	16.000000	n/a	0	0	-2.309783e-01
351.686920	1.400482	dec_nonsocial_reject	1.400482	16.000000	n/a	0	0	-1.428571e-01
351.686920	1.400482	dec_reject	1.400482	16.000000	n/a	0	0	-1.562500e-01
351.686920	1.400482	dec_nonsocial_low	1.400482	16.000000	n/a	0	-2.309783e-01	-2.309783e-01
351.686920	1.400482	dec_nonsocial_reject_low	1.400482	16.000000	n/a	1	-1.562500e-01	-2.187500e-01
358.519900	0.884020	dec_nonsocial_choice	0.884020	16.000000	n/a	2	-1.119186e-01	-1.119186e-01
358.519900	0.884020	dec_choice	0.884020	16.000000	n/a	2	-1.059783e-01	-1.059783e-01
358.519900	0.884020	dec_nonsocial_accept	0.884020	16.000000	n/a	2	-1.180556e-01	-1.180556e-01
358.519900	0.884020	dec_accept	0.884020	16.000000	n/a	2	-1.085526e-01	-1.085526e-01
358.519900	0.884020	dec_nonsocial_accept_low	0.884020	16.000000	n/a	2	-1.286765e-01	-1.286765e-01
365.353940	0.999941	dec_social_choice	0.999941	32.000000	n/a	3	-1.431686e-01	-1.431686e-01
365.353940	0.999941	dec_choice	0.999941	32.000000	n/a	3	-1.500000e-01	-1.500000e-01
365.353940	0.999941	dec_social_accept	0.999941	32.000000	n/a	3	-1.493056e-01	-1.493056e-01
365.353940	0.999941	dec_accept	0.999941	32.000000	n/a	3	-1.599265e-01	-1.599265e-01
365.353940	0.999941	dec_social_accept_low	0.999941	32.000000	n/a	3	-1.500000e-01	-1.500000e-01
373.003880	0.749757	dec_nonsocial_choice	0.749757	16.000000	n/a	0	0	-2.369186e-01
373.003880	0.749757	dec_choice	0.749757	16.000000	n/a	0	0	-2.309783e-01
373.003880	0.749757	dec_nonsocial_reject	0.749757	16.000000	n/a	0	0	2.946429e-01
373.003880	0.749757	dec_reject	0.749757	16.000000	n/a	0	0	2.812500e-01
373.003880	0.749757	dec_nonsocial_reject_low	0.749757	16.000000	n/a	8	3.125000e-01	-1.875000e-01
