TrialNumber,Trialn,TrialType,Partner,Feedback,ITI,ISI,ran,order,studyStart,InitFixOnset,decision_onset,resp,resp_onset,rt,ISI_onset,isi_for_trial,ISI_offset,outcome_val,outcome_onset,outcome_offset,trialDuration,ITIonset,ITIoffset,final_fix_offset
1,1,4,2,1,8.075000e-01,1.615000e+00,1.0,0.0,2.49999e-06,0.0097003,4.0260377,1.0,4.7642217,0.738184,4.864568,3.576816,8.442901,9.0,8.443042,9.050799,5.0247617,9.05096,9.860277,--
2,2,7,3,1,2.422500e+00,1.615000e+00,1.0,1.0,--,--,9.8724165,1.0,10.714209,0.8417924,10.81452,3.4732077,14.290906,6.0,14.291022,14.896006,5.023589,14.896132,17.320906,--
3,3,6,2,3,8.075000e-01,2.422500e+00,1.0,2.0,--,--,17.33474,1.0,17.964056,0.6293163,18.064428,4.4931836,22.5596,3.0,22.55971,23.167048,5.8323083,23.167185,23.978529,--
4,4,1,1,1,8.075000e-01,1.615000e+00,1.0,3.0,--,--,23.983654,1.0,24.714525,0.7308706,24.814827,3.5841293,28.401802,8.0,28.401913,29.007242,5.0235887,29.007376,29.816757,--
5,5,4,2,1,8.075000e-01,8.075000e-01,1.0,4.0,--,--,29.828295,2.0,30.464151,0.6358558,30.564503,2.8716443,33.438965,2.0,33.439075,34.044056,4.2157607,34.044186,34.85453,--
6,6,1,1,1,8.882500e+00,1.615000e+00,1.0,5.0,--,--,34.85751,2.0,35.480637,0.623124,35.580956,3.691876,39.274002,3.0,39.274113,39.880203,5.0226936,39.880333,48.764782,--
7,7,1,1,1,2.422500e+00,2.422500e+00,1.0,6.0,--,--,48.766544,1.0,49.69732,0.9307743,49.797615,4.1917257,53.991898,6.0,53.99201,54.596714,5.8301663,54.596848,57.02125,--
8,8,3,1,3,8.075000e-01,1.615000e+00,1.0,7.0,--,--,57.023003,2.0,57.647327,0.624324,57.747646,3.690676,61.439896,8.0,61.440002,62.044994,5.021992,62.045128,62.85488,--
9,9,6,2,3,2.422500e+00,1.615000e+00,1.0,8.0,--,--,62.866287,2.0,63.49765,0.6313629,63.597946,3.6836371,67.283936,8.0,67.28405,67.888725,5.0224366,67.888855,70.3129,--
10,10,7,3,1,8.075000e-01,2.422500e+00,1.0,9.0,--,--,70.32327,2.0,70.94803,0.6247489,71.04833,4.497751,75.54799,1.0,75.5481,76.154,5.8307204,76.15413,76.96387,--
11,11,3,1,3,2.422500e+00,8.075000e-01,1.0,10.0,--,--,76.966835,2.0,77.49741,0.5305745,77.59772,2.9769256,80.576866,8.0,80.57698,81.18166,4.214827,81.18179,83.60687,--
12,12,7,3,1,8.075000e-01,2.422500e+00,1.0,11.0,--,--,83.61775,2.0,84.34717,0.7294183,84.44747,4.3930817,88.84352,4.0,88.84363,89.44901,5.8312593,89.44914,90.25859,--
13,13,4,2,1,5.652500e+00,1.615000e+00,1.0,12.0,--,--,90.27013,2.0,90.797386,0.5272565,90.89773,3.7877436,94.68762,4.0,94.68774,95.29234,5.022212,95.29247,100.94737,--
14,14,7,3,1,8.075000e-01,2.422500e+00,1.0,13.0,--,--,100.957664,2.0,101.480835,0.5231679,101.581184,4.5993323,106.183395,1.0,106.1835,106.78898,5.831316,106.789116,107.59909,--
15,15,2,1,2,8.075000e-01,8.075000e-01,1.0,14.0,--,--,107.60219,2.0,108.33082,0.7286319,108.43111,2.7788682,111.211876,5.0,111.21199,111.81891,4.216723,111.819046,112.6288,--
16,16,1,1,1,4.037500e+00,8.075000e-01,1.0,15.0,--,--,112.63058,2.0,113.36393,0.7333536,113.46424,2.7741463,116.24088,3.0,116.24099,116.84681,4.2162294,116.84694,120.8863,--
17,17,6,2,3,2.422500e+00,2.422500e+00,1.0,16.0,--,--,120.89796,2.0,121.530785,0.6328322,121.631096,4.489668,126.1229,9.0,126.12301,126.72855,5.830601,126.72869,129.1539,--
18,18,9,3,3,2.422500e+00,2.422500e+00,1.0,17.0,--,--,129.16434,2.0,130.31398,1.1496377,130.41434,3.9728622,134.38907,8.0,134.38918,134.99379,5.8294435,134.99393,137.41869,--
19,19,1,1,1,2.422500e+00,2.422500e+00,1.0,18.0,--,--,137.42165,2.0,138.24927,0.8276156,138.34956,4.294884,142.646,3.0,142.64612,143.25104,5.8293962,143.25117,145.6762,--
20,20,6,2,3,8.075000e-01,8.075000e-01,1.0,19.0,--,--,145.68762,2.0,146.63065,0.9430191,146.731,2.5644808,149.29794,9.0,149.29807,149.90376,4.216135,149.9039,150.71294,--
21,21,4,2,1,8.075000e-01,8.075000e-01,1.0,20.0,--,--,150.72345,2.0,151.86392,1.1404762,151.96425,2.3670237,154.33485,3.0,154.33496,154.94002,4.216576,154.94016,155.74986,--
22,22,4,2,1,8.075000e-01,1.615000e+00,1.0,21.0,--,--,155.761,2.0,156.69725,0.9362481,156.79756,3.378752,160.17783,3.0,160.17793,160.78262,5.0216203,160.78276,161.5928,--
23,23,6,2,3,4.037500e+00,8.075000e-01,1.0,22.0,--,--,161.6041,2.0,162.2304,0.6263042,162.33076,2.8811958,165.21503,9.0,165.21515,165.81996,4.2158713,165.8201,169.85979,--
24,24,9,3,3,8.075000e-01,2.422500e+00,1.0,23.0,--,--,169.87045,2.0,170.71385,0.8433917,170.81415,4.2791085,175.09567,7.0,175.09578,175.70096,5.8305073,175.7011,176.51074,--
25,25,7,3,1,8.075000e-01,1.615000e+00,1.0,24.0,--,--,176.52019,2.0,177.1472,0.6270217,177.2475,3.6879783,180.9375,3.0,180.93762,181.543,5.0228205,181.54314,182.35265,--
26,26,5,2,2,8.075000e-01,8.075000e-01,1.0,25.0,--,--,182.36455,2.0,183.29706,0.9325087,183.39735,2.5749912,185.97397,5.0,185.97409,186.57901,4.214468,186.57915,187.38855,--
27,27,4,2,1,8.075000e-01,8.075000e-01,1.0,26.0,--,--,187.39957,2.0,188.1305,0.7309305,188.23079,2.7765696,191.0099,4.0,191.01003,191.61589,4.216326,191.61603,192.42589,--
28,28,3,1,3,7.267500e+00,2.422500e+00,1.0,27.0,--,--,192.42926,2.0,193.16368,0.7344149,193.26402,4.388085,197.65486,8.0,197.65498,198.26,5.830739,198.26013,205.5299,--
29,29,3,1,3,4.037500e+00,8.075000e-01,1.0,28.0,--,--,205.53171,2.0,206.26387,0.7321572,206.36421,2.7753427,209.14188,7.0,209.14198,209.74622,4.214507,209.74635,213.78586,--
30,30,1,1,1,8.075000e-01,8.075000e-01,1.0,29.0,--,--,213.78769,2.0,214.73026,0.9425688,214.83057,2.5649312,217.39665,4.0,217.39676,218.00296,4.215261,218.0031,218.81285,--
31,31,9,3,3,5.652500e+00,1.615000e+00,1.0,30.0,--,--,218.82347,2.0,219.56377,0.7402997,219.66422,3.5747004,223.24095,6.0,223.24106,223.84729,5.023829,223.84743,229.50156,--
32,32,3,1,3,4.037500e+00,8.075000e-01,1.0,31.0,--,--,229.50453,2.0,230.23038,0.7258378,230.33069,2.7816622,233.11385,6.0,233.11397,233.719,4.2144637,233.71913,237.75894,--
33,33,6,2,3,8.075000e-01,2.422500e+00,1.0,32.0,--,--,237.77158,2.0,238.2972,0.5256276,238.39754,4.5968723,242.99657,7.0,242.99667,243.60182,5.8302526,243.60196,244.41095,--
34,34,5,2,2,4.037500e+00,1.615000e+00,1.0,33.0,--,--,244.42203,2.0,245.5638,1.141774,245.66414,3.1732259,248.83986,5.0,248.83997,249.44441,5.022388,249.44455,253.48386,--
35,35,7,3,1,8.075000e-01,8.075000e-01,1.0,34.0,--,--,253.49438,2.0,254.23016,0.7357684,254.3305,2.7717316,257.1049,1.0,257.105,257.71063,4.2162385,257.71075,258.52002,--
36,36,9,3,3,2.422500e+00,2.422500e+00,1.0,35.0,--,--,258.52954,2.0,259.36368,0.8341265,259.464,4.2883735,263.75455,9.0,263.75467,264.3595,5.8299365,264.35962,266.78384,--
37,37,9,3,3,4.037500e+00,2.422500e+00,1.0,36.0,--,--,266.79312,2.0,267.43042,0.6373057,267.53073,4.485194,272.0185,6.0,272.0186,272.62347,5.830359,272.6236,276.66293,--
38,38,3,1,3,8.075000e-01,8.075000e-01,1.0,37.0,--,--,276.66595,2.0,277.39688,0.730942,277.4972,2.776558,280.27576,7.0,280.27585,280.8802,4.2142434,280.88034,281.6902,--
39,39,8,3,2,4.037500e+00,1.615000e+00,1.0,38.0,--,--,281.70044,2.0,282.33014,0.6297104,282.43048,3.6852896,286.11746,5.0,286.11758,286.72287,5.022432,286.723,290.76303,--
40,40,1,1,1,8.075000e-01,1.615000e+00,1.0,39.0,--,--,290.766,2.0,291.59695,0.8309467,291.6973,3.4840534,295.18484,3.0,295.18497,295.78955,5.0235662,295.7897,296.59894,--
41,41,1,1,1,8.075000e-01,8.075000e-01,1.0,40.0,--,--,296.6007,2.0,297.23022,0.6295338,297.33054,2.8779662,300.21097,4.0,300.2111,300.81638,4.215671,300.81653,301.6258,--
42,42,3,1,3,7.267500e+00,2.422500e+00,1.0,41.0,--,--,301.6276,2.0,302.46362,0.8360347,302.56393,4.286465,306.85272,6.0,306.8528,307.45743,5.829837,307.45755,314.72784,--
43,43,6,2,3,2.422500e+00,1.615000e+00,1.0,42.0,--,--,314.74008,2.0,315.5802,0.8400963,315.68054,3.4749036,319.15732,8.0,319.15744,319.761,5.0209002,319.76114,322.18573,--
44,44,7,3,1,8.075000e-01,8.075000e-01,1.0,43.0,--,--,322.19635,2.0,323.03012,0.8337466,323.13046,2.6737535,325.8057,2.0,325.80582,326.41104,4.2146807,326.4112,327.22058,--
45,45,6,2,3,8.075000e-01,2.422500e+00,1.0,44.0,--,--,327.23282,2.0,327.9635,0.7306618,328.06378,4.391838,332.45728,7.0,332.4574,333.0629,5.830081,333.06305,333.8728,--
46,46,3,1,3,2.422500e+00,1.615000e+00,1.0,45.0,--,--,333.87592,2.0,334.4978,0.6218961,334.59808,3.6931038,338.29355,8.0,338.29367,338.8971,5.021193,338.89722,341.32202,--
47,47,8,3,2,8.075000e-01,2.422500e+00,1.0,46.0,--,--,341.33237,2.0,341.76355,0.4311804,341.86386,4.6913195,346.55783,5.0,346.55792,347.1626,5.8302164,347.16272,347.9728,--
48,48,4,2,1,2.422500e+00,8.075000e-01,1.0,47.0,--,--,347.98462,2.0,349.03033,1.0457084,349.13065,2.4617915,351.59494,3.0,351.59506,352.20065,4.2160306,352.20078,354.6251,--
49,49,9,3,3,2.422500e+00,2.422500e+00,1.0,48.0,--,--,354.6357,2.0,355.2632,0.6275019,355.3635,4.494998,359.85983,9.0,359.85992,360.46588,5.8301682,360.466,362.89035,--
50,50,4,2,1,5.652500e+00,1.615000e+00,1.0,49.0,--,--,362.9022,2.0,363.5299,0.6277389,363.63022,3.687261,367.31982,2.0,367.31995,367.92456,5.022397,367.9247,373.58176,--
51,51,7,3,1,8.075000e-01,2.422500e+00,1.0,50.0,--,--,373.59256,2.0,374.33005,0.7375129,374.43042,4.384987,378.81683,2.0,378.81696,379.42154,5.8289976,379.42166,380.23184,--
52,52,9,3,3,5.652500e+00,1.615000e+00,1.0,51.0,--,--,380.24127,2.0,381.07986,0.8385821,381.18015,3.476418,384.65875,8.0,384.65887,385.26453,5.023254,385.26465,390.91888,--
53,53,9,3,3,2.422500e+00,8.075000e-01,1.0,52.0,--,--,390.92838,2.0,391.56378,0.6354172,391.6641,2.8720827,394.5386,6.0,394.5387,395.14297,4.214611,395.1431,397.56778,--
54,54,2,1,2,8.075000e-01,1.615000e+00,1.0,53.0,--,--,397.57086,2.0,398.51352,0.9426509,398.61383,3.372349,401.98892,5.0,401.98904,402.59464,5.0237713,402.5948,403.404,412.00085
