TrialNumber,Trialn,TrialType,Partner,Feedback,ITI,ISI,ran,order,studyStart,InitFixOnset,decision_onset,resp,resp_onset,rt,ISI_onset,isi_for_trial,ISI_offset,outcome_val,outcome_onset,outcome_offset,trialDuration,ITIonset,ITIoffset,final_fix_offset
1,1,9,3,3,8.075000e-01,2.422500e+00,1.0,0.0,2.500601e-06,0.010124801,4.0283585,1.0,5.270722,1.2423633,5.371128,3.8801367,9.253991,3.0,9.254135,9.862145,5.833787,9.862344,10.671794,--
2,2,3,1,3,8.075000e-01,2.422500e+00,1.0,1.0,--,--,10.678204,2.0,12.036584,1.3583806,12.137009,3.7641194,15.903861,7.0,15.9039755,16.509983,5.831779,16.510141,17.31987,--
3,3,2,1,2,8.075000e-01,1.615000e+00,1.0,2.0,--,--,17.32171,2.0,18.66988,1.3481693,18.770212,2.9668307,21.73887,5.0,21.73902,22.345997,5.0242863,22.346157,23.155571,--
4,4,4,2,1,2.422500e+00,1.615000e+00,1.0,3.0,--,--,23.170084,1.0,24.320116,1.1500332,24.42048,3.1649668,27.58786,8.0,27.587975,28.19467,5.024587,28.194832,30.61905,--
5,5,5,2,2,4.037500e+00,1.615000e+00,1.0,4.0,--,--,30.629335,2.0,31.569853,0.9405172,31.670195,3.3744829,35.047844,5.0,35.04796,35.65293,5.023595,35.653088,39.69312,--
6,6,4,2,1,4.037500e+00,2.422500e+00,1.0,5.0,--,--,39.705715,1.0,40.95307,1.2473576,41.05348,3.8751423,44.93184,9.0,44.931953,45.538055,5.8323407,45.538216,49.577774,--
7,7,4,2,1,8.075000e-01,1.615000e+00,1.0,6.0,--,--,49.58844,2.0,50.736656,1.1482134,50.83699,3.1667867,54.00583,1.0,54.005943,54.6109,5.02246,54.611065,55.421154,--
8,8,3,1,3,8.075000e-01,8.075000e-01,1.0,7.0,--,--,55.424595,2.0,56.46988,1.0452853,56.570217,2.4622147,59.034966,8.0,59.03508,59.640102,4.215507,59.64026,60.449844,--
9,9,7,3,1,2.422500e+00,8.075000e-01,1.0,8.0,--,--,60.46401,1.0,61.203262,0.7392515,61.303616,2.7682486,64.07453,8.0,64.074646,64.67949,4.2154775,64.67966,67.10384,--
10,10,1,1,1,8.075000e-01,2.422500e+00,1.0,9.0,--,--,67.10675,2.0,68.25322,1.1464714,68.35357,3.9760287,72.33282,2.0,72.33293,72.93799,5.831239,72.93815,73.74781,--
11,11,7,3,1,8.075000e-01,8.075000e-01,1.0,10.0,--,--,73.760605,1.0,74.70305,0.9424483,74.80339,2.5650518,77.37082,8.0,77.37094,77.97491,4.2143087,77.97506,78.78481,--
12,12,1,1,1,4.037500e+00,8.075000e-01,1.0,11.0,--,--,78.78771,2.0,79.419685,0.6319747,79.52003,2.8755252,82.39781,3.0,82.39793,83.00241,4.2147007,83.00258,87.041794,--
13,13,9,3,3,2.422500e+00,8.075000e-01,1.0,12.0,--,--,87.05459,1.0,88.20314,1.1485485,88.30348,2.3589516,90.66494,3.0,90.665054,91.26989,4.2153034,91.27005,93.694336,--
14,14,7,3,1,8.075000e-01,1.615000e+00,1.0,13.0,--,--,93.7062,1.0,95.15298,1.4467788,95.25331,2.8682213,98.12377,6.0,98.123886,98.73065,5.0244517,98.73081,99.54078,--
15,15,6,2,3,2.422500e+00,8.075000e-01,1.0,14.0,--,--,99.55226,2.0,100.80305,1.250786,100.90339,2.256714,103.162766,7.0,103.16288,103.767975,4.2157145,103.768135,106.192825,--
16,16,6,2,3,5.652500e+00,2.422500e+00,1.0,15.0,--,--,106.20295,2.0,107.35296,1.1500077,107.45331,3.9724922,111.42778,7.0,111.4279,112.03195,5.8290043,112.03211,117.68651,--
17,17,1,1,1,8.075000e-01,1.615000e+00,1.0,16.0,--,--,117.68946,2.0,119.45292,1.7634588,119.55326,2.551541,122.106766,4.0,122.10691,122.71205,5.02259,122.71222,123.52178,--
18,18,1,1,1,8.075000e-01,2.422500e+00,1.0,17.0,--,--,123.52365,1.0,124.669586,1.1459336,124.769936,3.9765663,128.74876,8.0,128.74887,129.35498,5.8313184,129.35513,130.16484,--
19,19,2,1,2,4.037500e+00,1.615000e+00,1.0,18.0,--,--,130.1667,1.0,131.2029,1.0362016,131.30324,3.2787983,134.58376,5.0,134.58386,135.18857,5.0218754,135.18874,139.22874,--
20,20,7,3,1,4.037500e+00,1.615000e+00,1.0,19.0,--,--,139.24179,1.0,140.68817,1.4463824,140.78851,2.8686175,143.6598,6.0,143.65991,144.26485,5.023064,144.26503,148.30473,--
21,21,4,2,1,8.075000e-01,1.615000e+00,1.0,20.0,--,--,148.31564,2.0,149.05283,0.7371862,149.15317,3.5778139,152.73257,2.0,152.7327,153.33643,5.020784,153.3366,154.14673,--
22,22,4,2,1,7.267500e+00,8.075000e-01,1.0,21.0,--,--,154.15678,1.0,155.30284,1.1460567,155.40317,2.3614433,157.76662,6.0,157.76674,158.37152,4.2147393,158.37169,165.64072,--
23,23,9,3,3,2.422500e+00,1.615000e+00,1.0,22.0,--,--,165.65366,2.0,166.28625,0.632597,166.3866,3.682403,170.07172,6.0,170.07184,170.67677,5.023116,170.67694,173.10172,--
24,24,6,2,3,5.652500e+00,8.075000e-01,1.0,23.0,--,--,173.11293,1.0,174.56946,1.4565293,174.6698,2.0509708,176.72261,3.0,176.72273,177.32744,4.2145147,177.3276,182.9818,--
25,25,4,2,1,8.075000e-01,2.422500e+00,1.0,24.0,--,--,182.99214,2.0,184.0361,1.043963,184.13646,4.078537,188.21768,1.0,188.2178,188.82281,5.830682,188.82298,189.63239,--
26,26,7,3,1,8.075000e-01,1.615000e+00,1.0,25.0,--,--,189.6454,1.0,191.00436,1.3589615,191.10475,2.9560385,194.0637,8.0,194.06381,194.66748,5.022084,194.66763,195.47684,--
27,27,3,1,3,8.075000e-01,2.422500e+00,1.0,26.0,--,--,195.47969,1.0,196.83609,1.356399,196.93643,3.766101,200.70569,4.0,200.7058,201.31079,5.8311067,201.31094,202.12071,--
28,28,9,3,3,2.422500e+00,8.075000e-01,1.0,27.0,--,--,202.13368,1.0,203.27144,1.1377565,203.37178,2.3697436,205.74281,1.0,205.74292,206.3468,4.213132,206.34695,208.77121,--
29,29,4,2,1,8.075000e-01,8.075000e-01,1.0,28.0,--,--,208.78293,2.0,209.92053,1.1376013,210.02086,2.3698988,212.39268,2.0,212.3928,212.9978,4.214872,212.99796,213.80766,--
30,30,9,3,3,4.037500e+00,8.075000e-01,1.0,29.0,--,--,213.82063,2.0,215.37025,1.54963,215.4706,1.95787,217.43066,6.0,217.43079,218.0353,4.214665,218.03546,222.07469,--
31,31,1,1,1,2.422500e+00,8.075000e-01,1.0,30.0,--,--,222.07759,2.0,223.73596,1.6583635,223.8363,1.8491365,225.68867,4.0,225.68878,226.2948,4.2172036,226.29495,228.72017,--
32,32,3,1,3,7.267500e+00,2.422500e+00,1.0,31.0,--,--,228.72198,2.0,230.16916,1.4471738,230.26953,3.675326,233.94765,9.0,233.94775,234.55286,5.8308754,234.55301,241.82245,--
33,33,7,3,1,8.075000e-01,2.422500e+00,1.0,32.0,--,--,241.83534,1.0,243.08601,1.2506758,243.18634,3.8718243,247.06017,9.0,247.06029,247.66478,5.829437,247.66492,248.47433,--
34,34,6,2,3,8.075000e-01,2.422500e+00,1.0,33.0,--,--,248.4852,1.0,250.2528,1.7676113,250.35316,3.3548887,253.70966,1.0,253.70978,254.31474,5.8295403,254.3149,255.12459,--
35,35,9,3,3,4.037500e+00,8.075000e-01,1.0,34.0,--,--,255.1378,2.0,256.8024,1.6645954,256.90274,1.8429046,258.74762,7.0,258.74774,259.35242,4.2146025,259.35257,263.39185,--
36,36,6,2,3,2.422500e+00,8.075000e-01,1.0,35.0,--,--,263.40283,1.0,264.3361,0.9332504,264.43643,2.5742495,267.01266,2.0,267.01276,267.6177,4.214856,267.61786,270.04227,--
37,37,3,1,3,2.422500e+00,1.615000e+00,1.0,36.0,--,--,270.04523,1.0,271.4025,1.3572524,271.5028,2.9577477,274.4624,4.0,274.46252,275.06616,5.0209355,275.0663,277.4906,--
38,38,5,2,2,8.075000e-01,8.075000e-01,1.0,37.0,--,--,277.50177,1.0,278.03583,0.534038,278.13617,2.973462,281.11163,5.0,281.11172,281.71597,4.2141814,281.71613,282.5256,--
39,39,9,3,3,2.422500e+00,2.422500e+00,1.0,38.0,--,--,282.53854,2.0,283.6861,1.1475686,283.7865,3.9749315,287.7626,8.0,287.76276,288.36737,5.8288436,288.36755,290.79175,--
40,40,9,3,3,2.422500e+00,2.422500e+00,1.0,39.0,--,--,290.80356,2.0,292.3526,1.5490412,292.45297,3.573459,296.02777,7.0,296.0279,296.6317,5.828148,296.63187,299.0566,--
41,41,3,1,3,8.075000e-01,8.075000e-01,1.0,40.0,--,--,299.0595,1.0,300.10233,1.0427903,300.20264,2.4647098,302.6696,2.0,302.6697,303.27386,4.21433,303.27402,304.0836,--
42,42,4,2,1,2.422500e+00,8.075000e-01,1.0,41.0,--,--,304.09445,2.0,305.55246,1.4579828,305.6528,2.0495172,307.70425,2.0,307.70438,308.3097,4.215212,308.30984,310.7343,--
43,43,1,1,1,2.422500e+00,2.422500e+00,1.0,42.0,--,--,310.73727,1.0,312.40234,1.6650789,312.5027,3.457421,315.96265,9.0,315.96277,316.5677,5.830425,316.56787,318.99258,--
44,44,3,1,3,8.882500e+00,2.422500e+00,1.0,43.0,--,--,318.9944,1.0,320.23553,1.2411522,320.33588,3.881348,324.21957,1.0,324.2197,324.82434,5.829957,324.8245,333.7087,--
45,45,1,1,1,8.075000e-01,2.422500e+00,1.0,44.0,--,--,333.71054,1.0,335.16888,1.4583293,335.26923,3.6641707,338.93552,8.0,338.93564,339.54065,5.830087,339.5408,340.35022,--
46,46,1,1,1,8.075000e-01,2.422500e+00,1.0,45.0,--,--,340.35208,1.0,341.08548,0.7334027,341.1858,4.389097,345.57755,8.0,345.57764,346.18866,5.836595,346.18884,346.99826,--
47,47,6,2,3,8.075000e-01,8.075000e-01,1.0,46.0,--,--,347.0094,2.0,348.25226,1.242852,348.3526,2.264648,350.6196,7.0,350.61972,351.22464,4.215244,351.2248,352.03458,--
48,48,7,3,1,5.652500e+00,1.615000e+00,1.0,47.0,--,--,352.04794,1.0,353.4023,1.3543625,353.50262,2.9606376,356.46515,8.0,356.46527,357.06982,5.0218806,357.07,362.72443,--
49,49,8,3,2,8.075000e-01,1.615000e+00,1.0,48.0,--,--,362.7363,1.0,364.08542,1.3491077,364.18576,2.9658923,367.15353,5.0,367.15366,367.75833,5.0220237,367.75848,368.56854,--
50,50,8,3,2,5.652500e+00,1.615000e+00,1.0,49.0,--,--,368.5803,1.0,369.6189,1.0386097,369.71927,3.2763903,372.9975,5.0,372.99762,373.6016,5.021314,373.60175,379.2562,--
51,51,7,3,1,8.075000e-01,1.615000e+00,1.0,50.0,--,--,379.2678,1.0,380.51883,1.2510251,380.61917,3.0639749,383.6845,7.0,383.68463,384.2893,5.021515,384.28946,385.09952,--
52,52,6,2,3,8.075000e-01,1.615000e+00,1.0,51.0,--,--,385.1104,1.0,386.66873,1.5583261,386.76907,2.7566738,389.5284,4.0,389.52853,390.1342,5.023765,390.13437,390.9445,--
53,53,6,2,3,8.075000e-01,1.615000e+00,1.0,52.0,--,--,390.95474,2.0,392.402,1.4472779,392.50235,2.867722,395.37253,7.0,395.37262,395.97693,5.0221853,395.97714,396.78738,--
54,54,3,1,3,8.075000e-01,2.422500e+00,1.0,53.0,--,--,396.7903,1.0,397.61905,0.8287277,397.71945,4.293772,402.01514,2.0,402.01526,402.6206,5.8302913,402.62076,403.43048,412.0005
