TrialNumber,Trial,cLeft,cRight,Partner,Reciprocate,ISI,ITI,ran,order,onset,bpress,resp,resp_onset,highlow,rt,ISIpad,ISI_onset,ISI_offset,outcome_onset,outcome_offset,duration,ITI_onset,ITI_offset
1,1,2,8,1,1,5.000000e-01,8.075000e-01,1.0,0.0,4.021901,2.0,8,6.5565033,high,2.534602,0.465398,7.0775547,9.272383,9.275607,11.278551,7.2566495,11.279028,12.079002
2,2,4,8,3,1,5.000000e-01,8.075000e-01,1.0,1.0,12.095737,2.0,8,14.4070425,high,2.3113055,0.6886945,14.927035,17.345558,17.347712,19.350763,7.2550263,19.351213,20.153492
3,3,2,0,1,0,3.500000e+00,2.422500e+00,1.0,2.0,20.159145,1.0,2,22.257282,high,2.0981371,0.9018628,22.776758,28.408932,28.41185,30.414392,10.255246,30.414795,32.832542
4,4,0,2,2,1,5.000000e-01,4.037500e+00,1.0,3.0,32.96075,1.0,0,35.273575,low,2.3128254,0.6871746,35.792484,38.21176,38.211884,40.213844,7.2530947,40.21424,44.24847
5,5,4,8,2,1,5.000000e-01,7.267500e+00,1.0,4.0,44.367046,2.0,8,46.74011,high,2.3730626,0.62693727,47.2597,49.618027,49.61992,51.62146,7.254412,51.621864,58.884796
6,6,4,0,3,1,2,8.882500e+00,1.0,5.0,58.889183,1.0,4,60.772854,high,1.8836675,1.1163325,61.293976,65.64011,65.64208,67.643875,8.754691,67.64427,76.52251
7,7,4,0,2,1,5.000000e-01,8.075000e-01,1.0,6.0,76.63961,1.0,4,79.08964,high,2.4500284,0.5499715,79.61006,81.889465,81.8914,83.8938,7.254187,83.894196,84.69793
8,8,8,2,1,1,5.000000e-01,5.652500e+00,1.0,7.0,84.70446,2.0,2,87.356804,low,2.652341,0.347659,87.87705,89.95486,89.95697,91.95934,7.2548833,91.959755,97.60772
9,9,4,8,2,0,2,8.075000e-01,1.0,8.0,97.7294,1.0,4,100.07285,low,2.343454,0.656546,100.592896,104.48078,104.48256,106.48493,8.755533,106.48533,107.28779
10,10,4,0,1,0,2,4.037500e+00,1.0,9.0,107.29242,1.0,4,110.25643,high,2.9640126,0.0359873,110.77674,114.04292,114.045166,116.04782,8.755399,116.04823,120.081345
11,11,4,8,3,0,5.000000e-01,2.422500e+00,1.0,10.0,120.08562,2.0,8,122.62292,high,2.5373049,0.4626951,123.14222,125.335884,125.337845,127.34119,7.2555733,127.34159,129.75871
12,12,8,2,3,0,2,8.075000e-01,1.0,11.0,129.76346,1.0,8,131.92332,high,2.1598597,0.8401403,132.44395,136.51451,136.51492,138.51704,8.75358,138.51744,139.32065
13,13,2,8,2,0,5.000000e-01,2.422500e+00,1.0,12.0,139.43903,999.0,999,142.43964,999,0.0,0.0,142.44301,144.68886,999.0,999.0,859.561,146.6956,149.11234
14,14,4,2,2,0,5.000000e-01,8.075000e-01,1.0,13.0,149.23468,1.0,4,151.1228,high,1.8881311,1.1118689,151.64311,154.48485,154.48674,156.48886,7.254186,156.48926,157.29239
15,15,0,8,2,0,2,8.075000e-01,1.0,14.0,157.41193,1.0,0,159.89,low,2.4780643,0.5219358,160.40894,164.16176,164.1619,166.16405,8.752113,166.16464,166.96971
16,16,8,2,2,1,2,8.075000e-01,1.0,15.0,167.08574,2.0,2,169.57304,low,2.4873059,0.5126941,170.0938,173.83586,173.83778,175.84087,8.755133,175.8413,176.64378
17,17,0,8,1,0,3.500000e+00,2.422500e+00,1.0,16.0,176.64944,1.0,0,178.8902,low,2.24076,0.75924,179.40923,184.89977,184.89996,186.90126,10.251821,186.9017,189.3218
18,18,4,0,2,0,5.000000e-01,5.652500e+00,1.0,17.0,189.43932,1.0,4,191.38956,high,1.9502486,1.0497514,191.90971,194.68944,194.69122,196.69382,7.254504,196.69421,202.34167
19,19,4,2,1,1,5.000000e-01,8.075000e-01,1.0,18.0,202.34613,2.0,2,204.4731,low,2.12696,0.8730399,204.99225,207.59778,207.59978,209.60127,7.255132,209.60165,210.40382
20,20,2,8,1,0,5.000000e-01,8.075000e-01,1.0,19.0,210.40837,1.0,2,212.9728,low,2.5644283,0.4355716,213.49284,215.65929,215.66124,217.6628,7.2544317,217.6632,218.4673
21,21,0,4,1,1,5.000000e-01,8.075000e-01,1.0,20.0,218.47261,2.0,4,220.4898,high,2.0171914,0.9828087,221.00902,223.72372,223.72574,225.72723,7.254616,225.72762,226.53065
22,22,0,8,2,1,2,8.075000e-01,1.0,21.0,226.64514,1.0,0,228.7564,low,2.1112423,0.8887578,229.2763,233.39604,233.39618,235.39758,8.752436,235.39798,236.2033
23,23,0,8,3,0,5.000000e-01,8.075000e-01,1.0,22.0,236.20642,2.0,8,238.32315,high,2.116735,0.8832649,238.8431,241.45743,241.4601,243.4628,7.2563825,243.4632,244.26512
24,24,2,4,3,1,5.000000e-01,8.075000e-01,1.0,23.0,244.26967,2.0,4,246.18979,high,1.9201128,1.0798872,246.70877,249.51996,249.52196,251.52377,7.254098,251.52417,252.32758
25,25,2,8,2,0,5.000000e-01,8.075000e-01,1.0,24.0,252.44475,1.0,2,254.80678,low,2.3620265,0.6379735,255.3259,257.69562,257.6975,259.6994,7.2546577,259.6998,260.50284
26,26,0,8,1,1,2,2.422500e+00,1.0,25.0,260.50735,2.0,8,262.6563,high,2.1489387,0.8510613,263.1766,267.25754,267.25952,269.26187,8.754501,269.26224,271.68103
27,27,2,0,3,1,5.000000e-01,4.037500e+00,1.0,26.0,271.6864,1.0,2,273.57236,high,1.8859693,1.1140307,274.09326,276.93652,276.9385,278.94034,7.2539234,278.94073,282.9743
28,28,2,8,2,1,2,8.075000e-01,1.0,27.0,283.0906,2.0,8,285.6063,high,2.5156994,0.4843005,286.12598,289.84106,289.84305,291.84454,8.753948,291.84494,292.6488
29,29,4,2,2,1,5.000000e-01,8.075000e-01,1.0,28.0,292.7678,1.0,4,294.9397,high,2.171918,0.8280821,295.45956,298.0182,298.01865,300.0215,7.2537313,300.0219,300.82486
30,30,0,4,3,0,2,4.037500e+00,1.0,29.0,300.8304,2.0,4,303.17242,high,2.341992,0.6580082,303.693,307.57996,307.5818,309.58438,8.753942,309.58478,313.61783
31,31,0,2,2,0,5.000000e-01,8.075000e-01,1.0,30.0,313.73404,2.0,2,315.75635,high,2.0223114,0.9776886,316.27493,318.98477,318.9866,320.9886,7.2545547,320.98898,321.7911
32,32,2,0,1,1,2,4.037500e+00,1.0,31.0,321.7968,2.0,0,324.72296,low,2.9261212,0.0738788,325.24182,328.5472,328.54733,330.5494,8.752586,330.5498,334.5848
33,33,2,8,1,0,5.000000e-01,2.422500e+00,1.0,32.0,334.58807,1.0,2,336.9223,low,2.3342085,0.6657914,337.44293,339.83835,339.84042,341.843,7.254887,341.84338,344.26077
34,34,4,8,1,0,2,2.422500e+00,1.0,33.0,344.26538,1.0,4,346.70605,low,2.4406717,0.5593284,347.225,351.01532,351.01575,353.01794,8.752566,353.01834,355.43762
35,35,2,4,3,0,2,2.422500e+00,1.0,34.0,355.45554,2.0,4,357.53882,high,2.0832596,0.9167405,358.05963,362.20676,362.2086,364.21048,8.754944,364.21094,366.62784
36,36,2,8,3,0,5.000000e-01,2.422500e+00,1.0,35.0,366.6312,2.0,8,368.5395,high,1.9082915,1.0917085,369.05853,371.8806,371.881,373.8832,7.2520046,373.8836,376.30383
37,37,8,0,3,1,3.500000e+00,2.422500e+00,1.0,36.0,376.30823,1.0,8,378.63934,high,2.331103,0.6688968,379.15912,384.5588,384.56094,386.56378,10.255537,386.56418,388.98123
38,38,8,4,1,1,2,2.422500e+00,1.0,37.0,388.98544,2.0,4,391.7389,low,2.7534552,0.2465449,392.2584,395.73578,395.7378,397.7396,8.754146,397.74,400.15823
39,39,8,2,3,1,2,8.075000e-01,1.0,38.0,400.16232,1.0,8,402.17276,high,2.0104322,0.9895677,402.69305,406.91354,406.91547,408.91757,8.755261,408.91803,409.71994
40,40,4,2,1,0,5.000000e-01,8.075000e-01,1.0,39.0,409.72433,1.0,4,412.439,high,2.7146444,0.2853556,412.95905,414.9759,414.97784,416.98032,7.25599,416.98074,417.78183
41,41,2,0,3,0,5.000000e-01,7.267500e+00,1.0,40.0,417.78723,1.0,2,419.55597,high,1.7687293,1.2312707,420.07498,423.03717,423.039,425.04227,7.255019,425.04266,432.30493
42,42,2,8,3,1,3.500000e+00,8.075000e-01,1.0,41.0,432.3086,2.0,8,434.4727,high,2.1640792,0.8359207,434.9921,440.55917,440.56116,442.5638,10.255215,442.5642,443.36646
