TrialNumber,Trial,cLeft,cRight,Partner,Reciprocate,ISI,ITI,ran,order,onset,bpress,resp,resp_onset,highlow,rt,ISIpad,ISI_onset,ISI_offset,outcome_onset,outcome_offset,duration,ITI_onset,ITI_offset
1,1,0,8,1,0,3.500000e+00,8.075000e-01,1.0,0.0,4.0207047,1.0,0,6.3436036,low,2.322899,0.677101,6.8634973,12.270936,12.271079,14.273342,10.252637,14.273788,15.078386
2,2,2,4,2,0,2,4.037500e+00,1.0,1.0,15.20125,2.0,4,16.992966,high,1.7917157,1.2082843,17.513391,21.951675,21.954174,23.956907,8.755658,23.9573,27.98879
3,3,0,4,2,0,5.000000e-01,8.075000e-01,1.0,2.0,28.10563,2.0,4,30.492832,high,2.3872006,0.6127993,31.013695,33.356976,33.3574,35.359623,7.253991,35.359993,36.163754
4,4,4,8,3,0,2,8.075000e-01,1.0,3.0,36.18557,2.0,8,38.54332,high,2.3577485,0.6422516,39.06306,42.936687,42.938595,44.941856,8.756287,44.94225,45.743256
5,5,2,8,3,0,5.000000e-01,8.882500e+00,1.0,4.0,45.7489,2.0,8,47.510326,high,1.7614232,1.2385768,48.030052,50.999893,51.000294,53.00262,7.2537184,53.003014,61.882248
6,6,2,8,1,0,2,8.075000e-01,1.0,5.0,61.88521,1.0,2,64.043015,low,2.1578093,0.8421907,64.56317,68.63589,68.63786,70.6399,8.75469,70.640274,71.44392
7,7,2,4,3,1,3.500000e+00,2.422500e+00,1.0,6.0,71.45066,1.0,2,73.09299,low,1.6423299,1.3576701,73.613075,79.70157,79.70405,81.707085,10.256425,81.707466,84.1237
8,8,8,0,2,0,5.000000e-01,2.422500e+00,1.0,7.0,84.23828,2.0,0,86.55977,low,2.321484,0.6785158,87.078964,89.4879,89.488014,91.48967,7.251392,91.49005,93.9119
9,9,4,0,3,0,2,8.075000e-01,1.0,8.0,93.9192,1.0,4,95.54336,high,1.624163,1.375837,96.06307,100.66991,100.67169,102.67389,8.754692,102.67427,103.47658
10,10,2,0,1,0,2,7.267500e+00,1.0,9.0,103.48073,1.0,2,105.06009,high,1.5793658,1.4206342,105.58006,110.23175,110.23363,112.23521,8.754484,112.2356,119.49789
11,11,2,0,1,1,5.000000e-01,8.075000e-01,1.0,10.0,119.49977,2.0,0,121.87667,low,2.3769011,0.6230989,122.39622,124.75012,124.75024,126.751854,7.2520847,126.75223,127.55788
12,12,2,8,2,1,5.000000e-01,8.075000e-01,1.0,11.0,127.66971,1.0,2,129.57648,low,1.9067614,1.0932386,130.09694,132.92088,132.92278,134.92445,7.2547426,134.92485,135.72691
13,13,2,0,3,0,5.000000e-01,5.652500e+00,1.0,12.0,135.73392,1.0,2,137.55988,high,1.825954,1.174046,138.07933,140.98485,140.98662,142.98892,7.255005,142.98933,148.63754
14,14,2,0,2,1,3.500000e+00,8.075000e-01,1.0,13.0,148.74916,1.0,2,150.29263,high,1.5434679,1.4565321,150.81221,157.00064,157.0025,159.00557,10.256409,159.00595,159.80788
15,15,8,2,2,1,2,2.422500e+00,1.0,14.0,159.92207,2.0,2,161.59326,low,1.671199,1.328801,162.11206,166.67288,166.67328,168.6759,8.75383,168.67627,171.09456
16,16,2,4,3,0,5.000000e-01,2.422500e+00,1.0,15.0,171.1028,2.0,4,172.80977,high,1.706963,1.293037,173.32909,176.35287,176.3546,178.35638,7.253582,178.35677,180.77478
17,17,2,8,1,1,2,8.075000e-01,1.0,16.0,180.77914,2.0,8,182.74266,high,1.9635024,1.0364976,183.26274,187.52924,187.53136,189.53374,8.754582,189.53413,190.3364
18,18,2,0,3,1,5.000000e-01,2.422500e+00,1.0,17.0,190.34314,1.0,2,192.20969,high,1.8665544,1.1334456,192.72961,195.59334,195.59532,197.59741,7.254275,197.59781,200.01677
19,19,4,8,2,0,5.000000e-01,2.422500e+00,1.0,18.0,200.12885,2.0,8,201.59306,high,1.4642135,1.5357865,202.11208,205.37888,205.38068,207.3825,7.2536597,207.38289,209.8012
20,20,4,8,1,1,3.500000e+00,2.422500e+00,1.0,19.0,209.80417,1.0,4,211.17647,low,1.3722944,1.6277056,211.69707,218.05447,218.05641,220.05788,10.253716,220.05826,222.4768
21,21,2,8,1,1,5.000000e-01,8.075000e-01,1.0,20.0,222.48003,1.0,2,224.15976,low,1.6797366,1.3202634,224.67923,227.73088,227.73128,229.73355,7.253534,229.73393,230.53702
22,22,8,4,2,1,2,8.075000e-01,1.0,21.0,230.64687,1.0,8,232.30977,high,1.6628956,1.3371044,232.82954,237.39755,237.39943,239.40195,8.755076,239.40231,240.20488
23,23,2,8,2,0,5.000000e-01,2.422500e+00,1.0,22.0,240.31322,1.0,2,242.07639,low,1.7631567,1.2368433,242.59589,245.5638,245.56554,247.56747,7.254252,247.56786,249.98602
24,24,2,8,3,0,5.000000e-01,2.422500e+00,1.0,23.0,249.99176,2.0,8,251.72626,high,1.734506,1.265494,252.24702,255.24268,255.2444,257.24713,7.2553673,257.2475,259.6648
25,25,8,0,3,0,5.000000e-01,4.037500e+00,1.0,24.0,259.67178,1.0,8,261.32632,high,1.6545469,1.3454531,261.8452,264.92276,264.92316,266.92535,7.253554,266.92572,270.95978
26,26,4,0,1,0,5.000000e-01,8.075000e-01,1.0,25.0,270.96405,1.0,4,272.94302,high,1.9789875,1.0210125,273.4624,276.2137,276.2156,278.21808,7.2540493,278.21848,279.02173
27,27,8,2,3,1,5.000000e-01,4.037500e+00,1.0,26.0,279.02954,2.0,2,280.95953,low,1.929968,1.070032,281.47913,284.27975,284.28162,286.28333,7.253772,286.28372,290.3169
28,28,4,0,1,1,2,4.037500e+00,1.0,27.0,290.32217,2.0,0,292.1929,low,1.8707446,1.1292554,292.71213,297.0725,297.07263,299.0741,8.751942,299.0745,303.10986
29,29,2,0,2,0,5.000000e-01,5.652500e+00,1.0,28.0,303.2203,1.0,2,304.9593,high,1.7389631,1.2610369,305.4791,308.4719,308.4736,310.47586,7.2555394,310.47623,316.1237
30,30,2,8,1,0,5.000000e-01,2.422500e+00,1.0,29.0,316.12778,1.0,2,318.07587,low,1.9480966,1.0519034,318.59503,321.37894,321.38083,323.3825,7.2547274,323.38287,325.80084
31,31,0,4,3,1,2,8.075000e-01,1.0,30.0,325.80963,2.0,4,327.64304,high,1.8333874,1.1666126,328.162,332.56018,332.5621,334.56482,8.755176,334.5652,335.36783
32,32,2,8,2,0,5.000000e-01,8.075000e-01,1.0,31.0,335.47827,1.0,2,337.24316,low,1.7648764,1.2351236,337.76178,340.72894,340.7307,342.7328,7.2545085,342.73315,343.53622
33,33,4,2,1,1,5.000000e-01,2.422500e+00,1.0,32.0,343.54224,1.0,4,345.49283,high,1.9505864,1.0494136,346.01297,348.79294,348.7949,350.7965,7.254252,350.79715,353.21548
34,34,8,0,2,1,5.000000e-01,8.075000e-01,1.0,33.0,353.3272,1.0,8,354.95947,high,1.6322613,1.3677387,355.47906,358.57782,358.57977,360.58185,7.2546377,360.5822,361.38544
35,35,8,4,1,0,2,4.037500e+00,1.0,34.0,361.3901,2.0,4,363.2923,low,1.9021783,1.0978217,363.8121,368.13986,368.14178,370.14392,8.753796,370.1443,374.17883
36,36,2,4,1,0,5.000000e-01,8.075000e-01,1.0,35.0,374.18198,2.0,4,375.95938,high,1.7773823,1.2226177,376.479,379.4323,379.4327,381.43484,7.2528706,381.43524,382.2394
37,37,0,8,1,1,2,8.075000e-01,1.0,36.0,382.24374,2.0,8,383.99243,high,1.748703,1.251297,384.51196,388.99335,388.99542,390.99774,8.754007,390.9982,391.8014
38,38,4,0,2,1,5.000000e-01,8.075000e-01,1.0,37.0,391.91238,1.0,4,393.90924,high,1.9968522,1.0031478,394.42896,397.16287,397.1647,399.16653,7.254152,399.16693,399.97083
39,39,8,2,3,1,5.000000e-01,8.075000e-01,1.0,38.0,399.97897,2.0,2,401.89258,low,1.9136118,1.0863882,402.41196,405.22842,405.23047,407.2328,7.2538223,407.23315,408.03687
40,40,8,4,3,1,2,7.267500e+00,1.0,39.0,408.04276,2.0,4,409.70917,low,1.6664135,1.3335865,410.22876,414.79343,414.79382,416.7958,8.753045,416.79617,424.06046
41,41,2,4,2,1,2,8.075000e-01,1.0,40.0,424.17175,1.0,2,425.8426,low,1.6708281,1.3291719,426.36166,430.92288,430.92474,432.92682,8.75507,432.92722,433.72986
42,42,0,8,3,1,2,8.075000e-01,1.0,41.0,433.73822,2.0,8,435.47568,high,1.7374785,1.2625215,435.9959,440.4885,440.4904,442.49213,8.753914,442.4925,443.29758
