TrialNumber,Trial,cLeft,cRight,Partner,Reciprocate,ISI,ITI,ran,order,onset,bpress,resp,resp_onset,highlow,rt,ISIpad,ISI_onset,ISI_offset,outcome_onset,outcome_offset,duration,ITI_onset,ITI_offset
1,1,8,2,1,0,5.000000e-01,8.075000e-01,1.0,0.0,4.020544,2.0,2,5.9727945,low,1.9522502,1.0477498,6.4931874,9.270881,9.273865,11.27606,7.2555156,11.276539,12.077589
2,2,4,8,2,0,5.000000e-01,4.037500e+00,1.0,1.0,12.199982,1.0,4,14.088463,low,1.8884813,1.1115187,14.608546,17.449484,17.451206,19.45311,7.2531285,19.453491,23.487808
3,3,4,8,1,0,2,8.075000e-01,1.0,2.0,23.490814,1.0,4,25.4052,low,1.9143844,1.0856156,25.92506,30.241642,30.24352,32.24603,8.755214,32.246414,33.04847
4,4,2,0,1,0,2,8.075000e-01,1.0,3.0,33.053,1.0,2,34.939,high,1.8859974,1.1140026,35.45843,39.803875,39.804264,41.806465,8.753463,41.806843,42.610874
5,5,0,2,2,1,5.000000e-01,8.075000e-01,1.0,4.0,42.72558,2.0,2,44.438667,high,1.713091,1.286909,44.959007,47.97598,47.97864,49.981384,7.255807,49.981773,50.784023
6,6,4,2,1,1,5.000000e-01,8.075000e-01,1.0,5.0,50.788162,2.0,2,52.771774,low,1.9836128,1.0163872,53.29115,56.0389,56.04095,58.043934,7.255775,58.04431,58.846992
7,7,4,0,2,0,2,8.075000e-01,1.0,6.0,58.959583,1.0,4,60.772106,high,1.8125252,1.1874748,61.29115,65.71093,65.71263,67.714615,8.755031,67.71499,68.51799
8,8,2,8,3,1,2,5.652500e+00,1.0,7.0,68.5399,1.0,2,70.538376,low,1.9984705,1.0015295,71.05927,75.28986,75.291756,77.2939,8.753996,77.29428,82.94293
9,9,8,2,2,0,5.000000e-01,4.037500e+00,1.0,8.0,83.05776,2.0,2,84.93865,low,1.8808873,1.1191127,85.45793,88.30856,88.31032,90.31197,7.254211,90.31236,94.345695
10,10,0,8,3,1,2,8.075000e-01,1.0,9.0,94.35399,2.0,8,96.222084,high,1.8680937,1.1319063,96.741005,101.10509,101.1072,103.10953,8.755543,103.10991,103.912
11,11,0,8,2,0,5.000000e-01,2.422500e+00,1.0,10.0,104.0216,2.0,8,105.57252,high,1.5509146,1.4490854,106.09104,109.27286,109.274605,111.2765,7.254893,111.27688,113.69587
12,12,4,0,1,1,5.000000e-01,8.075000e-01,1.0,11.0,113.701164,1.0,4,115.372314,high,1.6711487,1.3288513,115.89198,118.95139,118.95336,120.95514,7.2539773,120.95552,121.759445
13,13,4,8,1,1,5.000000e-01,8.075000e-01,1.0,12.0,121.762764,2.0,8,123.789154,high,2.0263937,0.9736064,124.30795,127.01379,127.014206,129.01651,7.2537537,129.0169,129.82176
14,14,0,8,1,1,3.500000e+00,8.075000e-01,1.0,13.0,129.82495,2.0,8,131.422,high,1.5970424,1.4029576,131.94167,138.07596,138.07635,140.0789,10.253949,140.07928,140.88261
15,15,0,2,3,1,3.500000e+00,4.037500e+00,1.0,14.0,140.88957,2.0,2,142.77193,high,1.8823627,1.1176373,143.29103,149.1405,149.14265,151.14587,10.256308,151.14627,155.17738
16,16,0,4,2,1,3.500000e+00,8.882500e+00,1.0,15.0,155.28902,2.0,4,157.2219,high,1.9328808,1.0671192,157.741,163.5393,163.54117,165.54283,10.253822,165.54321,174.42285
17,17,4,8,2,1,5.000000e-01,2.422500e+00,1.0,16.0,174.53465,2.0,8,176.20563,high,1.6709719,1.3290281,176.72469,179.78471,179.78511,181.78755,7.252905,181.78796,184.207
18,18,2,4,3,0,2,2.422500e+00,1.0,17.0,184.21516,2.0,4,186.05487,high,1.8397053,1.1602947,186.57494,190.96593,190.96765,192.96953,8.754366,192.96991,195.38832
19,19,0,4,3,1,2,8.075000e-01,1.0,18.0,195.39403,2.0,4,197.03818,high,1.6441497,1.3558503,197.5579,202.14485,202.14674,204.14946,8.755431,204.14984,204.95184
20,20,4,0,3,0,5.000000e-01,2.422500e+00,1.0,19.0,204.95874,1.0,4,206.80508,high,1.8463407,1.1536593,207.32521,210.2098,210.21169,212.21521,7.2564716,212.21559,214.63187
21,21,2,8,2,0,5.000000e-01,2.422500e+00,1.0,20.0,214.74344,1.0,2,216.52171,low,1.778282,1.221718,217.04123,219.99385,219.99564,221.99762,7.25418,221.998,224.4165
22,22,8,2,1,0,5.000000e-01,2.422500e+00,1.0,21.0,224.42195,1.0,8,226.27194,high,1.8500001,1.1499999,226.79124,229.67143,229.6735,231.67543,7.253485,231.67581,234.09485
23,23,8,2,3,0,5.000000e-01,2.422500e+00,1.0,22.0,234.10057,1.0,8,235.7551,high,1.6545326,1.3454674,236.2741,239.35083,239.35263,241.35461,7.2540517,241.355,243.77408
24,24,4,0,1,0,2,8.075000e-01,1.0,23.0,243.77933,1.0,4,245.22173,high,1.4424057,1.5575943,245.74046,250.52899,250.5309,252.53316,8.753833,252.53354,253.33661
25,25,8,0,1,0,5.000000e-01,8.075000e-01,1.0,24.0,253.34006,1.0,8,254.70482,high,1.3647667,1.6352333,255.22485,258.5908,258.5912,260.59402,7.2539744,260.59442,261.3976
26,26,2,4,2,0,5.000000e-01,8.075000e-01,1.0,25.0,261.51193,2.0,4,263.02158,high,1.509625,1.490375,263.54147,266.76288,266.7646,268.7668,7.254879,268.76724,269.56976
27,27,8,0,2,1,2,2.422500e+00,1.0,26.0,269.68845,1.0,8,271.13824,high,1.4497765,1.5502235,271.65903,276.4389,276.4409,278.4426,8.754133,278.443,280.86163
28,28,0,2,3,0,2,8.075000e-01,1.0,27.0,280.86984,2.0,2,282.63818,high,1.7683218,1.2316782,283.15717,287.6205,287.6223,289.62485,8.754994,289.62524,290.4277
29,29,8,2,2,1,5.000000e-01,2.422500e+00,1.0,28.0,290.5373,2.0,2,292.15494,low,1.6176453,1.3823547,292.67413,295.78674,295.78882,297.7908,7.2535305,297.7912,300.2107
30,30,8,4,3,0,5.000000e-01,2.422500e+00,1.0,29.0,300.21912,1.0,8,301.68826,high,1.4691437,1.5308563,302.2077,305.47012,305.47192,307.474,7.254874,307.47437,309.8918
31,31,4,2,1,0,2,8.075000e-01,1.0,30.0,309.89713,2.0,2,311.97177,low,2.0746403,0.9253598,312.49094,316.64777,316.64984,318.65137,8.754259,318.65176,319.4549
32,32,0,2,1,1,5.000000e-01,5.652500e+00,1.0,31.0,319.45804,1.0,0,321.25485,low,1.7968079,1.2031921,321.7748,324.70917,324.7093,326.71075,7.252729,326.71115,332.36185
33,33,2,8,1,1,5.000000e-01,7.267500e+00,1.0,32.0,332.3663,1.0,2,334.18817,low,1.8218856,1.1781144,334.70773,337.6165,337.61847,339.62024,7.2539425,339.62064,346.88385
34,34,4,2,3,1,5.000000e-01,8.075000e-01,1.0,33.0,346.8917,1.0,4,348.70468,high,1.8130035,1.1869965,349.22427,352.1427,352.1446,354.14612,7.2544413,354.14655,354.94992
35,35,4,2,2,1,2,7.267500e+00,1.0,34.0,355.05826,2.0,2,356.9882,low,1.9299423,1.0700577,357.50696,361.80872,361.81058,363.81226,8.754018,363.81265,371.07587
36,36,0,8,3,0,3.500000e+00,8.075000e-01,1.0,35.0,371.08426,2.0,8,372.8548,high,1.7705353,1.2294647,373.37378,379.33447,379.33627,381.3387,10.254441,381.3391,382.1424
37,37,4,8,3,1,2,4.037500e+00,1.0,36.0,382.14825,1.0,4,383.9876,low,1.839369,1.160631,384.50708,388.8985,388.90036,390.9022,8.753939,390.90256,394.93588
38,38,8,2,2,1,2,8.075000e-01,1.0,37.0,395.04663,2.0,2,396.75473,low,1.708087,1.291913,397.2748,401.7968,401.79868,403.8009,8.754279,403.80127,404.6049
39,39,2,8,3,1,5.000000e-01,8.075000e-01,1.0,38.0,404.61313,1.0,2,406.63803,low,2.024882,0.9751179,407.15698,409.86386,409.86572,411.8679,7.254733,411.86826,412.67142
40,40,2,0,2,0,5.000000e-01,2.422500e+00,1.0,39.0,412.7809,1.0,2,414.4878,high,1.7068856,1.2931144,415.00687,418.03082,418.0326,420.03482,7.253912,420.03522,422.45377
41,41,8,2,3,0,2,4.037500e+00,1.0,40.0,422.46185,2.0,2,424.188,low,1.7261156,1.2738844,424.70688,429.2117,429.2134,431.21628,8.754414,431.21667,435.24988
42,42,2,8,1,1,5.000000e-01,8.075000e-01,1.0,41.0,435.25522,1.0,2,436.80484,low,1.5496069,1.4503931,437.32416,440.50543,440.50748,442.50885,7.253604,442.50922,443.31308
