onset	duration	trial_type	response_time	Endowment	Endowment_pmod	Decision	Decision_pmod	Offer_pmod
4.609673	2	cue_social	n/a	32	7	n/a	n/a	n/a
4.609673	2	cue_social_high	n/a	32	9	n/a	n/a	n/a
11.353493	2	cue_nonsocial	n/a	32	9	n/a	n/a	n/a
11.353493	2	cue_nonsocial_high	n/a	32	7	n/a	n/a	n/a
18.185100	2	cue_social	n/a	16	-9	n/a	n/a	n/a
18.185100	2	cue_social_low	n/a	16	-7	n/a	n/a	n/a
25.932478	2	cue_social	n/a	32	7	n/a	n/a	n/a
25.932478	2	cue_social_high	n/a	32	9	n/a	n/a	n/a
33.487010	2	cue_nonsocial	n/a	16	-7	n/a	n/a	n/a
33.487010	2	cue_nonsocial_low	n/a	16	-9	n/a	n/a	n/a
41.137330	2	cue_nonsocial	n/a	32	9	n/a	n/a	n/a
41.137330	2	cue_nonsocial_high	n/a	32	7	n/a	n/a	n/a
48.063488	2	cue_social	n/a	16	-9	n/a	n/a	n/a
48.063488	2	cue_social_low	n/a	16	-7	n/a	n/a	n/a
55.619205	2	cue_nonsocial	n/a	32	9	n/a	n/a	n/a
55.619205	2	cue_nonsocial_high	n/a	32	7	n/a	n/a	n/a
62.464893	2	cue_nonsocial	n/a	16	-7	n/a	n/a	n/a
62.464893	2	cue_nonsocial_low	n/a	16	-9	n/a	n/a	n/a
70.201355	2	cue_social	n/a	16	-9	n/a	n/a	n/a
70.201355	2	cue_social_low	n/a	16	-7	n/a	n/a	n/a
77.030900	2	cue_social	n/a	32	7	n/a	n/a	n/a
77.030900	2	cue_social_high	n/a	32	9	n/a	n/a	n/a
86.186110	2	cue_nonsocial	n/a	32	9	n/a	n/a	n/a
86.186110	2	cue_nonsocial_high	n/a	32	7	n/a	n/a	n/a
93.104830	2	cue_social	n/a	32	7	n/a	n/a	n/a
93.104830	2	cue_social_high	n/a	32	9	n/a	n/a	n/a
102.269240	2	cue_nonsocial	n/a	16	-7	n/a	n/a	n/a
102.269240	2	cue_nonsocial_low	n/a	16	-9	n/a	n/a	n/a
110.007030	2	cue_social	n/a	32	7	n/a	n/a	n/a
110.007030	2	cue_social_high	n/a	32	9	n/a	n/a	n/a
122.403960	2	cue_nonsocial	n/a	32	9	n/a	n/a	n/a
122.403960	2	cue_nonsocial_high	n/a	32	7	n/a	n/a	n/a
129.347530	2	cue_social	n/a	32	7	n/a	n/a	n/a
129.347530	2	cue_social_high	n/a	32	9	n/a	n/a	n/a
138.603800	2	cue_social	n/a	16	-9	n/a	n/a	n/a
138.603800	2	cue_social_low	n/a	16	-7	n/a	n/a	n/a
145.336380	2	cue_nonsocial	n/a	16	-7	n/a	n/a	n/a
145.336380	2	cue_nonsocial_low	n/a	16	-9	n/a	n/a	n/a
153.001530	2	cue_social	n/a	32	7	n/a	n/a	n/a
153.001530	2	cue_social_high	n/a	32	9	n/a	n/a	n/a
160.696330	2	cue_social	n/a	32	7	n/a	n/a	n/a
160.696330	2	cue_social_high	n/a	32	9	n/a	n/a	n/a
167.469330	2	cue_nonsocial	n/a	16	-7	n/a	n/a	n/a
167.469330	2	cue_nonsocial_low	n/a	16	-9	n/a	n/a	n/a
175.118960	2	cue_nonsocial	n/a	16	-7	n/a	n/a	n/a
175.118960	2	cue_nonsocial_low	n/a	16	-9	n/a	n/a	n/a
185.991520	2	cue_nonsocial	n/a	32	9	n/a	n/a	n/a
185.991520	2	cue_nonsocial_high	n/a	32	7	n/a	n/a	n/a
192.878020	2	cue_social	n/a	16	-9	n/a	n/a	n/a
192.878020	2	cue_social_low	n/a	16	-7	n/a	n/a	n/a
202.138140	2	cue_social	n/a	16	-9	n/a	n/a	n/a
202.138140	2	cue_social_low	n/a	16	-7	n/a	n/a	n/a
211.335620	2	cue_nonsocial	n/a	16	-7	n/a	n/a	n/a
211.335620	2	cue_nonsocial_low	n/a	16	-9	n/a	n/a	n/a
218.985570	2	cue_nonsocial	n/a	16	-7	n/a	n/a	n/a
218.985570	2	cue_nonsocial_low	n/a	16	-9	n/a	n/a	n/a
225.914280	2	cue_social	n/a	32	7	n/a	n/a	n/a
225.914280	2	cue_social_high	n/a	32	9	n/a	n/a	n/a
232.766430	2	cue_social	n/a	16	-9	n/a	n/a	n/a
232.766430	2	cue_social_low	n/a	16	-7	n/a	n/a	n/a
243.577270	2	cue_social	n/a	32	7	n/a	n/a	n/a
243.577270	2	cue_social_high	n/a	32	9	n/a	n/a	n/a
250.352200	2	cue_nonsocial	n/a	32	9	n/a	n/a	n/a
250.352200	2	cue_nonsocial_high	n/a	32	7	n/a	n/a	n/a
257.185360	2	cue_nonsocial	n/a	16	-7	n/a	n/a	n/a
257.185360	2	cue_nonsocial_low	n/a	16	-9	n/a	n/a	n/a
266.452150	2	cue_nonsocial	n/a	32	9	n/a	n/a	n/a
266.452150	2	cue_nonsocial_high	n/a	32	7	n/a	n/a	n/a
273.285370	2	cue_nonsocial	n/a	16	-7	n/a	n/a	n/a
273.285370	2	cue_nonsocial_low	n/a	16	-9	n/a	n/a	n/a
280.194980	2	cue_social	n/a	32	7	n/a	n/a	n/a
280.194980	2	cue_social_high	n/a	32	9	n/a	n/a	n/a
286.952180	2	cue_nonsocial	n/a	16	-7	n/a	n/a	n/a
286.952180	2	cue_nonsocial_low	n/a	16	-9	n/a	n/a	n/a
296.218400	2	cue_nonsocial	n/a	32	9	n/a	n/a	n/a
296.218400	2	cue_nonsocial_high	n/a	32	7	n/a	n/a	n/a
307.151800	2	cue_social	n/a	16	-9	n/a	n/a	n/a
307.151800	2	cue_social_low	n/a	16	-7	n/a	n/a	n/a
313.918600	2	cue_nonsocial	n/a	16	-7	n/a	n/a	n/a
313.918600	2	cue_nonsocial_low	n/a	16	-9	n/a	n/a	n/a
320.751860	2	cue_nonsocial	n/a	16	-7	n/a	n/a	n/a
320.751860	2	cue_nonsocial_low	n/a	16	-9	n/a	n/a	n/a
327.681730	2	cue_social	n/a	16	-9	n/a	n/a	n/a
327.681730	2	cue_social_low	n/a	16	-7	n/a	n/a	n/a
335.235470	2	cue_nonsocial	n/a	32	9	n/a	n/a	n/a
335.235470	2	cue_nonsocial_high	n/a	32	7	n/a	n/a	n/a
342.068600	2	cue_nonsocial	n/a	16	-7	n/a	n/a	n/a
342.068600	2	cue_nonsocial_low	n/a	16	-9	n/a	n/a	n/a
349.744720	2	cue_social	n/a	32	7	n/a	n/a	n/a
349.744720	2	cue_social_high	n/a	32	9	n/a	n/a	n/a
356.606500	2	cue_social	n/a	16	-9	n/a	n/a	n/a
356.606500	2	cue_social_low	n/a	16	-7	n/a	n/a	n/a
363.453500	2	cue_social	n/a	32	7	n/a	n/a	n/a
363.453500	2	cue_social_high	n/a	32	9	n/a	n/a	n/a
370.265320	2	cue_social	n/a	32	7	n/a	n/a	n/a
370.265320	2	cue_social_high	n/a	32	9	n/a	n/a	n/a
6.524708	2.717115	dec_social_choice	2.717115	32.000000	n/a	0	0	-2.298177e-01
6.524708	2.717115	dec_choice	2.717115	32.000000	n/a	0	0	-2.291667e-01
6.524708	2.717115	dec_social_reject	2.717115	32.000000	n/a	0	0	-3.750000e-02
6.524708	2.717115	dec_reject	2.717115	32.000000	n/a	0	0	-2.556818e-02
6.524708	2.717115	dec_social_low	2.717115	32.000000	n/a	0	-2.291667e-01	-2.291667e-01
6.524708	2.717115	dec_social_reject_low	2.717115	32.000000	n/a	3	-1.354167e-01	-2.291667e-01
13.359229	1.299373	dec_nonsocial_choice	1.299373	32.000000	n/a	8	2.018229e-02	2.018229e-02
13.359229	1.299373	dec_choice	1.299373	32.000000	n/a	8	1.953125e-02	1.953125e-02
13.359229	1.299373	dec_nonsocial_accept	1.299373	32.000000	n/a	8	-2.462121e-02	-2.462121e-02
13.359229	1.299373	dec_accept	1.299373	32.000000	n/a	8	6.250000e-03	6.250000e-03
13.359229	1.299373	dec_nonsocial_high	1.299373	32.000000	n/a	8	1.953125e-02	1.953125e-02
13.359229	1.299373	dec_nonsocial_accept_high	1.299373	32.000000	n/a	8	6.250000e-03	6.250000e-03
20.192110	2.116155	dec_social_choice	2.116155	16.000000	n/a	0	0	-2.298177e-01
20.192110	2.116155	dec_choice	2.116155	16.000000	n/a	0	0	-2.291667e-01
20.192110	2.116155	dec_social_reject	2.116155	16.000000	n/a	0	0	-6.875000e-02
20.192110	2.116155	dec_reject	2.116155	16.000000	n/a	0	0	-5.681818e-02
20.192110	2.116155	dec_social_low	2.116155	16.000000	n/a	0	-2.291667e-01	-2.291667e-01
20.192110	2.116155	dec_social_reject_low	2.116155	16.000000	n/a	1	-1.666667e-01	-2.291667e-01
27.841766	1.233258	dec_social_choice	1.233258	32.000000	n/a	8	2.018229e-02	2.018229e-02
27.841766	1.233258	dec_choice	1.233258	32.000000	n/a	8	2.083333e-02	2.083333e-02
27.841766	1.233258	dec_social_accept	1.233258	32.000000	n/a	8	-2.462121e-02	-2.462121e-02
27.841766	1.233258	dec_accept	1.233258	32.000000	n/a	8	-7.211538e-02	-7.211538e-02
27.841766	1.233258	dec_social_high	1.233258	32.000000	n/a	8	2.083333e-02	2.083333e-02
27.841766	1.233258	dec_social_accept_high	1.233258	32.000000	n/a	8	2.083333e-02	2.083333e-02
35.492435	1.332912	dec_nonsocial_choice	1.332912	16.000000	n/a	4	2.018229e-02	2.018229e-02
35.492435	1.332912	dec_choice	1.332912	16.000000	n/a	4	1.953125e-02	1.953125e-02
35.492435	1.332912	dec_nonsocial_accept	1.332912	16.000000	n/a	4	-2.462121e-02	-2.462121e-02
35.492435	1.332912	dec_accept	1.332912	16.000000	n/a	4	6.250000e-03	6.250000e-03
35.492435	1.332912	dec_nonsocial_accept_high	1.332912	16.000000	n/a	4	-7.211538e-02	-7.211538e-02
43.142117	1.083103	dec_nonsocial_choice	1.083103	32.000000	n/a	16	2.701823e-01	2.701823e-01
43.142117	1.083103	dec_choice	1.083103	32.000000	n/a	16	2.695312e-01	2.695312e-01
43.142117	1.083103	dec_nonsocial_accept	1.083103	32.000000	n/a	16	2.253788e-01	2.253788e-01
43.142117	1.083103	dec_accept	1.083103	32.000000	n/a	16	2.562500e-01	2.562500e-01
43.142117	1.083103	dec_nonsocial_high	1.083103	32.000000	n/a	16	2.695312e-01	2.695312e-01
43.142117	1.083103	dec_nonsocial_accept_high	1.083103	32.000000	n/a	16	2.562500e-01	2.562500e-01
49.976100	1.649279	dec_social_choice	1.649279	16.000000	n/a	8	2.701823e-01	2.701823e-01
49.976100	1.649279	dec_choice	1.649279	16.000000	n/a	8	2.708333e-01	2.708333e-01
49.976100	1.649279	dec_social_accept	1.649279	16.000000	n/a	8	2.253788e-01	2.253788e-01
49.976100	1.649279	dec_accept	1.649279	16.000000	n/a	8	1.778846e-01	1.778846e-01
49.976100	1.649279	dec_social_accept_high	1.649279	16.000000	n/a	8	2.708333e-01	2.708333e-01
57.625510	0.915845	dec_nonsocial_choice	0.915845	32.000000	n/a	16	2.701823e-01	2.701823e-01
57.625510	0.915845	dec_choice	0.915845	32.000000	n/a	16	2.695312e-01	2.695312e-01
57.625510	0.915845	dec_nonsocial_accept	0.915845	32.000000	n/a	16	2.253788e-01	2.253788e-01
57.625510	0.915845	dec_accept	0.915845	32.000000	n/a	16	2.562500e-01	2.562500e-01
57.625510	0.915845	dec_nonsocial_high	0.915845	32.000000	n/a	16	2.695312e-01	2.695312e-01
57.625510	0.915845	dec_nonsocial_accept_high	0.915845	32.000000	n/a	16	2.562500e-01	2.562500e-01
64.458206	1.584007	dec_nonsocial_choice	1.584007	16.000000	n/a	8	2.701823e-01	2.701823e-01
64.458206	1.584007	dec_choice	1.584007	16.000000	n/a	8	2.695312e-01	2.695312e-01
64.458206	1.584007	dec_nonsocial_accept	1.584007	16.000000	n/a	8	2.253788e-01	2.253788e-01
64.458206	1.584007	dec_accept	1.584007	16.000000	n/a	8	2.562500e-01	2.562500e-01
64.458206	1.584007	dec_nonsocial_accept_high	1.584007	16.000000	n/a	8	1.778846e-01	1.778846e-01
72.091350	1.283791	dec_social_choice	1.283791	16.000000	n/a	4	2.018229e-02	2.018229e-02
72.091350	1.283791	dec_choice	1.283791	16.000000	n/a	4	2.083333e-02	2.083333e-02
72.091350	1.283791	dec_social_accept	1.283791	16.000000	n/a	4	-2.462121e-02	-2.462121e-02
72.091350	1.283791	dec_accept	1.283791	16.000000	n/a	4	-7.211538e-02	-7.211538e-02
72.091350	1.283791	dec_social_high	1.283791	16.000000	n/a	4	2.083333e-02	2.083333e-02
72.091350	1.283791	dec_social_accept_high	1.283791	16.000000	n/a	4	2.083333e-02	2.083333e-02
78.925140	1.883479	dec_social_choice	1.883479	32.000000	n/a	3	-1.360677e-01	-1.360677e-01
78.925140	1.883479	dec_choice	1.883479	32.000000	n/a	3	-1.354167e-01	-1.354167e-01
78.925140	1.883479	dec_social_accept	1.883479	32.000000	n/a	3	-1.808712e-01	-1.808712e-01
78.925140	1.883479	dec_accept	1.883479	32.000000	n/a	3	-2.283654e-01	-2.283654e-01
78.925140	1.883479	dec_social_low	1.883479	32.000000	n/a	3	-1.354167e-01	-1.354167e-01
78.925140	1.883479	dec_social_accept_low	1.883479	32.000000	n/a	3	-1.354167e-01	-1.354167e-01
88.192110	1.783481	dec_nonsocial_choice	1.783481	32.000000	n/a	2	-1.673177e-01	-1.673177e-01
88.192110	1.783481	dec_choice	1.783481	32.000000	n/a	2	-1.679688e-01	-1.679688e-01
88.192110	1.783481	dec_nonsocial_accept	1.783481	32.000000	n/a	2	-2.121212e-01	-2.121212e-01
88.192110	1.783481	dec_accept	1.783481	32.000000	n/a	2	-1.812500e-01	-1.812500e-01
88.192110	1.783481	dec_nonsocial_low	1.783481	32.000000	n/a	2	-1.679688e-01	-1.679688e-01
88.192110	1.783481	dec_nonsocial_accept_low	1.783481	32.000000	n/a	2	-1.812500e-01	-1.812500e-01
95.024190	1.701165	dec_social_choice	1.701165	32.000000	n/a	8	2.018229e-02	2.018229e-02
95.024190	1.701165	dec_choice	1.701165	32.000000	n/a	8	2.083333e-02	2.083333e-02
95.024190	1.701165	dec_social_accept	1.701165	32.000000	n/a	8	-2.462121e-02	-2.462121e-02
95.024190	1.701165	dec_accept	1.701165	32.000000	n/a	8	-7.211538e-02	-7.211538e-02
95.024190	1.701165	dec_social_high	1.701165	32.000000	n/a	8	2.083333e-02	2.083333e-02
95.024190	1.701165	dec_social_accept_high	1.701165	32.000000	n/a	8	2.083333e-02	2.083333e-02
104.275140	1.883717	dec_nonsocial_choice	1.883717	16.000000	n/a	1	-1.673177e-01	-1.673177e-01
104.275140	1.883717	dec_choice	1.883717	16.000000	n/a	1	-1.679688e-01	-1.679688e-01
104.275140	1.883717	dec_nonsocial_accept	1.883717	16.000000	n/a	1	-2.121212e-01	-2.121212e-01
104.275140	1.883717	dec_accept	1.883717	16.000000	n/a	1	-1.812500e-01	-1.812500e-01
104.275140	1.883717	dec_nonsocial_low	1.883717	16.000000	n/a	1	-1.679688e-01	-1.679688e-01
104.275140	1.883717	dec_nonsocial_accept_low	1.883717	16.000000	n/a	1	-1.812500e-01	-1.812500e-01
111.925064	1.783488	dec_social_choice	1.783488	32.000000	n/a	0	0	-2.298177e-01
111.925064	1.783488	dec_choice	1.783488	32.000000	n/a	0	0	-2.291667e-01
111.925064	1.783488	dec_social_reject	1.783488	32.000000	n/a	0	0	-6.875000e-02
111.925064	1.783488	dec_reject	1.783488	32.000000	n/a	0	0	-5.681818e-02
111.925064	1.783488	dec_social_low	1.783488	32.000000	n/a	0	-2.291667e-01	-2.291667e-01
111.925064	1.783488	dec_social_reject_low	1.783488	32.000000	n/a	2	-1.666667e-01	-2.291667e-01
124.409140	1.766329	dec_nonsocial_choice	1.766329	32.000000	n/a	2	-1.673177e-01	-1.673177e-01
124.409140	1.766329	dec_choice	1.766329	32.000000	n/a	2	-1.679688e-01	-1.679688e-01
124.409140	1.766329	dec_nonsocial_accept	1.766329	32.000000	n/a	2	-2.121212e-01	-2.121212e-01
124.409140	1.766329	dec_accept	1.766329	32.000000	n/a	2	-1.812500e-01	-1.812500e-01
124.409140	1.766329	dec_nonsocial_low	1.766329	32.000000	n/a	2	-1.679688e-01	-1.679688e-01
124.409140	1.766329	dec_nonsocial_accept_low	1.766329	32.000000	n/a	2	-1.812500e-01	-1.812500e-01
131.242950	1.015257	dec_social_choice	1.015257	32.000000	n/a	0	0	-2.298177e-01
131.242950	1.015257	dec_choice	1.015257	32.000000	n/a	0	0	-2.291667e-01
131.242950	1.015257	dec_social_reject	1.015257	32.000000	n/a	0	0	-3.750000e-02
131.242950	1.015257	dec_reject	1.015257	32.000000	n/a	0	0	-2.556818e-02
131.242950	1.015257	dec_social_reject_low	1.015257	32.000000	n/a	3	-1.354167e-01	-2.291667e-01
140.508960	1.749769	dec_social_choice	1.749769	16.000000	n/a	0	0	-2.298177e-01
140.508960	1.749769	dec_choice	1.749769	16.000000	n/a	0	0	-2.291667e-01
140.508960	1.749769	dec_social_reject	1.749769	16.000000	n/a	0	0	-6.250000e-03
140.508960	1.749769	dec_reject	1.749769	16.000000	n/a	0	0	5.681818e-03
140.508960	1.749769	dec_social_reject_low	1.749769	16.000000	n/a	2	-1.041667e-01	-2.291667e-01
147.342030	1.382855	dec_nonsocial_choice	1.382855	16.000000	n/a	1	-1.673177e-01	-1.673177e-01
147.342030	1.382855	dec_choice	1.382855	16.000000	n/a	1	-1.679688e-01	-1.679688e-01
147.342030	1.382855	dec_nonsocial_accept	1.382855	16.000000	n/a	1	-2.121212e-01	-2.121212e-01
147.342030	1.382855	dec_accept	1.382855	16.000000	n/a	1	-1.812500e-01	-1.812500e-01
147.342030	1.382855	dec_nonsocial_low	1.382855	16.000000	n/a	1	-1.679688e-01	-1.679688e-01
147.342030	1.382855	dec_nonsocial_accept_low	1.382855	16.000000	n/a	1	-1.812500e-01	-1.812500e-01
154.992070	2.165879	dec_social_choice	2.165879	32.000000	n/a	0	0	-2.298177e-01
154.992070	2.165879	dec_choice	2.165879	32.000000	n/a	0	0	-2.291667e-01
154.992070	2.165879	dec_social_reject	2.165879	32.000000	n/a	0	0	3.687500e-01
154.992070	2.165879	dec_reject	2.165879	32.000000	n/a	0	0	3.806818e-01
154.992070	2.165879	dec_social_low	2.165879	32.000000	n/a	0	-2.291667e-01	-2.291667e-01
154.992070	2.165879	dec_social_reject_low	2.165879	32.000000	n/a	16	2.708333e-01	-2.291667e-01
162.641420	1.150380	dec_social_choice	1.150380	32.000000	n/a	16	2.701823e-01	2.701823e-01
162.641420	1.150380	dec_choice	1.150380	32.000000	n/a	16	2.708333e-01	2.708333e-01
162.641420	1.150380	dec_social_accept	1.150380	32.000000	n/a	16	2.253788e-01	2.253788e-01
162.641420	1.150380	dec_accept	1.150380	32.000000	n/a	16	1.778846e-01	1.778846e-01
162.641420	1.150380	dec_social_high	1.150380	32.000000	n/a	16	2.708333e-01	2.708333e-01
162.641420	1.150380	dec_social_accept_high	1.150380	32.000000	n/a	16	2.708333e-01	2.708333e-01
169.474960	1.649878	dec_nonsocial_choice	1.649878	16.000000	n/a	0	0	-2.298177e-01
169.474960	1.649878	dec_choice	1.649878	16.000000	n/a	0	0	-2.304688e-01
169.474960	1.649878	dec_nonsocial_reject	1.649878	16.000000	n/a	0	0	-6.875000e-02
169.474960	1.649878	dec_reject	1.649878	16.000000	n/a	0	0	-1.015625e-01
169.474960	1.649878	dec_nonsocial_low	1.649878	16.000000	n/a	0	-2.304688e-01	-2.304688e-01
169.474960	1.649878	dec_nonsocial_reject_low	1.649878	16.000000	n/a	1	-1.015625e-01	-1.640625e-01
177.125100	1.516361	dec_nonsocial_choice	1.516361	16.000000	n/a	2	-1.048177e-01	-1.048177e-01
177.125100	1.516361	dec_choice	1.516361	16.000000	n/a	2	-1.054688e-01	-1.054688e-01
177.125100	1.516361	dec_nonsocial_accept	1.516361	16.000000	n/a	2	-1.496212e-01	-1.496212e-01
177.125100	1.516361	dec_accept	1.516361	16.000000	n/a	2	-1.187500e-01	-1.187500e-01
177.125100	1.516361	dec_nonsocial_accept_low	1.516361	16.000000	n/a	2	-1.971154e-01	-1.971154e-01
187.991870	1.200070	dec_nonsocial_choice	1.200070	32.000000	n/a	0	0	-2.298177e-01
187.991870	1.200070	dec_choice	1.200070	32.000000	n/a	0	0	-2.304688e-01
187.991870	1.200070	dec_nonsocial_reject	1.200070	32.000000	n/a	0	0	1.187500e-01
187.991870	1.200070	dec_reject	1.200070	32.000000	n/a	0	0	8.593750e-02
187.991870	1.200070	dec_nonsocial_low	1.200070	32.000000	n/a	0	-2.304688e-01	-2.304688e-01
187.991870	1.200070	dec_nonsocial_reject_low	1.200070	32.000000	n/a	8	8.593750e-02	-1.640625e-01
194.825070	1.200166	dec_social_choice	1.200166	16.000000	n/a	4	2.018229e-02	2.018229e-02
194.825070	1.200166	dec_choice	1.200166	16.000000	n/a	4	2.083333e-02	2.083333e-02
194.825070	1.200166	dec_social_accept	1.200166	16.000000	n/a	4	-2.462121e-02	-2.462121e-02
194.825070	1.200166	dec_accept	1.200166	16.000000	n/a	4	-7.211538e-02	-7.211538e-02
194.825070	1.200166	dec_social_accept_high	1.200166	16.000000	n/a	4	2.083333e-02	2.083333e-02
204.076140	0.865106	dec_social_choice	0.865106	16.000000	n/a	8	2.701823e-01	2.701823e-01
204.076140	0.865106	dec_choice	0.865106	16.000000	n/a	8	2.708333e-01	2.708333e-01
204.076140	0.865106	dec_social_accept	0.865106	16.000000	n/a	8	2.253788e-01	2.253788e-01
204.076140	0.865106	dec_accept	0.865106	16.000000	n/a	8	1.778846e-01	1.778846e-01
204.076140	0.865106	dec_social_accept_high	0.865106	16.000000	n/a	8	2.708333e-01	2.708333e-01
213.341690	1.216269	dec_nonsocial_choice	1.216269	16.000000	n/a	8	2.701823e-01	2.701823e-01
213.341690	1.216269	dec_choice	1.216269	16.000000	n/a	8	2.695312e-01	2.695312e-01
213.341690	1.216269	dec_nonsocial_accept	1.216269	16.000000	n/a	8	2.253788e-01	2.253788e-01
213.341690	1.216269	dec_accept	1.216269	16.000000	n/a	8	2.562500e-01	2.562500e-01
213.341690	1.216269	dec_nonsocial_high	1.216269	16.000000	n/a	8	2.695312e-01	2.695312e-01
213.341690	1.216269	dec_nonsocial_accept_high	1.216269	16.000000	n/a	8	2.562500e-01	2.562500e-01
220.991740	1.549646	dec_nonsocial_choice	1.549646	16.000000	n/a	0	0	-2.298177e-01
220.991740	1.549646	dec_choice	1.549646	16.000000	n/a	0	0	-2.304688e-01
220.991740	1.549646	dec_nonsocial_reject	1.549646	16.000000	n/a	0	0	1.187500e-01
220.991740	1.549646	dec_reject	1.549646	16.000000	n/a	0	0	8.593750e-02
220.991740	1.549646	dec_nonsocial_reject_low	1.549646	16.000000	n/a	4	1.306818e-01	-1.193182e-01
227.825040	0.800153	dec_social_choice	0.800153	32.000000	n/a	8	2.018229e-02	2.018229e-02
227.825040	0.800153	dec_choice	0.800153	32.000000	n/a	8	2.083333e-02	2.083333e-02
227.825040	0.800153	dec_social_accept	0.800153	32.000000	n/a	8	-2.462121e-02	-2.462121e-02
227.825040	0.800153	dec_accept	0.800153	32.000000	n/a	8	-7.211538e-02	-7.211538e-02
227.825040	0.800153	dec_social_high	0.800153	32.000000	n/a	8	2.083333e-02	2.083333e-02
227.825040	0.800153	dec_social_accept_high	0.800153	32.000000	n/a	8	2.083333e-02	2.083333e-02
234.657120	1.251086	dec_social_choice	1.251086	16.000000	n/a	0	0	-2.298177e-01
234.657120	1.251086	dec_choice	1.251086	16.000000	n/a	0	0	-2.291667e-01
234.657120	1.251086	dec_social_reject	1.251086	16.000000	n/a	0	0	-6.250000e-03
234.657120	1.251086	dec_reject	1.251086	16.000000	n/a	0	0	5.681818e-03
234.657120	1.251086	dec_social_reject_low	1.251086	16.000000	n/a	2	-1.041667e-01	-2.291667e-01
245.525010	1.015821	dec_social_choice	1.015821	32.000000	n/a	16	2.701823e-01	2.701823e-01
245.525010	1.015821	dec_choice	1.015821	32.000000	n/a	16	2.708333e-01	2.708333e-01
245.525010	1.015821	dec_social_accept	1.015821	32.000000	n/a	16	2.253788e-01	2.253788e-01
245.525010	1.015821	dec_accept	1.015821	32.000000	n/a	16	1.778846e-01	1.778846e-01
245.525010	1.015821	dec_social_high	1.015821	32.000000	n/a	16	2.708333e-01	2.708333e-01
245.525010	1.015821	dec_social_accept_high	1.015821	32.000000	n/a	16	2.708333e-01	2.708333e-01
252.358050	2.000236	dec_nonsocial_choice	2.000236	32.000000	n/a	0	0	-2.298177e-01
252.358050	2.000236	dec_choice	2.000236	32.000000	n/a	0	0	-2.304688e-01
252.358050	2.000236	dec_nonsocial_reject	2.000236	32.000000	n/a	0	0	-3.750000e-02
252.358050	2.000236	dec_reject	2.000236	32.000000	n/a	0	0	-7.031250e-02
252.358050	2.000236	dec_nonsocial_reject_low	2.000236	32.000000	n/a	3	-2.556818e-02	-1.193182e-01
259.192020	1.183071	dec_nonsocial_choice	1.183071	16.000000	n/a	4	2.018229e-02	2.018229e-02
259.192020	1.183071	dec_choice	1.183071	16.000000	n/a	4	1.953125e-02	1.953125e-02
259.192020	1.183071	dec_nonsocial_accept	1.183071	16.000000	n/a	4	-2.462121e-02	-2.462121e-02
259.192020	1.183071	dec_accept	1.183071	16.000000	n/a	4	6.250000e-03	6.250000e-03
259.192020	1.183071	dec_nonsocial_accept_high	1.183071	16.000000	n/a	4	-7.211538e-02	-7.211538e-02
268.458560	1.149736	dec_nonsocial_choice	1.149736	32.000000	n/a	3	-1.360677e-01	-1.360677e-01
268.458560	1.149736	dec_choice	1.149736	32.000000	n/a	3	-1.367188e-01	-1.367188e-01
268.458560	1.149736	dec_nonsocial_accept	1.149736	32.000000	n/a	3	-1.808712e-01	-1.808712e-01
268.458560	1.149736	dec_accept	1.149736	32.000000	n/a	3	-1.500000e-01	-1.500000e-01
268.458560	1.149736	dec_nonsocial_low	1.149736	32.000000	n/a	3	-1.367188e-01	-1.367188e-01
268.458560	1.149736	dec_nonsocial_accept_low	1.149736	32.000000	n/a	3	-1.500000e-01	-1.500000e-01
275.292140	1.749197	dec_nonsocial_choice	1.749197	16.000000	n/a	4	2.018229e-02	2.018229e-02
275.292140	1.749197	dec_choice	1.749197	16.000000	n/a	4	1.953125e-02	1.953125e-02
275.292140	1.749197	dec_nonsocial_accept	1.749197	16.000000	n/a	4	-2.462121e-02	-2.462121e-02
275.292140	1.749197	dec_accept	1.749197	16.000000	n/a	4	6.250000e-03	6.250000e-03
275.292140	1.749197	dec_nonsocial_high	1.749197	16.000000	n/a	4	1.953125e-02	1.953125e-02
275.292140	1.749197	dec_nonsocial_accept_high	1.749197	16.000000	n/a	4	6.250000e-03	6.250000e-03
282.125030	0.932818	dec_social_choice	0.932818	32.000000	n/a	16	2.701823e-01	2.701823e-01
282.125030	0.932818	dec_choice	0.932818	32.000000	n/a	16	2.708333e-01	2.708333e-01
282.125030	0.932818	dec_social_accept	0.932818	32.000000	n/a	16	2.253788e-01	2.253788e-01
282.125030	0.932818	dec_accept	0.932818	32.000000	n/a	16	1.778846e-01	1.778846e-01
282.125030	0.932818	dec_social_accept_high	0.932818	32.000000	n/a	16	2.708333e-01	2.708333e-01
288.959050	1.065600	dec_nonsocial_choice	1.065600	16.000000	n/a	2	-1.048177e-01	-1.048177e-01
288.959050	1.065600	dec_choice	1.065600	16.000000	n/a	2	-1.054688e-01	-1.054688e-01
288.959050	1.065600	dec_nonsocial_accept	1.065600	16.000000	n/a	2	-1.496212e-01	-1.496212e-01
288.959050	1.065600	dec_accept	1.065600	16.000000	n/a	2	-1.187500e-01	-1.187500e-01
288.959050	1.065600	dec_nonsocial_low	1.065600	16.000000	n/a	2	-1.054688e-01	-1.054688e-01
288.959050	1.065600	dec_nonsocial_accept_low	1.065600	16.000000	n/a	2	-1.187500e-01	-1.187500e-01
298.225460	1.599238	dec_nonsocial_choice	1.599238	32.000000	n/a	2	-1.673177e-01	-1.673177e-01
298.225460	1.599238	dec_choice	1.599238	32.000000	n/a	2	-1.679688e-01	-1.679688e-01
298.225460	1.599238	dec_nonsocial_accept	1.599238	32.000000	n/a	2	-2.121212e-01	-2.121212e-01
298.225460	1.599238	dec_accept	1.599238	32.000000	n/a	2	-1.812500e-01	-1.812500e-01
298.225460	1.599238	dec_nonsocial_low	1.599238	32.000000	n/a	2	-1.679688e-01	-1.679688e-01
298.225460	1.599238	dec_nonsocial_accept_low	1.599238	32.000000	n/a	2	-1.812500e-01	-1.812500e-01
309.091060	1.916664	dec_social_choice	1.916664	16.000000	n/a	0	0	-2.298177e-01
309.091060	1.916664	dec_choice	1.916664	16.000000	n/a	0	0	-2.291667e-01
309.091060	1.916664	dec_social_reject	1.916664	16.000000	n/a	0	0	-6.875000e-02
309.091060	1.916664	dec_reject	1.916664	16.000000	n/a	0	0	-5.681818e-02
309.091060	1.916664	dec_social_low	1.916664	16.000000	n/a	0	-2.291667e-01	-2.291667e-01
309.091060	1.916664	dec_social_reject_low	1.916664	16.000000	n/a	1	-1.666667e-01	-2.291667e-01
315.925960	1.382050	dec_nonsocial_choice	1.382050	16.000000	n/a	8	2.701823e-01	2.701823e-01
315.925960	1.382050	dec_choice	1.382050	16.000000	n/a	8	2.695312e-01	2.695312e-01
315.925960	1.382050	dec_nonsocial_accept	1.382050	16.000000	n/a	8	2.253788e-01	2.253788e-01
315.925960	1.382050	dec_accept	1.382050	16.000000	n/a	8	2.562500e-01	2.562500e-01
315.925960	1.382050	dec_nonsocial_accept_high	1.382050	16.000000	n/a	8	1.778846e-01	1.778846e-01
322.758360	1.465968	dec_nonsocial_choice	1.465968	16.000000	n/a	2	-1.048177e-01	-1.048177e-01
322.758360	1.465968	dec_choice	1.465968	16.000000	n/a	2	-1.054688e-01	-1.054688e-01
322.758360	1.465968	dec_nonsocial_accept	1.465968	16.000000	n/a	2	-1.496212e-01	-1.496212e-01
322.758360	1.465968	dec_accept	1.465968	16.000000	n/a	2	-1.187500e-01	-1.187500e-01
322.758360	1.465968	dec_nonsocial_accept_low	1.465968	16.000000	n/a	2	-1.971154e-01	-1.971154e-01
329.590240	1.500631	dec_social_choice	1.500631	16.000000	n/a	0	0	-2.298177e-01
329.590240	1.500631	dec_choice	1.500631	16.000000	n/a	0	0	-2.291667e-01
329.590240	1.500631	dec_social_reject	1.500631	16.000000	n/a	0	0	-6.875000e-02
329.590240	1.500631	dec_reject	1.500631	16.000000	n/a	0	0	-5.681818e-02
329.590240	1.500631	dec_social_reject_low	1.500631	16.000000	n/a	1	-1.666667e-01	-2.291667e-01
337.241150	1.616654	dec_nonsocial_choice	1.616654	32.000000	n/a	3	-1.360677e-01	-1.360677e-01
337.241150	1.616654	dec_choice	1.616654	32.000000	n/a	3	-1.367188e-01	-1.367188e-01
337.241150	1.616654	dec_nonsocial_accept	1.616654	32.000000	n/a	3	-1.808712e-01	-1.808712e-01
337.241150	1.616654	dec_accept	1.616654	32.000000	n/a	3	-1.500000e-01	-1.500000e-01
337.241150	1.616654	dec_nonsocial_accept_low	1.616654	32.000000	n/a	3	-2.283654e-01	-2.283654e-01
344.075160	1.116013	dec_nonsocial_choice	1.116013	16.000000	n/a	8	2.701823e-01	2.701823e-01
344.075160	1.116013	dec_choice	1.116013	16.000000	n/a	8	2.695312e-01	2.695312e-01
344.075160	1.116013	dec_nonsocial_accept	1.116013	16.000000	n/a	8	2.253788e-01	2.253788e-01
344.075160	1.116013	dec_accept	1.116013	16.000000	n/a	8	2.562500e-01	2.562500e-01
344.075160	1.116013	dec_nonsocial_high	1.116013	16.000000	n/a	8	2.695312e-01	2.695312e-01
344.075160	1.116013	dec_nonsocial_accept_high	1.116013	16.000000	n/a	8	2.562500e-01	2.562500e-01
351.724100	1.034097	dec_social_choice	1.034097	32.000000	n/a	8	2.018229e-02	2.018229e-02
351.724100	1.034097	dec_choice	1.034097	32.000000	n/a	8	2.083333e-02	2.083333e-02
351.724100	1.034097	dec_social_accept	1.034097	32.000000	n/a	8	-2.462121e-02	-2.462121e-02
351.724100	1.034097	dec_accept	1.034097	32.000000	n/a	8	-7.211538e-02	-7.211538e-02
351.724100	1.034097	dec_social_accept_high	1.034097	32.000000	n/a	8	2.083333e-02	2.083333e-02
358.557980	1.383562	dec_social_choice	1.383562	16.000000	n/a	0	0	-2.298177e-01
358.557980	1.383562	dec_choice	1.383562	16.000000	n/a	0	0	-2.291667e-01
358.557980	1.383562	dec_social_reject	1.383562	16.000000	n/a	0	0	-6.875000e-02
358.557980	1.383562	dec_reject	1.383562	16.000000	n/a	0	0	-5.681818e-02
358.557980	1.383562	dec_social_reject_low	1.383562	16.000000	n/a	1	-1.666667e-01	-2.291667e-01
365.392060	1.382740	dec_social_choice	1.382740	32.000000	n/a	0	0	-2.298177e-01
365.392060	1.382740	dec_choice	1.382740	32.000000	n/a	0	0	-2.291667e-01
365.392060	1.382740	dec_social_reject	1.382740	32.000000	n/a	0	0	-6.875000e-02
365.392060	1.382740	dec_reject	1.382740	32.000000	n/a	0	0	-5.681818e-02
365.392060	1.382740	dec_social_reject_low	1.382740	32.000000	n/a	2	-1.666667e-01	-2.291667e-01
372.225000	1.483113	dec_social_choice	1.483113	32.000000	n/a	3	-1.360677e-01	-1.360677e-01
372.225000	1.483113	dec_choice	1.483113	32.000000	n/a	3	-1.354167e-01	-1.354167e-01
372.225000	1.483113	dec_social_accept	1.483113	32.000000	n/a	3	-1.808712e-01	-1.808712e-01
372.225000	1.483113	dec_accept	1.483113	32.000000	n/a	3	-2.283654e-01	-2.283654e-01
372.225000	1.483113	dec_social_accept_low	1.483113	32.000000	n/a	3	-1.354167e-01	-1.354167e-01
