onset	duration	trial_type	response_time	Endowment	Endowment_pmod	Decision	Decision_pmod	Offer_pmod
4.582705	2	cue_social	n/a	32	8	n/a	n/a	n/a
4.582705	2	cue_social_high	n/a	32	8	n/a	n/a	n/a
12.159850	2	cue_nonsocial	n/a	16	-8	n/a	n/a	n/a
12.159850	2	cue_nonsocial_low	n/a	16	-8	n/a	n/a	n/a
19.880205	2	cue_social	n/a	16	-8	n/a	n/a	n/a
19.880205	2	cue_social_low	n/a	16	-8	n/a	n/a	n/a
26.735874	2	cue_social	n/a	16	-8	n/a	n/a	n/a
26.735874	2	cue_social_low	n/a	16	-8	n/a	n/a	n/a
33.476910	2	cue_nonsocial	n/a	16	-8	n/a	n/a	n/a
33.476910	2	cue_nonsocial_low	n/a	16	-8	n/a	n/a	n/a
40.310345	2	cue_nonsocial	n/a	16	-8	n/a	n/a	n/a
40.310345	2	cue_nonsocial_low	n/a	16	-8	n/a	n/a	n/a
47.194542	2	cue_social	n/a	16	-8	n/a	n/a	n/a
47.194542	2	cue_social_low	n/a	16	-8	n/a	n/a	n/a
58.009808	2	cue_nonsocial	n/a	16	-8	n/a	n/a	n/a
58.009808	2	cue_nonsocial_low	n/a	16	-8	n/a	n/a	n/a
65.749990	2	cue_social	n/a	32	8	n/a	n/a	n/a
65.749990	2	cue_social_high	n/a	32	8	n/a	n/a	n/a
72.554360	2	cue_social	n/a	32	8	n/a	n/a	n/a
72.554360	2	cue_social_high	n/a	32	8	n/a	n/a	n/a
79.381720	2	cue_social	n/a	16	-8	n/a	n/a	n/a
79.381720	2	cue_social_low	n/a	16	-8	n/a	n/a	n/a
86.159580	2	cue_nonsocial	n/a	32	8	n/a	n/a	n/a
86.159580	2	cue_nonsocial_high	n/a	32	8	n/a	n/a	n/a
92.993110	2	cue_nonsocial	n/a	32	8	n/a	n/a	n/a
92.993110	2	cue_nonsocial_high	n/a	32	8	n/a	n/a	n/a
99.891380	2	cue_social	n/a	32	8	n/a	n/a	n/a
99.891380	2	cue_social_high	n/a	32	8	n/a	n/a	n/a
106.732280	2	cue_social	n/a	16	-8	n/a	n/a	n/a
106.732280	2	cue_social_low	n/a	16	-8	n/a	n/a	n/a
113.562280	2	cue_social	n/a	16	-8	n/a	n/a	n/a
113.562280	2	cue_social_low	n/a	16	-8	n/a	n/a	n/a
122.749970	2	cue_nonsocial	n/a	16	-8	n/a	n/a	n/a
122.749970	2	cue_nonsocial_low	n/a	16	-8	n/a	n/a	n/a
129.593200	2	cue_nonsocial	n/a	16	-8	n/a	n/a	n/a
129.593200	2	cue_nonsocial_low	n/a	16	-8	n/a	n/a	n/a
136.437400	2	cue_nonsocial	n/a	32	8	n/a	n/a	n/a
136.437400	2	cue_nonsocial_high	n/a	32	8	n/a	n/a	n/a
145.744980	2	cue_social	n/a	32	8	n/a	n/a	n/a
145.744980	2	cue_social_high	n/a	32	8	n/a	n/a	n/a
155.004600	2	cue_social	n/a	32	8	n/a	n/a	n/a
155.004600	2	cue_social_high	n/a	32	8	n/a	n/a	n/a
162.593640	2	cue_nonsocial	n/a	16	-8	n/a	n/a	n/a
162.593640	2	cue_nonsocial_low	n/a	16	-8	n/a	n/a	n/a
169.506160	2	cue_social	n/a	16	-8	n/a	n/a	n/a
169.506160	2	cue_social_low	n/a	16	-8	n/a	n/a	n/a
176.259780	2	cue_nonsocial	n/a	32	8	n/a	n/a	n/a
176.259780	2	cue_nonsocial_high	n/a	32	8	n/a	n/a	n/a
183.092640	2	cue_nonsocial	n/a	32	8	n/a	n/a	n/a
183.092640	2	cue_nonsocial_high	n/a	32	8	n/a	n/a	n/a
190.813250	2	cue_social	n/a	16	-8	n/a	n/a	n/a
190.813250	2	cue_social_low	n/a	16	-8	n/a	n/a	n/a
198.439590	2	cue_social	n/a	16	-8	n/a	n/a	n/a
198.439590	2	cue_social_low	n/a	16	-8	n/a	n/a	n/a
205.226490	2	cue_nonsocial	n/a	16	-8	n/a	n/a	n/a
205.226490	2	cue_nonsocial_low	n/a	16	-8	n/a	n/a	n/a
212.928650	2	cue_social	n/a	32	8	n/a	n/a	n/a
212.928650	2	cue_social_high	n/a	32	8	n/a	n/a	n/a
220.526290	2	cue_nonsocial	n/a	32	8	n/a	n/a	n/a
220.526290	2	cue_nonsocial_high	n/a	32	8	n/a	n/a	n/a
227.359800	2	cue_nonsocial	n/a	16	-8	n/a	n/a	n/a
227.359800	2	cue_nonsocial_low	n/a	16	-8	n/a	n/a	n/a
239.852620	2	cue_nonsocial	n/a	16	-8	n/a	n/a	n/a
239.852620	2	cue_nonsocial_low	n/a	16	-8	n/a	n/a	n/a
247.539720	2	cue_social	n/a	16	-8	n/a	n/a	n/a
247.539720	2	cue_social_low	n/a	16	-8	n/a	n/a	n/a
258.420900	2	cue_social	n/a	32	8	n/a	n/a	n/a
258.420900	2	cue_social_high	n/a	32	8	n/a	n/a	n/a
265.271150	2	cue_social	n/a	32	8	n/a	n/a	n/a
265.271150	2	cue_social_high	n/a	32	8	n/a	n/a	n/a
274.459400	2	cue_nonsocial	n/a	32	8	n/a	n/a	n/a
274.459400	2	cue_nonsocial_high	n/a	32	8	n/a	n/a	n/a
281.292570	2	cue_nonsocial	n/a	32	8	n/a	n/a	n/a
281.292570	2	cue_nonsocial_high	n/a	32	8	n/a	n/a	n/a
288.125760	2	cue_nonsocial	n/a	16	-8	n/a	n/a	n/a
288.125760	2	cue_nonsocial_low	n/a	16	-8	n/a	n/a	n/a
297.392820	2	cue_nonsocial	n/a	32	8	n/a	n/a	n/a
297.392820	2	cue_nonsocial_high	n/a	32	8	n/a	n/a	n/a
304.291470	2	cue_social	n/a	32	8	n/a	n/a	n/a
304.291470	2	cue_social_high	n/a	32	8	n/a	n/a	n/a
315.092530	2	cue_nonsocial	n/a	32	8	n/a	n/a	n/a
315.092530	2	cue_nonsocial_high	n/a	32	8	n/a	n/a	n/a
322.742920	2	cue_nonsocial	n/a	32	8	n/a	n/a	n/a
322.742920	2	cue_nonsocial_high	n/a	32	8	n/a	n/a	n/a
329.664430	2	cue_social	n/a	32	8	n/a	n/a	n/a
329.664430	2	cue_social_high	n/a	32	8	n/a	n/a	n/a
337.310850	2	cue_social	n/a	16	-8	n/a	n/a	n/a
337.310850	2	cue_social_low	n/a	16	-8	n/a	n/a	n/a
344.859160	2	cue_nonsocial	n/a	32	8	n/a	n/a	n/a
344.859160	2	cue_nonsocial_high	n/a	32	8	n/a	n/a	n/a
352.506320	2	cue_nonsocial	n/a	16	-8	n/a	n/a	n/a
352.506320	2	cue_nonsocial_low	n/a	16	-8	n/a	n/a	n/a
361.808230	2	cue_social	n/a	16	-8	n/a	n/a	n/a
361.808230	2	cue_social_low	n/a	16	-8	n/a	n/a	n/a
368.630920	2	cue_social	n/a	32	8	n/a	n/a	n/a
368.630920	2	cue_social_high	n/a	32	8	n/a	n/a	n/a
6.516120	1.099649	dec_social_choice	1.099649	32.000000	n/a	8	1.888021e-02	1.888021e-02
6.516120	1.099649	dec_choice	1.099649	32.000000	n/a	8	1.953125e-02	1.953125e-02
6.516120	1.099649	dec_social_accept	1.099649	32.000000	n/a	8	0	0
6.516120	1.099649	dec_accept	1.099649	32.000000	n/a	8	-2.976190e-03	-2.976190e-03
6.516120	1.099649	dec_social_accept_high	1.099649	32.000000	n/a	8	1.953125e-02	1.953125e-02
14.165757	0.716320	dec_nonsocial_choice	0.716320	16.000000	n/a	8	2.688802e-01	2.688802e-01
14.165757	0.716320	dec_choice	0.716320	16.000000	n/a	8	2.682292e-01	2.682292e-01
14.165757	0.716320	dec_nonsocial_accept	0.716320	16.000000	n/a	8	2.500000e-01	2.500000e-01
14.165757	0.716320	dec_accept	0.716320	16.000000	n/a	8	2.528409e-01	2.528409e-01
14.165757	0.716320	dec_nonsocial_accept_high	0.716320	16.000000	n/a	8	2.470238e-01	2.470238e-01
21.815744	0.950084	dec_social_choice	0.950084	16.000000	n/a	2	-1.061198e-01	-1.061198e-01
21.815744	0.950084	dec_choice	0.950084	16.000000	n/a	2	-1.054688e-01	-1.054688e-01
21.815744	0.950084	dec_social_accept	0.950084	16.000000	n/a	2	-1.250000e-01	-1.250000e-01
21.815744	0.950084	dec_accept	0.950084	16.000000	n/a	2	-1.279762e-01	-1.279762e-01
21.815744	0.950084	dec_social_accept_low	0.950084	16.000000	n/a	2	-1.054688e-01	-1.054688e-01
28.648424	1.101182	dec_social_choice	1.101182	16.000000	n/a	8	2.688802e-01	2.688802e-01
28.648424	1.101182	dec_choice	1.101182	16.000000	n/a	8	2.695312e-01	2.695312e-01
28.648424	1.101182	dec_social_accept	1.101182	16.000000	n/a	8	2.500000e-01	2.500000e-01
28.648424	1.101182	dec_accept	1.101182	16.000000	n/a	8	2.470238e-01	2.470238e-01
28.648424	1.101182	dec_social_accept_high	1.101182	16.000000	n/a	8	2.695312e-01	2.695312e-01
35.481770	0.851126	dec_nonsocial_choice	0.851126	16.000000	n/a	8	2.688802e-01	2.688802e-01
35.481770	0.851126	dec_choice	0.851126	16.000000	n/a	8	2.682292e-01	2.682292e-01
35.481770	0.851126	dec_nonsocial_accept	0.851126	16.000000	n/a	8	2.500000e-01	2.500000e-01
35.481770	0.851126	dec_accept	0.851126	16.000000	n/a	8	2.528409e-01	2.528409e-01
35.481770	0.851126	dec_nonsocial_accept_high	0.851126	16.000000	n/a	8	2.470238e-01	2.470238e-01
42.316143	1.083078	dec_nonsocial_choice	1.083078	16.000000	n/a	4	1.888021e-02	1.888021e-02
42.316143	1.083078	dec_choice	1.083078	16.000000	n/a	4	1.822917e-02	1.822917e-02
42.316143	1.083078	dec_nonsocial_accept	1.083078	16.000000	n/a	4	0	0
42.316143	1.083078	dec_accept	1.083078	16.000000	n/a	4	2.840909e-03	2.840909e-03
42.316143	1.083078	dec_nonsocial_high	1.083078	16.000000	n/a	4	1.822917e-02	1.822917e-02
42.316143	1.083078	dec_nonsocial_accept_high	1.083078	16.000000	n/a	4	2.840909e-03	2.840909e-03
49.149998	1.265436	dec_social_choice	1.265436	16.000000	n/a	4	1.888021e-02	1.888021e-02
49.149998	1.265436	dec_choice	1.265436	16.000000	n/a	4	1.953125e-02	1.953125e-02
49.149998	1.265436	dec_social_accept	1.265436	16.000000	n/a	4	0	0
49.149998	1.265436	dec_accept	1.265436	16.000000	n/a	4	-2.976190e-03	-2.976190e-03
49.149998	1.265436	dec_social_accept_high	1.265436	16.000000	n/a	4	1.953125e-02	1.953125e-02
60.016068	1.399602	dec_nonsocial_choice	1.399602	16.000000	n/a	2	-1.061198e-01	-1.061198e-01
60.016068	1.399602	dec_choice	1.399602	16.000000	n/a	2	-1.067708e-01	-1.067708e-01
60.016068	1.399602	dec_nonsocial_accept	1.399602	16.000000	n/a	2	-1.250000e-01	-1.250000e-01
60.016068	1.399602	dec_accept	1.399602	16.000000	n/a	2	-1.221591e-01	-1.221591e-01
60.016068	1.399602	dec_nonsocial_accept_low	1.399602	16.000000	n/a	2	-1.279762e-01	-1.279762e-01
67.665260	1.317076	dec_social_choice	1.317076	32.000000	n/a	0	0	-2.311198e-01
67.665260	1.317076	dec_choice	1.317076	32.000000	n/a	0	0	-2.304688e-01
67.665260	1.317076	dec_social_reject	1.317076	32.000000	n/a	0	0	2.500000e-02
67.665260	1.317076	dec_reject	1.317076	32.000000	n/a	0	0	2.083333e-02
67.665260	1.317076	dec_social_reject_low	1.317076	32.000000	n/a	3	-1.367188e-01	-2.304688e-01
74.499176	1.066638	dec_social_choice	1.066638	32.000000	n/a	16	2.688802e-01	2.688802e-01
74.499176	1.066638	dec_choice	1.066638	32.000000	n/a	16	2.695312e-01	2.695312e-01
74.499176	1.066638	dec_social_accept	1.066638	32.000000	n/a	16	2.500000e-01	2.500000e-01
74.499176	1.066638	dec_accept	1.066638	32.000000	n/a	16	2.470238e-01	2.470238e-01
74.499176	1.066638	dec_social_accept_high	1.066638	32.000000	n/a	16	2.695312e-01	2.695312e-01
81.332140	1.233573	dec_social_choice	1.233573	16.000000	n/a	0	0	-2.311198e-01
81.332140	1.233573	dec_choice	1.233573	16.000000	n/a	0	0	-2.304688e-01
81.332140	1.233573	dec_social_reject	1.233573	16.000000	n/a	0	0	-6.250000e-03
81.332140	1.233573	dec_reject	1.233573	16.000000	n/a	0	0	-1.041667e-02
81.332140	1.233573	dec_social_low	1.233573	16.000000	n/a	0	-2.304688e-01	-2.304688e-01
81.332140	1.233573	dec_social_reject_low	1.233573	16.000000	n/a	1	-1.679688e-01	-2.304688e-01
88.166080	1.315932	dec_nonsocial_choice	1.315932	32.000000	n/a	0	0	-2.311198e-01
88.166080	1.315932	dec_choice	1.315932	32.000000	n/a	0	0	-2.317708e-01
88.166080	1.315932	dec_nonsocial_reject	1.315932	32.000000	n/a	0	0	-6.250000e-03
88.166080	1.315932	dec_reject	1.315932	32.000000	n/a	0	0	0
88.166080	1.315932	dec_nonsocial_low	1.315932	32.000000	n/a	0	-2.317708e-01	-2.317708e-01
88.166080	1.315932	dec_nonsocial_reject_low	1.315932	32.000000	n/a	2	0	-6.250000e-02
94.999140	0.733684	dec_nonsocial_choice	0.733684	32.000000	n/a	3	-1.373698e-01	-1.373698e-01
94.999140	0.733684	dec_choice	0.733684	32.000000	n/a	3	-1.380208e-01	-1.380208e-01
94.999140	0.733684	dec_nonsocial_accept	0.733684	32.000000	n/a	3	-1.562500e-01	-1.562500e-01
94.999140	0.733684	dec_accept	0.733684	32.000000	n/a	3	-1.534091e-01	-1.534091e-01
94.999140	0.733684	dec_nonsocial_accept_low	0.733684	32.000000	n/a	3	-1.592262e-01	-1.592262e-01
101.832825	0.583132	dec_social_choice	0.583132	32.000000	n/a	16	2.688802e-01	2.688802e-01
101.832825	0.583132	dec_choice	0.583132	32.000000	n/a	16	2.695312e-01	2.695312e-01
101.832825	0.583132	dec_social_accept	0.583132	32.000000	n/a	16	2.500000e-01	2.500000e-01
101.832825	0.583132	dec_accept	0.583132	32.000000	n/a	16	2.470238e-01	2.470238e-01
101.832825	0.583132	dec_social_accept_high	0.583132	32.000000	n/a	16	2.695312e-01	2.695312e-01
108.664930	1.151189	dec_social_choice	1.151189	16.000000	n/a	1	-1.686198e-01	-1.686198e-01
108.664930	1.151189	dec_choice	1.151189	16.000000	n/a	1	-1.679688e-01	-1.679688e-01
108.664930	1.151189	dec_social_accept	1.151189	16.000000	n/a	1	-1.875000e-01	-1.875000e-01
108.664930	1.151189	dec_accept	1.151189	16.000000	n/a	1	-1.904762e-01	-1.904762e-01
108.664930	1.151189	dec_social_low	1.151189	16.000000	n/a	1	-1.679688e-01	-1.679688e-01
108.664930	1.151189	dec_social_accept_low	1.151189	16.000000	n/a	1	-1.679688e-01	-1.679688e-01
115.500060	0.898906	dec_social_choice	0.898906	16.000000	n/a	4	1.888021e-02	1.888021e-02
115.500060	0.898906	dec_choice	0.898906	16.000000	n/a	4	1.953125e-02	1.953125e-02
115.500060	0.898906	dec_social_accept	0.898906	16.000000	n/a	4	0	0
115.500060	0.898906	dec_accept	0.898906	16.000000	n/a	4	-2.976190e-03	-2.976190e-03
115.500060	0.898906	dec_social_high	0.898906	16.000000	n/a	4	1.953125e-02	1.953125e-02
115.500060	0.898906	dec_social_accept_high	0.898906	16.000000	n/a	4	1.953125e-02	1.953125e-02
124.766250	1.565529	dec_nonsocial_choice	1.565529	16.000000	n/a	8	2.688802e-01	2.688802e-01
124.766250	1.565529	dec_choice	1.565529	16.000000	n/a	8	2.682292e-01	2.682292e-01
124.766250	1.565529	dec_nonsocial_accept	1.565529	16.000000	n/a	8	2.500000e-01	2.500000e-01
124.766250	1.565529	dec_accept	1.565529	16.000000	n/a	8	2.528409e-01	2.528409e-01
124.766250	1.565529	dec_nonsocial_accept_high	1.565529	16.000000	n/a	8	2.470238e-01	2.470238e-01
131.599380	0.866231	dec_nonsocial_choice	0.866231	16.000000	n/a	2	-1.061198e-01	-1.061198e-01
131.599380	0.866231	dec_choice	0.866231	16.000000	n/a	2	-1.067708e-01	-1.067708e-01
131.599380	0.866231	dec_nonsocial_accept	0.866231	16.000000	n/a	2	-1.250000e-01	-1.250000e-01
131.599380	0.866231	dec_accept	0.866231	16.000000	n/a	2	-1.221591e-01	-1.221591e-01
131.599380	0.866231	dec_nonsocial_accept_low	0.866231	16.000000	n/a	2	-1.279762e-01	-1.279762e-01
138.433060	1.049534	dec_nonsocial_choice	1.049534	32.000000	n/a	2	-1.686198e-01	-1.686198e-01
138.433060	1.049534	dec_choice	1.049534	32.000000	n/a	2	-1.692708e-01	-1.692708e-01
138.433060	1.049534	dec_nonsocial_accept	1.049534	32.000000	n/a	2	-1.875000e-01	-1.875000e-01
138.433060	1.049534	dec_accept	1.049534	32.000000	n/a	2	-1.846591e-01	-1.846591e-01
138.433060	1.049534	dec_nonsocial_low	1.049534	32.000000	n/a	2	-1.692708e-01	-1.692708e-01
138.433060	1.049534	dec_nonsocial_accept_low	1.049534	32.000000	n/a	2	-1.846591e-01	-1.846591e-01
147.699140	0.899734	dec_social_choice	0.899734	32.000000	n/a	3	-1.373698e-01	-1.373698e-01
147.699140	0.899734	dec_choice	0.899734	32.000000	n/a	3	-1.367188e-01	-1.367188e-01
147.699140	0.899734	dec_social_accept	0.899734	32.000000	n/a	3	-1.562500e-01	-1.562500e-01
147.699140	0.899734	dec_accept	0.899734	32.000000	n/a	3	-1.592262e-01	-1.592262e-01
147.699140	0.899734	dec_social_low	0.899734	32.000000	n/a	3	-1.367188e-01	-1.367188e-01
147.699140	0.899734	dec_social_accept_low	0.899734	32.000000	n/a	3	-1.367188e-01	-1.367188e-01
156.949110	1.116467	dec_social_choice	1.116467	32.000000	n/a	2	-1.686198e-01	-1.686198e-01
156.949110	1.116467	dec_choice	1.116467	32.000000	n/a	2	-1.679688e-01	-1.679688e-01
156.949110	1.116467	dec_social_accept	1.116467	32.000000	n/a	2	-1.875000e-01	-1.875000e-01
156.949110	1.116467	dec_accept	1.116467	32.000000	n/a	2	-1.904762e-01	-1.904762e-01
156.949110	1.116467	dec_social_accept_low	1.116467	32.000000	n/a	2	-1.679688e-01	-1.679688e-01
164.597960	1.067454	dec_nonsocial_choice	1.067454	16.000000	n/a	8	2.688802e-01	2.688802e-01
164.597960	1.067454	dec_choice	1.067454	16.000000	n/a	8	2.682292e-01	2.682292e-01
164.597960	1.067454	dec_nonsocial_accept	1.067454	16.000000	n/a	8	2.500000e-01	2.500000e-01
164.597960	1.067454	dec_accept	1.067454	16.000000	n/a	8	2.528409e-01	2.528409e-01
164.597960	1.067454	dec_nonsocial_accept_high	1.067454	16.000000	n/a	8	2.470238e-01	2.470238e-01
171.432110	1.333356	dec_social_choice	1.333356	16.000000	n/a	2	-1.061198e-01	-1.061198e-01
171.432110	1.333356	dec_choice	1.333356	16.000000	n/a	2	-1.054688e-01	-1.054688e-01
171.432110	1.333356	dec_social_accept	1.333356	16.000000	n/a	2	-1.250000e-01	-1.250000e-01
171.432110	1.333356	dec_accept	1.333356	16.000000	n/a	2	-1.279762e-01	-1.279762e-01
171.432110	1.333356	dec_social_low	1.333356	16.000000	n/a	2	-1.054688e-01	-1.054688e-01
171.432110	1.333356	dec_social_accept_low	1.333356	16.000000	n/a	2	-1.054688e-01	-1.054688e-01
178.266140	1.066369	dec_nonsocial_choice	1.066369	32.000000	n/a	2	-1.686198e-01	-1.686198e-01
178.266140	1.066369	dec_choice	1.066369	32.000000	n/a	2	-1.692708e-01	-1.692708e-01
178.266140	1.066369	dec_nonsocial_accept	1.066369	32.000000	n/a	2	-1.875000e-01	-1.875000e-01
178.266140	1.066369	dec_accept	1.066369	32.000000	n/a	2	-1.846591e-01	-1.846591e-01
178.266140	1.066369	dec_nonsocial_accept_low	1.066369	32.000000	n/a	2	-1.904762e-01	-1.904762e-01
185.099170	1.133225	dec_nonsocial_choice	1.133225	32.000000	n/a	2	-1.686198e-01	-1.686198e-01
185.099170	1.133225	dec_choice	1.133225	32.000000	n/a	2	-1.692708e-01	-1.692708e-01
185.099170	1.133225	dec_nonsocial_accept	1.133225	32.000000	n/a	2	-1.875000e-01	-1.875000e-01
185.099170	1.133225	dec_accept	1.133225	32.000000	n/a	2	-1.846591e-01	-1.846591e-01
185.099170	1.133225	dec_nonsocial_low	1.133225	32.000000	n/a	2	-1.692708e-01	-1.692708e-01
185.099170	1.133225	dec_nonsocial_accept_low	1.133225	32.000000	n/a	2	-1.846591e-01	-1.846591e-01
192.749970	1.149255	dec_social_choice	1.149255	16.000000	n/a	4	1.888021e-02	1.888021e-02
192.749970	1.149255	dec_choice	1.149255	16.000000	n/a	4	1.953125e-02	1.953125e-02
192.749970	1.149255	dec_social_accept	1.149255	16.000000	n/a	4	0	0
192.749970	1.149255	dec_accept	1.149255	16.000000	n/a	4	-2.976190e-03	-2.976190e-03
192.749970	1.149255	dec_social_accept_high	1.149255	16.000000	n/a	4	1.953125e-02	1.953125e-02
200.399050	0.833131	dec_social_choice	0.833131	16.000000	n/a	2	-1.061198e-01	-1.061198e-01
200.399050	0.833131	dec_choice	0.833131	16.000000	n/a	2	-1.054688e-01	-1.054688e-01
200.399050	0.833131	dec_social_accept	0.833131	16.000000	n/a	2	-1.250000e-01	-1.250000e-01
200.399050	0.833131	dec_accept	0.833131	16.000000	n/a	2	-1.279762e-01	-1.279762e-01
200.399050	0.833131	dec_social_low	0.833131	16.000000	n/a	2	-1.054688e-01	-1.054688e-01
200.399050	0.833131	dec_social_accept_low	0.833131	16.000000	n/a	2	-1.054688e-01	-1.054688e-01
207.233100	1.031998	dec_nonsocial_choice	1.031998	16.000000	n/a	8	2.688802e-01	2.688802e-01
207.233100	1.031998	dec_choice	1.031998	16.000000	n/a	8	2.682292e-01	2.682292e-01
207.233100	1.031998	dec_nonsocial_accept	1.031998	16.000000	n/a	8	2.500000e-01	2.500000e-01
207.233100	1.031998	dec_accept	1.031998	16.000000	n/a	8	2.528409e-01	2.528409e-01
207.233100	1.031998	dec_nonsocial_high	1.031998	16.000000	n/a	8	2.682292e-01	2.682292e-01
207.233100	1.031998	dec_nonsocial_accept_high	1.031998	16.000000	n/a	8	2.528409e-01	2.528409e-01
214.882260	1.949962	dec_social_choice	1.949962	32.000000	n/a	2	-1.686198e-01	-1.686198e-01
214.882260	1.949962	dec_choice	1.949962	32.000000	n/a	2	-1.679688e-01	-1.679688e-01
214.882260	1.949962	dec_social_accept	1.949962	32.000000	n/a	2	-1.875000e-01	-1.875000e-01
214.882260	1.949962	dec_accept	1.949962	32.000000	n/a	2	-1.904762e-01	-1.904762e-01
214.882260	1.949962	dec_social_accept_low	1.949962	32.000000	n/a	2	-1.679688e-01	-1.679688e-01
222.531950	2.167018	dec_nonsocial_choice	2.167018	32.000000	n/a	0	0	-2.311198e-01
222.531950	2.167018	dec_choice	2.167018	32.000000	n/a	0	0	-2.317708e-01
222.531950	2.167018	dec_nonsocial_reject	2.167018	32.000000	n/a	0	0	-6.250000e-03
222.531950	2.167018	dec_reject	2.167018	32.000000	n/a	0	0	0
222.531950	2.167018	dec_nonsocial_reject_low	2.167018	32.000000	n/a	2	-1.041667e-02	-7.291667e-02
229.365460	1.116250	dec_nonsocial_choice	1.116250	16.000000	n/a	2	-1.061198e-01	-1.061198e-01
229.365460	1.116250	dec_choice	1.116250	16.000000	n/a	2	-1.067708e-01	-1.067708e-01
229.365460	1.116250	dec_nonsocial_accept	1.116250	16.000000	n/a	2	-1.250000e-01	-1.250000e-01
229.365460	1.116250	dec_accept	1.116250	16.000000	n/a	2	-1.221591e-01	-1.221591e-01
229.365460	1.116250	dec_nonsocial_accept_low	1.116250	16.000000	n/a	2	-1.279762e-01	-1.279762e-01
241.849260	0.550220	dec_nonsocial_choice	0.550220	16.000000	n/a	2	-1.061198e-01	-1.061198e-01
241.849260	0.550220	dec_choice	0.550220	16.000000	n/a	2	-1.067708e-01	-1.067708e-01
241.849260	0.550220	dec_nonsocial_accept	0.550220	16.000000	n/a	2	-1.250000e-01	-1.250000e-01
241.849260	0.550220	dec_accept	0.550220	16.000000	n/a	2	-1.221591e-01	-1.221591e-01
241.849260	0.550220	dec_nonsocial_low	0.550220	16.000000	n/a	2	-1.067708e-01	-1.067708e-01
241.849260	0.550220	dec_nonsocial_accept_low	0.550220	16.000000	n/a	2	-1.221591e-01	-1.221591e-01
249.499040	1.450075	dec_social_choice	1.450075	16.000000	n/a	0	0	-2.311198e-01
249.499040	1.450075	dec_choice	1.450075	16.000000	n/a	0	0	-2.304688e-01
249.499040	1.450075	dec_social_reject	1.450075	16.000000	n/a	0	0	-6.250000e-03
249.499040	1.450075	dec_reject	1.450075	16.000000	n/a	0	0	-1.041667e-02
249.499040	1.450075	dec_social_low	1.450075	16.000000	n/a	0	-2.304688e-01	-2.304688e-01
249.499040	1.450075	dec_social_reject_low	1.450075	16.000000	n/a	1	-1.679688e-01	-2.304688e-01
260.365050	0.766819	dec_social_choice	0.766819	32.000000	n/a	8	1.888021e-02	1.888021e-02
260.365050	0.766819	dec_choice	0.766819	32.000000	n/a	8	1.953125e-02	1.953125e-02
260.365050	0.766819	dec_social_accept	0.766819	32.000000	n/a	8	0	0
260.365050	0.766819	dec_accept	0.766819	32.000000	n/a	8	-2.976190e-03	-2.976190e-03
260.365050	0.766819	dec_social_accept_high	0.766819	32.000000	n/a	8	1.953125e-02	1.953125e-02
267.198400	0.916660	dec_social_choice	0.916660	32.000000	n/a	16	2.688802e-01	2.688802e-01
267.198400	0.916660	dec_choice	0.916660	32.000000	n/a	16	2.695312e-01	2.695312e-01
267.198400	0.916660	dec_social_accept	0.916660	32.000000	n/a	16	2.500000e-01	2.500000e-01
267.198400	0.916660	dec_accept	0.916660	32.000000	n/a	16	2.470238e-01	2.470238e-01
267.198400	0.916660	dec_social_high	0.916660	32.000000	n/a	16	2.695312e-01	2.695312e-01
267.198400	0.916660	dec_social_accept_high	0.916660	32.000000	n/a	16	2.695312e-01	2.695312e-01
276.466130	1.115512	dec_nonsocial_choice	1.115512	32.000000	n/a	8	1.888021e-02	1.888021e-02
276.466130	1.115512	dec_choice	1.115512	32.000000	n/a	8	1.822917e-02	1.822917e-02
276.466130	1.115512	dec_nonsocial_accept	1.115512	32.000000	n/a	8	0	0
276.466130	1.115512	dec_accept	1.115512	32.000000	n/a	8	2.840909e-03	2.840909e-03
276.466130	1.115512	dec_nonsocial_high	1.115512	32.000000	n/a	8	1.822917e-02	1.822917e-02
276.466130	1.115512	dec_nonsocial_accept_high	1.115512	32.000000	n/a	8	2.840909e-03	2.840909e-03
283.299070	1.183052	dec_nonsocial_choice	1.183052	32.000000	n/a	8	1.888021e-02	1.888021e-02
283.299070	1.183052	dec_choice	1.183052	32.000000	n/a	8	1.822917e-02	1.822917e-02
283.299070	1.183052	dec_nonsocial_accept	1.183052	32.000000	n/a	8	0	0
283.299070	1.183052	dec_accept	1.183052	32.000000	n/a	8	2.840909e-03	2.840909e-03
283.299070	1.183052	dec_nonsocial_accept_high	1.183052	32.000000	n/a	8	-2.976190e-03	-2.976190e-03
290.132050	1.016464	dec_nonsocial_choice	1.016464	16.000000	n/a	8	2.688802e-01	2.688802e-01
290.132050	1.016464	dec_choice	1.016464	16.000000	n/a	8	2.682292e-01	2.682292e-01
290.132050	1.016464	dec_nonsocial_accept	1.016464	16.000000	n/a	8	2.500000e-01	2.500000e-01
290.132050	1.016464	dec_accept	1.016464	16.000000	n/a	8	2.528409e-01	2.528409e-01
290.132050	1.016464	dec_nonsocial_accept_high	1.016464	16.000000	n/a	8	2.470238e-01	2.470238e-01
299.398000	1.584098	dec_nonsocial_choice	1.584098	32.000000	n/a	3	-1.373698e-01	-1.373698e-01
299.398000	1.584098	dec_choice	1.584098	32.000000	n/a	3	-1.380208e-01	-1.380208e-01
299.398000	1.584098	dec_nonsocial_accept	1.584098	32.000000	n/a	3	-1.562500e-01	-1.562500e-01
299.398000	1.584098	dec_accept	1.584098	32.000000	n/a	3	-1.534091e-01	-1.534091e-01
299.398000	1.584098	dec_nonsocial_low	1.584098	32.000000	n/a	3	-1.380208e-01	-1.380208e-01
299.398000	1.584098	dec_nonsocial_accept_low	1.584098	32.000000	n/a	3	-1.534091e-01	-1.534091e-01
306.232150	1.049869	dec_social_choice	1.049869	32.000000	n/a	16	2.688802e-01	2.688802e-01
306.232150	1.049869	dec_choice	1.049869	32.000000	n/a	16	2.695312e-01	2.695312e-01
306.232150	1.049869	dec_social_accept	1.049869	32.000000	n/a	16	2.500000e-01	2.500000e-01
306.232150	1.049869	dec_accept	1.049869	32.000000	n/a	16	2.470238e-01	2.470238e-01
306.232150	1.049869	dec_social_high	1.049869	32.000000	n/a	16	2.695312e-01	2.695312e-01
306.232150	1.049869	dec_social_accept_high	1.049869	32.000000	n/a	16	2.695312e-01	2.695312e-01
317.098750	1.266093	dec_nonsocial_choice	1.266093	32.000000	n/a	8	1.888021e-02	1.888021e-02
317.098750	1.266093	dec_choice	1.266093	32.000000	n/a	8	1.822917e-02	1.822917e-02
317.098750	1.266093	dec_nonsocial_accept	1.266093	32.000000	n/a	8	0	0
317.098750	1.266093	dec_accept	1.266093	32.000000	n/a	8	2.840909e-03	2.840909e-03
317.098750	1.266093	dec_nonsocial_high	1.266093	32.000000	n/a	8	1.822917e-02	1.822917e-02
317.098750	1.266093	dec_nonsocial_accept_high	1.266093	32.000000	n/a	8	2.840909e-03	2.840909e-03
324.748380	1.650358	dec_nonsocial_choice	1.650358	32.000000	n/a	2	-1.686198e-01	-1.686198e-01
324.748380	1.650358	dec_choice	1.650358	32.000000	n/a	2	-1.692708e-01	-1.692708e-01
324.748380	1.650358	dec_nonsocial_accept	1.650358	32.000000	n/a	2	-1.875000e-01	-1.875000e-01
324.748380	1.650358	dec_accept	1.650358	32.000000	n/a	2	-1.846591e-01	-1.846591e-01
324.748380	1.650358	dec_nonsocial_accept_low	1.650358	32.000000	n/a	2	-1.904762e-01	-1.904762e-01
331.582030	0.933273	dec_social_choice	0.933273	32.000000	n/a	3	-1.373698e-01	-1.373698e-01
331.582030	0.933273	dec_choice	0.933273	32.000000	n/a	3	-1.367188e-01	-1.367188e-01
331.582030	0.933273	dec_social_accept	0.933273	32.000000	n/a	3	-1.562500e-01	-1.562500e-01
331.582030	0.933273	dec_accept	0.933273	32.000000	n/a	3	-1.592262e-01	-1.592262e-01
331.582030	0.933273	dec_social_low	0.933273	32.000000	n/a	3	-1.367188e-01	-1.367188e-01
331.582030	0.933273	dec_social_accept_low	0.933273	32.000000	n/a	3	-1.367188e-01	-1.367188e-01
339.215150	1.000203	dec_social_choice	1.000203	16.000000	n/a	4	1.888021e-02	1.888021e-02
339.215150	1.000203	dec_choice	1.000203	16.000000	n/a	4	1.953125e-02	1.953125e-02
339.215150	1.000203	dec_social_accept	1.000203	16.000000	n/a	4	0	0
339.215150	1.000203	dec_accept	1.000203	16.000000	n/a	4	-2.976190e-03	-2.976190e-03
339.215150	1.000203	dec_social_high	1.000203	16.000000	n/a	4	1.953125e-02	1.953125e-02
339.215150	1.000203	dec_social_accept_high	1.000203	16.000000	n/a	4	1.953125e-02	1.953125e-02
346.865020	1.583830	dec_nonsocial_choice	1.583830	32.000000	n/a	8	1.888021e-02	1.888021e-02
346.865020	1.583830	dec_choice	1.583830	32.000000	n/a	8	1.822917e-02	1.822917e-02
346.865020	1.583830	dec_nonsocial_accept	1.583830	32.000000	n/a	8	0	0
346.865020	1.583830	dec_accept	1.583830	32.000000	n/a	8	2.840909e-03	2.840909e-03
346.865020	1.583830	dec_nonsocial_high	1.583830	32.000000	n/a	8	1.822917e-02	1.822917e-02
346.865020	1.583830	dec_nonsocial_accept_high	1.583830	32.000000	n/a	8	2.840909e-03	2.840909e-03
354.499000	1.333235	dec_nonsocial_choice	1.333235	16.000000	n/a	4	1.888021e-02	1.888021e-02
354.499000	1.333235	dec_choice	1.333235	16.000000	n/a	4	1.822917e-02	1.822917e-02
354.499000	1.333235	dec_nonsocial_accept	1.333235	16.000000	n/a	4	0	0
354.499000	1.333235	dec_accept	1.333235	16.000000	n/a	4	2.840909e-03	2.840909e-03
354.499000	1.333235	dec_nonsocial_high	1.333235	16.000000	n/a	4	1.822917e-02	1.822917e-02
354.499000	1.333235	dec_nonsocial_accept_high	1.333235	16.000000	n/a	4	2.840909e-03	2.840909e-03
363.749000	1.049664	dec_social_choice	1.049664	16.000000	n/a	8	2.688802e-01	2.688802e-01
363.749000	1.049664	dec_choice	1.049664	16.000000	n/a	8	2.695312e-01	2.695312e-01
363.749000	1.049664	dec_social_accept	1.049664	16.000000	n/a	8	2.500000e-01	2.500000e-01
363.749000	1.049664	dec_accept	1.049664	16.000000	n/a	8	2.470238e-01	2.470238e-01
363.749000	1.049664	dec_social_high	1.049664	16.000000	n/a	8	2.695312e-01	2.695312e-01
363.749000	1.049664	dec_social_accept_high	1.049664	16.000000	n/a	8	2.695312e-01	2.695312e-01
370.581400	1.033502	dec_social_choice	1.033502	32.000000	n/a	2	-1.686198e-01	-1.686198e-01
370.581400	1.033502	dec_choice	1.033502	32.000000	n/a	2	-1.679688e-01	-1.679688e-01
370.581400	1.033502	dec_social_accept	1.033502	32.000000	n/a	2	-1.875000e-01	-1.875000e-01
370.581400	1.033502	dec_accept	1.033502	32.000000	n/a	2	-1.904762e-01	-1.904762e-01
370.581400	1.033502	dec_social_low	1.033502	32.000000	n/a	2	-1.679688e-01	-1.679688e-01
370.581400	1.033502	dec_social_accept_low	1.033502	32.000000	n/a	2	-1.679688e-01	-1.679688e-01
