onset	duration	trial_type	response_time	Endowment	Endowment_pmod	Decision	Decision_pmod	Offer_pmod
4.567985	2	cue_social	n/a	32	11	n/a	n/a	n/a
4.567985	2	cue_social_high	n/a	32	6	n/a	n/a	n/a
12.166706	2	cue_nonsocial	n/a	32	6	n/a	n/a	n/a
12.166706	2	cue_nonsocial_high	n/a	32	11	n/a	n/a	n/a
19.816998	2	cue_nonsocial	n/a	32	6	n/a	n/a	n/a
19.816998	2	cue_nonsocial_high	n/a	32	11	n/a	n/a	n/a
26.650146	2	cue_nonsocial	n/a	16	-10	n/a	n/a	n/a
26.650146	2	cue_nonsocial_low	n/a	16	-5	n/a	n/a	n/a
33.549640	2	cue_social	n/a	16	-5	n/a	n/a	n/a
33.549640	2	cue_social_low	n/a	16	-10	n/a	n/a	n/a
40.391960	2	cue_social	n/a	16	-5	n/a	n/a	n/a
40.391960	2	cue_social_low	n/a	16	-10	n/a	n/a	n/a
48.022182	2	cue_social	n/a	16	-5	n/a	n/a	n/a
48.022182	2	cue_social_low	n/a	16	-10	n/a	n/a	n/a
55.616856	2	cue_nonsocial	n/a	32	6	n/a	n/a	n/a
55.616856	2	cue_nonsocial_high	n/a	32	11	n/a	n/a	n/a
63.361656	2	cue_social	n/a	16	-5	n/a	n/a	n/a
63.361656	2	cue_social_low	n/a	16	-10	n/a	n/a	n/a
70.132355	2	cue_social	n/a	16	-5	n/a	n/a	n/a
70.132355	2	cue_social_low	n/a	16	-10	n/a	n/a	n/a
79.419890	2	cue_social	n/a	16	-5	n/a	n/a	n/a
79.419890	2	cue_social_low	n/a	16	-10	n/a	n/a	n/a
88.661790	2	cue_social	n/a	16	-5	n/a	n/a	n/a
88.661790	2	cue_social_low	n/a	16	-10	n/a	n/a	n/a
99.466250	2	cue_nonsocial	n/a	16	-10	n/a	n/a	n/a
99.466250	2	cue_nonsocial_low	n/a	16	-5	n/a	n/a	n/a
108.733700	2	cue_nonsocial	n/a	32	6	n/a	n/a	n/a
108.733700	2	cue_nonsocial_high	n/a	32	11	n/a	n/a	n/a
119.600136	2	cue_nonsocial	n/a	16	-10	n/a	n/a	n/a
119.600136	2	cue_nonsocial_low	n/a	16	-5	n/a	n/a	n/a
128.903760	2	cue_social	n/a	16	-5	n/a	n/a	n/a
128.903760	2	cue_social_low	n/a	16	-10	n/a	n/a	n/a
135.730150	2	cue_social	n/a	16	-5	n/a	n/a	n/a
135.730150	2	cue_social_low	n/a	16	-10	n/a	n/a	n/a
142.571850	2	cue_social	n/a	16	-5	n/a	n/a	n/a
142.571850	2	cue_social_low	n/a	16	-10	n/a	n/a	n/a
151.812760	2	cue_social	n/a	16	-5	n/a	n/a	n/a
151.812760	2	cue_social_low	n/a	16	-10	n/a	n/a	n/a
158.600190	2	cue_nonsocial	n/a	32	6	n/a	n/a	n/a
158.600190	2	cue_nonsocial_high	n/a	32	11	n/a	n/a	n/a
166.232760	2	cue_nonsocial	n/a	16	-10	n/a	n/a	n/a
166.232760	2	cue_nonsocial_low	n/a	16	-5	n/a	n/a	n/a
173.882700	2	cue_nonsocial	n/a	16	-10	n/a	n/a	n/a
173.882700	2	cue_nonsocial_low	n/a	16	-5	n/a	n/a	n/a
180.716670	2	cue_nonsocial	n/a	32	6	n/a	n/a	n/a
180.716670	2	cue_nonsocial_high	n/a	32	11	n/a	n/a	n/a
187.549450	2	cue_nonsocial	n/a	16	-10	n/a	n/a	n/a
187.549450	2	cue_nonsocial_low	n/a	16	-5	n/a	n/a	n/a
194.463680	2	cue_social	n/a	16	-5	n/a	n/a	n/a
194.463680	2	cue_social_low	n/a	16	-10	n/a	n/a	n/a
201.216380	2	cue_nonsocial	n/a	16	-10	n/a	n/a	n/a
201.216380	2	cue_nonsocial_low	n/a	16	-5	n/a	n/a	n/a
208.866320	2	cue_nonsocial	n/a	32	6	n/a	n/a	n/a
208.866320	2	cue_nonsocial_high	n/a	32	11	n/a	n/a	n/a
215.699770	2	cue_nonsocial	n/a	32	6	n/a	n/a	n/a
215.699770	2	cue_nonsocial_high	n/a	32	11	n/a	n/a	n/a
222.549240	2	cue_nonsocial	n/a	16	-10	n/a	n/a	n/a
222.549240	2	cue_nonsocial_low	n/a	16	-5	n/a	n/a	n/a
230.199550	2	cue_nonsocial	n/a	32	6	n/a	n/a	n/a
230.199550	2	cue_nonsocial_high	n/a	32	11	n/a	n/a	n/a
237.032840	2	cue_nonsocial	n/a	32	6	n/a	n/a	n/a
237.032840	2	cue_nonsocial_high	n/a	32	11	n/a	n/a	n/a
243.915570	2	cue_social	n/a	32	11	n/a	n/a	n/a
243.915570	2	cue_social_high	n/a	32	6	n/a	n/a	n/a
250.742600	2	cue_social	n/a	32	11	n/a	n/a	n/a
250.742600	2	cue_social_high	n/a	32	6	n/a	n/a	n/a
257.578000	2	cue_social	n/a	32	11	n/a	n/a	n/a
257.578000	2	cue_social_high	n/a	32	6	n/a	n/a	n/a
265.182370	2	cue_nonsocial	n/a	32	6	n/a	n/a	n/a
265.182370	2	cue_nonsocial_high	n/a	32	11	n/a	n/a	n/a
272.832640	2	cue_nonsocial	n/a	32	6	n/a	n/a	n/a
272.832640	2	cue_nonsocial_high	n/a	32	11	n/a	n/a	n/a
280.514280	2	cue_social	n/a	32	11	n/a	n/a	n/a
280.514280	2	cue_social_high	n/a	32	6	n/a	n/a	n/a
289.785740	2	cue_social	n/a	32	11	n/a	n/a	n/a
289.785740	2	cue_social_high	n/a	32	6	n/a	n/a	n/a
296.566040	2	cue_nonsocial	n/a	32	6	n/a	n/a	n/a
296.566040	2	cue_nonsocial_high	n/a	32	11	n/a	n/a	n/a
303.399320	2	cue_nonsocial	n/a	16	-10	n/a	n/a	n/a
303.399320	2	cue_nonsocial_low	n/a	16	-5	n/a	n/a	n/a
310.285280	2	cue_social	n/a	16	-5	n/a	n/a	n/a
310.285280	2	cue_social_low	n/a	16	-10	n/a	n/a	n/a
317.075400	2	cue_social	n/a	16	-5	n/a	n/a	n/a
317.075400	2	cue_social_low	n/a	16	-10	n/a	n/a	n/a
323.947330	2	cue_social	n/a	32	11	n/a	n/a	n/a
323.947330	2	cue_social_high	n/a	32	6	n/a	n/a	n/a
330.732600	2	cue_nonsocial	n/a	32	6	n/a	n/a	n/a
330.732600	2	cue_nonsocial_high	n/a	32	11	n/a	n/a	n/a
338.416800	2	cue_social	n/a	16	-5	n/a	n/a	n/a
338.416800	2	cue_social_low	n/a	16	-10	n/a	n/a	n/a
349.249500	2	cue_nonsocial	n/a	32	6	n/a	n/a	n/a
349.249500	2	cue_nonsocial_high	n/a	32	11	n/a	n/a	n/a
356.132230	2	cue_social	n/a	32	11	n/a	n/a	n/a
356.132230	2	cue_social_high	n/a	32	6	n/a	n/a	n/a
368.611700	2	cue_social	n/a	16	-5	n/a	n/a	n/a
368.611700	2	cue_social_low	n/a	16	-10	n/a	n/a	n/a
6.523858	2.099395	dec_social_choice	2.099395	32.000000	n/a	3	-1.243207e-01	-1.243207e-01
6.523858	2.099395	dec_choice	2.099395	32.000000	n/a	3	-1.250000e-01	-1.250000e-01
6.523858	2.099395	dec_social_accept	2.099395	32.000000	n/a	3	-2.152778e-01	-2.152778e-01
6.523858	2.099395	dec_accept	2.099395	32.000000	n/a	3	-2.259615e-01	-2.259615e-01
6.523858	2.099395	dec_social_accept_low	2.099395	32.000000	n/a	3	-1.250000e-01	-1.250000e-01
14.173193	2.866239	dec_nonsocial_choice	2.866239	32.000000	n/a	2	-1.555707e-01	-1.555707e-01
14.173193	2.866239	dec_choice	2.866239	32.000000	n/a	2	-1.548913e-01	-1.548913e-01
14.173193	2.866239	dec_nonsocial_accept	2.866239	32.000000	n/a	2	-2.465278e-01	-2.465278e-01
14.173193	2.866239	dec_accept	2.866239	32.000000	n/a	2	-2.366071e-01	-2.366071e-01
14.173193	2.866239	dec_nonsocial_accept_low	2.866239	32.000000	n/a	2	-2.572115e-01	-2.572115e-01
21.824146	2.665271	dec_nonsocial_choice	2.665271	32.000000	n/a	2	-1.555707e-01	-1.555707e-01
21.824146	2.665271	dec_choice	2.665271	32.000000	n/a	2	-1.548913e-01	-1.548913e-01
21.824146	2.665271	dec_nonsocial_accept	2.665271	32.000000	n/a	2	-2.465278e-01	-2.465278e-01
21.824146	2.665271	dec_accept	2.665271	32.000000	n/a	2	-2.366071e-01	-2.366071e-01
21.824146	2.665271	dec_nonsocial_accept_low	2.665271	32.000000	n/a	2	-2.572115e-01	-2.572115e-01
28.656540	2.716284	dec_nonsocial_choice	2.716284	16.000000	n/a	8	2.819293e-01	2.819293e-01
28.656540	2.716284	dec_choice	2.716284	16.000000	n/a	8	2.826087e-01	2.826087e-01
28.656540	2.716284	dec_nonsocial_accept	2.716284	16.000000	n/a	8	1.909722e-01	1.909722e-01
28.656540	2.716284	dec_accept	2.716284	16.000000	n/a	8	2.008929e-01	2.008929e-01
28.656540	2.716284	dec_nonsocial_accept_high	2.716284	16.000000	n/a	8	1.802885e-01	1.802885e-01
35.489113	2.384149	dec_social_choice	2.384149	16.000000	n/a	0	0	-2.180707e-01
35.489113	2.384149	dec_choice	2.384149	16.000000	n/a	0	0	-2.187500e-01
35.489113	2.384149	dec_social_reject	2.384149	16.000000	n/a	0	0	3.618421e-02
35.489113	2.384149	dec_reject	2.384149	16.000000	n/a	0	0	3.750000e-02
35.489113	2.384149	dec_social_low	2.384149	16.000000	n/a	0	-2.187500e-01	-2.187500e-01
35.489113	2.384149	dec_social_reject_low	2.384149	16.000000	n/a	2	-9.375000e-02	-2.187500e-01
42.323467	1.832640	dec_social_choice	1.832640	16.000000	n/a	4	3.192935e-02	3.192935e-02
42.323467	1.832640	dec_choice	1.832640	16.000000	n/a	4	3.125000e-02	3.125000e-02
42.323467	1.832640	dec_social_accept	1.832640	16.000000	n/a	4	-5.902778e-02	-5.902778e-02
42.323467	1.832640	dec_accept	1.832640	16.000000	n/a	4	-6.971154e-02	-6.971154e-02
42.323467	1.832640	dec_social_accept_high	1.832640	16.000000	n/a	4	3.125000e-02	3.125000e-02
49.972770	2.783631	dec_social_choice	2.783631	16.000000	n/a	1	-1.555707e-01	-1.555707e-01
49.972770	2.783631	dec_choice	2.783631	16.000000	n/a	1	-1.562500e-01	-1.562500e-01
49.972770	2.783631	dec_social_accept	2.783631	16.000000	n/a	1	-2.465278e-01	-2.465278e-01
49.972770	2.783631	dec_accept	2.783631	16.000000	n/a	1	-2.572115e-01	-2.572115e-01
49.972770	2.783631	dec_social_low	2.783631	16.000000	n/a	1	-1.562500e-01	-1.562500e-01
49.972770	2.783631	dec_social_accept_low	2.783631	16.000000	n/a	1	-1.562500e-01	-1.562500e-01
57.623375	2.083015	dec_nonsocial_choice	2.083015	32.000000	n/a	2	-1.555707e-01	-1.555707e-01
57.623375	2.083015	dec_choice	2.083015	32.000000	n/a	2	-1.548913e-01	-1.548913e-01
57.623375	2.083015	dec_nonsocial_accept	2.083015	32.000000	n/a	2	-2.465278e-01	-2.465278e-01
57.623375	2.083015	dec_accept	2.083015	32.000000	n/a	2	-2.366071e-01	-2.366071e-01
57.623375	2.083015	dec_nonsocial_low	2.083015	32.000000	n/a	2	-1.548913e-01	-1.548913e-01
57.623375	2.083015	dec_nonsocial_accept_low	2.083015	32.000000	n/a	2	-2.366071e-01	-2.366071e-01
65.272640	2.283854	dec_social_choice	2.283854	16.000000	n/a	4	3.192935e-02	3.192935e-02
65.272640	2.283854	dec_choice	2.283854	16.000000	n/a	4	3.125000e-02	3.125000e-02
65.272640	2.283854	dec_social_accept	2.283854	16.000000	n/a	4	-5.902778e-02	-5.902778e-02
65.272640	2.283854	dec_accept	2.283854	16.000000	n/a	4	-6.971154e-02	-6.971154e-02
65.272640	2.283854	dec_social_high	2.283854	16.000000	n/a	4	3.125000e-02	3.125000e-02
65.272640	2.283854	dec_social_accept_high	2.283854	16.000000	n/a	4	3.125000e-02	3.125000e-02
72.105870	2.467246	dec_social_choice	2.467246	16.000000	n/a	8	2.819293e-01	2.819293e-01
72.105870	2.467246	dec_choice	2.467246	16.000000	n/a	8	2.812500e-01	2.812500e-01
72.105870	2.467246	dec_social_accept	2.467246	16.000000	n/a	8	1.909722e-01	1.909722e-01
72.105870	2.467246	dec_accept	2.467246	16.000000	n/a	8	1.802885e-01	1.802885e-01
72.105870	2.467246	dec_social_high	2.467246	16.000000	n/a	8	2.812500e-01	2.812500e-01
72.105870	2.467246	dec_social_accept_high	2.467246	16.000000	n/a	8	2.812500e-01	2.812500e-01
81.355680	2.800695	dec_social_choice	2.800695	16.000000	n/a	4	3.192935e-02	3.192935e-02
81.355680	2.800695	dec_choice	2.800695	16.000000	n/a	4	3.125000e-02	3.125000e-02
81.355680	2.800695	dec_social_accept	2.800695	16.000000	n/a	4	-5.902778e-02	-5.902778e-02
81.355680	2.800695	dec_accept	2.800695	16.000000	n/a	4	-6.971154e-02	-6.971154e-02
81.355680	2.800695	dec_social_accept_high	2.800695	16.000000	n/a	4	3.125000e-02	3.125000e-02
90.606804	2.482856	dec_social_choice	2.482856	16.000000	n/a	0	0	-2.180707e-01
90.606804	2.482856	dec_choice	2.482856	16.000000	n/a	0	0	-2.187500e-01
90.606804	2.482856	dec_social_reject	2.482856	16.000000	n/a	0	0	-2.631579e-02
90.606804	2.482856	dec_reject	2.482856	16.000000	n/a	0	0	-2.500000e-02
90.606804	2.482856	dec_social_low	2.482856	16.000000	n/a	0	-2.187500e-01	-2.187500e-01
90.606804	2.482856	dec_social_reject_low	2.482856	16.000000	n/a	1	-1.562500e-01	-2.187500e-01
101.473694	2.765408	dec_nonsocial_choice	2.765408	16.000000	n/a	8	2.819293e-01	2.819293e-01
101.473694	2.765408	dec_choice	2.765408	16.000000	n/a	8	2.826087e-01	2.826087e-01
101.473694	2.765408	dec_nonsocial_accept	2.765408	16.000000	n/a	8	1.909722e-01	1.909722e-01
101.473694	2.765408	dec_accept	2.765408	16.000000	n/a	8	2.008929e-01	2.008929e-01
101.473694	2.765408	dec_nonsocial_accept_high	2.765408	16.000000	n/a	8	1.802885e-01	1.802885e-01
110.739450	2.166237	dec_nonsocial_choice	2.166237	32.000000	n/a	8	3.192935e-02	3.192935e-02
110.739450	2.166237	dec_choice	2.166237	32.000000	n/a	8	3.260870e-02	3.260870e-02
110.739450	2.166237	dec_nonsocial_accept	2.166237	32.000000	n/a	8	-5.902778e-02	-5.902778e-02
110.739450	2.166237	dec_accept	2.166237	32.000000	n/a	8	-4.910714e-02	-4.910714e-02
110.739450	2.166237	dec_nonsocial_high	2.166237	32.000000	n/a	8	3.260870e-02	3.260870e-02
110.739450	2.166237	dec_nonsocial_accept_high	2.166237	32.000000	n/a	8	-4.910714e-02	-4.910714e-02
121.606064	2.416450	dec_nonsocial_choice	2.416450	16.000000	n/a	4	3.192935e-02	3.192935e-02
121.606064	2.416450	dec_choice	2.416450	16.000000	n/a	4	3.260870e-02	3.260870e-02
121.606064	2.416450	dec_nonsocial_accept	2.416450	16.000000	n/a	4	-5.902778e-02	-5.902778e-02
121.606064	2.416450	dec_accept	2.416450	16.000000	n/a	4	-4.910714e-02	-4.910714e-02
121.606064	2.416450	dec_nonsocial_high	2.416450	16.000000	n/a	4	3.260870e-02	3.260870e-02
121.606064	2.416450	dec_nonsocial_accept_high	2.416450	16.000000	n/a	4	-4.910714e-02	-4.910714e-02
130.855760	3.766946	missed_trial	3.766946	16.000000	n/a	n/a	n/a	n/a
137.688770	2.350723	dec_social_choice	2.350723	16.000000	n/a	0	0	-2.180707e-01
137.688770	2.350723	dec_choice	2.350723	16.000000	n/a	0	0	-2.187500e-01
137.688770	2.350723	dec_social_reject	2.350723	16.000000	n/a	0	0	-2.631579e-02
137.688770	2.350723	dec_reject	2.350723	16.000000	n/a	0	0	-2.500000e-02
137.688770	2.350723	dec_social_reject_low	2.350723	16.000000	n/a	1	-1.562500e-01	-2.187500e-01
144.522500	2.333623	dec_social_choice	2.333623	16.000000	n/a	4	3.192935e-02	3.192935e-02
144.522500	2.333623	dec_choice	2.333623	16.000000	n/a	4	3.125000e-02	3.125000e-02
144.522500	2.333623	dec_social_accept	2.333623	16.000000	n/a	4	-5.902778e-02	-5.902778e-02
144.522500	2.333623	dec_accept	2.333623	16.000000	n/a	4	-6.971154e-02	-6.971154e-02
144.522500	2.333623	dec_social_accept_high	2.333623	16.000000	n/a	4	3.125000e-02	3.125000e-02
153.773160	2.616188	dec_social_choice	2.616188	16.000000	n/a	8	2.819293e-01	2.819293e-01
153.773160	2.616188	dec_choice	2.616188	16.000000	n/a	8	2.812500e-01	2.812500e-01
153.773160	2.616188	dec_social_accept	2.616188	16.000000	n/a	8	1.909722e-01	1.909722e-01
153.773160	2.616188	dec_accept	2.616188	16.000000	n/a	8	1.802885e-01	1.802885e-01
153.773160	2.616188	dec_social_accept_high	2.616188	16.000000	n/a	8	2.812500e-01	2.812500e-01
160.605530	1.950584	dec_nonsocial_choice	1.950584	32.000000	n/a	0	0	-2.180707e-01
160.605530	1.950584	dec_choice	1.950584	32.000000	n/a	0	0	-2.173913e-01
160.605530	1.950584	dec_nonsocial_reject	1.950584	32.000000	n/a	0	0	-2.631579e-02
160.605530	1.950584	dec_reject	1.950584	32.000000	n/a	0	0	-2.777778e-02
160.605530	1.950584	dec_nonsocial_reject_low	1.950584	32.000000	n/a	2	-2.500000e-02	-8.750000e-02
168.238780	2.216708	dec_nonsocial_choice	2.216708	16.000000	n/a	4	3.192935e-02	3.192935e-02
168.238780	2.216708	dec_choice	2.216708	16.000000	n/a	4	3.260870e-02	3.260870e-02
168.238780	2.216708	dec_nonsocial_accept	2.216708	16.000000	n/a	4	-5.902778e-02	-5.902778e-02
168.238780	2.216708	dec_accept	2.216708	16.000000	n/a	4	-4.910714e-02	-4.910714e-02
168.238780	2.216708	dec_nonsocial_accept_high	2.216708	16.000000	n/a	4	-6.971154e-02	-6.971154e-02
175.889560	2.599829	dec_nonsocial_choice	2.599829	16.000000	n/a	0	0	-2.180707e-01
175.889560	2.599829	dec_choice	2.599829	16.000000	n/a	0	0	-2.173913e-01
175.889560	2.599829	dec_nonsocial_reject	2.599829	16.000000	n/a	0	0	3.618421e-02
175.889560	2.599829	dec_reject	2.599829	16.000000	n/a	0	0	3.472222e-02
175.889560	2.599829	dec_nonsocial_reject_low	2.599829	16.000000	n/a	2	3.750000e-02	-8.750000e-02
182.722030	2.366771	dec_nonsocial_choice	2.366771	32.000000	n/a	0	0	-2.180707e-01
182.722030	2.366771	dec_choice	2.366771	32.000000	n/a	0	0	-2.173913e-01
182.722030	2.366771	dec_nonsocial_reject	2.366771	32.000000	n/a	0	0	4.934211e-03
182.722030	2.366771	dec_reject	2.366771	32.000000	n/a	0	0	3.472222e-03
182.722030	2.366771	dec_nonsocial_reject_low	2.366771	32.000000	n/a	3	6.250000e-03	-8.750000e-02
189.556720	2.449215	dec_nonsocial_choice	2.449215	16.000000	n/a	0	0	-2.180707e-01
189.556720	2.449215	dec_choice	2.449215	16.000000	n/a	0	0	-2.173913e-01
189.556720	2.449215	dec_nonsocial_reject	2.449215	16.000000	n/a	0	0	3.618421e-02
189.556720	2.449215	dec_reject	2.449215	16.000000	n/a	0	0	3.472222e-02
189.556720	2.449215	dec_nonsocial_reject_low	2.449215	16.000000	n/a	2	3.750000e-02	-8.750000e-02
196.389270	1.816829	dec_social_choice	1.816829	16.000000	n/a	0	0	-2.180707e-01
196.389270	1.816829	dec_choice	1.816829	16.000000	n/a	0	0	-2.187500e-01
196.389270	1.816829	dec_social_reject	1.816829	16.000000	n/a	0	0	-2.631579e-02
196.389270	1.816829	dec_reject	1.816829	16.000000	n/a	0	0	-2.500000e-02
196.389270	1.816829	dec_social_reject_low	1.816829	16.000000	n/a	1	-1.562500e-01	-2.187500e-01
203.222240	2.783873	dec_nonsocial_choice	2.783873	16.000000	n/a	8	2.819293e-01	2.819293e-01
203.222240	2.783873	dec_choice	2.783873	16.000000	n/a	8	2.826087e-01	2.826087e-01
203.222240	2.783873	dec_nonsocial_accept	2.783873	16.000000	n/a	8	1.909722e-01	1.909722e-01
203.222240	2.783873	dec_accept	2.783873	16.000000	n/a	8	2.008929e-01	2.008929e-01
203.222240	2.783873	dec_nonsocial_accept_high	2.783873	16.000000	n/a	8	1.802885e-01	1.802885e-01
210.871730	2.951042	dec_nonsocial_choice	2.951042	32.000000	n/a	0	0	-2.180707e-01
210.871730	2.951042	dec_choice	2.951042	32.000000	n/a	0	0	-2.173913e-01
210.871730	2.951042	dec_nonsocial_reject	2.951042	32.000000	n/a	0	0	4.934211e-03
210.871730	2.951042	dec_reject	2.951042	32.000000	n/a	0	0	3.472222e-03
210.871730	2.951042	dec_nonsocial_reject_low	2.951042	32.000000	n/a	3	6.250000e-03	-8.750000e-02
217.705950	3.766946	missed_trial	3.766946	32.000000	n/a	n/a	n/a	n/a
224.555850	1.866176	dec_nonsocial_choice	1.866176	16.000000	n/a	4	3.192935e-02	3.192935e-02
224.555850	1.866176	dec_choice	1.866176	16.000000	n/a	4	3.260870e-02	3.260870e-02
224.555850	1.866176	dec_nonsocial_accept	1.866176	16.000000	n/a	4	-5.902778e-02	-5.902778e-02
224.555850	1.866176	dec_accept	1.866176	16.000000	n/a	4	-4.910714e-02	-4.910714e-02
224.555850	1.866176	dec_nonsocial_accept_high	1.866176	16.000000	n/a	4	-6.971154e-02	-6.971154e-02
232.205610	1.884144	dec_nonsocial_choice	1.884144	32.000000	n/a	0	0	-2.180707e-01
232.205610	1.884144	dec_choice	1.884144	32.000000	n/a	0	0	-2.173913e-01
232.205610	1.884144	dec_nonsocial_reject	1.884144	32.000000	n/a	0	0	-2.631579e-02
232.205610	1.884144	dec_reject	1.884144	32.000000	n/a	0	0	-2.777778e-02
232.205610	1.884144	dec_nonsocial_reject_low	1.884144	32.000000	n/a	2	-2.500000e-02	-8.750000e-02
239.039520	1.765920	dec_nonsocial_choice	1.765920	32.000000	n/a	0	0	-2.180707e-01
239.039520	1.765920	dec_choice	1.765920	32.000000	n/a	0	0	-2.173913e-01
239.039520	1.765920	dec_nonsocial_reject	1.765920	32.000000	n/a	0	0	-2.631579e-02
239.039520	1.765920	dec_reject	1.765920	32.000000	n/a	0	0	-2.777778e-02
239.039520	1.765920	dec_nonsocial_reject_low	1.765920	32.000000	n/a	2	-2.500000e-02	-8.750000e-02
245.872130	2.550309	dec_social_choice	2.550309	32.000000	n/a	16	2.819293e-01	2.819293e-01
245.872130	2.550309	dec_choice	2.550309	32.000000	n/a	16	2.812500e-01	2.812500e-01
245.872130	2.550309	dec_social_accept	2.550309	32.000000	n/a	16	1.909722e-01	1.909722e-01
245.872130	2.550309	dec_accept	2.550309	32.000000	n/a	16	1.802885e-01	1.802885e-01
245.872130	2.550309	dec_social_accept_high	2.550309	32.000000	n/a	16	2.812500e-01	2.812500e-01
252.705470	1.750197	dec_social_choice	1.750197	32.000000	n/a	0	0	-2.180707e-01
252.705470	1.750197	dec_choice	1.750197	32.000000	n/a	0	0	-2.187500e-01
252.705470	1.750197	dec_social_reject	1.750197	32.000000	n/a	0	0	-2.631579e-02
252.705470	1.750197	dec_reject	1.750197	32.000000	n/a	0	0	-2.500000e-02
252.705470	1.750197	dec_social_reject_low	1.750197	32.000000	n/a	2	-1.562500e-01	-2.187500e-01
259.539830	2.182516	dec_social_choice	2.182516	32.000000	n/a	0	0	-2.180707e-01
259.539830	2.182516	dec_choice	2.182516	32.000000	n/a	0	0	-2.187500e-01
259.539830	2.182516	dec_social_reject	2.182516	32.000000	n/a	0	0	4.934211e-03
259.539830	2.182516	dec_reject	2.182516	32.000000	n/a	0	0	6.250000e-03
259.539830	2.182516	dec_social_reject_low	2.182516	32.000000	n/a	3	-1.250000e-01	-2.187500e-01
267.189100	2.983092	dec_nonsocial_choice	2.983092	32.000000	n/a	0	0	-2.180707e-01
267.189100	2.983092	dec_choice	2.983092	32.000000	n/a	0	0	-2.173913e-01
267.189100	2.983092	dec_nonsocial_reject	2.983092	32.000000	n/a	0	0	4.934211e-03
267.189100	2.983092	dec_reject	2.983092	32.000000	n/a	0	0	3.472222e-03
267.189100	2.983092	dec_nonsocial_reject_low	2.983092	32.000000	n/a	3	6.250000e-03	-8.750000e-02
274.838440	1.733952	dec_nonsocial_choice	1.733952	32.000000	n/a	16	2.819293e-01	2.819293e-01
274.838440	1.733952	dec_choice	1.733952	32.000000	n/a	16	2.826087e-01	2.826087e-01
274.838440	1.733952	dec_nonsocial_accept	1.733952	32.000000	n/a	16	1.909722e-01	1.909722e-01
274.838440	1.733952	dec_accept	1.733952	32.000000	n/a	16	2.008929e-01	2.008929e-01
274.838440	1.733952	dec_nonsocial_high	1.733952	32.000000	n/a	16	2.826087e-01	2.826087e-01
274.838440	1.733952	dec_nonsocial_accept_high	1.733952	32.000000	n/a	16	2.008929e-01	2.008929e-01
282.489700	2.465839	dec_social_choice	2.465839	32.000000	n/a	0	0	-2.180707e-01
282.489700	2.465839	dec_choice	2.465839	32.000000	n/a	0	0	-2.187500e-01
282.489700	2.465839	dec_social_reject	2.465839	32.000000	n/a	0	0	4.934211e-03
282.489700	2.465839	dec_reject	2.465839	32.000000	n/a	0	0	6.250000e-03
282.489700	2.465839	dec_social_reject_low	2.465839	32.000000	n/a	3	-1.250000e-01	-2.187500e-01
291.739720	2.082582	dec_social_choice	2.082582	32.000000	n/a	8	3.192935e-02	3.192935e-02
291.739720	2.082582	dec_choice	2.082582	32.000000	n/a	8	3.125000e-02	3.125000e-02
291.739720	2.082582	dec_social_accept	2.082582	32.000000	n/a	8	-5.902778e-02	-5.902778e-02
291.739720	2.082582	dec_accept	2.082582	32.000000	n/a	8	-6.971154e-02	-6.971154e-02
291.739720	2.082582	dec_social_accept_high	2.082582	32.000000	n/a	8	3.125000e-02	3.125000e-02
298.572500	1.832827	dec_nonsocial_choice	1.832827	32.000000	n/a	8	3.192935e-02	3.192935e-02
298.572500	1.832827	dec_choice	1.832827	32.000000	n/a	8	3.260870e-02	3.260870e-02
298.572500	1.832827	dec_nonsocial_accept	1.832827	32.000000	n/a	8	-5.902778e-02	-5.902778e-02
298.572500	1.832827	dec_accept	1.832827	32.000000	n/a	8	-4.910714e-02	-4.910714e-02
298.572500	1.832827	dec_nonsocial_high	1.832827	32.000000	n/a	8	3.260870e-02	3.260870e-02
298.572500	1.832827	dec_nonsocial_accept_high	1.832827	32.000000	n/a	8	-4.910714e-02	-4.910714e-02
305.405460	1.600135	dec_nonsocial_choice	1.600135	16.000000	n/a	4	3.192935e-02	3.192935e-02
305.405460	1.600135	dec_choice	1.600135	16.000000	n/a	4	3.260870e-02	3.260870e-02
305.405460	1.600135	dec_nonsocial_accept	1.600135	16.000000	n/a	4	-5.902778e-02	-5.902778e-02
305.405460	1.600135	dec_accept	1.600135	16.000000	n/a	4	-4.910714e-02	-4.910714e-02
305.405460	1.600135	dec_nonsocial_accept_high	1.600135	16.000000	n/a	4	-6.971154e-02	-6.971154e-02
312.238130	1.716939	dec_social_choice	1.716939	16.000000	n/a	0	0	-2.180707e-01
312.238130	1.716939	dec_choice	1.716939	16.000000	n/a	0	0	-2.187500e-01
312.238130	1.716939	dec_social_reject	1.716939	16.000000	n/a	0	0	3.618421e-02
312.238130	1.716939	dec_reject	1.716939	16.000000	n/a	0	0	3.750000e-02
312.238130	1.716939	dec_social_reject_low	1.716939	16.000000	n/a	2	-9.375000e-02	-2.187500e-01
319.072630	1.515850	dec_social_choice	1.515850	16.000000	n/a	0	0	-2.180707e-01
319.072630	1.515850	dec_choice	1.515850	16.000000	n/a	0	0	-2.187500e-01
319.072630	1.515850	dec_social_reject	1.515850	16.000000	n/a	0	0	-2.631579e-02
319.072630	1.515850	dec_reject	1.515850	16.000000	n/a	0	0	-2.500000e-02
319.072630	1.515850	dec_social_reject_low	1.515850	16.000000	n/a	1	-1.562500e-01	-2.187500e-01
325.905500	2.066348	dec_social_choice	2.066348	32.000000	n/a	16	2.819293e-01	2.819293e-01
325.905500	2.066348	dec_choice	2.066348	32.000000	n/a	16	2.812500e-01	2.812500e-01
325.905500	2.066348	dec_social_accept	2.066348	32.000000	n/a	16	1.909722e-01	1.909722e-01
325.905500	2.066348	dec_accept	2.066348	32.000000	n/a	16	1.802885e-01	1.802885e-01
325.905500	2.066348	dec_social_high	2.066348	32.000000	n/a	16	2.812500e-01	2.812500e-01
325.905500	2.066348	dec_social_accept_high	2.066348	32.000000	n/a	16	2.812500e-01	2.812500e-01
332.738620	1.750043	dec_nonsocial_choice	1.750043	32.000000	n/a	16	2.819293e-01	2.819293e-01
332.738620	1.750043	dec_choice	1.750043	32.000000	n/a	16	2.826087e-01	2.826087e-01
332.738620	1.750043	dec_nonsocial_accept	1.750043	32.000000	n/a	16	1.909722e-01	1.909722e-01
332.738620	1.750043	dec_accept	1.750043	32.000000	n/a	16	2.008929e-01	2.008929e-01
332.738620	1.750043	dec_nonsocial_high	1.750043	32.000000	n/a	16	2.826087e-01	2.826087e-01
332.738620	1.750043	dec_nonsocial_accept_high	1.750043	32.000000	n/a	16	2.008929e-01	2.008929e-01
340.388100	1.550865	dec_social_choice	1.550865	16.000000	n/a	0	0	-2.180707e-01
340.388100	1.550865	dec_choice	1.550865	16.000000	n/a	0	0	-2.187500e-01
340.388100	1.550865	dec_social_reject	1.550865	16.000000	n/a	0	0	3.618421e-02
340.388100	1.550865	dec_reject	1.550865	16.000000	n/a	0	0	3.750000e-02
340.388100	1.550865	dec_social_low	1.550865	16.000000	n/a	0	-2.187500e-01	-2.187500e-01
340.388100	1.550865	dec_social_reject_low	1.550865	16.000000	n/a	2	-9.375000e-02	-2.187500e-01
351.256350	2.382455	dec_nonsocial_choice	2.382455	32.000000	n/a	0	0	-2.180707e-01
351.256350	2.382455	dec_choice	2.382455	32.000000	n/a	0	0	-2.173913e-01
351.256350	2.382455	dec_nonsocial_reject	2.382455	32.000000	n/a	0	0	4.934211e-03
351.256350	2.382455	dec_reject	2.382455	32.000000	n/a	0	0	3.472222e-03
351.256350	2.382455	dec_nonsocial_reject_low	2.382455	32.000000	n/a	3	6.250000e-03	-8.750000e-02
358.088500	1.833592	dec_social_choice	1.833592	32.000000	n/a	16	2.819293e-01	2.819293e-01
358.088500	1.833592	dec_choice	1.833592	32.000000	n/a	16	2.812500e-01	2.812500e-01
358.088500	1.833592	dec_social_accept	1.833592	32.000000	n/a	16	1.909722e-01	1.909722e-01
358.088500	1.833592	dec_accept	1.833592	32.000000	n/a	16	1.802885e-01	1.802885e-01
358.088500	1.833592	dec_social_high	1.833592	32.000000	n/a	16	2.812500e-01	2.812500e-01
358.088500	1.833592	dec_social_accept_high	1.833592	32.000000	n/a	16	2.812500e-01	2.812500e-01
370.571530	1.466584	dec_social_choice	1.466584	16.000000	n/a	4	3.192935e-02	3.192935e-02
370.571530	1.466584	dec_choice	1.466584	16.000000	n/a	4	3.125000e-02	3.125000e-02
370.571530	1.466584	dec_social_accept	1.466584	16.000000	n/a	4	-5.902778e-02	-5.902778e-02
370.571530	1.466584	dec_accept	1.466584	16.000000	n/a	4	-6.971154e-02	-6.971154e-02
370.571530	1.466584	dec_social_high	1.466584	16.000000	n/a	4	3.125000e-02	3.125000e-02
370.571530	1.466584	dec_social_accept_high	1.466584	16.000000	n/a	4	3.125000e-02	3.125000e-02
