onset	duration	trial_type	response_time	Endowment	Endowment_pmod	Decision	Decision_pmod	Offer_pmod
4.588967	2	cue_social	n/a	16	-5	n/a	n/a	n/a
4.588967	2	cue_social_low	n/a	16	-8	n/a	n/a	n/a
11.456578	2	cue_social	n/a	16	-5	n/a	n/a	n/a
11.456578	2	cue_social_low	n/a	16	-8	n/a	n/a	n/a
19.022375	2	cue_nonsocial	n/a	32	8	n/a	n/a	n/a
19.022375	2	cue_nonsocial_high	n/a	32	11	n/a	n/a	n/a
26.754932	2	cue_social	n/a	32	11	n/a	n/a	n/a
26.754932	2	cue_social_high	n/a	32	8	n/a	n/a	n/a
33.577030	2	cue_social	n/a	16	-5	n/a	n/a	n/a
33.577030	2	cue_social_low	n/a	16	-8	n/a	n/a	n/a
40.456112	2	cue_social	n/a	16	-5	n/a	n/a	n/a
40.456112	2	cue_social_low	n/a	16	-8	n/a	n/a	n/a
47.306390	2	cue_social	n/a	16	-5	n/a	n/a	n/a
47.306390	2	cue_social_low	n/a	16	-8	n/a	n/a	n/a
56.489597	2	cue_nonsocial	n/a	32	8	n/a	n/a	n/a
56.489597	2	cue_nonsocial_high	n/a	32	11	n/a	n/a	n/a
63.339104	2	cue_nonsocial	n/a	16	-8	n/a	n/a	n/a
63.339104	2	cue_nonsocial_low	n/a	16	-5	n/a	n/a	n/a
70.988920	2	cue_nonsocial	n/a	32	8	n/a	n/a	n/a
70.988920	2	cue_nonsocial_high	n/a	32	11	n/a	n/a	n/a
81.872620	2	cue_nonsocial	n/a	32	8	n/a	n/a	n/a
81.872620	2	cue_nonsocial_high	n/a	32	11	n/a	n/a	n/a
88.732574	2	cue_social	n/a	16	-5	n/a	n/a	n/a
88.732574	2	cue_social_low	n/a	16	-8	n/a	n/a	n/a
95.658320	2	cue_social	n/a	16	-5	n/a	n/a	n/a
95.658320	2	cue_social_low	n/a	16	-8	n/a	n/a	n/a
102.506290	2	cue_social	n/a	32	11	n/a	n/a	n/a
102.506290	2	cue_social_high	n/a	32	8	n/a	n/a	n/a
110.072205	2	cue_nonsocial	n/a	16	-8	n/a	n/a	n/a
110.072205	2	cue_nonsocial_low	n/a	16	-5	n/a	n/a	n/a
117.022120	2	cue_social	n/a	32	11	n/a	n/a	n/a
117.022120	2	cue_social_high	n/a	32	8	n/a	n/a	n/a
123.874190	2	cue_social	n/a	16	-5	n/a	n/a	n/a
123.874190	2	cue_social_low	n/a	16	-8	n/a	n/a	n/a
130.702760	2	cue_social	n/a	16	-5	n/a	n/a	n/a
130.702760	2	cue_social_low	n/a	16	-8	n/a	n/a	n/a
138.272130	2	cue_nonsocial	n/a	32	8	n/a	n/a	n/a
138.272130	2	cue_nonsocial_high	n/a	32	11	n/a	n/a	n/a
145.207430	2	cue_social	n/a	16	-5	n/a	n/a	n/a
145.207430	2	cue_social_low	n/a	16	-8	n/a	n/a	n/a
154.475170	2	cue_social	n/a	16	-5	n/a	n/a	n/a
154.475170	2	cue_social_low	n/a	16	-8	n/a	n/a	n/a
162.038730	2	cue_nonsocial	n/a	16	-8	n/a	n/a	n/a
162.038730	2	cue_nonsocial_low	n/a	16	-5	n/a	n/a	n/a
171.326700	2	cue_social	n/a	32	11	n/a	n/a	n/a
171.326700	2	cue_social_high	n/a	32	8	n/a	n/a	n/a
178.955400	2	cue_nonsocial	n/a	32	8	n/a	n/a	n/a
178.955400	2	cue_nonsocial_high	n/a	32	11	n/a	n/a	n/a
185.906220	2	cue_social	n/a	32	11	n/a	n/a	n/a
185.906220	2	cue_social_high	n/a	32	8	n/a	n/a	n/a
192.655430	2	cue_nonsocial	n/a	16	-8	n/a	n/a	n/a
192.655430	2	cue_nonsocial_low	n/a	16	-5	n/a	n/a	n/a
203.549740	2	cue_social	n/a	32	11	n/a	n/a	n/a
203.549740	2	cue_social_high	n/a	32	8	n/a	n/a	n/a
210.388580	2	cue_nonsocial	n/a	32	8	n/a	n/a	n/a
210.388580	2	cue_nonsocial_high	n/a	32	11	n/a	n/a	n/a
221.271970	2	cue_nonsocial	n/a	32	8	n/a	n/a	n/a
221.271970	2	cue_nonsocial_high	n/a	32	11	n/a	n/a	n/a
228.922040	2	cue_nonsocial	n/a	16	-8	n/a	n/a	n/a
228.922040	2	cue_nonsocial_low	n/a	16	-5	n/a	n/a	n/a
235.771840	2	cue_nonsocial	n/a	32	8	n/a	n/a	n/a
235.771840	2	cue_nonsocial_high	n/a	32	11	n/a	n/a	n/a
242.706180	2	cue_social	n/a	16	-5	n/a	n/a	n/a
242.706180	2	cue_social_low	n/a	16	-8	n/a	n/a	n/a
251.889040	2	cue_nonsocial	n/a	32	8	n/a	n/a	n/a
251.889040	2	cue_nonsocial_high	n/a	32	11	n/a	n/a	n/a
258.821700	2	cue_social	n/a	32	11	n/a	n/a	n/a
258.821700	2	cue_social_high	n/a	32	8	n/a	n/a	n/a
265.588900	2	cue_nonsocial	n/a	16	-8	n/a	n/a	n/a
265.588900	2	cue_nonsocial_low	n/a	16	-5	n/a	n/a	n/a
274.939120	2	cue_social	n/a	32	11	n/a	n/a	n/a
274.939120	2	cue_social_high	n/a	32	8	n/a	n/a	n/a
282.505070	2	cue_nonsocial	n/a	16	-8	n/a	n/a	n/a
282.505070	2	cue_nonsocial_low	n/a	16	-5	n/a	n/a	n/a
289.437620	2	cue_social	n/a	16	-5	n/a	n/a	n/a
289.437620	2	cue_social_low	n/a	16	-8	n/a	n/a	n/a
296.286130	2	cue_social	n/a	16	-5	n/a	n/a	n/a
296.286130	2	cue_social_low	n/a	16	-8	n/a	n/a	n/a
303.055080	2	cue_nonsocial	n/a	16	-8	n/a	n/a	n/a
303.055080	2	cue_nonsocial_low	n/a	16	-5	n/a	n/a	n/a
312.321750	2	cue_nonsocial	n/a	16	-8	n/a	n/a	n/a
312.321750	2	cue_nonsocial_low	n/a	16	-5	n/a	n/a	n/a
320.021880	2	cue_social	n/a	16	-5	n/a	n/a	n/a
320.021880	2	cue_social_low	n/a	16	-8	n/a	n/a	n/a
327.722050	2	cue_social	n/a	16	-5	n/a	n/a	n/a
327.722050	2	cue_social_low	n/a	16	-8	n/a	n/a	n/a
340.121580	2	cue_nonsocial	n/a	16	-8	n/a	n/a	n/a
340.121580	2	cue_nonsocial_low	n/a	16	-5	n/a	n/a	n/a
347.771820	2	cue_nonsocial	n/a	32	8	n/a	n/a	n/a
347.771820	2	cue_nonsocial_high	n/a	32	11	n/a	n/a	n/a
354.621550	2	cue_nonsocial	n/a	32	8	n/a	n/a	n/a
354.621550	2	cue_nonsocial_high	n/a	32	11	n/a	n/a	n/a
362.271500	2	cue_nonsocial	n/a	16	-8	n/a	n/a	n/a
362.271500	2	cue_nonsocial_low	n/a	16	-5	n/a	n/a	n/a
369.121730	2	cue_nonsocial	n/a	16	-8	n/a	n/a	n/a
369.121730	2	cue_nonsocial_low	n/a	16	-5	n/a	n/a	n/a
6.528833	2.633129	dec_social_choice	2.633129	16.000000	n/a	8	2.682292e-01	2.682292e-01
6.528833	2.633129	dec_choice	2.633129	16.000000	n/a	8	2.682292e-01	2.682292e-01
6.528833	2.633129	dec_social_accept	2.633129	16.000000	n/a	8	2.682292e-01	2.682292e-01
6.528833	2.633129	dec_accept	2.633129	16.000000	n/a	8	2.682292e-01	2.682292e-01
6.528833	2.633129	dec_social_high	2.633129	16.000000	n/a	8	2.682292e-01	2.682292e-01
6.528833	2.633129	dec_social_accept_high	2.633129	16.000000	n/a	8	2.682292e-01	2.682292e-01
13.378984	2.099616	dec_social_choice	2.099616	16.000000	n/a	4	1.822917e-02	1.822917e-02
13.378984	2.099616	dec_choice	2.099616	16.000000	n/a	4	1.822917e-02	1.822917e-02
13.378984	2.099616	dec_social_accept	2.099616	16.000000	n/a	4	1.822917e-02	1.822917e-02
13.378984	2.099616	dec_accept	2.099616	16.000000	n/a	4	1.822917e-02	1.822917e-02
13.378984	2.099616	dec_social_accept_high	2.099616	16.000000	n/a	4	1.822917e-02	1.822917e-02
21.028030	1.550569	dec_nonsocial_choice	1.550569	32.000000	n/a	8	1.822917e-02	1.822917e-02
21.028030	1.550569	dec_choice	1.550569	32.000000	n/a	8	1.822917e-02	1.822917e-02
21.028030	1.550569	dec_nonsocial_accept	1.550569	32.000000	n/a	8	1.822917e-02	1.822917e-02
21.028030	1.550569	dec_accept	1.550569	32.000000	n/a	8	1.822917e-02	1.822917e-02
21.028030	1.550569	dec_nonsocial_high	1.550569	32.000000	n/a	8	1.822917e-02	1.822917e-02
21.028030	1.550569	dec_nonsocial_accept_high	1.550569	32.000000	n/a	8	1.822917e-02	1.822917e-02
28.678988	1.166250	dec_social_choice	1.166250	32.000000	n/a	8	1.822917e-02	1.822917e-02
28.678988	1.166250	dec_choice	1.166250	32.000000	n/a	8	1.822917e-02	1.822917e-02
28.678988	1.166250	dec_social_accept	1.166250	32.000000	n/a	8	1.822917e-02	1.822917e-02
28.678988	1.166250	dec_accept	1.166250	32.000000	n/a	8	1.822917e-02	1.822917e-02
28.678988	1.166250	dec_social_high	1.166250	32.000000	n/a	8	1.822917e-02	1.822917e-02
28.678988	1.166250	dec_social_accept_high	1.166250	32.000000	n/a	8	1.822917e-02	1.822917e-02
35.528988	1.116257	dec_social_choice	1.116257	16.000000	n/a	1	-1.692708e-01	-1.692708e-01
35.528988	1.116257	dec_choice	1.116257	16.000000	n/a	1	-1.692708e-01	-1.692708e-01
35.528988	1.116257	dec_social_accept	1.116257	16.000000	n/a	1	-1.692708e-01	-1.692708e-01
35.528988	1.116257	dec_accept	1.116257	16.000000	n/a	1	-1.692708e-01	-1.692708e-01
35.528988	1.116257	dec_social_low	1.116257	16.000000	n/a	1	-1.692708e-01	-1.692708e-01
35.528988	1.116257	dec_social_accept_low	1.116257	16.000000	n/a	1	-1.692708e-01	-1.692708e-01
42.378990	0.899531	dec_social_choice	0.899531	16.000000	n/a	8	2.682292e-01	2.682292e-01
42.378990	0.899531	dec_choice	0.899531	16.000000	n/a	8	2.682292e-01	2.682292e-01
42.378990	0.899531	dec_social_accept	0.899531	16.000000	n/a	8	2.682292e-01	2.682292e-01
42.378990	0.899531	dec_accept	0.899531	16.000000	n/a	8	2.682292e-01	2.682292e-01
42.378990	0.899531	dec_social_high	0.899531	16.000000	n/a	8	2.682292e-01	2.682292e-01
42.378990	0.899531	dec_social_accept_high	0.899531	16.000000	n/a	8	2.682292e-01	2.682292e-01
49.228640	1.466356	dec_social_choice	1.466356	16.000000	n/a	1	-1.692708e-01	-1.692708e-01
49.228640	1.466356	dec_choice	1.466356	16.000000	n/a	1	-1.692708e-01	-1.692708e-01
49.228640	1.466356	dec_social_accept	1.466356	16.000000	n/a	1	-1.692708e-01	-1.692708e-01
49.228640	1.466356	dec_accept	1.466356	16.000000	n/a	1	-1.692708e-01	-1.692708e-01
49.228640	1.466356	dec_social_accept_low	1.466356	16.000000	n/a	1	-1.692708e-01	-1.692708e-01
58.495190	0.916656	dec_nonsocial_choice	0.916656	32.000000	n/a	16	2.682292e-01	2.682292e-01
58.495190	0.916656	dec_choice	0.916656	32.000000	n/a	16	2.682292e-01	2.682292e-01
58.495190	0.916656	dec_nonsocial_accept	0.916656	32.000000	n/a	16	2.682292e-01	2.682292e-01
58.495190	0.916656	dec_accept	0.916656	32.000000	n/a	16	2.682292e-01	2.682292e-01
58.495190	0.916656	dec_nonsocial_accept_high	0.916656	32.000000	n/a	16	2.682292e-01	2.682292e-01
65.344970	0.983462	dec_nonsocial_choice	0.983462	16.000000	n/a	4	1.822917e-02	1.822917e-02
65.344970	0.983462	dec_choice	0.983462	16.000000	n/a	4	1.822917e-02	1.822917e-02
65.344970	0.983462	dec_nonsocial_accept	0.983462	16.000000	n/a	4	1.822917e-02	1.822917e-02
65.344970	0.983462	dec_accept	0.983462	16.000000	n/a	4	1.822917e-02	1.822917e-02
65.344970	0.983462	dec_nonsocial_accept_high	0.983462	16.000000	n/a	4	1.822917e-02	1.822917e-02
72.995980	1.032496	dec_nonsocial_choice	1.032496	32.000000	n/a	16	2.682292e-01	2.682292e-01
72.995980	1.032496	dec_choice	1.032496	32.000000	n/a	16	2.682292e-01	2.682292e-01
72.995980	1.032496	dec_nonsocial_accept	1.032496	32.000000	n/a	16	2.682292e-01	2.682292e-01
72.995980	1.032496	dec_accept	1.032496	32.000000	n/a	16	2.682292e-01	2.682292e-01
72.995980	1.032496	dec_nonsocial_accept_high	1.032496	32.000000	n/a	16	2.682292e-01	2.682292e-01
83.878525	0.866591	dec_nonsocial_choice	0.866591	32.000000	n/a	2	-1.692708e-01	-1.692708e-01
83.878525	0.866591	dec_choice	0.866591	32.000000	n/a	2	-1.692708e-01	-1.692708e-01
83.878525	0.866591	dec_nonsocial_accept	0.866591	32.000000	n/a	2	-1.692708e-01	-1.692708e-01
83.878525	0.866591	dec_accept	0.866591	32.000000	n/a	2	-1.692708e-01	-1.692708e-01
83.878525	0.866591	dec_nonsocial_low	0.866591	32.000000	n/a	2	-1.692708e-01	-1.692708e-01
83.878525	0.866591	dec_nonsocial_accept_low	0.866591	32.000000	n/a	2	-1.692708e-01	-1.692708e-01
90.729120	1.099270	dec_social_choice	1.099270	16.000000	n/a	1	-1.692708e-01	-1.692708e-01
90.729120	1.099270	dec_choice	1.099270	16.000000	n/a	1	-1.692708e-01	-1.692708e-01
90.729120	1.099270	dec_social_accept	1.099270	16.000000	n/a	1	-1.692708e-01	-1.692708e-01
90.729120	1.099270	dec_accept	1.099270	16.000000	n/a	1	-1.692708e-01	-1.692708e-01
90.729120	1.099270	dec_social_low	1.099270	16.000000	n/a	1	-1.692708e-01	-1.692708e-01
90.729120	1.099270	dec_social_accept_low	1.099270	16.000000	n/a	1	-1.692708e-01	-1.692708e-01
97.578540	1.349878	dec_social_choice	1.349878	16.000000	n/a	4	1.822917e-02	1.822917e-02
97.578540	1.349878	dec_choice	1.349878	16.000000	n/a	4	1.822917e-02	1.822917e-02
97.578540	1.349878	dec_social_accept	1.349878	16.000000	n/a	4	1.822917e-02	1.822917e-02
97.578540	1.349878	dec_accept	1.349878	16.000000	n/a	4	1.822917e-02	1.822917e-02
97.578540	1.349878	dec_social_accept_high	1.349878	16.000000	n/a	4	1.822917e-02	1.822917e-02
104.428955	1.132828	dec_social_choice	1.132828	32.000000	n/a	8	1.822917e-02	1.822917e-02
104.428955	1.132828	dec_choice	1.132828	32.000000	n/a	8	1.822917e-02	1.822917e-02
104.428955	1.132828	dec_social_accept	1.132828	32.000000	n/a	8	1.822917e-02	1.822917e-02
104.428955	1.132828	dec_accept	1.132828	32.000000	n/a	8	1.822917e-02	1.822917e-02
104.428955	1.132828	dec_social_accept_high	1.132828	32.000000	n/a	8	1.822917e-02	1.822917e-02
112.078050	0.850361	dec_nonsocial_choice	0.850361	16.000000	n/a	2	-1.067708e-01	-1.067708e-01
112.078050	0.850361	dec_choice	0.850361	16.000000	n/a	2	-1.067708e-01	-1.067708e-01
112.078050	0.850361	dec_nonsocial_accept	0.850361	16.000000	n/a	2	-1.067708e-01	-1.067708e-01
112.078050	0.850361	dec_accept	0.850361	16.000000	n/a	2	-1.067708e-01	-1.067708e-01
112.078050	0.850361	dec_nonsocial_accept_low	0.850361	16.000000	n/a	2	-1.067708e-01	-1.067708e-01
118.928610	0.699788	dec_social_choice	0.699788	32.000000	n/a	16	2.682292e-01	2.682292e-01
118.928610	0.699788	dec_choice	0.699788	32.000000	n/a	16	2.682292e-01	2.682292e-01
118.928610	0.699788	dec_social_accept	0.699788	32.000000	n/a	16	2.682292e-01	2.682292e-01
118.928610	0.699788	dec_accept	0.699788	32.000000	n/a	16	2.682292e-01	2.682292e-01
118.928610	0.699788	dec_social_accept_high	0.699788	32.000000	n/a	16	2.682292e-01	2.682292e-01
125.778625	0.799787	dec_social_choice	0.799787	16.000000	n/a	8	2.682292e-01	2.682292e-01
125.778625	0.799787	dec_choice	0.799787	16.000000	n/a	8	2.682292e-01	2.682292e-01
125.778625	0.799787	dec_social_accept	0.799787	16.000000	n/a	8	2.682292e-01	2.682292e-01
125.778625	0.799787	dec_accept	0.799787	16.000000	n/a	8	2.682292e-01	2.682292e-01
125.778625	0.799787	dec_social_high	0.799787	16.000000	n/a	8	2.682292e-01	2.682292e-01
125.778625	0.799787	dec_social_accept_high	0.799787	16.000000	n/a	8	2.682292e-01	2.682292e-01
132.628940	0.766045	dec_social_choice	0.766045	16.000000	n/a	1	-1.692708e-01	-1.692708e-01
132.628940	0.766045	dec_choice	0.766045	16.000000	n/a	1	-1.692708e-01	-1.692708e-01
132.628940	0.766045	dec_social_accept	0.766045	16.000000	n/a	1	-1.692708e-01	-1.692708e-01
132.628940	0.766045	dec_accept	0.766045	16.000000	n/a	1	-1.692708e-01	-1.692708e-01
132.628940	0.766045	dec_social_accept_low	0.766045	16.000000	n/a	1	-1.692708e-01	-1.692708e-01
140.278270	1.016887	dec_nonsocial_choice	1.016887	32.000000	n/a	3	-1.380208e-01	-1.380208e-01
140.278270	1.016887	dec_choice	1.016887	32.000000	n/a	3	-1.380208e-01	-1.380208e-01
140.278270	1.016887	dec_nonsocial_accept	1.016887	32.000000	n/a	3	-1.380208e-01	-1.380208e-01
140.278270	1.016887	dec_accept	1.016887	32.000000	n/a	3	-1.380208e-01	-1.380208e-01
140.278270	1.016887	dec_nonsocial_low	1.016887	32.000000	n/a	3	-1.380208e-01	-1.380208e-01
140.278270	1.016887	dec_nonsocial_accept_low	1.016887	32.000000	n/a	3	-1.380208e-01	-1.380208e-01
147.128740	0.682684	dec_social_choice	0.682684	16.000000	n/a	2	-1.067708e-01	-1.067708e-01
147.128740	0.682684	dec_choice	0.682684	16.000000	n/a	2	-1.067708e-01	-1.067708e-01
147.128740	0.682684	dec_social_accept	0.682684	16.000000	n/a	2	-1.067708e-01	-1.067708e-01
147.128740	0.682684	dec_accept	0.682684	16.000000	n/a	2	-1.067708e-01	-1.067708e-01
147.128740	0.682684	dec_social_accept_low	0.682684	16.000000	n/a	2	-1.067708e-01	-1.067708e-01
156.395830	0.765775	dec_social_choice	0.765775	16.000000	n/a	2	-1.067708e-01	-1.067708e-01
156.395830	0.765775	dec_choice	0.765775	16.000000	n/a	2	-1.067708e-01	-1.067708e-01
156.395830	0.765775	dec_social_accept	0.765775	16.000000	n/a	2	-1.067708e-01	-1.067708e-01
156.395830	0.765775	dec_accept	0.765775	16.000000	n/a	2	-1.067708e-01	-1.067708e-01
156.395830	0.765775	dec_social_low	0.765775	16.000000	n/a	2	-1.067708e-01	-1.067708e-01
156.395830	0.765775	dec_social_accept_low	0.765775	16.000000	n/a	2	-1.067708e-01	-1.067708e-01
164.044630	0.916789	dec_nonsocial_choice	0.916789	16.000000	n/a	4	1.822917e-02	1.822917e-02
164.044630	0.916789	dec_choice	0.916789	16.000000	n/a	4	1.822917e-02	1.822917e-02
164.044630	0.916789	dec_nonsocial_accept	0.916789	16.000000	n/a	4	1.822917e-02	1.822917e-02
164.044630	0.916789	dec_accept	0.916789	16.000000	n/a	4	1.822917e-02	1.822917e-02
164.044630	0.916789	dec_nonsocial_high	0.916789	16.000000	n/a	4	1.822917e-02	1.822917e-02
164.044630	0.916789	dec_nonsocial_accept_high	0.916789	16.000000	n/a	4	1.822917e-02	1.822917e-02
173.310880	0.850574	dec_social_choice	0.850574	32.000000	n/a	3	-1.380208e-01	-1.380208e-01
173.310880	0.850574	dec_choice	0.850574	32.000000	n/a	3	-1.380208e-01	-1.380208e-01
173.310880	0.850574	dec_social_accept	0.850574	32.000000	n/a	3	-1.380208e-01	-1.380208e-01
173.310880	0.850574	dec_accept	0.850574	32.000000	n/a	3	-1.380208e-01	-1.380208e-01
173.310880	0.850574	dec_social_low	0.850574	32.000000	n/a	3	-1.380208e-01	-1.380208e-01
173.310880	0.850574	dec_social_accept_low	0.850574	32.000000	n/a	3	-1.380208e-01	-1.380208e-01
180.962200	0.766094	dec_nonsocial_choice	0.766094	32.000000	n/a	8	1.822917e-02	1.822917e-02
180.962200	0.766094	dec_choice	0.766094	32.000000	n/a	8	1.822917e-02	1.822917e-02
180.962200	0.766094	dec_nonsocial_accept	0.766094	32.000000	n/a	8	1.822917e-02	1.822917e-02
180.962200	0.766094	dec_accept	0.766094	32.000000	n/a	8	1.822917e-02	1.822917e-02
180.962200	0.766094	dec_nonsocial_accept_high	0.766094	32.000000	n/a	8	1.822917e-02	1.822917e-02
187.811870	0.999689	dec_social_choice	0.999689	32.000000	n/a	16	2.682292e-01	2.682292e-01
187.811870	0.999689	dec_choice	0.999689	32.000000	n/a	16	2.682292e-01	2.682292e-01
187.811870	0.999689	dec_social_accept	0.999689	32.000000	n/a	16	2.682292e-01	2.682292e-01
187.811870	0.999689	dec_accept	0.999689	32.000000	n/a	16	2.682292e-01	2.682292e-01
187.811870	0.999689	dec_social_high	0.999689	32.000000	n/a	16	2.682292e-01	2.682292e-01
187.811870	0.999689	dec_social_accept_high	0.999689	32.000000	n/a	16	2.682292e-01	2.682292e-01
194.661010	0.933862	dec_nonsocial_choice	0.933862	16.000000	n/a	8	2.682292e-01	2.682292e-01
194.661010	0.933862	dec_choice	0.933862	16.000000	n/a	8	2.682292e-01	2.682292e-01
194.661010	0.933862	dec_nonsocial_accept	0.933862	16.000000	n/a	8	2.682292e-01	2.682292e-01
194.661010	0.933862	dec_accept	0.933862	16.000000	n/a	8	2.682292e-01	2.682292e-01
194.661010	0.933862	dec_nonsocial_accept_high	0.933862	16.000000	n/a	8	2.682292e-01	2.682292e-01
205.543980	0.800641	dec_social_choice	0.800641	32.000000	n/a	8	1.822917e-02	1.822917e-02
205.543980	0.800641	dec_choice	0.800641	32.000000	n/a	8	1.822917e-02	1.822917e-02
205.543980	0.800641	dec_social_accept	0.800641	32.000000	n/a	8	1.822917e-02	1.822917e-02
205.543980	0.800641	dec_accept	0.800641	32.000000	n/a	8	1.822917e-02	1.822917e-02
205.543980	0.800641	dec_social_high	0.800641	32.000000	n/a	8	1.822917e-02	1.822917e-02
205.543980	0.800641	dec_social_accept_high	0.800641	32.000000	n/a	8	1.822917e-02	1.822917e-02
212.394870	0.833223	dec_nonsocial_choice	0.833223	32.000000	n/a	2	-1.692708e-01	-1.692708e-01
212.394870	0.833223	dec_choice	0.833223	32.000000	n/a	2	-1.692708e-01	-1.692708e-01
212.394870	0.833223	dec_nonsocial_accept	0.833223	32.000000	n/a	2	-1.692708e-01	-1.692708e-01
212.394870	0.833223	dec_accept	0.833223	32.000000	n/a	2	-1.692708e-01	-1.692708e-01
212.394870	0.833223	dec_nonsocial_low	0.833223	32.000000	n/a	2	-1.692708e-01	-1.692708e-01
212.394870	0.833223	dec_nonsocial_accept_low	0.833223	32.000000	n/a	2	-1.692708e-01	-1.692708e-01
223.278030	0.633441	dec_nonsocial_choice	0.633441	32.000000	n/a	2	-1.692708e-01	-1.692708e-01
223.278030	0.633441	dec_choice	0.633441	32.000000	n/a	2	-1.692708e-01	-1.692708e-01
223.278030	0.633441	dec_nonsocial_accept	0.633441	32.000000	n/a	2	-1.692708e-01	-1.692708e-01
223.278030	0.633441	dec_accept	0.633441	32.000000	n/a	2	-1.692708e-01	-1.692708e-01
223.278030	0.633441	dec_nonsocial_accept_low	0.633441	32.000000	n/a	2	-1.692708e-01	-1.692708e-01
230.928710	0.749430	dec_nonsocial_choice	0.749430	16.000000	n/a	2	-1.067708e-01	-1.067708e-01
230.928710	0.749430	dec_choice	0.749430	16.000000	n/a	2	-1.067708e-01	-1.067708e-01
230.928710	0.749430	dec_nonsocial_accept	0.749430	16.000000	n/a	2	-1.067708e-01	-1.067708e-01
230.928710	0.749430	dec_accept	0.749430	16.000000	n/a	2	-1.067708e-01	-1.067708e-01
230.928710	0.749430	dec_nonsocial_accept_low	0.749430	16.000000	n/a	2	-1.067708e-01	-1.067708e-01
237.777480	1.067317	dec_nonsocial_choice	1.067317	32.000000	n/a	3	-1.380208e-01	-1.380208e-01
237.777480	1.067317	dec_choice	1.067317	32.000000	n/a	3	-1.380208e-01	-1.380208e-01
237.777480	1.067317	dec_nonsocial_accept	1.067317	32.000000	n/a	3	-1.380208e-01	-1.380208e-01
237.777480	1.067317	dec_accept	1.067317	32.000000	n/a	3	-1.380208e-01	-1.380208e-01
237.777480	1.067317	dec_nonsocial_accept_low	1.067317	32.000000	n/a	3	-1.380208e-01	-1.380208e-01
244.627700	0.633749	dec_social_choice	0.633749	16.000000	n/a	2	-1.067708e-01	-1.067708e-01
244.627700	0.633749	dec_choice	0.633749	16.000000	n/a	2	-1.067708e-01	-1.067708e-01
244.627700	0.633749	dec_social_accept	0.633749	16.000000	n/a	2	-1.067708e-01	-1.067708e-01
244.627700	0.633749	dec_accept	0.633749	16.000000	n/a	2	-1.067708e-01	-1.067708e-01
244.627700	0.633749	dec_social_accept_low	0.633749	16.000000	n/a	2	-1.067708e-01	-1.067708e-01
253.894940	0.699819	dec_nonsocial_choice	0.699819	32.000000	n/a	16	2.682292e-01	2.682292e-01
253.894940	0.699819	dec_choice	0.699819	32.000000	n/a	16	2.682292e-01	2.682292e-01
253.894940	0.699819	dec_nonsocial_accept	0.699819	32.000000	n/a	16	2.682292e-01	2.682292e-01
253.894940	0.699819	dec_accept	0.699819	32.000000	n/a	16	2.682292e-01	2.682292e-01
253.894940	0.699819	dec_nonsocial_high	0.699819	32.000000	n/a	16	2.682292e-01	2.682292e-01
253.894940	0.699819	dec_nonsocial_accept_high	0.699819	32.000000	n/a	16	2.682292e-01	2.682292e-01
260.744800	0.699787	dec_social_choice	0.699787	32.000000	n/a	3	-1.380208e-01	-1.380208e-01
260.744800	0.699787	dec_choice	0.699787	32.000000	n/a	3	-1.380208e-01	-1.380208e-01
260.744800	0.699787	dec_social_accept	0.699787	32.000000	n/a	3	-1.380208e-01	-1.380208e-01
260.744800	0.699787	dec_accept	0.699787	32.000000	n/a	3	-1.380208e-01	-1.380208e-01
260.744800	0.699787	dec_social_accept_low	0.699787	32.000000	n/a	3	-1.380208e-01	-1.380208e-01
267.594300	0.866980	dec_nonsocial_choice	0.866980	16.000000	n/a	1	-1.692708e-01	-1.692708e-01
267.594300	0.866980	dec_choice	0.866980	16.000000	n/a	1	-1.692708e-01	-1.692708e-01
267.594300	0.866980	dec_nonsocial_accept	0.866980	16.000000	n/a	1	-1.692708e-01	-1.692708e-01
267.594300	0.866980	dec_accept	0.866980	16.000000	n/a	1	-1.692708e-01	-1.692708e-01
267.594300	0.866980	dec_nonsocial_low	0.866980	16.000000	n/a	1	-1.692708e-01	-1.692708e-01
267.594300	0.866980	dec_nonsocial_accept_low	0.866980	16.000000	n/a	1	-1.692708e-01	-1.692708e-01
276.861720	0.682955	dec_social_choice	0.682955	32.000000	n/a	2	-1.692708e-01	-1.692708e-01
276.861720	0.682955	dec_choice	0.682955	32.000000	n/a	2	-1.692708e-01	-1.692708e-01
276.861720	0.682955	dec_social_accept	0.682955	32.000000	n/a	2	-1.692708e-01	-1.692708e-01
276.861720	0.682955	dec_accept	0.682955	32.000000	n/a	2	-1.692708e-01	-1.692708e-01
276.861720	0.682955	dec_social_low	0.682955	32.000000	n/a	2	-1.692708e-01	-1.692708e-01
276.861720	0.682955	dec_social_accept_low	0.682955	32.000000	n/a	2	-1.692708e-01	-1.692708e-01
284.511380	0.899979	dec_nonsocial_choice	0.899979	16.000000	n/a	4	1.822917e-02	1.822917e-02
284.511380	0.899979	dec_choice	0.899979	16.000000	n/a	4	1.822917e-02	1.822917e-02
284.511380	0.899979	dec_nonsocial_accept	0.899979	16.000000	n/a	4	1.822917e-02	1.822917e-02
284.511380	0.899979	dec_accept	0.899979	16.000000	n/a	4	1.822917e-02	1.822917e-02
284.511380	0.899979	dec_nonsocial_high	0.899979	16.000000	n/a	4	1.822917e-02	1.822917e-02
284.511380	0.899979	dec_nonsocial_accept_high	0.899979	16.000000	n/a	4	1.822917e-02	1.822917e-02
291.361420	0.916555	dec_social_choice	0.916555	16.000000	n/a	4	1.822917e-02	1.822917e-02
291.361420	0.916555	dec_choice	0.916555	16.000000	n/a	4	1.822917e-02	1.822917e-02
291.361420	0.916555	dec_social_accept	0.916555	16.000000	n/a	4	1.822917e-02	1.822917e-02
291.361420	0.916555	dec_accept	0.916555	16.000000	n/a	4	1.822917e-02	1.822917e-02
291.361420	0.916555	dec_social_high	0.916555	16.000000	n/a	4	1.822917e-02	1.822917e-02
291.361420	0.916555	dec_social_accept_high	0.916555	16.000000	n/a	4	1.822917e-02	1.822917e-02
298.210800	0.634008	dec_social_choice	0.634008	16.000000	n/a	2	-1.067708e-01	-1.067708e-01
298.210800	0.634008	dec_choice	0.634008	16.000000	n/a	2	-1.067708e-01	-1.067708e-01
298.210800	0.634008	dec_social_accept	0.634008	16.000000	n/a	2	-1.067708e-01	-1.067708e-01
298.210800	0.634008	dec_accept	0.634008	16.000000	n/a	2	-1.067708e-01	-1.067708e-01
298.210800	0.634008	dec_social_accept_low	0.634008	16.000000	n/a	2	-1.067708e-01	-1.067708e-01
305.060700	0.850538	dec_nonsocial_choice	0.850538	16.000000	n/a	1	-1.692708e-01	-1.692708e-01
305.060700	0.850538	dec_choice	0.850538	16.000000	n/a	1	-1.692708e-01	-1.692708e-01
305.060700	0.850538	dec_nonsocial_accept	0.850538	16.000000	n/a	1	-1.692708e-01	-1.692708e-01
305.060700	0.850538	dec_accept	0.850538	16.000000	n/a	1	-1.692708e-01	-1.692708e-01
305.060700	0.850538	dec_nonsocial_low	0.850538	16.000000	n/a	1	-1.692708e-01	-1.692708e-01
305.060700	0.850538	dec_nonsocial_accept_low	0.850538	16.000000	n/a	1	-1.692708e-01	-1.692708e-01
314.327970	0.683243	dec_nonsocial_choice	0.683243	16.000000	n/a	2	-1.067708e-01	-1.067708e-01
314.327970	0.683243	dec_choice	0.683243	16.000000	n/a	2	-1.067708e-01	-1.067708e-01
314.327970	0.683243	dec_nonsocial_accept	0.683243	16.000000	n/a	2	-1.067708e-01	-1.067708e-01
314.327970	0.683243	dec_accept	0.683243	16.000000	n/a	2	-1.067708e-01	-1.067708e-01
314.327970	0.683243	dec_nonsocial_accept_low	0.683243	16.000000	n/a	2	-1.067708e-01	-1.067708e-01
321.977450	0.683791	dec_social_choice	0.683791	16.000000	n/a	8	2.682292e-01	2.682292e-01
321.977450	0.683791	dec_choice	0.683791	16.000000	n/a	8	2.682292e-01	2.682292e-01
321.977450	0.683791	dec_social_accept	0.683791	16.000000	n/a	8	2.682292e-01	2.682292e-01
321.977450	0.683791	dec_accept	0.683791	16.000000	n/a	8	2.682292e-01	2.682292e-01
321.977450	0.683791	dec_social_high	0.683791	16.000000	n/a	8	2.682292e-01	2.682292e-01
321.977450	0.683791	dec_social_accept_high	0.683791	16.000000	n/a	8	2.682292e-01	2.682292e-01
329.627780	0.933379	dec_social_choice	0.933379	16.000000	n/a	1	-1.692708e-01	-1.692708e-01
329.627780	0.933379	dec_choice	0.933379	16.000000	n/a	1	-1.692708e-01	-1.692708e-01
329.627780	0.933379	dec_social_accept	0.933379	16.000000	n/a	1	-1.692708e-01	-1.692708e-01
329.627780	0.933379	dec_accept	0.933379	16.000000	n/a	1	-1.692708e-01	-1.692708e-01
329.627780	0.933379	dec_social_low	0.933379	16.000000	n/a	1	-1.692708e-01	-1.692708e-01
329.627780	0.933379	dec_social_accept_low	0.933379	16.000000	n/a	1	-1.692708e-01	-1.692708e-01
342.127780	0.866687	dec_nonsocial_choice	0.866687	16.000000	n/a	2	-1.067708e-01	-1.067708e-01
342.127780	0.866687	dec_choice	0.866687	16.000000	n/a	2	-1.067708e-01	-1.067708e-01
342.127780	0.866687	dec_nonsocial_accept	0.866687	16.000000	n/a	2	-1.067708e-01	-1.067708e-01
342.127780	0.866687	dec_accept	0.866687	16.000000	n/a	2	-1.067708e-01	-1.067708e-01
342.127780	0.866687	dec_nonsocial_accept_low	0.866687	16.000000	n/a	2	-1.067708e-01	-1.067708e-01
349.777770	0.650064	dec_nonsocial_choice	0.650064	32.000000	n/a	2	-1.692708e-01	-1.692708e-01
349.777770	0.650064	dec_choice	0.650064	32.000000	n/a	2	-1.692708e-01	-1.692708e-01
349.777770	0.650064	dec_nonsocial_accept	0.650064	32.000000	n/a	2	-1.692708e-01	-1.692708e-01
349.777770	0.650064	dec_accept	0.650064	32.000000	n/a	2	-1.692708e-01	-1.692708e-01
349.777770	0.650064	dec_nonsocial_accept_low	0.650064	32.000000	n/a	2	-1.692708e-01	-1.692708e-01
356.627750	0.516702	dec_nonsocial_choice	0.516702	32.000000	n/a	8	1.822917e-02	1.822917e-02
356.627750	0.516702	dec_choice	0.516702	32.000000	n/a	8	1.822917e-02	1.822917e-02
356.627750	0.516702	dec_nonsocial_accept	0.516702	32.000000	n/a	8	1.822917e-02	1.822917e-02
356.627750	0.516702	dec_accept	0.516702	32.000000	n/a	8	1.822917e-02	1.822917e-02
356.627750	0.516702	dec_nonsocial_accept_high	0.516702	32.000000	n/a	8	1.822917e-02	1.822917e-02
364.277300	0.517185	dec_nonsocial_choice	0.517185	16.000000	n/a	8	2.682292e-01	2.682292e-01
364.277300	0.517185	dec_choice	0.517185	16.000000	n/a	8	2.682292e-01	2.682292e-01
364.277300	0.517185	dec_nonsocial_accept	0.517185	16.000000	n/a	8	2.682292e-01	2.682292e-01
364.277300	0.517185	dec_accept	0.517185	16.000000	n/a	8	2.682292e-01	2.682292e-01
364.277300	0.517185	dec_nonsocial_accept_high	0.517185	16.000000	n/a	8	2.682292e-01	2.682292e-01
371.127750	0.933380	dec_nonsocial_choice	0.933380	16.000000	n/a	8	2.682292e-01	2.682292e-01
371.127750	0.933380	dec_choice	0.933380	16.000000	n/a	8	2.682292e-01	2.682292e-01
371.127750	0.933380	dec_nonsocial_accept	0.933380	16.000000	n/a	8	2.682292e-01	2.682292e-01
371.127750	0.933380	dec_accept	0.933380	16.000000	n/a	8	2.682292e-01	2.682292e-01
371.127750	0.933380	dec_nonsocial_high	0.933380	16.000000	n/a	8	2.682292e-01	2.682292e-01
371.127750	0.933380	dec_nonsocial_accept_high	0.933380	16.000000	n/a	8	2.682292e-01	2.682292e-01
