onset	duration	trial_type	response_time	Endowment	Endowment_pmod	Decision	Decision_pmod	Offer_pmod
4.603385	2	cue_social	n/a	16	-8	n/a	n/a	n/a
4.603385	2	cue_social_low	n/a	16	-5	n/a	n/a	n/a
13.886174	2	cue_social	n/a	32	8	n/a	n/a	n/a
13.886174	2	cue_social_high	n/a	32	11	n/a	n/a	n/a
20.638092	2	cue_nonsocial	n/a	16	-5	n/a	n/a	n/a
20.638092	2	cue_nonsocial_low	n/a	16	-8	n/a	n/a	n/a
27.487993	2	cue_nonsocial	n/a	32	11	n/a	n/a	n/a
27.487993	2	cue_nonsocial_high	n/a	32	8	n/a	n/a	n/a
34.338116	2	cue_nonsocial	n/a	16	-5	n/a	n/a	n/a
34.338116	2	cue_nonsocial_low	n/a	16	-8	n/a	n/a	n/a
41.987970	2	cue_nonsocial	n/a	16	-5	n/a	n/a	n/a
41.987970	2	cue_nonsocial_low	n/a	16	-8	n/a	n/a	n/a
48.917150	2	cue_social	n/a	32	8	n/a	n/a	n/a
48.917150	2	cue_social_high	n/a	32	11	n/a	n/a	n/a
59.804367	2	cue_social	n/a	32	8	n/a	n/a	n/a
59.804367	2	cue_social_high	n/a	32	11	n/a	n/a	n/a
66.571640	2	cue_nonsocial	n/a	32	11	n/a	n/a	n/a
66.571640	2	cue_nonsocial_high	n/a	32	8	n/a	n/a	n/a
77.454750	2	cue_nonsocial	n/a	32	11	n/a	n/a	n/a
77.454750	2	cue_nonsocial_high	n/a	32	8	n/a	n/a	n/a
84.384410	2	cue_social	n/a	16	-8	n/a	n/a	n/a
84.384410	2	cue_social_low	n/a	16	-5	n/a	n/a	n/a
91.154680	2	cue_nonsocial	n/a	16	-5	n/a	n/a	n/a
91.154680	2	cue_nonsocial_low	n/a	16	-8	n/a	n/a	n/a
103.686070	2	cue_social	n/a	16	-8	n/a	n/a	n/a
103.686070	2	cue_social_low	n/a	16	-5	n/a	n/a	n/a
111.304634	2	cue_nonsocial	n/a	16	-5	n/a	n/a	n/a
111.304634	2	cue_nonsocial_low	n/a	16	-8	n/a	n/a	n/a
120.662670	2	cue_social	n/a	32	8	n/a	n/a	n/a
120.662670	2	cue_social_high	n/a	32	11	n/a	n/a	n/a
128.221080	2	cue_nonsocial	n/a	32	11	n/a	n/a	n/a
128.221080	2	cue_nonsocial_high	n/a	32	8	n/a	n/a	n/a
135.071150	2	cue_nonsocial	n/a	32	11	n/a	n/a	n/a
135.071150	2	cue_nonsocial_high	n/a	32	8	n/a	n/a	n/a
141.983220	2	cue_social	n/a	16	-8	n/a	n/a	n/a
141.983220	2	cue_social_low	n/a	16	-5	n/a	n/a	n/a
148.874160	2	cue_social	n/a	32	8	n/a	n/a	n/a
148.874160	2	cue_social_high	n/a	32	11	n/a	n/a	n/a
156.421360	2	cue_nonsocial	n/a	16	-5	n/a	n/a	n/a
156.421360	2	cue_nonsocial_low	n/a	16	-8	n/a	n/a	n/a
163.270920	2	cue_nonsocial	n/a	16	-5	n/a	n/a	n/a
163.270920	2	cue_nonsocial_low	n/a	16	-8	n/a	n/a	n/a
172.537920	2	cue_nonsocial	n/a	32	11	n/a	n/a	n/a
172.537920	2	cue_nonsocial_high	n/a	32	8	n/a	n/a	n/a
180.265690	2	cue_social	n/a	32	8	n/a	n/a	n/a
180.265690	2	cue_social_high	n/a	32	11	n/a	n/a	n/a
187.916690	2	cue_social	n/a	32	8	n/a	n/a	n/a
187.916690	2	cue_social_high	n/a	32	11	n/a	n/a	n/a
194.769010	2	cue_social	n/a	32	8	n/a	n/a	n/a
194.769010	2	cue_social_high	n/a	32	11	n/a	n/a	n/a
202.440540	2	cue_social	n/a	16	-8	n/a	n/a	n/a
202.440540	2	cue_social_low	n/a	16	-5	n/a	n/a	n/a
211.604190	2	cue_nonsocial	n/a	16	-5	n/a	n/a	n/a
211.604190	2	cue_nonsocial_low	n/a	16	-8	n/a	n/a	n/a
219.254490	2	cue_nonsocial	n/a	16	-5	n/a	n/a	n/a
219.254490	2	cue_nonsocial_low	n/a	16	-8	n/a	n/a	n/a
226.983780	2	cue_social	n/a	16	-8	n/a	n/a	n/a
226.983780	2	cue_social_low	n/a	16	-5	n/a	n/a	n/a
233.843600	2	cue_social	n/a	16	-8	n/a	n/a	n/a
233.843600	2	cue_social_low	n/a	16	-5	n/a	n/a	n/a
240.604480	2	cue_nonsocial	n/a	32	11	n/a	n/a	n/a
240.604480	2	cue_nonsocial_high	n/a	32	8	n/a	n/a	n/a
249.870670	2	cue_nonsocial	n/a	16	-5	n/a	n/a	n/a
249.870670	2	cue_nonsocial_low	n/a	16	-8	n/a	n/a	n/a
256.798920	2	cue_social	n/a	16	-8	n/a	n/a	n/a
256.798920	2	cue_social_low	n/a	16	-5	n/a	n/a	n/a
263.571400	2	cue_nonsocial	n/a	16	-5	n/a	n/a	n/a
263.571400	2	cue_nonsocial_low	n/a	16	-8	n/a	n/a	n/a
270.503570	2	cue_social	n/a	32	8	n/a	n/a	n/a
270.503570	2	cue_social_high	n/a	32	11	n/a	n/a	n/a
279.687260	2	cue_nonsocial	n/a	32	11	n/a	n/a	n/a
279.687260	2	cue_nonsocial_high	n/a	32	8	n/a	n/a	n/a
289.031830	2	cue_social	n/a	32	8	n/a	n/a	n/a
289.031830	2	cue_social_high	n/a	32	11	n/a	n/a	n/a
296.681100	2	cue_social	n/a	16	-8	n/a	n/a	n/a
296.681100	2	cue_social_low	n/a	16	-5	n/a	n/a	n/a
303.454100	2	cue_nonsocial	n/a	16	-5	n/a	n/a	n/a
303.454100	2	cue_nonsocial_low	n/a	16	-8	n/a	n/a	n/a
310.304050	2	cue_nonsocial	n/a	16	-5	n/a	n/a	n/a
310.304050	2	cue_nonsocial_low	n/a	16	-8	n/a	n/a	n/a
318.045470	2	cue_social	n/a	32	8	n/a	n/a	n/a
318.045470	2	cue_social_high	n/a	32	11	n/a	n/a	n/a
324.883880	2	cue_social	n/a	32	8	n/a	n/a	n/a
324.883880	2	cue_social_high	n/a	32	11	n/a	n/a	n/a
331.733220	2	cue_social	n/a	16	-8	n/a	n/a	n/a
331.733220	2	cue_social_low	n/a	16	-5	n/a	n/a	n/a
338.582200	2	cue_social	n/a	16	-8	n/a	n/a	n/a
338.582200	2	cue_social_low	n/a	16	-5	n/a	n/a	n/a
345.354200	2	cue_nonsocial	n/a	16	-5	n/a	n/a	n/a
345.354200	2	cue_nonsocial_low	n/a	16	-8	n/a	n/a	n/a
356.237100	2	cue_nonsocial	n/a	16	-5	n/a	n/a	n/a
356.237100	2	cue_nonsocial_low	n/a	16	-8	n/a	n/a	n/a
363.887240	2	cue_nonsocial	n/a	16	-5	n/a	n/a	n/a
363.887240	2	cue_nonsocial_low	n/a	16	-8	n/a	n/a	n/a
370.839230	2	cue_social	n/a	16	-8	n/a	n/a	n/a
370.839230	2	cue_social_low	n/a	16	-5	n/a	n/a	n/a
6.528038	0.816130	dec_social_choice	0.816130	16.000000	n/a	8	2.688802e-01	2.688802e-01
6.528038	0.816130	dec_choice	0.816130	16.000000	n/a	8	2.695312e-01	2.695312e-01
6.528038	0.816130	dec_social_accept	0.816130	16.000000	n/a	8	2.688802e-01	2.688802e-01
6.528038	0.816130	dec_accept	0.816130	16.000000	n/a	8	2.695312e-01	2.695312e-01
6.528038	0.816130	dec_social_high	0.816130	16.000000	n/a	8	2.695312e-01	2.695312e-01
6.528038	0.816130	dec_social_accept_high	0.816130	16.000000	n/a	8	2.695312e-01	2.695312e-01
15.793942	0.700295	dec_social_choice	0.700295	32.000000	n/a	2	-1.686198e-01	-1.686198e-01
15.793942	0.700295	dec_choice	0.700295	32.000000	n/a	2	-1.679688e-01	-1.679688e-01
15.793942	0.700295	dec_social_accept	0.700295	32.000000	n/a	2	-1.686198e-01	-1.686198e-01
15.793942	0.700295	dec_accept	0.700295	32.000000	n/a	2	-1.679688e-01	-1.679688e-01
15.793942	0.700295	dec_social_low	0.700295	32.000000	n/a	2	-1.679688e-01	-1.679688e-01
15.793942	0.700295	dec_social_accept_low	0.700295	32.000000	n/a	2	-1.679688e-01	-1.679688e-01
22.643818	0.867070	dec_nonsocial_choice	0.867070	16.000000	n/a	1	-1.686198e-01	-1.686198e-01
22.643818	0.867070	dec_choice	0.867070	16.000000	n/a	1	-1.692708e-01	-1.692708e-01
22.643818	0.867070	dec_nonsocial_accept	0.867070	16.000000	n/a	1	-1.686198e-01	-1.686198e-01
22.643818	0.867070	dec_accept	0.867070	16.000000	n/a	1	-1.692708e-01	-1.692708e-01
22.643818	0.867070	dec_nonsocial_low	0.867070	16.000000	n/a	1	-1.692708e-01	-1.692708e-01
22.643818	0.867070	dec_nonsocial_accept_low	0.867070	16.000000	n/a	1	-1.692708e-01	-1.692708e-01
29.494234	0.866637	dec_nonsocial_choice	0.866637	32.000000	n/a	2	-1.686198e-01	-1.686198e-01
29.494234	0.866637	dec_choice	0.866637	32.000000	n/a	2	-1.692708e-01	-1.692708e-01
29.494234	0.866637	dec_nonsocial_accept	0.866637	32.000000	n/a	2	-1.686198e-01	-1.686198e-01
29.494234	0.866637	dec_accept	0.866637	32.000000	n/a	2	-1.692708e-01	-1.692708e-01
29.494234	0.866637	dec_nonsocial_low	0.866637	32.000000	n/a	2	-1.692708e-01	-1.692708e-01
29.494234	0.866637	dec_nonsocial_accept_low	0.866637	32.000000	n/a	2	-1.692708e-01	-1.692708e-01
36.345060	0.749035	dec_nonsocial_choice	0.749035	16.000000	n/a	4	1.888021e-02	1.888021e-02
36.345060	0.749035	dec_choice	0.749035	16.000000	n/a	4	1.822917e-02	1.822917e-02
36.345060	0.749035	dec_nonsocial_accept	0.749035	16.000000	n/a	4	1.888021e-02	1.888021e-02
36.345060	0.749035	dec_accept	0.749035	16.000000	n/a	4	1.822917e-02	1.822917e-02
36.345060	0.749035	dec_nonsocial_high	0.749035	16.000000	n/a	4	1.822917e-02	1.822917e-02
36.345060	0.749035	dec_nonsocial_accept_high	0.749035	16.000000	n/a	4	1.822917e-02	1.822917e-02
43.994003	0.583470	dec_nonsocial_choice	0.583470	16.000000	n/a	8	2.688802e-01	2.688802e-01
43.994003	0.583470	dec_choice	0.583470	16.000000	n/a	8	2.682292e-01	2.682292e-01
43.994003	0.583470	dec_nonsocial_accept	0.583470	16.000000	n/a	8	2.688802e-01	2.688802e-01
43.994003	0.583470	dec_accept	0.583470	16.000000	n/a	8	2.682292e-01	2.682292e-01
43.994003	0.583470	dec_nonsocial_accept_high	0.583470	16.000000	n/a	8	2.695312e-01	2.695312e-01
50.844242	0.683290	dec_social_choice	0.683290	32.000000	n/a	3	-1.373698e-01	-1.373698e-01
50.844242	0.683290	dec_choice	0.683290	32.000000	n/a	3	-1.367188e-01	-1.367188e-01
50.844242	0.683290	dec_social_accept	0.683290	32.000000	n/a	3	-1.373698e-01	-1.373698e-01
50.844242	0.683290	dec_accept	0.683290	32.000000	n/a	3	-1.367188e-01	-1.367188e-01
50.844242	0.683290	dec_social_low	0.683290	32.000000	n/a	3	-1.367188e-01	-1.367188e-01
50.844242	0.683290	dec_social_accept_low	0.683290	32.000000	n/a	3	-1.367188e-01	-1.367188e-01
61.728035	0.916037	dec_social_choice	0.916037	32.000000	n/a	16	2.688802e-01	2.688802e-01
61.728035	0.916037	dec_choice	0.916037	32.000000	n/a	16	2.695312e-01	2.695312e-01
61.728035	0.916037	dec_social_accept	0.916037	32.000000	n/a	16	2.688802e-01	2.688802e-01
61.728035	0.916037	dec_accept	0.916037	32.000000	n/a	16	2.695312e-01	2.695312e-01
61.728035	0.916037	dec_social_high	0.916037	32.000000	n/a	16	2.695312e-01	2.695312e-01
61.728035	0.916037	dec_social_accept_high	0.916037	32.000000	n/a	16	2.695312e-01	2.695312e-01
68.577190	0.833606	dec_nonsocial_choice	0.833606	32.000000	n/a	3	-1.373698e-01	-1.373698e-01
68.577190	0.833606	dec_choice	0.833606	32.000000	n/a	3	-1.380208e-01	-1.380208e-01
68.577190	0.833606	dec_nonsocial_accept	0.833606	32.000000	n/a	3	-1.373698e-01	-1.373698e-01
68.577190	0.833606	dec_accept	0.833606	32.000000	n/a	3	-1.380208e-01	-1.380208e-01
68.577190	0.833606	dec_nonsocial_accept_low	0.833606	32.000000	n/a	3	-1.367188e-01	-1.367188e-01
79.461010	0.582992	dec_nonsocial_choice	0.582992	32.000000	n/a	3	-1.373698e-01	-1.373698e-01
79.461010	0.582992	dec_choice	0.582992	32.000000	n/a	3	-1.380208e-01	-1.380208e-01
79.461010	0.582992	dec_nonsocial_accept	0.582992	32.000000	n/a	3	-1.373698e-01	-1.373698e-01
79.461010	0.582992	dec_accept	0.582992	32.000000	n/a	3	-1.380208e-01	-1.380208e-01
79.461010	0.582992	dec_nonsocial_accept_low	0.582992	32.000000	n/a	3	-1.367188e-01	-1.367188e-01
86.310684	0.666759	dec_social_choice	0.666759	16.000000	n/a	1	-1.686198e-01	-1.686198e-01
86.310684	0.666759	dec_choice	0.666759	16.000000	n/a	1	-1.679688e-01	-1.679688e-01
86.310684	0.666759	dec_social_accept	0.666759	16.000000	n/a	1	-1.686198e-01	-1.686198e-01
86.310684	0.666759	dec_accept	0.666759	16.000000	n/a	1	-1.679688e-01	-1.679688e-01
86.310684	0.666759	dec_social_accept_low	0.666759	16.000000	n/a	1	-1.679688e-01	-1.679688e-01
93.161310	0.765869	dec_nonsocial_choice	0.765869	16.000000	n/a	4	1.888021e-02	1.888021e-02
93.161310	0.765869	dec_choice	0.765869	16.000000	n/a	4	1.822917e-02	1.822917e-02
93.161310	0.765869	dec_nonsocial_accept	0.765869	16.000000	n/a	4	1.888021e-02	1.888021e-02
93.161310	0.765869	dec_accept	0.765869	16.000000	n/a	4	1.822917e-02	1.822917e-02
93.161310	0.765869	dec_nonsocial_high	0.765869	16.000000	n/a	4	1.822917e-02	1.822917e-02
93.161310	0.765869	dec_nonsocial_accept_high	0.765869	16.000000	n/a	4	1.822917e-02	1.822917e-02
105.660080	0.900713	dec_social_choice	0.900713	16.000000	n/a	4	1.888021e-02	1.888021e-02
105.660080	0.900713	dec_choice	0.900713	16.000000	n/a	4	1.953125e-02	1.953125e-02
105.660080	0.900713	dec_social_accept	0.900713	16.000000	n/a	4	1.888021e-02	1.888021e-02
105.660080	0.900713	dec_accept	0.900713	16.000000	n/a	4	1.953125e-02	1.953125e-02
105.660080	0.900713	dec_social_high	0.900713	16.000000	n/a	4	1.953125e-02	1.953125e-02
105.660080	0.900713	dec_social_accept_high	0.900713	16.000000	n/a	4	1.953125e-02	1.953125e-02
113.310460	0.650202	dec_nonsocial_choice	0.650202	16.000000	n/a	8	2.688802e-01	2.688802e-01
113.310460	0.650202	dec_choice	0.650202	16.000000	n/a	8	2.682292e-01	2.682292e-01
113.310460	0.650202	dec_nonsocial_accept	0.650202	16.000000	n/a	8	2.688802e-01	2.688802e-01
113.310460	0.650202	dec_accept	0.650202	16.000000	n/a	8	2.682292e-01	2.682292e-01
113.310460	0.650202	dec_nonsocial_high	0.650202	16.000000	n/a	8	2.682292e-01	2.682292e-01
113.310460	0.650202	dec_nonsocial_accept_high	0.650202	16.000000	n/a	8	2.682292e-01	2.682292e-01
122.577410	0.783086	dec_social_choice	0.783086	32.000000	n/a	8	1.888021e-02	1.888021e-02
122.577410	0.783086	dec_choice	0.783086	32.000000	n/a	8	1.953125e-02	1.953125e-02
122.577410	0.783086	dec_social_accept	0.783086	32.000000	n/a	8	1.888021e-02	1.888021e-02
122.577410	0.783086	dec_accept	0.783086	32.000000	n/a	8	1.953125e-02	1.953125e-02
122.577410	0.783086	dec_social_high	0.783086	32.000000	n/a	8	1.953125e-02	1.953125e-02
122.577410	0.783086	dec_social_accept_high	0.783086	32.000000	n/a	8	1.953125e-02	1.953125e-02
130.226960	0.600408	dec_nonsocial_choice	0.600408	32.000000	n/a	8	1.888021e-02	1.888021e-02
130.226960	0.600408	dec_choice	0.600408	32.000000	n/a	8	1.822917e-02	1.822917e-02
130.226960	0.600408	dec_nonsocial_accept	0.600408	32.000000	n/a	8	1.888021e-02	1.888021e-02
130.226960	0.600408	dec_accept	0.600408	32.000000	n/a	8	1.822917e-02	1.822917e-02
130.226960	0.600408	dec_nonsocial_accept_high	0.600408	32.000000	n/a	8	1.953125e-02	1.953125e-02
137.076840	1.050431	dec_nonsocial_choice	1.050431	32.000000	n/a	16	2.688802e-01	2.688802e-01
137.076840	1.050431	dec_choice	1.050431	32.000000	n/a	16	2.682292e-01	2.682292e-01
137.076840	1.050431	dec_nonsocial_accept	1.050431	32.000000	n/a	16	2.688802e-01	2.688802e-01
137.076840	1.050431	dec_accept	1.050431	32.000000	n/a	16	2.682292e-01	2.682292e-01
137.076840	1.050431	dec_nonsocial_accept_high	1.050431	32.000000	n/a	16	2.695312e-01	2.695312e-01
143.926620	0.650659	dec_social_choice	0.650659	16.000000	n/a	8	2.688802e-01	2.688802e-01
143.926620	0.650659	dec_choice	0.650659	16.000000	n/a	8	2.695312e-01	2.695312e-01
143.926620	0.650659	dec_social_accept	0.650659	16.000000	n/a	8	2.688802e-01	2.688802e-01
143.926620	0.650659	dec_accept	0.650659	16.000000	n/a	8	2.695312e-01	2.695312e-01
143.926620	0.650659	dec_social_accept_high	0.650659	16.000000	n/a	8	2.695312e-01	2.695312e-01
150.777340	0.699742	dec_social_choice	0.699742	32.000000	n/a	8	1.888021e-02	1.888021e-02
150.777340	0.699742	dec_choice	0.699742	32.000000	n/a	8	1.953125e-02	1.953125e-02
150.777340	0.699742	dec_social_accept	0.699742	32.000000	n/a	8	1.888021e-02	1.888021e-02
150.777340	0.699742	dec_accept	0.699742	32.000000	n/a	8	1.953125e-02	1.953125e-02
150.777340	0.699742	dec_social_high	0.699742	32.000000	n/a	8	1.953125e-02	1.953125e-02
150.777340	0.699742	dec_social_accept_high	0.699742	32.000000	n/a	8	1.953125e-02	1.953125e-02
158.428180	0.682316	dec_nonsocial_choice	0.682316	16.000000	n/a	2	-1.061198e-01	-1.061198e-01
158.428180	0.682316	dec_choice	0.682316	16.000000	n/a	2	-1.067708e-01	-1.067708e-01
158.428180	0.682316	dec_nonsocial_accept	0.682316	16.000000	n/a	2	-1.061198e-01	-1.061198e-01
158.428180	0.682316	dec_accept	0.682316	16.000000	n/a	2	-1.067708e-01	-1.067708e-01
158.428180	0.682316	dec_nonsocial_accept_low	0.682316	16.000000	n/a	2	-1.054688e-01	-1.054688e-01
165.276580	0.734156	dec_nonsocial_choice	0.734156	16.000000	n/a	8	2.688802e-01	2.688802e-01
165.276580	0.734156	dec_choice	0.734156	16.000000	n/a	8	2.682292e-01	2.682292e-01
165.276580	0.734156	dec_nonsocial_accept	0.734156	16.000000	n/a	8	2.688802e-01	2.688802e-01
165.276580	0.734156	dec_accept	0.734156	16.000000	n/a	8	2.682292e-01	2.682292e-01
165.276580	0.734156	dec_nonsocial_high	0.734156	16.000000	n/a	8	2.682292e-01	2.682292e-01
165.276580	0.734156	dec_nonsocial_accept_high	0.734156	16.000000	n/a	8	2.682292e-01	2.682292e-01
174.543900	0.666609	dec_nonsocial_choice	0.666609	32.000000	n/a	16	2.688802e-01	2.688802e-01
174.543900	0.666609	dec_choice	0.666609	32.000000	n/a	16	2.682292e-01	2.682292e-01
174.543900	0.666609	dec_nonsocial_accept	0.666609	32.000000	n/a	16	2.688802e-01	2.688802e-01
174.543900	0.666609	dec_accept	0.666609	32.000000	n/a	16	2.682292e-01	2.682292e-01
174.543900	0.666609	dec_nonsocial_high	0.666609	32.000000	n/a	16	2.682292e-01	2.682292e-01
174.543900	0.666609	dec_nonsocial_accept_high	0.666609	32.000000	n/a	16	2.682292e-01	2.682292e-01
182.193970	0.666508	dec_social_choice	0.666508	32.000000	n/a	8	1.888021e-02	1.888021e-02
182.193970	0.666508	dec_choice	0.666508	32.000000	n/a	8	1.953125e-02	1.953125e-02
182.193970	0.666508	dec_social_accept	0.666508	32.000000	n/a	8	1.888021e-02	1.888021e-02
182.193970	0.666508	dec_accept	0.666508	32.000000	n/a	8	1.953125e-02	1.953125e-02
182.193970	0.666508	dec_social_accept_high	0.666508	32.000000	n/a	8	1.953125e-02	1.953125e-02
189.844850	1.132222	dec_social_choice	1.132222	32.000000	n/a	16	2.688802e-01	2.688802e-01
189.844850	1.132222	dec_choice	1.132222	32.000000	n/a	16	2.695312e-01	2.695312e-01
189.844850	1.132222	dec_social_accept	1.132222	32.000000	n/a	16	2.688802e-01	2.688802e-01
189.844850	1.132222	dec_accept	1.132222	32.000000	n/a	16	2.695312e-01	2.695312e-01
189.844850	1.132222	dec_social_high	1.132222	32.000000	n/a	16	2.695312e-01	2.695312e-01
189.844850	1.132222	dec_social_accept_high	1.132222	32.000000	n/a	16	2.695312e-01	2.695312e-01
196.694320	0.782816	dec_social_choice	0.782816	32.000000	n/a	2	-1.686198e-01	-1.686198e-01
196.694320	0.782816	dec_choice	0.782816	32.000000	n/a	2	-1.679688e-01	-1.679688e-01
196.694320	0.782816	dec_social_accept	0.782816	32.000000	n/a	2	-1.686198e-01	-1.686198e-01
196.694320	0.782816	dec_accept	0.782816	32.000000	n/a	2	-1.679688e-01	-1.679688e-01
196.694320	0.782816	dec_social_low	0.782816	32.000000	n/a	2	-1.679688e-01	-1.679688e-01
196.694320	0.782816	dec_social_accept_low	0.782816	32.000000	n/a	2	-1.679688e-01	-1.679688e-01
204.343920	0.649826	dec_social_choice	0.649826	16.000000	n/a	8	2.688802e-01	2.688802e-01
204.343920	0.649826	dec_choice	0.649826	16.000000	n/a	8	2.695312e-01	2.695312e-01
204.343920	0.649826	dec_social_accept	0.649826	16.000000	n/a	8	2.688802e-01	2.688802e-01
204.343920	0.649826	dec_accept	0.649826	16.000000	n/a	8	2.695312e-01	2.695312e-01
204.343920	0.649826	dec_social_high	0.649826	16.000000	n/a	8	2.695312e-01	2.695312e-01
204.343920	0.649826	dec_social_accept_high	0.649826	16.000000	n/a	8	2.695312e-01	2.695312e-01
213.609880	0.650462	dec_nonsocial_choice	0.650462	16.000000	n/a	4	1.888021e-02	1.888021e-02
213.609880	0.650462	dec_choice	0.650462	16.000000	n/a	4	1.822917e-02	1.822917e-02
213.609880	0.650462	dec_nonsocial_accept	0.650462	16.000000	n/a	4	1.888021e-02	1.888021e-02
213.609880	0.650462	dec_accept	0.650462	16.000000	n/a	4	1.822917e-02	1.822917e-02
213.609880	0.650462	dec_nonsocial_high	0.650462	16.000000	n/a	4	1.822917e-02	1.822917e-02
213.609880	0.650462	dec_nonsocial_accept_high	0.650462	16.000000	n/a	4	1.822917e-02	1.822917e-02
221.259870	0.733843	dec_nonsocial_choice	0.733843	16.000000	n/a	1	-1.686198e-01	-1.686198e-01
221.259870	0.733843	dec_choice	0.733843	16.000000	n/a	1	-1.692708e-01	-1.692708e-01
221.259870	0.733843	dec_nonsocial_accept	0.733843	16.000000	n/a	1	-1.686198e-01	-1.686198e-01
221.259870	0.733843	dec_accept	0.733843	16.000000	n/a	1	-1.692708e-01	-1.692708e-01
221.259870	0.733843	dec_nonsocial_low	0.733843	16.000000	n/a	1	-1.692708e-01	-1.692708e-01
221.259870	0.733843	dec_nonsocial_accept_low	0.733843	16.000000	n/a	1	-1.692708e-01	-1.692708e-01
228.910860	0.749420	dec_social_choice	0.749420	16.000000	n/a	1	-1.686198e-01	-1.686198e-01
228.910860	0.749420	dec_choice	0.749420	16.000000	n/a	1	-1.679688e-01	-1.679688e-01
228.910860	0.749420	dec_social_accept	0.749420	16.000000	n/a	1	-1.686198e-01	-1.686198e-01
228.910860	0.749420	dec_accept	0.749420	16.000000	n/a	1	-1.679688e-01	-1.679688e-01
228.910860	0.749420	dec_social_low	0.749420	16.000000	n/a	1	-1.679688e-01	-1.679688e-01
228.910860	0.749420	dec_social_accept_low	0.749420	16.000000	n/a	1	-1.679688e-01	-1.679688e-01
235.760800	0.766182	dec_social_choice	0.766182	16.000000	n/a	2	-1.061198e-01	-1.061198e-01
235.760800	0.766182	dec_choice	0.766182	16.000000	n/a	2	-1.054688e-01	-1.054688e-01
235.760800	0.766182	dec_social_accept	0.766182	16.000000	n/a	2	-1.061198e-01	-1.061198e-01
235.760800	0.766182	dec_accept	0.766182	16.000000	n/a	2	-1.054688e-01	-1.054688e-01
235.760800	0.766182	dec_social_low	0.766182	16.000000	n/a	2	-1.054688e-01	-1.054688e-01
235.760800	0.766182	dec_social_accept_low	0.766182	16.000000	n/a	2	-1.054688e-01	-1.054688e-01
242.610800	0.999502	dec_nonsocial_choice	0.999502	32.000000	n/a	16	2.688802e-01	2.688802e-01
242.610800	0.999502	dec_choice	0.999502	32.000000	n/a	16	2.682292e-01	2.682292e-01
242.610800	0.999502	dec_nonsocial_accept	0.999502	32.000000	n/a	16	2.688802e-01	2.688802e-01
242.610800	0.999502	dec_accept	0.999502	32.000000	n/a	16	2.682292e-01	2.682292e-01
242.610800	0.999502	dec_nonsocial_high	0.999502	32.000000	n/a	16	2.682292e-01	2.682292e-01
242.610800	0.999502	dec_nonsocial_accept_high	0.999502	32.000000	n/a	16	2.682292e-01	2.682292e-01
251.876880	0.616683	dec_nonsocial_choice	0.616683	16.000000	n/a	2	-1.061198e-01	-1.061198e-01
251.876880	0.616683	dec_choice	0.616683	16.000000	n/a	2	-1.067708e-01	-1.067708e-01
251.876880	0.616683	dec_nonsocial_accept	0.616683	16.000000	n/a	2	-1.061198e-01	-1.061198e-01
251.876880	0.616683	dec_accept	0.616683	16.000000	n/a	2	-1.067708e-01	-1.067708e-01
251.876880	0.616683	dec_nonsocial_low	0.616683	16.000000	n/a	2	-1.067708e-01	-1.067708e-01
251.876880	0.616683	dec_nonsocial_accept_low	0.616683	16.000000	n/a	2	-1.067708e-01	-1.067708e-01
258.727020	0.733323	dec_social_choice	0.733323	16.000000	n/a	2	-1.061198e-01	-1.061198e-01
258.727020	0.733323	dec_choice	0.733323	16.000000	n/a	2	-1.054688e-01	-1.054688e-01
258.727020	0.733323	dec_social_accept	0.733323	16.000000	n/a	2	-1.061198e-01	-1.061198e-01
258.727020	0.733323	dec_accept	0.733323	16.000000	n/a	2	-1.054688e-01	-1.054688e-01
258.727020	0.733323	dec_social_low	0.733323	16.000000	n/a	2	-1.054688e-01	-1.054688e-01
258.727020	0.733323	dec_social_accept_low	0.733323	16.000000	n/a	2	-1.054688e-01	-1.054688e-01
265.576900	0.616627	dec_nonsocial_choice	0.616627	16.000000	n/a	4	1.888021e-02	1.888021e-02
265.576900	0.616627	dec_choice	0.616627	16.000000	n/a	4	1.822917e-02	1.822917e-02
265.576900	0.616627	dec_nonsocial_accept	0.616627	16.000000	n/a	4	1.888021e-02	1.888021e-02
265.576900	0.616627	dec_accept	0.616627	16.000000	n/a	4	1.822917e-02	1.822917e-02
265.576900	0.616627	dec_nonsocial_accept_high	0.616627	16.000000	n/a	4	1.953125e-02	1.953125e-02
272.426730	0.816971	dec_social_choice	0.816971	32.000000	n/a	2	-1.686198e-01	-1.686198e-01
272.426730	0.816971	dec_choice	0.816971	32.000000	n/a	2	-1.679688e-01	-1.679688e-01
272.426730	0.816971	dec_social_accept	0.816971	32.000000	n/a	2	-1.686198e-01	-1.686198e-01
272.426730	0.816971	dec_accept	0.816971	32.000000	n/a	2	-1.679688e-01	-1.679688e-01
272.426730	0.816971	dec_social_accept_low	0.816971	32.000000	n/a	2	-1.679688e-01	-1.679688e-01
281.693730	0.616447	dec_nonsocial_choice	0.616447	32.000000	n/a	2	-1.686198e-01	-1.686198e-01
281.693730	0.616447	dec_choice	0.616447	32.000000	n/a	2	-1.692708e-01	-1.692708e-01
281.693730	0.616447	dec_nonsocial_accept	0.616447	32.000000	n/a	2	-1.686198e-01	-1.686198e-01
281.693730	0.616447	dec_accept	0.616447	32.000000	n/a	2	-1.692708e-01	-1.692708e-01
281.693730	0.616447	dec_nonsocial_accept_low	0.616447	32.000000	n/a	2	-1.679688e-01	-1.679688e-01
290.959870	0.566795	dec_social_choice	0.566795	32.000000	n/a	3	-1.373698e-01	-1.373698e-01
290.959870	0.566795	dec_choice	0.566795	32.000000	n/a	3	-1.367188e-01	-1.367188e-01
290.959870	0.566795	dec_social_accept	0.566795	32.000000	n/a	3	-1.373698e-01	-1.373698e-01
290.959870	0.566795	dec_accept	0.566795	32.000000	n/a	3	-1.367188e-01	-1.367188e-01
290.959870	0.566795	dec_social_low	0.566795	32.000000	n/a	3	-1.367188e-01	-1.367188e-01
290.959870	0.566795	dec_social_accept_low	0.566795	32.000000	n/a	3	-1.367188e-01	-1.367188e-01
298.609860	0.733595	dec_social_choice	0.733595	16.000000	n/a	4	1.888021e-02	1.888021e-02
298.609860	0.733595	dec_choice	0.733595	16.000000	n/a	4	1.953125e-02	1.953125e-02
298.609860	0.733595	dec_social_accept	0.733595	16.000000	n/a	4	1.888021e-02	1.888021e-02
298.609860	0.733595	dec_accept	0.733595	16.000000	n/a	4	1.953125e-02	1.953125e-02
298.609860	0.733595	dec_social_high	0.733595	16.000000	n/a	4	1.953125e-02	1.953125e-02
298.609860	0.733595	dec_social_accept_high	0.733595	16.000000	n/a	4	1.953125e-02	1.953125e-02
305.460700	0.766264	dec_nonsocial_choice	0.766264	16.000000	n/a	2	-1.061198e-01	-1.061198e-01
305.460700	0.766264	dec_choice	0.766264	16.000000	n/a	2	-1.067708e-01	-1.067708e-01
305.460700	0.766264	dec_nonsocial_accept	0.766264	16.000000	n/a	2	-1.061198e-01	-1.061198e-01
305.460700	0.766264	dec_accept	0.766264	16.000000	n/a	2	-1.067708e-01	-1.067708e-01
305.460700	0.766264	dec_nonsocial_low	0.766264	16.000000	n/a	2	-1.067708e-01	-1.067708e-01
305.460700	0.766264	dec_nonsocial_accept_low	0.766264	16.000000	n/a	2	-1.067708e-01	-1.067708e-01
312.309450	0.633932	dec_nonsocial_choice	0.633932	16.000000	n/a	1	-1.686198e-01	-1.686198e-01
312.309450	0.633932	dec_choice	0.633932	16.000000	n/a	1	-1.692708e-01	-1.692708e-01
312.309450	0.633932	dec_nonsocial_accept	0.633932	16.000000	n/a	1	-1.686198e-01	-1.686198e-01
312.309450	0.633932	dec_accept	0.633932	16.000000	n/a	1	-1.692708e-01	-1.692708e-01
312.309450	0.633932	dec_nonsocial_accept_low	0.633932	16.000000	n/a	1	-1.679688e-01	-1.679688e-01
319.959630	0.800451	dec_social_choice	0.800451	32.000000	n/a	2	-1.686198e-01	-1.686198e-01
319.959630	0.800451	dec_choice	0.800451	32.000000	n/a	2	-1.679688e-01	-1.679688e-01
319.959630	0.800451	dec_social_accept	0.800451	32.000000	n/a	2	-1.686198e-01	-1.686198e-01
319.959630	0.800451	dec_accept	0.800451	32.000000	n/a	2	-1.679688e-01	-1.679688e-01
319.959630	0.800451	dec_social_low	0.800451	32.000000	n/a	2	-1.679688e-01	-1.679688e-01
319.959630	0.800451	dec_social_accept_low	0.800451	32.000000	n/a	2	-1.679688e-01	-1.679688e-01
326.810800	0.649446	dec_social_choice	0.649446	32.000000	n/a	3	-1.373698e-01	-1.373698e-01
326.810800	0.649446	dec_choice	0.649446	32.000000	n/a	3	-1.367188e-01	-1.367188e-01
326.810800	0.649446	dec_social_accept	0.649446	32.000000	n/a	3	-1.373698e-01	-1.373698e-01
326.810800	0.649446	dec_accept	0.649446	32.000000	n/a	3	-1.367188e-01	-1.367188e-01
326.810800	0.649446	dec_social_accept_low	0.649446	32.000000	n/a	3	-1.367188e-01	-1.367188e-01
333.659760	0.616947	dec_social_choice	0.616947	16.000000	n/a	4	1.888021e-02	1.888021e-02
333.659760	0.616947	dec_choice	0.616947	16.000000	n/a	4	1.953125e-02	1.953125e-02
333.659760	0.616947	dec_social_accept	0.616947	16.000000	n/a	4	1.888021e-02	1.888021e-02
333.659760	0.616947	dec_accept	0.616947	16.000000	n/a	4	1.953125e-02	1.953125e-02
333.659760	0.616947	dec_social_accept_high	0.616947	16.000000	n/a	4	1.953125e-02	1.953125e-02
340.509770	0.583545	dec_social_choice	0.583545	16.000000	n/a	8	2.688802e-01	2.688802e-01
340.509770	0.583545	dec_choice	0.583545	16.000000	n/a	8	2.695312e-01	2.695312e-01
340.509770	0.583545	dec_social_accept	0.583545	16.000000	n/a	8	2.688802e-01	2.688802e-01
340.509770	0.583545	dec_accept	0.583545	16.000000	n/a	8	2.695312e-01	2.695312e-01
340.509770	0.583545	dec_social_accept_high	0.583545	16.000000	n/a	8	2.695312e-01	2.695312e-01
347.360900	0.815721	dec_nonsocial_choice	0.815721	16.000000	n/a	1	-1.686198e-01	-1.686198e-01
347.360900	0.815721	dec_choice	0.815721	16.000000	n/a	1	-1.692708e-01	-1.692708e-01
347.360900	0.815721	dec_nonsocial_accept	0.815721	16.000000	n/a	1	-1.686198e-01	-1.686198e-01
347.360900	0.815721	dec_accept	0.815721	16.000000	n/a	1	-1.692708e-01	-1.692708e-01
347.360900	0.815721	dec_nonsocial_accept_low	0.815721	16.000000	n/a	1	-1.679688e-01	-1.679688e-01
358.243770	0.599451	dec_nonsocial_choice	0.599451	16.000000	n/a	2	-1.061198e-01	-1.061198e-01
358.243770	0.599451	dec_choice	0.599451	16.000000	n/a	2	-1.067708e-01	-1.067708e-01
358.243770	0.599451	dec_nonsocial_accept	0.599451	16.000000	n/a	2	-1.061198e-01	-1.061198e-01
358.243770	0.599451	dec_accept	0.599451	16.000000	n/a	2	-1.067708e-01	-1.067708e-01
358.243770	0.599451	dec_nonsocial_accept_low	0.599451	16.000000	n/a	2	-1.054688e-01	-1.054688e-01
365.892760	0.767119	dec_nonsocial_choice	0.767119	16.000000	n/a	4	1.888021e-02	1.888021e-02
365.892760	0.767119	dec_choice	0.767119	16.000000	n/a	4	1.822917e-02	1.822917e-02
365.892760	0.767119	dec_nonsocial_accept	0.767119	16.000000	n/a	4	1.888021e-02	1.888021e-02
365.892760	0.767119	dec_accept	0.767119	16.000000	n/a	4	1.822917e-02	1.822917e-02
365.892760	0.767119	dec_nonsocial_high	0.767119	16.000000	n/a	4	1.822917e-02	1.822917e-02
365.892760	0.767119	dec_nonsocial_accept_high	0.767119	16.000000	n/a	4	1.822917e-02	1.822917e-02
372.743770	0.749425	dec_social_choice	0.749425	16.000000	n/a	2	-1.061198e-01	-1.061198e-01
372.743770	0.749425	dec_choice	0.749425	16.000000	n/a	2	-1.054688e-01	-1.054688e-01
372.743770	0.749425	dec_social_accept	0.749425	16.000000	n/a	2	-1.061198e-01	-1.061198e-01
372.743770	0.749425	dec_accept	0.749425	16.000000	n/a	2	-1.054688e-01	-1.054688e-01
372.743770	0.749425	dec_social_low	0.749425	16.000000	n/a	2	-1.054688e-01	-1.054688e-01
372.743770	0.749425	dec_social_accept_low	0.749425	16.000000	n/a	2	-1.054688e-01	-1.054688e-01
