onset	duration	trial_type	rt	resp	gender	image_left	image_right
0.640503800008446	3.000834499951452	decision	1.5332637999672443	left	F	FF017.jpg	FF018.jpg
4.190637100022286	1.0165494000539184	loss	n/a	n/a	n/a	FF017.jpg	FF018.jpg
11.1738253000658	3.000636500073597	decision	1.7830679998733103	left	F	FF035.jpg	FF036.jpg
14.723807099973783	1.016685200156644	win	n/a	n/a	n/a	FF035.jpg	FF036.jpg
21.690527900122106	3.0020939998794347	decision	2.2824774999171495	right	F	FF021.jpg	FF022.jpg
25.24039819999598	1.000056799966842	loss	n/a	n/a	n/a	FF021.jpg	FF022.jpg
32.19042699993588	3.0018410000484437	decision	1.5333852001931518	left	M	MF025.jpg	MF026.jpg
35.740329900057986	1.0000012000091374	loss	n/a	n/a	n/a	MF025.jpg	MF026.jpg
38.49054290005006	3.0005487999878824	decision	2.5330793000757694	right	M	MF027.jpg	MF028.jpg
42.04034930001944	1.0000155000016093	loss	n/a	n/a	n/a	MF027.jpg	MF028.jpg
44.79050499992445	3.0021104000043124	decision	1.5326351001858711	left	M	MF023.jpg	MF024.jpg
48.34043550002389	1.016523600090295	win	n/a	n/a	n/a	MF023.jpg	MF024.jpg
51.10715369996615	3.001778000034392	decision	1.7834733000490814	left	F	FF037.jpg	FF038.jpg
54.656943100038916	1.0000432000961155	win	n/a	n/a	n/a	FF037.jpg	FF038.jpg
59.506962300045416	3.000609999988228	decision	1.533308699959889	left	M	MF011.jpg	MF012.jpg
63.056917200097814	1.0003661999944597	loss	n/a	n/a	n/a	MF011.jpg	MF012.jpg
67.90684160008095	3.001513099996373	decision	1.7829481000080705	right	F	FF009.jpg	FF010.jpg
71.45700419996865	1.0166144000831991	win	n/a	n/a	n/a	FF009.jpg	FF010.jpg
74.22372140013613	3.0002736998721957	decision	1.7831803997978568	left	F	FF027.jpg	FF028.jpg
77.7736458000727	1.0166835999116302	win	n/a	n/a	n/a	FF027.jpg	FF028.jpg
82.6403050001245	3.000767699908465	decision	1.5331790000200272	right	F	FF015.jpg	FF016.jpg
86.19019059999846	1.0001093000173569	loss	n/a	n/a	n/a	FF015.jpg	FF016.jpg
93.14029349992052	3.0014539000112563	decision	1.783650299999863	left	M	MF029.jpg	MF030.jpg
96.69020449998789	1.0001036000903696	loss	n/a	n/a	n/a	MF029.jpg	MF030.jpg
101.54089429997839	3.000626299995929	decision	2.5330688999965787	right	M	MF015.jpg	MF016.jpg
105.09046390000731	1.0164868999272585	win	n/a	n/a	n/a	MF015.jpg	MF016.jpg
112.05702179996297	3.0010188999585807	decision	1.783098400104791	right	M	MF007.jpg	MF008.jpg
115.60681420005858	1.016689300071448	win	n/a	n/a	n/a	MF007.jpg	MF008.jpg
120.473628600128	3.0017849998548627	decision	2.033319499809295	right	M	MF017.jpg	MF018.jpg
124.02358420006931	1.016629199963063	win	n/a	n/a	n/a	MF017.jpg	MF018.jpg
126.79032090003602	3.0016799999866635	decision	2.534271700074896	left	F	FF033.jpg	FF034.jpg
130.34028550004587	1.0166585999540985	win	n/a	n/a	n/a	FF033.jpg	FF034.jpg
133.10688149998896	3.000876000151038	decision	2.5331763001158834	left	F	FF007.jpg	FF008.jpg
136.65675959992222	1.0167919001542032	loss	n/a	n/a	n/a	FF007.jpg	FF008.jpg
139.42366830003448	3.001416499959305	decision	2.533079900080338	left	F	FF023.jpg	FF024.jpg
142.9735022999812	1.0000323001295328	loss	n/a	n/a	n/a	FF023.jpg	FF024.jpg
156.22362990002148	3.001323400065303	decision	2.7854512999765575	right	M	MF009.jpg	MF010.jpg
159.7734712001402	1.0000095998402685	loss	n/a	n/a	n/a	MF009.jpg	MF010.jpg
164.6236682999879	3.0014132999349385	decision	1.5322873999830335	left	F	FF001.jpg	FF002.jpg
168.17338289995678	1.0167452001478523	win	n/a	n/a	n/a	FF001.jpg	FF002.jpg
170.9401503999252	3.001801800215617	decision	1.532976800110191	right	M	MF019.jpg	MF020.jpg
174.49013240006752	1.0000310000032187	loss	n/a	n/a	n/a	MF019.jpg	MF020.jpg
181.44019079999998	3.0007462000939995	decision	1.532269800081849	left	F	FF031.jpg	FF032.jpg
184.99034809996374	1.0162678000051528	loss	n/a	n/a	n/a	FF031.jpg	FF032.jpg
189.85671910014935	3.0006192999426275	decision	1.7831262999679893	right	M	MF005.jpg	MF006.jpg
193.40660330001265	1.000007800059393	win	n/a	n/a	n/a	MF005.jpg	MF006.jpg
196.1566258999519	3.001195600023493	decision	2.7845714001450688	right	F	FF019.jpg	FF020.jpg
199.7067881000694	1.0165601999033242	win	n/a	n/a	n/a	FF019.jpg	FF020.jpg
206.67334650014527	3.0013119999784976	decision	2.28384599997662	left	M	MF013.jpg	MF014.jpg
210.22334880009294	1.0167614000383765	loss	n/a	n/a	n/a	MF013.jpg	MF014.jpg
217.19010780006647	3.0018883999437094	decision	2.282837599981576	right	M	MF031.jpg	MF032.jpg
220.7400146999862	1.0166802001185715	loss	n/a	n/a	n/a	MF031.jpg	MF032.jpg
225.60688610002398	3.0009828000329435	decision	1.5330612999387085	right	F	FF039.jpg	FF040.jpg
229.15654899994843	1.000033900141716	loss	n/a	n/a	n/a	FF039.jpg	FF040.jpg
231.9067429001443	3.0018273999448866	decision	1.5329986999277025	right	F	FF005.jpg	FF006.jpg
235.45657870010473	1.0000445998739451	loss	n/a	n/a	n/a	FF005.jpg	FF006.jpg
242.40659480006434	3.0014543998986483	decision	2.533381599932909	right	M	MF037.jpg	MF038.jpg
245.95659140008502	1.0167529999744147	loss	n/a	n/a	n/a	MF037.jpg	MF038.jpg
248.72343940008432	3.0500969998538494	decision	3.0495666000060737	left	M	MF039.jpg	MF040.jpg
252.32322790008038	1.0165593998972327	win	n/a	n/a	n/a	MF039.jpg	MF040.jpg
255.0899470001459	3.0015168997924775	decision	2.5338028999976814	right	M	MF033.jpg	MF034.jpg
258.6399137999397	1.0166603000834584	loss	n/a	n/a	n/a	MF033.jpg	MF034.jpg
261.40654659993015	3.001327200094238	decision	1.783043900039047	left	F	FF013.jpg	FF014.jpg
264.9564740001224	1.0165334998164326	win	n/a	n/a	n/a	FF013.jpg	FF014.jpg
269.82332780002616	3.0016938999760896	decision	2.7992032999172807	right	M	MF001.jpg	MF002.jpg
273.3732281001285	1.0165170999243855	win	n/a	n/a	n/a	MF001.jpg	MF002.jpg
276.13986500003375	3.0010174999479204	decision	1.7830010000616312	right	F	FF003.jpg	FF004.jpg
279.6897196001373	1.0167979998514056	win	n/a	n/a	n/a	FF003.jpg	FF004.jpg
284.55660709994845	3.001337200170383	decision	1.5328315000515431	left	M	MF003.jpg	MF004.jpg
288.1065209999215	1.0166015001013875	win	n/a	n/a	n/a	MF003.jpg	MF004.jpg
295.0732728999574	3.0016799001023173	decision	1.5328061999753118	right	F	FF025.jpg	FF026.jpg
298.62340579996817	1.016370400087908	win	n/a	n/a	n/a	FF025.jpg	FF026.jpg
305.58970539993607	3.0009769999887794	decision	1.533318200148642	left	M	MF035.jpg	MF036.jpg
309.139650200028	1.0000229000579566	win	n/a	n/a	n/a	MF035.jpg	MF036.jpg
311.89001170010306	3.001905999844894	decision	1.78282990003936	left	F	FF011.jpg	FF012.jpg
315.4394336999394	1.0000374000519514	loss	n/a	n/a	n/a	FF011.jpg	FF012.jpg
318.18974440009333	3.00206879992038	decision	2.032692400040105	left	M	MF021.jpg	MF022.jpg
321.7396166000981	1.0000599999912083	win	n/a	n/a	n/a	MF021.jpg	MF022.jpg
326.5897419000976	3.0012157999444753	decision	1.5331506000366062	left	F	FF029.jpg	FF030.jpg
330.13962600007653	1.0165597000159323	loss	n/a	n/a	n/a	FF029.jpg	FF030.jpg
