onset	duration	trial_type	response_time	Endowment	Endowment_pmod	Decision	Decision_pmod	Offer_pmod
4.594192	2	cue_social	n/a	32	7	n/a	n/a	n/a
4.594192	2	cue_social_high	n/a	32	7	n/a	n/a	n/a
13.866889	2	cue_social	n/a	16	-9	n/a	n/a	n/a
13.866889	2	cue_social_low	n/a	16	-9	n/a	n/a	n/a
21.510965	2	cue_social	n/a	16	-9	n/a	n/a	n/a
21.510965	2	cue_social_low	n/a	16	-9	n/a	n/a	n/a
28.256372	2	cue_nonsocial	n/a	32	7	n/a	n/a	n/a
28.256372	2	cue_nonsocial_high	n/a	32	7	n/a	n/a	n/a
36.002815	2	cue_social	n/a	16	-9	n/a	n/a	n/a
36.002815	2	cue_social_low	n/a	16	-9	n/a	n/a	n/a
43.539394	2	cue_nonsocial	n/a	16	-9	n/a	n/a	n/a
43.539394	2	cue_nonsocial_low	n/a	16	-9	n/a	n/a	n/a
54.406483	2	cue_nonsocial	n/a	32	7	n/a	n/a	n/a
54.406483	2	cue_nonsocial_high	n/a	32	7	n/a	n/a	n/a
65.353040	2	cue_social	n/a	32	7	n/a	n/a	n/a
65.353040	2	cue_social_high	n/a	32	7	n/a	n/a	n/a
74.601180	2	cue_social	n/a	16	-9	n/a	n/a	n/a
74.601180	2	cue_social_low	n/a	16	-9	n/a	n/a	n/a
81.356250	2	cue_nonsocial	n/a	32	7	n/a	n/a	n/a
81.356250	2	cue_nonsocial_high	n/a	32	7	n/a	n/a	n/a
88.189580	2	cue_nonsocial	n/a	32	7	n/a	n/a	n/a
88.189580	2	cue_nonsocial_high	n/a	32	7	n/a	n/a	n/a
95.022804	2	cue_nonsocial	n/a	32	7	n/a	n/a	n/a
95.022804	2	cue_nonsocial_high	n/a	32	7	n/a	n/a	n/a
104.273020	2	cue_nonsocial	n/a	16	-9	n/a	n/a	n/a
104.273020	2	cue_nonsocial_low	n/a	16	-9	n/a	n/a	n/a
111.106170	2	cue_nonsocial	n/a	32	7	n/a	n/a	n/a
111.106170	2	cue_nonsocial_high	n/a	32	7	n/a	n/a	n/a
120.459564	2	cue_social	n/a	32	7	n/a	n/a	n/a
120.459564	2	cue_social_high	n/a	32	7	n/a	n/a	n/a
128.102840	2	cue_social	n/a	32	7	n/a	n/a	n/a
128.102840	2	cue_social_high	n/a	32	7	n/a	n/a	n/a
134.839250	2	cue_nonsocial	n/a	16	-9	n/a	n/a	n/a
134.839250	2	cue_nonsocial_low	n/a	16	-9	n/a	n/a	n/a
142.584530	2	cue_social	n/a	32	7	n/a	n/a	n/a
142.584530	2	cue_social_high	n/a	32	7	n/a	n/a	n/a
151.818760	2	cue_social	n/a	32	7	n/a	n/a	n/a
151.818760	2	cue_social_high	n/a	32	7	n/a	n/a	n/a
158.589230	2	cue_nonsocial	n/a	32	7	n/a	n/a	n/a
158.589230	2	cue_nonsocial_high	n/a	32	7	n/a	n/a	n/a
166.288970	2	cue_social	n/a	16	-9	n/a	n/a	n/a
166.288970	2	cue_social_low	n/a	16	-9	n/a	n/a	n/a
178.722670	2	cue_nonsocial	n/a	16	-9	n/a	n/a	n/a
178.722670	2	cue_nonsocial_low	n/a	16	-9	n/a	n/a	n/a
185.608610	2	cue_social	n/a	16	-9	n/a	n/a	n/a
185.608610	2	cue_social_low	n/a	16	-9	n/a	n/a	n/a
192.388900	2	cue_nonsocial	n/a	16	-9	n/a	n/a	n/a
192.388900	2	cue_nonsocial_low	n/a	16	-9	n/a	n/a	n/a
199.222490	2	cue_nonsocial	n/a	16	-9	n/a	n/a	n/a
199.222490	2	cue_nonsocial_low	n/a	16	-9	n/a	n/a	n/a
206.119600	2	cue_social	n/a	32	7	n/a	n/a	n/a
206.119600	2	cue_social_high	n/a	32	7	n/a	n/a	n/a
213.768750	2	cue_social	n/a	32	7	n/a	n/a	n/a
213.768750	2	cue_social_high	n/a	32	7	n/a	n/a	n/a
220.599760	2	cue_social	n/a	16	-9	n/a	n/a	n/a
220.599760	2	cue_social_low	n/a	16	-9	n/a	n/a	n/a
227.372470	2	cue_nonsocial	n/a	32	7	n/a	n/a	n/a
227.372470	2	cue_nonsocial_high	n/a	32	7	n/a	n/a	n/a
234.205550	2	cue_nonsocial	n/a	32	7	n/a	n/a	n/a
234.205550	2	cue_nonsocial_high	n/a	32	7	n/a	n/a	n/a
241.092380	2	cue_social	n/a	16	-9	n/a	n/a	n/a
241.092380	2	cue_social_low	n/a	16	-9	n/a	n/a	n/a
248.688870	2	cue_nonsocial	n/a	32	7	n/a	n/a	n/a
248.688870	2	cue_nonsocial_high	n/a	32	7	n/a	n/a	n/a
256.339140	2	cue_nonsocial	n/a	16	-9	n/a	n/a	n/a
256.339140	2	cue_nonsocial_low	n/a	16	-9	n/a	n/a	n/a
264.030000	2	cue_social	n/a	32	7	n/a	n/a	n/a
264.030000	2	cue_social_high	n/a	32	7	n/a	n/a	n/a
273.300750	2	cue_social	n/a	32	7	n/a	n/a	n/a
273.300750	2	cue_social_high	n/a	32	7	n/a	n/a	n/a
280.072360	2	cue_nonsocial	n/a	32	7	n/a	n/a	n/a
280.072360	2	cue_nonsocial_high	n/a	32	7	n/a	n/a	n/a
286.972100	2	cue_social	n/a	16	-9	n/a	n/a	n/a
286.972100	2	cue_social_low	n/a	16	-9	n/a	n/a	n/a
293.738560	2	cue_nonsocial	n/a	32	7	n/a	n/a	n/a
293.738560	2	cue_nonsocial_high	n/a	32	7	n/a	n/a	n/a
301.439150	2	cue_social	n/a	32	7	n/a	n/a	n/a
301.439150	2	cue_social_high	n/a	32	7	n/a	n/a	n/a
309.038880	2	cue_nonsocial	n/a	16	-9	n/a	n/a	n/a
309.038880	2	cue_nonsocial_low	n/a	16	-9	n/a	n/a	n/a
316.689060	2	cue_nonsocial	n/a	32	7	n/a	n/a	n/a
316.689060	2	cue_nonsocial_high	n/a	32	7	n/a	n/a	n/a
323.591060	2	cue_social	n/a	32	7	n/a	n/a	n/a
323.591060	2	cue_social_high	n/a	32	7	n/a	n/a	n/a
330.419400	2	cue_social	n/a	16	-9	n/a	n/a	n/a
330.419400	2	cue_social_low	n/a	16	-9	n/a	n/a	n/a
337.188800	2	cue_nonsocial	n/a	16	-9	n/a	n/a	n/a
337.188800	2	cue_nonsocial_low	n/a	16	-9	n/a	n/a	n/a
346.455500	2	cue_nonsocial	n/a	32	7	n/a	n/a	n/a
346.455500	2	cue_nonsocial_high	n/a	32	7	n/a	n/a	n/a
353.347140	2	cue_social	n/a	16	-9	n/a	n/a	n/a
353.347140	2	cue_social_low	n/a	16	-9	n/a	n/a	n/a
360.122070	2	cue_nonsocial	n/a	16	-9	n/a	n/a	n/a
360.122070	2	cue_nonsocial_low	n/a	16	-9	n/a	n/a	n/a
367.017000	2	cue_social	n/a	32	7	n/a	n/a	n/a
367.017000	2	cue_social_high	n/a	32	7	n/a	n/a	n/a
6.513198	1.315778	dec_social_choice	1.315778	32.000000	n/a	3	-1.356383e-01	-1.356383e-01
6.513198	1.315778	dec_choice	1.315778	32.000000	n/a	3	-1.367188e-01	-1.367188e-01
6.513198	1.315778	dec_social_accept	1.315778	32.000000	n/a	3	-2.453704e-01	-2.453704e-01
6.513198	1.315778	dec_accept	1.315778	32.000000	n/a	3	-2.250000e-01	-2.250000e-01
6.513198	1.315778	dec_social_low	1.315778	32.000000	n/a	3	-1.367188e-01	-1.367188e-01
6.513198	1.315778	dec_social_accept_low	1.315778	32.000000	n/a	3	-1.367188e-01	-1.367188e-01
15.779375	1.400041	dec_social_choice	1.400041	16.000000	n/a	8	2.706117e-01	2.706117e-01
15.779375	1.400041	dec_choice	1.400041	16.000000	n/a	8	2.695312e-01	2.695312e-01
15.779375	1.400041	dec_social_accept	1.400041	16.000000	n/a	8	1.608796e-01	1.608796e-01
15.779375	1.400041	dec_accept	1.400041	16.000000	n/a	8	1.812500e-01	1.812500e-01
15.779375	1.400041	dec_social_high	1.400041	16.000000	n/a	8	2.695312e-01	2.695312e-01
15.779375	1.400041	dec_social_accept_high	1.400041	16.000000	n/a	8	2.695312e-01	2.695312e-01
23.430212	1.598978	dec_social_choice	1.598978	16.000000	n/a	0	0	-2.293883e-01
23.430212	1.598978	dec_choice	1.598978	16.000000	n/a	0	0	-2.304688e-01
23.430212	1.598978	dec_social_reject	1.598978	16.000000	n/a	0	0	4.375000e-02
23.430212	1.598978	dec_reject	1.598978	16.000000	n/a	0	0	4.166667e-02
23.430212	1.598978	dec_social_reject_low	1.598978	16.000000	n/a	2	-1.054688e-01	-2.304688e-01
30.262136	1.334000	dec_nonsocial_choice	1.334000	32.000000	n/a	16	2.706117e-01	2.706117e-01
30.262136	1.334000	dec_choice	1.334000	32.000000	n/a	16	2.717391e-01	2.717391e-01
30.262136	1.334000	dec_nonsocial_accept	1.334000	32.000000	n/a	16	1.608796e-01	1.608796e-01
30.262136	1.334000	dec_accept	1.334000	32.000000	n/a	16	1.354167e-01	1.354167e-01
30.262136	1.334000	dec_nonsocial_accept_high	1.334000	32.000000	n/a	16	1.812500e-01	1.812500e-01
37.896915	1.165366	dec_social_choice	1.165366	16.000000	n/a	0	0	-2.293883e-01
37.896915	1.165366	dec_choice	1.165366	16.000000	n/a	0	0	-2.304688e-01
37.896915	1.165366	dec_social_reject	1.165366	16.000000	n/a	0	0	4.375000e-02
37.896915	1.165366	dec_reject	1.165366	16.000000	n/a	0	0	4.166667e-02
37.896915	1.165366	dec_social_low	1.165366	16.000000	n/a	0	-2.304688e-01	-2.304688e-01
37.896915	1.165366	dec_social_reject_low	1.165366	16.000000	n/a	2	-1.054688e-01	-2.304688e-01
45.546074	1.249656	dec_nonsocial_choice	1.249656	16.000000	n/a	0	0	-2.293883e-01
45.546074	1.249656	dec_choice	1.249656	16.000000	n/a	0	0	-2.282609e-01
45.546074	1.249656	dec_nonsocial_reject	1.249656	16.000000	n/a	0	0	4.375000e-02
45.546074	1.249656	dec_reject	1.249656	16.000000	n/a	0	0	4.545455e-02
45.546074	1.249656	dec_nonsocial_low	1.249656	16.000000	n/a	0	-2.282609e-01	-2.282609e-01
45.546074	1.249656	dec_nonsocial_reject_low	1.249656	16.000000	n/a	2	4.545455e-02	-7.954545e-02
56.412940	1.282977	dec_nonsocial_choice	1.282977	32.000000	n/a	0	0	-2.293883e-01
56.412940	1.282977	dec_choice	1.282977	32.000000	n/a	0	0	-2.282609e-01
56.412940	1.282977	dec_nonsocial_reject	1.282977	32.000000	n/a	0	0	-1.875000e-02
56.412940	1.282977	dec_reject	1.282977	32.000000	n/a	0	0	-1.704545e-02
56.412940	1.282977	dec_nonsocial_low	1.282977	32.000000	n/a	0	-2.282609e-01	-2.282609e-01
56.412940	1.282977	dec_nonsocial_reject_low	1.282977	32.000000	n/a	2	-1.704545e-02	-7.954545e-02
67.278250	1.517614	dec_social_choice	1.517614	32.000000	n/a	0	0	-2.293883e-01
67.278250	1.517614	dec_choice	1.517614	32.000000	n/a	0	0	-2.304688e-01
67.278250	1.517614	dec_social_reject	1.517614	32.000000	n/a	0	0	-1.875000e-02
67.278250	1.517614	dec_reject	1.517614	32.000000	n/a	0	0	-2.083333e-02
67.278250	1.517614	dec_social_low	1.517614	32.000000	n/a	0	-2.304688e-01	-2.304688e-01
67.278250	1.517614	dec_social_reject_low	1.517614	32.000000	n/a	2	-1.679688e-01	-2.304688e-01
76.529560	1.999354	dec_social_choice	1.999354	16.000000	n/a	0	0	-2.293883e-01
76.529560	1.999354	dec_choice	1.999354	16.000000	n/a	0	0	-2.304688e-01
76.529560	1.999354	dec_social_reject	1.999354	16.000000	n/a	0	0	-1.875000e-02
76.529560	1.999354	dec_reject	1.999354	16.000000	n/a	0	0	-2.083333e-02
76.529560	1.999354	dec_social_reject_low	1.999354	16.000000	n/a	1	-1.679688e-01	-2.304688e-01
83.362820	1.549912	dec_nonsocial_choice	1.549912	32.000000	n/a	8	2.061170e-02	2.061170e-02
83.362820	1.549912	dec_choice	1.549912	32.000000	n/a	8	2.173913e-02	2.173913e-02
83.362820	1.549912	dec_nonsocial_accept	1.549912	32.000000	n/a	8	-8.912037e-02	-8.912037e-02
83.362820	1.549912	dec_accept	1.549912	32.000000	n/a	8	-1.145833e-01	-1.145833e-01
83.362820	1.549912	dec_nonsocial_high	1.549912	32.000000	n/a	8	2.173913e-02	2.173913e-02
83.362820	1.549912	dec_nonsocial_accept_high	1.549912	32.000000	n/a	8	-1.145833e-01	-1.145833e-01
90.195040	1.300979	dec_nonsocial_choice	1.300979	32.000000	n/a	0	0	-2.293883e-01
90.195040	1.300979	dec_choice	1.300979	32.000000	n/a	0	0	-2.282609e-01
90.195040	1.300979	dec_nonsocial_reject	1.300979	32.000000	n/a	0	0	1.250000e-02
90.195040	1.300979	dec_reject	1.300979	32.000000	n/a	0	0	1.420455e-02
90.195040	1.300979	dec_nonsocial_reject_low	1.300979	32.000000	n/a	3	1.041667e-02	-8.333333e-02
97.029526	1.099741	dec_nonsocial_choice	1.099741	32.000000	n/a	0	0	-2.293883e-01
97.029526	1.099741	dec_choice	1.099741	32.000000	n/a	0	0	-2.282609e-01
97.029526	1.099741	dec_nonsocial_reject	1.099741	32.000000	n/a	0	0	1.250000e-02
97.029526	1.099741	dec_reject	1.099741	32.000000	n/a	0	0	1.420455e-02
97.029526	1.099741	dec_nonsocial_reject_low	1.099741	32.000000	n/a	3	1.041667e-02	-8.333333e-02
106.279830	1.315615	dec_nonsocial_choice	1.315615	16.000000	n/a	8	2.706117e-01	2.706117e-01
106.279830	1.315615	dec_choice	1.315615	16.000000	n/a	8	2.717391e-01	2.717391e-01
106.279830	1.315615	dec_nonsocial_accept	1.315615	16.000000	n/a	8	1.608796e-01	1.608796e-01
106.279830	1.315615	dec_accept	1.315615	16.000000	n/a	8	1.354167e-01	1.354167e-01
106.279830	1.315615	dec_nonsocial_high	1.315615	16.000000	n/a	8	2.717391e-01	2.717391e-01
106.279830	1.315615	dec_nonsocial_accept_high	1.315615	16.000000	n/a	8	1.354167e-01	1.354167e-01
113.113570	1.082478	dec_nonsocial_choice	1.082478	32.000000	n/a	8	2.061170e-02	2.061170e-02
113.113570	1.082478	dec_choice	1.082478	32.000000	n/a	8	2.173913e-02	2.173913e-02
113.113570	1.082478	dec_nonsocial_accept	1.082478	32.000000	n/a	8	-8.912037e-02	-8.912037e-02
113.113570	1.082478	dec_accept	1.082478	32.000000	n/a	8	-1.145833e-01	-1.145833e-01
113.113570	1.082478	dec_nonsocial_high	1.082478	32.000000	n/a	8	2.173913e-02	2.173913e-02
113.113570	1.082478	dec_nonsocial_accept_high	1.082478	32.000000	n/a	8	-1.145833e-01	-1.145833e-01
122.363050	2.282693	dec_social_choice	2.282693	32.000000	n/a	8	2.061170e-02	2.061170e-02
122.363050	2.282693	dec_choice	2.282693	32.000000	n/a	8	1.953125e-02	1.953125e-02
122.363050	2.282693	dec_social_accept	2.282693	32.000000	n/a	8	-8.912037e-02	-8.912037e-02
122.363050	2.282693	dec_accept	2.282693	32.000000	n/a	8	-6.875000e-02	-6.875000e-02
122.363050	2.282693	dec_social_accept_high	2.282693	32.000000	n/a	8	1.953125e-02	1.953125e-02
130.012070	1.366703	dec_social_choice	1.366703	32.000000	n/a	16	2.706117e-01	2.706117e-01
130.012070	1.366703	dec_choice	1.366703	32.000000	n/a	16	2.695312e-01	2.695312e-01
130.012070	1.366703	dec_social_accept	1.366703	32.000000	n/a	16	1.608796e-01	1.608796e-01
130.012070	1.366703	dec_accept	1.366703	32.000000	n/a	16	1.812500e-01	1.812500e-01
130.012070	1.366703	dec_social_high	1.366703	32.000000	n/a	16	2.695312e-01	2.695312e-01
130.012070	1.366703	dec_social_accept_high	1.366703	32.000000	n/a	16	2.695312e-01	2.695312e-01
136.846420	1.165668	dec_nonsocial_choice	1.165668	16.000000	n/a	8	2.706117e-01	2.706117e-01
136.846420	1.165668	dec_choice	1.165668	16.000000	n/a	8	2.717391e-01	2.717391e-01
136.846420	1.165668	dec_nonsocial_accept	1.165668	16.000000	n/a	8	1.608796e-01	1.608796e-01
136.846420	1.165668	dec_accept	1.165668	16.000000	n/a	8	1.354167e-01	1.354167e-01
136.846420	1.165668	dec_nonsocial_high	1.165668	16.000000	n/a	8	2.717391e-01	2.717391e-01
136.846420	1.165668	dec_nonsocial_accept_high	1.165668	16.000000	n/a	8	1.354167e-01	1.354167e-01
144.496840	1.548933	dec_social_choice	1.548933	32.000000	n/a	2	-1.668883e-01	-1.668883e-01
144.496840	1.548933	dec_choice	1.548933	32.000000	n/a	2	-1.679688e-01	-1.679688e-01
144.496840	1.548933	dec_social_accept	1.548933	32.000000	n/a	2	-2.766204e-01	-2.766204e-01
144.496840	1.548933	dec_accept	1.548933	32.000000	n/a	2	-2.562500e-01	-2.562500e-01
144.496840	1.548933	dec_social_accept_low	1.548933	32.000000	n/a	2	-1.679688e-01	-1.679688e-01
153.763050	1.015818	dec_social_choice	1.015818	32.000000	n/a	8	2.061170e-02	2.061170e-02
153.763050	1.015818	dec_choice	1.015818	32.000000	n/a	8	1.953125e-02	1.953125e-02
153.763050	1.015818	dec_social_accept	1.015818	32.000000	n/a	8	-8.912037e-02	-8.912037e-02
153.763050	1.015818	dec_accept	1.015818	32.000000	n/a	8	-6.875000e-02	-6.875000e-02
153.763050	1.015818	dec_social_high	1.015818	32.000000	n/a	8	1.953125e-02	1.953125e-02
153.763050	1.015818	dec_social_accept_high	1.015818	32.000000	n/a	8	1.953125e-02	1.953125e-02
160.595720	1.583529	dec_nonsocial_choice	1.583529	32.000000	n/a	0	0	-2.293883e-01
160.595720	1.583529	dec_choice	1.583529	32.000000	n/a	0	0	-2.282609e-01
160.595720	1.583529	dec_nonsocial_reject	1.583529	32.000000	n/a	0	0	-1.875000e-02
160.595720	1.583529	dec_reject	1.583529	32.000000	n/a	0	0	-1.704545e-02
160.595720	1.583529	dec_nonsocial_reject_low	1.583529	32.000000	n/a	2	-2.083333e-02	-8.333333e-02
168.244920	0.950836	dec_social_choice	0.950836	16.000000	n/a	8	2.706117e-01	2.706117e-01
168.244920	0.950836	dec_choice	0.950836	16.000000	n/a	8	2.695312e-01	2.695312e-01
168.244920	0.950836	dec_social_accept	0.950836	16.000000	n/a	8	1.608796e-01	1.608796e-01
168.244920	0.950836	dec_accept	0.950836	16.000000	n/a	8	1.812500e-01	1.812500e-01
168.244920	0.950836	dec_social_high	0.950836	16.000000	n/a	8	2.695312e-01	2.695312e-01
168.244920	0.950836	dec_social_accept_high	0.950836	16.000000	n/a	8	2.695312e-01	2.695312e-01
180.728180	1.784022	dec_nonsocial_choice	1.784022	16.000000	n/a	4	2.061170e-02	2.061170e-02
180.728180	1.784022	dec_choice	1.784022	16.000000	n/a	4	2.173913e-02	2.173913e-02
180.728180	1.784022	dec_nonsocial_accept	1.784022	16.000000	n/a	4	-8.912037e-02	-8.912037e-02
180.728180	1.784022	dec_accept	1.784022	16.000000	n/a	4	-1.145833e-01	-1.145833e-01
180.728180	1.784022	dec_nonsocial_accept_high	1.784022	16.000000	n/a	4	-6.875000e-02	-6.875000e-02
187.561940	1.333730	dec_social_choice	1.333730	16.000000	n/a	2	-1.043883e-01	-1.043883e-01
187.561940	1.333730	dec_choice	1.333730	16.000000	n/a	2	-1.054688e-01	-1.054688e-01
187.561940	1.333730	dec_social_accept	1.333730	16.000000	n/a	2	-2.141204e-01	-2.141204e-01
187.561940	1.333730	dec_accept	1.333730	16.000000	n/a	2	-1.937500e-01	-1.937500e-01
187.561940	1.333730	dec_social_accept_low	1.333730	16.000000	n/a	2	-1.054688e-01	-1.054688e-01
194.396160	1.249189	dec_nonsocial_choice	1.249189	16.000000	n/a	0	0	-2.293883e-01
194.396160	1.249189	dec_choice	1.249189	16.000000	n/a	0	0	-2.282609e-01
194.396160	1.249189	dec_nonsocial_reject	1.249189	16.000000	n/a	0	0	-1.875000e-02
194.396160	1.249189	dec_reject	1.249189	16.000000	n/a	0	0	-1.704545e-02
194.396160	1.249189	dec_nonsocial_low	1.249189	16.000000	n/a	0	-2.282609e-01	-2.282609e-01
194.396160	1.249189	dec_nonsocial_reject_low	1.249189	16.000000	n/a	1	-1.704545e-02	-7.954545e-02
201.229780	1.015561	dec_nonsocial_choice	1.015561	16.000000	n/a	4	2.061170e-02	2.061170e-02
201.229780	1.015561	dec_choice	1.015561	16.000000	n/a	4	2.173913e-02	2.173913e-02
201.229780	1.015561	dec_nonsocial_accept	1.015561	16.000000	n/a	4	-8.912037e-02	-8.912037e-02
201.229780	1.015561	dec_accept	1.015561	16.000000	n/a	4	-1.145833e-01	-1.145833e-01
201.229780	1.015561	dec_nonsocial_high	1.015561	16.000000	n/a	4	2.173913e-02	2.173913e-02
201.229780	1.015561	dec_nonsocial_accept_high	1.015561	16.000000	n/a	4	-1.145833e-01	-1.145833e-01
208.062300	1.365813	dec_social_choice	1.365813	32.000000	n/a	0	0	-2.293883e-01
208.062300	1.365813	dec_choice	1.365813	32.000000	n/a	0	0	-2.304688e-01
208.062300	1.365813	dec_social_reject	1.365813	32.000000	n/a	0	0	-1.875000e-02
208.062300	1.365813	dec_reject	1.365813	32.000000	n/a	0	0	-2.083333e-02
208.062300	1.365813	dec_social_low	1.365813	32.000000	n/a	0	-2.304688e-01	-2.304688e-01
208.062300	1.365813	dec_social_reject_low	1.365813	32.000000	n/a	2	-1.679688e-01	-2.304688e-01
215.711400	0.967050	dec_social_choice	0.967050	32.000000	n/a	16	2.706117e-01	2.706117e-01
215.711400	0.967050	dec_choice	0.967050	32.000000	n/a	16	2.695312e-01	2.695312e-01
215.711400	0.967050	dec_social_accept	0.967050	32.000000	n/a	16	1.608796e-01	1.608796e-01
215.711400	0.967050	dec_accept	0.967050	32.000000	n/a	16	1.812500e-01	1.812500e-01
215.711400	0.967050	dec_social_accept_high	0.967050	32.000000	n/a	16	2.695312e-01	2.695312e-01
222.545940	1.415889	dec_social_choice	1.415889	16.000000	n/a	0	0	-2.293883e-01
222.545940	1.415889	dec_choice	1.415889	16.000000	n/a	0	0	-2.304688e-01
222.545940	1.415889	dec_social_reject	1.415889	16.000000	n/a	0	0	-1.875000e-02
222.545940	1.415889	dec_reject	1.415889	16.000000	n/a	0	0	-2.083333e-02
222.545940	1.415889	dec_social_reject_low	1.415889	16.000000	n/a	1	-1.679688e-01	-2.304688e-01
229.379100	1.383434	dec_nonsocial_choice	1.383434	32.000000	n/a	16	2.706117e-01	2.706117e-01
229.379100	1.383434	dec_choice	1.383434	32.000000	n/a	16	2.717391e-01	2.717391e-01
229.379100	1.383434	dec_nonsocial_accept	1.383434	32.000000	n/a	16	1.608796e-01	1.608796e-01
229.379100	1.383434	dec_accept	1.383434	32.000000	n/a	16	1.354167e-01	1.354167e-01
229.379100	1.383434	dec_nonsocial_accept_high	1.383434	32.000000	n/a	16	1.812500e-01	1.812500e-01
236.211230	1.234193	dec_nonsocial_choice	1.234193	32.000000	n/a	16	2.706117e-01	2.706117e-01
236.211230	1.234193	dec_choice	1.234193	32.000000	n/a	16	2.717391e-01	2.717391e-01
236.211230	1.234193	dec_nonsocial_accept	1.234193	32.000000	n/a	16	1.608796e-01	1.608796e-01
236.211230	1.234193	dec_accept	1.234193	32.000000	n/a	16	1.354167e-01	1.354167e-01
236.211230	1.234193	dec_nonsocial_accept_high	1.234193	32.000000	n/a	16	1.812500e-01	1.812500e-01
243.045410	1.149994	dec_social_choice	1.149994	16.000000	n/a	4	2.061170e-02	2.061170e-02
243.045410	1.149994	dec_choice	1.149994	16.000000	n/a	4	1.953125e-02	1.953125e-02
243.045410	1.149994	dec_social_accept	1.149994	16.000000	n/a	4	-8.912037e-02	-8.912037e-02
243.045410	1.149994	dec_accept	1.149994	16.000000	n/a	4	-6.875000e-02	-6.875000e-02
243.045410	1.149994	dec_social_accept_high	1.149994	16.000000	n/a	4	1.953125e-02	1.953125e-02
250.695080	1.084126	dec_nonsocial_choice	1.084126	32.000000	n/a	16	2.706117e-01	2.706117e-01
250.695080	1.084126	dec_choice	1.084126	32.000000	n/a	16	2.717391e-01	2.717391e-01
250.695080	1.084126	dec_nonsocial_accept	1.084126	32.000000	n/a	16	1.608796e-01	1.608796e-01
250.695080	1.084126	dec_accept	1.084126	32.000000	n/a	16	1.354167e-01	1.354167e-01
250.695080	1.084126	dec_nonsocial_high	1.084126	32.000000	n/a	16	2.717391e-01	2.717391e-01
250.695080	1.084126	dec_nonsocial_accept_high	1.084126	32.000000	n/a	16	1.354167e-01	1.354167e-01
258.345100	1.133450	dec_nonsocial_choice	1.133450	16.000000	n/a	4	2.061170e-02	2.061170e-02
258.345100	1.133450	dec_choice	1.133450	16.000000	n/a	4	2.173913e-02	2.173913e-02
258.345100	1.133450	dec_nonsocial_accept	1.133450	16.000000	n/a	4	-8.912037e-02	-8.912037e-02
258.345100	1.133450	dec_accept	1.133450	16.000000	n/a	4	-1.145833e-01	-1.145833e-01
258.345100	1.133450	dec_nonsocial_high	1.133450	16.000000	n/a	4	2.173913e-02	2.173913e-02
258.345100	1.133450	dec_nonsocial_accept_high	1.133450	16.000000	n/a	4	-1.145833e-01	-1.145833e-01
265.995100	1.250719	dec_social_choice	1.250719	32.000000	n/a	0	0	-2.293883e-01
265.995100	1.250719	dec_choice	1.250719	32.000000	n/a	0	0	-2.304688e-01
265.995100	1.250719	dec_social_reject	1.250719	32.000000	n/a	0	0	1.250000e-02
265.995100	1.250719	dec_reject	1.250719	32.000000	n/a	0	0	1.041667e-02
265.995100	1.250719	dec_social_reject_low	1.250719	32.000000	n/a	3	-1.367188e-01	-2.304688e-01
275.245480	1.116253	dec_social_choice	1.116253	32.000000	n/a	8	2.061170e-02	2.061170e-02
275.245480	1.116253	dec_choice	1.116253	32.000000	n/a	8	1.953125e-02	1.953125e-02
275.245480	1.116253	dec_social_accept	1.116253	32.000000	n/a	8	-8.912037e-02	-8.912037e-02
275.245480	1.116253	dec_accept	1.116253	32.000000	n/a	8	-6.875000e-02	-6.875000e-02
275.245480	1.116253	dec_social_high	1.116253	32.000000	n/a	8	1.953125e-02	1.953125e-02
275.245480	1.116253	dec_social_accept_high	1.116253	32.000000	n/a	8	1.953125e-02	1.953125e-02
282.079280	1.482667	dec_nonsocial_choice	1.482667	32.000000	n/a	0	0	-2.293883e-01
282.079280	1.482667	dec_choice	1.482667	32.000000	n/a	0	0	-2.282609e-01
282.079280	1.482667	dec_nonsocial_reject	1.482667	32.000000	n/a	0	0	-1.875000e-02
282.079280	1.482667	dec_reject	1.482667	32.000000	n/a	0	0	-1.704545e-02
282.079280	1.482667	dec_nonsocial_reject_low	1.482667	32.000000	n/a	2	-2.083333e-02	-8.333333e-02
288.913020	1.265302	dec_social_choice	1.265302	16.000000	n/a	8	2.706117e-01	2.706117e-01
288.913020	1.265302	dec_choice	1.265302	16.000000	n/a	8	2.695312e-01	2.695312e-01
288.913020	1.265302	dec_social_accept	1.265302	16.000000	n/a	8	1.608796e-01	1.608796e-01
288.913020	1.265302	dec_accept	1.265302	16.000000	n/a	8	1.812500e-01	1.812500e-01
288.913020	1.265302	dec_social_high	1.265302	16.000000	n/a	8	2.695312e-01	2.695312e-01
288.913020	1.265302	dec_social_accept_high	1.265302	16.000000	n/a	8	2.695312e-01	2.695312e-01
295.746280	1.265515	dec_nonsocial_choice	1.265515	32.000000	n/a	0	0	-2.293883e-01
295.746280	1.265515	dec_choice	1.265515	32.000000	n/a	0	0	-2.282609e-01
295.746280	1.265515	dec_nonsocial_reject	1.265515	32.000000	n/a	0	0	1.250000e-02
295.746280	1.265515	dec_reject	1.265515	32.000000	n/a	0	0	1.420455e-02
295.746280	1.265515	dec_nonsocial_low	1.265515	32.000000	n/a	0	-2.282609e-01	-2.282609e-01
295.746280	1.265515	dec_nonsocial_reject_low	1.265515	32.000000	n/a	3	1.420455e-02	-7.954545e-02
303.395140	1.166320	dec_social_choice	1.166320	32.000000	n/a	8	2.061170e-02	2.061170e-02
303.395140	1.166320	dec_choice	1.166320	32.000000	n/a	8	1.953125e-02	1.953125e-02
303.395140	1.166320	dec_social_accept	1.166320	32.000000	n/a	8	-8.912037e-02	-8.912037e-02
303.395140	1.166320	dec_accept	1.166320	32.000000	n/a	8	-6.875000e-02	-6.875000e-02
303.395140	1.166320	dec_social_high	1.166320	32.000000	n/a	8	1.953125e-02	1.953125e-02
303.395140	1.166320	dec_social_accept_high	1.166320	32.000000	n/a	8	1.953125e-02	1.953125e-02
311.045350	1.349830	dec_nonsocial_choice	1.349830	16.000000	n/a	0	0	-2.293883e-01
311.045350	1.349830	dec_choice	1.349830	16.000000	n/a	0	0	-2.282609e-01
311.045350	1.349830	dec_nonsocial_reject	1.349830	16.000000	n/a	0	0	-1.875000e-02
311.045350	1.349830	dec_reject	1.349830	16.000000	n/a	0	0	-1.704545e-02
311.045350	1.349830	dec_nonsocial_low	1.349830	16.000000	n/a	0	-2.282609e-01	-2.282609e-01
311.045350	1.349830	dec_nonsocial_reject_low	1.349830	16.000000	n/a	1	-1.704545e-02	-7.954545e-02
318.696100	1.232460	dec_nonsocial_choice	1.232460	32.000000	n/a	0	0	-2.293883e-01
318.696100	1.232460	dec_choice	1.232460	32.000000	n/a	0	0	-2.282609e-01
318.696100	1.232460	dec_nonsocial_reject	1.232460	32.000000	n/a	0	0	-1.875000e-02
318.696100	1.232460	dec_reject	1.232460	32.000000	n/a	0	0	-1.704545e-02
318.696100	1.232460	dec_nonsocial_low	1.232460	32.000000	n/a	0	-2.282609e-01	-2.282609e-01
318.696100	1.232460	dec_nonsocial_reject_low	1.232460	32.000000	n/a	2	-1.704545e-02	-7.954545e-02
325.529050	2.032978	dec_social_choice	2.032978	32.000000	n/a	0	0	-2.293883e-01
325.529050	2.032978	dec_choice	2.032978	32.000000	n/a	0	0	-2.304688e-01
325.529050	2.032978	dec_social_reject	2.032978	32.000000	n/a	0	0	1.250000e-02
325.529050	2.032978	dec_reject	2.032978	32.000000	n/a	0	0	1.041667e-02
325.529050	2.032978	dec_social_low	2.032978	32.000000	n/a	0	-2.304688e-01	-2.304688e-01
325.529050	2.032978	dec_social_reject_low	2.032978	32.000000	n/a	3	-1.367188e-01	-2.304688e-01
332.361940	1.133420	dec_social_choice	1.133420	16.000000	n/a	4	2.061170e-02	2.061170e-02
332.361940	1.133420	dec_choice	1.133420	16.000000	n/a	4	1.953125e-02	1.953125e-02
332.361940	1.133420	dec_social_accept	1.133420	16.000000	n/a	4	-8.912037e-02	-8.912037e-02
332.361940	1.133420	dec_accept	1.133420	16.000000	n/a	4	-6.875000e-02	-6.875000e-02
332.361940	1.133420	dec_social_high	1.133420	16.000000	n/a	4	1.953125e-02	1.953125e-02
332.361940	1.133420	dec_social_accept_high	1.133420	16.000000	n/a	4	1.953125e-02	1.953125e-02
339.194920	3.766946	missed_trial	3.766946	16.000000	n/a	n/a	n/a	n/a
348.462000	1.166096	dec_nonsocial_choice	1.166096	32.000000	n/a	0	0	-2.293883e-01
348.462000	1.166096	dec_choice	1.166096	32.000000	n/a	0	0	-2.282609e-01
348.462000	1.166096	dec_nonsocial_reject	1.166096	32.000000	n/a	0	0	1.250000e-02
348.462000	1.166096	dec_reject	1.166096	32.000000	n/a	0	0	1.420455e-02
348.462000	1.166096	dec_nonsocial_reject_low	1.166096	32.000000	n/a	3	1.041667e-02	-8.333333e-02
355.294950	1.116491	dec_social_choice	1.116491	16.000000	n/a	0	0	-2.293883e-01
355.294950	1.116491	dec_choice	1.116491	16.000000	n/a	0	0	-2.304688e-01
355.294950	1.116491	dec_social_reject	1.116491	16.000000	n/a	0	0	-1.875000e-02
355.294950	1.116491	dec_reject	1.116491	16.000000	n/a	0	0	-2.083333e-02
355.294950	1.116491	dec_social_low	1.116491	16.000000	n/a	0	-2.304688e-01	-2.304688e-01
355.294950	1.116491	dec_social_reject_low	1.116491	16.000000	n/a	1	-1.679688e-01	-2.304688e-01
362.129120	1.932647	dec_nonsocial_choice	1.932647	16.000000	n/a	2	-1.043883e-01	-1.043883e-01
362.129120	1.932647	dec_choice	1.932647	16.000000	n/a	2	-1.032609e-01	-1.032609e-01
362.129120	1.932647	dec_nonsocial_accept	1.932647	16.000000	n/a	2	-2.141204e-01	-2.141204e-01
362.129120	1.932647	dec_accept	1.932647	16.000000	n/a	2	-2.395833e-01	-2.395833e-01
362.129120	1.932647	dec_nonsocial_accept_low	1.932647	16.000000	n/a	2	-1.937500e-01	-1.937500e-01
368.962920	0.749031	dec_social_choice	0.749031	32.000000	n/a	16	2.706117e-01	2.706117e-01
368.962920	0.749031	dec_choice	0.749031	32.000000	n/a	16	2.695312e-01	2.695312e-01
368.962920	0.749031	dec_social_accept	0.749031	32.000000	n/a	16	1.608796e-01	1.608796e-01
368.962920	0.749031	dec_accept	0.749031	32.000000	n/a	16	1.812500e-01	1.812500e-01
368.962920	0.749031	dec_social_accept_high	0.749031	32.000000	n/a	16	2.695312e-01	2.695312e-01
