instrText,stimDoor,stimDoorLure,stimFace,stimFaceLure,Instructions.thisRepN,Instructions.thisTrialN,Instructions.thisN,Instructions.thisIndex,Trials.thisRepN,Trials.thisTrialN,Trials.thisN,Trials.thisIndex,Func,Keys,Text,RespTime,Onset,Offset,SystemTime_Start,SystemTime_Stop,Stim,Lure,Participant*,Age,date,expName,psychopyVersion,frameRate,
"In the earlier Feedback Games, you chose which doors contained a prize, and which peers liked you. 

You then saw positive or negative feedback (green check mark or red X) from the door or peer you selected.

You will now see a series of doors and peers, some of which you saw during the earlier Feedback Games, and some that you have never seen before.

Please press the spacebar to continue.",,,,,0,0,0,0,,,,,instrFunc,space,"In the earlier Feedback Games, you chose which doors contained a prize, and which peers liked you. 

You then saw positive or negative feedback (green check mark or red X) from the door or peer you selected.

You will now see a series of doors and peers, some of which you saw during the earlier Feedback Games, and some that you have never seen before.

Please press the spacebar to continue.",24.248964599799365,491.5754203000106,515.883488597814,2024-03-03 14:31:36.293148,2024-03-03 14:32:00.591374,,,10924,30-49,2024-03-03_14h31.31.359,Recall,2021.2.3,59.94344940770773,
"For doors/peers that you remember selecting and getting feedback from, your job is to RECALL what feedback you received. 

Press '1' if you recall positive feedback. 

Press '2' if you recall negative feedback

Press the spacebar to continue.",,,,,0,1,1,1,,,,,instrFunc,space,"For doors/peers that you remember selecting and getting feedback from, your job is to RECALL what feedback you received. 

Press '1' if you recall positive feedback. 

Press '2' if you recall negative feedback

Press the spacebar to continue.",14.142278499901295,515.8578397999518,530.0479687000625,2024-03-03 14:32:00.592379,2024-03-03 14:32:14.767224,,,10924,30-49,2024-03-03_14h31.31.359,Recall,2021.2.3,59.94344940770773,
"For doors/peers that you don't remember getting feedback from, your job is to PREDICT what feedback you WOULD HAVE received.

Press '9' if you predict positive feedback.

Press '0' if you predict negative feedback. 

Please press the spacebar to continue.",,,,,0,2,2,2,,,,,instrFunc,space,"For doors/peers that you don't remember getting feedback from, your job is to PREDICT what feedback you WOULD HAVE received.

Press '9' if you predict positive feedback.

Press '0' if you predict negative feedback. 

Please press the spacebar to continue.",18.038102500140667,530.0343002001755,548.1280096000992,2024-03-03 14:32:14.768246,2024-03-03 14:32:32.846924,,,10924,30-49,2024-03-03_14h31.31.359,Recall,2021.2.3,59.94344940770773,
"This task is self-paced, and the prompts will always stay on the screen so that you know which buttons to press.

On the next screen we will show you what those prompts look like, so that you know exactly what to expect. 

You will start with either doors or peers, and then switch halfway through. 

Please press the spacebar to continue.",,,,,0,3,3,3,,,,,instrFunc,space,"This task is self-paced, and the prompts will always stay on the screen so that you know which buttons to press.

On the next screen we will show you what those prompts look like, so that you know exactly what to expect. 

You will start with either doors or peers, and then switch halfway through. 

Please press the spacebar to continue.",0.2683283998630941,548.1079224003479,548.4235461000353,2024-03-03 14:32:32.847958,2024-03-03 14:32:33.147923,,,10924,30-49,2024-03-03_14h31.31.359,Recall,2021.2.3,59.94344940770773,
,,,,,,,,,,,,,imgtextFunc,space,"Here is what the screen will look like while you make your ratings.
The green circles remind you to press 1 or 9 for positive feedback.
The red circles remind you to press 2 or 0 for negative feedback.









Please let the experimenter know if you have any questions.

Whenever you're ready, press the spacebar to start the task.",22.30120630003512,548.5710132000968,571.0644578998908,2024-03-03 14:32:33.159042,2024-03-03 14:32:55.648150,,,10924,30-49,2024-03-03_14h31.31.359,Recall,2021.2.3,59.94344940770773,
,L_SD506.jpg,1,L_MF506.jpg,1,,,,,0,0,0,95,imgFunc,1,NA,8.62354419985786,571.048658600077,579.7970664002933,2024-03-03 14:32:55.693016,2024-03-03 14:33:04.437032,L_SD506.jpg,1,10924,30-49,2024-03-03_14h31.31.359,Recall,2021.2.3,59.94344940770773,
,SD017.jpg,0,MF017.jpg,0,,,,,0,1,1,66,imgFunc,0,NA,3.3543108999729156,579.7658035000786,583.2145899003372,2024-03-03 14:33:04.447007,2024-03-03 14:33:07.888963,SD017.jpg,0,10924,30-49,2024-03-03_14h31.31.359,Recall,2021.2.3,59.94344940770773,
,DD017.jpg,0,FF017.jpg,0,,,,,0,2,2,16,imgFunc,2,NA,3.1132999998517334,583.2310429001227,586.4508169000037,2024-03-03 14:33:07.896937,2024-03-03 14:33:11.108938,DD017.jpg,0,10924,30-49,2024-03-03_14h31.31.359,Recall,2021.2.3,59.94344940770773,
,DD008.jpg,0,FF008.jpg,0,,,,,0,3,3,7,imgFunc,9,NA,2.0865740003064275,586.4417636003345,588.6185424001887,2024-03-03 14:33:11.120936,2024-03-03 14:33:13.294061,DD008.jpg,0,10924,30-49,2024-03-03_14h31.31.359,Recall,2021.2.3,59.94344940770773,
,DD034.jpg,0,FF034.jpg,0,,,,,0,4,4,33,imgFunc,1,NA,2.6750683998689055,588.6210704003461,591.3905281005427,2024-03-03 14:33:13.301090,2024-03-03 14:33:16.062096,DD034.jpg,0,10924,30-49,2024-03-03_14h31.31.359,Recall,2021.2.3,59.94344940770773,
,SD004.jpg,0,MF004.jpg,0,,,,,0,5,5,53,imgFunc,2,NA,10.224321800284088,591.383986200206,601.7088227006607,2024-03-03 14:33:16.070104,2024-03-03 14:33:26.386191,SD004.jpg,0,10924,30-49,2024-03-03_14h31.31.359,Recall,2021.2.3,59.94344940770773,
,DD037.jpg,0,FF037.jpg,0,,,,,0,6,6,36,imgFunc,2,NA,2.672063000034541,601.7362406002358,604.5350671997294,2024-03-03 14:33:26.395817,2024-03-03 14:33:29.188141,DD037.jpg,0,10924,30-49,2024-03-03_14h31.31.359,Recall,2021.2.3,59.94344940770773,
,SD022.jpg,0,MF022.jpg,0,,,,,0,7,7,71,imgFunc,2,NA,1.7163312998600304,604.5239226999693,606.331794699654,2024-03-03 14:33:29.201146,2024-03-03 14:33:31.006290,SD022.jpg,0,10924,30-49,2024-03-03_14h31.31.359,Recall,2021.2.3,59.94344940770773,
,SD030.jpg,0,MF030.jpg,0,,,,,0,8,8,79,imgFunc,1,NA,1.4676043996587396,606.3405398000032,607.9063447997905,2024-03-03 14:33:31.015269,2024-03-03 14:33:32.573074,SD030.jpg,0,10924,30-49,2024-03-03_14h31.31.359,Recall,2021.2.3,59.94344940770773,
,SD011.jpg,0,MF011.jpg,0,,,,,0,9,9,60,imgFunc,0,NA,5.080045599956065,607.8962774001993,613.0663446998224,2024-03-03 14:33:32.582049,2024-03-03 14:33:37.743590,SD011.jpg,0,10924,30-49,2024-03-03_14h31.31.359,Recall,2021.2.3,59.94344940770773,
,L_SD509.jpg,1,L_MF509.jpg,1,,,,,0,10,10,98,imgFunc,1,NA,1.872884000185877,613.07180300029,615.0380057003349,2024-03-03 14:33:37.753574,2024-03-03 14:33:39.712805,L_SD509.jpg,1,10924,30-49,2024-03-03_14h31.31.359,Recall,2021.2.3,59.94344940770773,
,L_DD510.jpg,1,L_FF510.jpg,1,,,,,0,11,11,49,imgFunc,0,NA,2.075536400079727,615.0448007001542,617.2307425998151,2024-03-03 14:33:39.719816,2024-03-03 14:33:41.897385,L_DD510.jpg,1,10924,30-49,2024-03-03_14h31.31.359,Recall,2021.2.3,59.94344940770773,
,SD012.jpg,0,MF012.jpg,0,,,,,0,12,12,61,imgFunc,2,NA,2.100312899798155,617.2358757001348,619.4400556003675,2024-03-03 14:33:41.912348,2024-03-03 14:33:44.115776,SD012.jpg,0,10924,30-49,2024-03-03_14h31.31.359,Recall,2021.2.3,59.94344940770773,
,DD006.jpg,0,FF006.jpg,0,,,,,0,13,13,5,imgFunc,9,NA,5.641479700338095,619.4467082000338,625.1836036997847,2024-03-03 14:33:44.123781,2024-03-03 14:33:49.853278,DD006.jpg,0,10924,30-49,2024-03-03_14h31.31.359,Recall,2021.2.3,59.94344940770773,
,L_DD504.jpg,1,L_FF504.jpg,1,,,,,0,14,14,43,imgFunc,2,NA,3.5820627002976835,625.1862862999551,628.8703541001305,2024-03-03 14:33:49.862287,2024-03-03 14:33:53.538639,L_DD504.jpg,1,10924,30-49,2024-03-03_14h31.31.359,Recall,2021.2.3,59.94344940770773,
,DD015.jpg,0,FF015.jpg,0,,,,,0,15,15,14,imgFunc,9,NA,1.5742774000391364,628.8739132001065,630.5597812002525,2024-03-03 14:33:53.546578,2024-03-03 14:33:55.223642,DD015.jpg,0,10924,30-49,2024-03-03_14h31.31.359,Recall,2021.2.3,59.94344940770773,
,SD014.jpg,0,MF014.jpg,0,,,,,0,16,16,63,imgFunc,1,NA,1.3685968997888267,630.5517694000155,632.0203257999383,2024-03-03 14:33:55.231623,2024-03-03 14:33:56.691519,SD014.jpg,0,10924,30-49,2024-03-03_14h31.31.359,Recall,2021.2.3,59.94344940770773,
,SD026.jpg,0,MF026.jpg,0,,,,,0,17,17,75,imgFunc,1,NA,2.7430401002056897,632.0333271999843,634.8705239999108,2024-03-03 14:33:56.707506,2024-03-03 14:33:59.543593,SD026.jpg,0,10924,30-49,2024-03-03_14h31.31.359,Recall,2021.2.3,59.94344940770773,
,SD002.jpg,0,MF002.jpg,0,,,,,0,18,18,51,imgFunc,0,NA,1.7611948000267148,634.863180400338,636.7154469001107,2024-03-03 14:33:59.551602,2024-03-03 14:34:01.394722,SD002.jpg,0,10924,30-49,2024-03-03_14h31.31.359,Recall,2021.2.3,59.94344940770773,
,DD035.jpg,0,FF035.jpg,0,,,,,0,19,19,34,imgFunc,2,NA,1.245391699951142,636.7230291999876,638.0749972998165,2024-03-03 14:34:01.402723,2024-03-03 14:34:02.745647,DD035.jpg,0,10924,30-49,2024-03-03_14h31.31.359,Recall,2021.2.3,59.94344940770773,
,SD039.jpg,0,MF039.jpg,0,,,,,0,20,20,88,imgFunc,9,NA,1.4400507002137601,638.0723223001696,639.607876399532,2024-03-03 14:34:02.753652,2024-03-03 14:34:04.279751,SD039.jpg,0,10924,30-49,2024-03-03_14h31.31.359,Recall,2021.2.3,59.94344940770773,
,SD035.jpg,0,MF035.jpg,0,,,,,0,21,21,84,imgFunc,2,NA,2.381159500218928,639.6110378000885,642.0964327994734,2024-03-03 14:34:04.287732,2024-03-03 14:34:06.765162,SD035.jpg,0,10924,30-49,2024-03-03_14h31.31.359,Recall,2021.2.3,59.94344940770773,
,L_SD508.jpg,1,L_MF508.jpg,1,,,,,0,22,22,97,imgFunc,0,NA,2.6641521002165973,642.0801069000736,644.8331562001258,2024-03-03 14:34:06.773145,2024-03-03 14:34:09.517255,L_SD508.jpg,1,10924,30-49,2024-03-03_14h31.31.359,Recall,2021.2.3,59.94344940770773,
,SD021.jpg,0,MF021.jpg,0,,,,,0,23,23,70,imgFunc,1,NA,3.797401700168848,644.8350452003069,648.7217892999761,2024-03-03 14:34:09.525141,2024-03-03 14:34:13.403523,SD021.jpg,0,10924,30-49,2024-03-03_14h31.31.359,Recall,2021.2.3,59.94344940770773,
,DD023.jpg,0,FF023.jpg,0,,,,,0,24,24,22,imgFunc,9,NA,4.05038999998942,648.7259365003556,652.880139300134,2024-03-03 14:34:13.411531,2024-03-03 14:34:17.556983,DD023.jpg,0,10924,30-49,2024-03-03_14h31.31.359,Recall,2021.2.3,59.94344940770773,
,SD038.jpg,0,MF038.jpg,0,,,,,0,25,25,87,imgFunc,1,NA,1.618771499954164,652.8856375999749,654.6027170997113,2024-03-03 14:34:17.564983,2024-03-03 14:34:19.274810,SD038.jpg,0,10924,30-49,2024-03-03_14h31.31.359,Recall,2021.2.3,59.94344940770773,
,DD013.jpg,0,FF013.jpg,0,,,,,0,26,26,12,imgFunc,0,NA,1.589882900007069,654.6024176003411,656.275904300157,2024-03-03 14:34:19.287808,2024-03-03 14:34:20.958833,DD013.jpg,0,10924,30-49,2024-03-03_14h31.31.359,Recall,2021.2.3,59.94344940770773,
,DD024.jpg,0,FF024.jpg,0,,,,,0,27,27,23,imgFunc,1,NA,2.9359881998971105,656.2804172001779,659.3173394999467,2024-03-03 14:34:20.965844,2024-03-03 14:34:23.994457,DD024.jpg,0,10924,30-49,2024-03-03_14h31.31.359,Recall,2021.2.3,59.94344940770773,
,SD005.jpg,0,MF005.jpg,0,,,,,0,28,28,54,imgFunc,9,NA,6.14361729985103,659.3127438002266,665.5513617000543,2024-03-03 14:34:24.002468,2024-03-03 14:34:30.232342,SD005.jpg,0,10924,30-49,2024-03-03_14h31.31.359,Recall,2021.2.3,59.94344940770773,
,DD019.jpg,0,FF019.jpg,0,,,,,0,29,29,18,imgFunc,0,NA,6.221419000066817,665.5707604000345,671.906513299793,2024-03-03 14:34:30.241349,2024-03-03 14:34:36.569773,DD019.jpg,0,10924,30-49,2024-03-03_14h31.31.359,Recall,2021.2.3,59.94344940770773,
,L_DD509.jpg,1,L_FF509.jpg,1,,,,,0,30,30,48,imgFunc,2,NA,3.673165400046855,671.9110217001289,675.6956136999652,2024-03-03 14:34:36.578772,2024-03-03 14:34:40.356197,L_DD509.jpg,1,10924,30-49,2024-03-03_14h31.31.359,Recall,2021.2.3,59.94344940770773,
,DD032.jpg,0,FF032.jpg,0,,,,,0,31,31,31,imgFunc,1,NA,1.6869125002995133,675.6893112002872,677.4769107997417,2024-03-03 14:34:40.371162,2024-03-03 14:34:42.157510,DD032.jpg,0,10924,30-49,2024-03-03_14h31.31.359,Recall,2021.2.3,59.94344940770773,
,SD007.jpg,0,MF007.jpg,0,,,,,0,32,32,56,imgFunc,1,NA,2.220929400064051,677.4753232002258,679.7965076998807,2024-03-03 14:34:42.164526,2024-03-03 14:34:44.477455,SD007.jpg,0,10924,30-49,2024-03-03_14h31.31.359,Recall,2021.2.3,59.94344940770773,
,DD009.jpg,0,FF009.jpg,0,,,,,0,33,33,8,imgFunc,9,NA,1.478172400034964,679.8021545000374,681.3865638999268,2024-03-03 14:34:44.484438,2024-03-03 14:34:46.060617,DD009.jpg,0,10924,30-49,2024-03-03_14h31.31.359,Recall,2021.2.3,59.94344940770773,
,SD018.jpg,0,MF018.jpg,0,,,,,0,34,34,67,imgFunc,9,NA,2.019557800143957,681.3809390002862,683.4997667004354,2024-03-03 14:34:46.068419,2024-03-03 14:34:48.178695,SD018.jpg,0,10924,30-49,2024-03-03_14h31.31.359,Recall,2021.2.3,59.94344940770773,
,DD004.jpg,0,FF004.jpg,0,,,,,0,35,35,3,imgFunc,2,NA,2.418795400299132,683.5016530002467,686.0213827998377,2024-03-03 14:34:48.185699,2024-03-03 14:34:50.697044,DD004.jpg,0,10924,30-49,2024-03-03_14h31.31.359,Recall,2021.2.3,59.94344940770773,
,DD021.jpg,0,FF021.jpg,0,,,,,0,36,36,20,imgFunc,2,NA,3.244658399838954,686.0358120999299,689.3738068998791,2024-03-03 14:34:50.712035,2024-03-03 14:34:54.049739,DD021.jpg,0,10924,30-49,2024-03-03_14h31.31.359,Recall,2021.2.3,59.94344940770773,
,SD028.jpg,0,MF028.jpg,0,,,,,0,37,37,77,imgFunc,1,NA,2.0696916999295354,689.3706962000579,691.539858000353,2024-03-03 14:34:54.057759,2024-03-03 14:34:56.218105,SD028.jpg,0,10924,30-49,2024-03-03_14h31.31.359,Recall,2021.2.3,59.94344940770773,
,DD025.jpg,0,FF025.jpg,0,,,,,0,38,38,24,imgFunc,9,NA,1.5203491998836398,691.5360389002599,693.1542750000954,2024-03-03 14:34:56.226116,2024-03-03 14:34:57.835723,DD025.jpg,0,10924,30-49,2024-03-03_14h31.31.359,Recall,2021.2.3,59.94344940770773,
,L_SD501.jpg,1,L_MF501.jpg,1,,,,,0,39,39,90,imgFunc,2,NA,1.8930227002128959,693.1633170000277,695.1652018995956,2024-03-03 14:34:57.843725,2024-03-03 14:34:59.837210,L_SD501.jpg,1,10924,30-49,2024-03-03_14h31.31.359,Recall,2021.2.3,59.94344940770773,
,L_DD501.jpg,1,L_FF501.jpg,1,,,,,0,40,40,40,imgFunc,9,NA,3.2424637000076473,695.1660136999562,698.5189161999151,2024-03-03 14:34:59.845212,2024-03-03 14:35:03.189273,L_DD501.jpg,1,10924,30-49,2024-03-03_14h31.31.359,Recall,2021.2.3,59.94344940770773,
,L_DD506.jpg,1,L_FF506.jpg,1,,,,,0,41,41,45,imgFunc,0,NA,4.209126600064337,698.5111136999913,702.8149764998816,2024-03-03 14:35:03.197275,2024-03-03 14:35:07.491947,L_DD506.jpg,1,10924,30-49,2024-03-03_14h31.31.359,Recall,2021.2.3,59.94344940770773,
,SD020.jpg,0,MF020.jpg,0,,,,,0,42,42,69,imgFunc,0,NA,2.8772931997664273,702.8191098999232,705.8058248995803,2024-03-03 14:35:07.499956,2024-03-03 14:35:10.478248,SD020.jpg,0,10924,30-49,2024-03-03_14h31.31.359,Recall,2021.2.3,59.94344940770773,
,SD008.jpg,0,MF008.jpg,0,,,,,0,43,43,57,imgFunc,1,NA,1.3255930999293923,705.8026515003294,707.2205068003386,2024-03-03 14:35:10.486250,2024-03-03 14:35:11.895481,SD008.jpg,0,10924,30-49,2024-03-03_14h31.31.359,Recall,2021.2.3,59.94344940770773,
,L_SD503.jpg,1,L_MF503.jpg,1,,,,,0,44,44,92,imgFunc,9,NA,2.5825014002621174,707.2177832000889,709.90425759973,2024-03-03 14:35:11.903492,2024-03-03 14:35:14.581040,L_SD503.jpg,1,10924,30-49,2024-03-03_14h31.31.359,Recall,2021.2.3,59.94344940770773,
,DD027.jpg,0,FF027.jpg,0,,,,,0,45,45,26,imgFunc,2,NA,4.0737771997228265,709.9105242001824,714.0687108994462,2024-03-03 14:35:14.595026,2024-03-03 14:35:18.750725,DD027.jpg,0,10924,30-49,2024-03-03_14h31.31.359,Recall,2021.2.3,59.94344940770773,
,DD011.jpg,0,FF011.jpg,0,,,,,0,46,46,10,imgFunc,1,NA,3.533762600272894,714.0746341003105,717.710956200026,2024-03-03 14:35:18.758485,2024-03-03 14:35:22.386551,DD011.jpg,0,10924,30-49,2024-03-03_14h31.31.359,Recall,2021.2.3,59.94344940770773,
,DD028.jpg,0,FF028.jpg,0,,,,,0,47,47,27,imgFunc,1,NA,2.576321200001985,717.7120162001811,720.3819183995947,2024-03-03 14:35:22.394553,2024-03-03 14:35:25.055699,DD028.jpg,0,10924,30-49,2024-03-03_14h31.31.359,Recall,2021.2.3,59.94344940770773,
,L_DD507.jpg,1,L_FF507.jpg,1,,,,,0,48,48,46,imgFunc,0,NA,1.7711130999960005,720.3890856001526,722.2746092998423,2024-03-03 14:35:25.062708,2024-03-03 14:35:26.939722,L_DD507.jpg,1,10924,30-49,2024-03-03_14h31.31.359,Recall,2021.2.3,59.94344940770773,
,DD029.jpg,0,FF029.jpg,0,,,,,0,49,49,28,imgFunc,0,NA,3.510944299865514,722.2733768001199,725.8930102000013,2024-03-03 14:35:26.947724,2024-03-03 14:35:30.559165,DD029.jpg,0,10924,30-49,2024-03-03_14h31.31.359,Recall,2021.2.3,59.94344940770773,
,DD031.jpg,0,FF031.jpg,0,,,,,0,50,50,30,imgFunc,9,NA,1.7432435001246631,725.8971563000232,727.7337654996663,2024-03-03 14:35:30.575151,2024-03-03 14:35:32.410630,DD031.jpg,0,10924,30-49,2024-03-03_14h31.31.359,Recall,2021.2.3,59.94344940770773,
,SD032.jpg,0,MF032.jpg,0,,,,,0,51,51,81,imgFunc,0,NA,2.718941600061953,727.7294310000725,730.5489472001791,2024-03-03 14:35:32.418633,2024-03-03 14:35:35.229338,SD032.jpg,0,10924,30-49,2024-03-03_14h31.31.359,Recall,2021.2.3,59.94344940770773,
,L_DD503.jpg,1,L_FF503.jpg,1,,,,,0,52,52,42,imgFunc,0,NA,4.3828563997522,730.5534556000493,735.0404089000076,2024-03-03 14:35:35.237318,2024-03-03 14:35:39.715866,L_DD503.jpg,1,10924,30-49,2024-03-03_14h31.31.359,Recall,2021.2.3,59.94344940770773,
,L_SD507.jpg,1,L_MF507.jpg,1,,,,,0,53,53,96,imgFunc,2,NA,2.2089805002324283,735.0393075002357,737.3399732001126,2024-03-03 14:35:39.723847,2024-03-03 14:35:42.016912,L_SD507.jpg,1,10924,30-49,2024-03-03_14h31.31.359,Recall,2021.2.3,59.94344940770773,
,DD014.jpg,0,FF014.jpg,0,,,,,0,54,54,13,imgFunc,0,NA,4.658391099888831,737.3501361003146,742.1212710998952,2024-03-03 14:35:42.024916,2024-03-03 14:35:46.787644,DD014.jpg,0,10924,30-49,2024-03-03_14h31.31.359,Recall,2021.2.3,59.94344940770773,
,DD038.jpg,0,FF038.jpg,0,,,,,0,55,55,37,imgFunc,9,NA,5.518901399802417,742.1213294002227,747.7407534001395,2024-03-03 14:35:46.804551,2024-03-03 14:35:52.408378,DD038.jpg,0,10924,30-49,2024-03-03_14h31.31.359,Recall,2021.2.3,59.94344940770773,
,L_DD502.jpg,1,L_FF502.jpg,1,,,,,0,56,56,41,imgFunc,0,NA,4.935149300377816,747.7292446000502,752.7637707991526,2024-03-03 14:35:52.417379,2024-03-03 14:35:57.445404,L_DD502.jpg,1,10924,30-49,2024-03-03_14h31.31.359,Recall,2021.2.3,59.94344940770773,
,DD002.jpg,0,FF002.jpg,0,,,,,0,57,57,1,imgFunc,9,NA,3.200205599889159,752.7683303002268,756.06846530037,2024-03-03 14:35:57.454384,2024-03-03 14:36:00.748127,DD002.jpg,0,10924,30-49,2024-03-03_14h31.31.359,Recall,2021.2.3,59.94344940770773,
,DD022.jpg,0,FF022.jpg,0,,,,,0,58,58,21,imgFunc,9,NA,3.013198600150645,756.0752714001574,759.1950884000398,2024-03-03 14:36:00.755105,2024-03-03 14:36:03.866863,DD022.jpg,0,10924,30-49,2024-03-03_14h31.31.359,Recall,2021.2.3,59.94344940770773,
,SD040.jpg,0,MF040.jpg,0,,,,,0,59,59,89,imgFunc,2,NA,2.2230493002571166,759.1850908999331,761.5027462998405,2024-03-03 14:36:03.874865,2024-03-03 14:36:06.183876,SD040.jpg,0,10924,30-49,2024-03-03_14h31.31.359,Recall,2021.2.3,59.94344940770773,
,SD009.jpg,0,MF009.jpg,0,,,,,0,60,60,58,imgFunc,9,NA,7.966079900041223,761.5062579000369,769.5623553995974,2024-03-03 14:36:06.192823,2024-03-03 14:36:14.240371,SD009.jpg,0,10924,30-49,2024-03-03_14h31.31.359,Recall,2021.2.3,59.94344940770773,
,DD012.jpg,0,FF012.jpg,0,,,,,0,61,61,11,imgFunc,0,NA,4.192774999886751,769.5756356003694,773.8757539000362,2024-03-03 14:36:14.250368,2024-03-03 14:36:18.544033,DD012.jpg,0,10924,30-49,2024-03-03_14h31.31.359,Recall,2021.2.3,59.94344940770773,
,SD027.jpg,0,MF027.jpg,0,,,,,0,62,62,76,imgFunc,0,NA,9.266121299937367,773.8703372003511,783.244199400302,2024-03-03 14:36:18.552042,2024-03-03 14:36:27.917278,SD027.jpg,0,10924,30-49,2024-03-03_14h31.31.359,Recall,2021.2.3,59.94344940770773,
,SD015.jpg,0,MF015.jpg,0,,,,,0,63,63,64,imgFunc,0,NA,6.17532810010016,783.2410912001505,789.5094506000169,2024-03-03 14:36:27.926256,2024-03-03 14:36:34.188329,SD015.jpg,0,10924,30-49,2024-03-03_14h31.31.359,Recall,2021.2.3,59.94344940770773,
,SD013.jpg,0,MF013.jpg,0,,,,,0,64,64,62,imgFunc,9,NA,4.208533999975771,789.5279334001243,793.8478836007416,2024-03-03 14:36:34.205239,2024-03-03 14:36:38.508316,SD013.jpg,0,10924,30-49,2024-03-03_14h31.31.359,Recall,2021.2.3,59.94344940770773,
,DD010.jpg,0,FF010.jpg,0,,,,,0,65,65,9,imgFunc,1,NA,2.0482347002252936,793.824314000085,795.9587237001397,2024-03-03 14:36:38.516318,2024-03-03 14:36:40.643398,DD010.jpg,0,10924,30-49,2024-03-03_14h31.31.359,Recall,2021.2.3,59.94344940770773,
,L_SD510.jpg,1,L_MF510.jpg,1,,,,,0,66,66,99,imgFunc,0,NA,3.1373096997849643,795.9590122001246,799.1951040001586,2024-03-03 14:36:40.651401,2024-03-03 14:36:43.878813,L_SD510.jpg,1,10924,30-49,2024-03-03_14h31.31.359,Recall,2021.2.3,59.94344940770773,
,DD033.jpg,0,FF033.jpg,0,,,,,0,67,67,32,imgFunc,9,NA,2.7577211996540427,799.1946672000922,802.0477494997904,2024-03-03 14:36:43.886795,2024-03-03 14:36:46.730662,DD033.jpg,0,10924,30-49,2024-03-03_14h31.31.359,Recall,2021.2.3,59.94344940770773,
,DD020.jpg,0,FF020.jpg,0,,,,,0,68,68,19,imgFunc,2,NA,2.663737699855119,802.056644000113,804.8258044994436,2024-03-03 14:36:46.738377,2024-03-03 14:36:49.499474,DD020.jpg,0,10924,30-49,2024-03-03_14h31.31.359,Recall,2021.2.3,59.94344940770773,
,SD016.jpg,0,MF016.jpg,0,,,,,0,69,69,65,imgFunc,2,NA,9.164741999935359,804.8277477002703,814.0874175000936,2024-03-03 14:36:49.514464,2024-03-03 14:36:58.773114,SD016.jpg,0,10924,30-49,2024-03-03_14h31.31.359,Recall,2021.2.3,59.94344940770773,
,L_SD504.jpg,1,L_MF504.jpg,1,,,,,0,70,70,93,imgFunc,0,NA,9.568144300021231,814.0962522001937,823.7664761994965,2024-03-03 14:36:58.782113,2024-03-03 14:37:08.446379,L_SD504.jpg,1,10924,30-49,2024-03-03_14h31.31.359,Recall,2021.2.3,59.94344940770773,
,DD016.jpg,0,FF016.jpg,0,,,,,0,71,71,15,imgFunc,9,NA,5.814725399948657,823.7855925001204,829.7040434000082,2024-03-03 14:37:08.455381,2024-03-03 14:37:14.367747,DD016.jpg,0,10924,30-49,2024-03-03_14h31.31.359,Recall,2021.2.3,59.94344940770773,
,DD030.jpg,0,FF030.jpg,0,,,,,0,72,72,29,imgFunc,2,NA,1.584749300032854,829.6877124002203,831.3705907999538,2024-03-03 14:37:14.376599,2024-03-03 14:37:16.052096,DD030.jpg,0,10924,30-49,2024-03-03_14h31.31.359,Recall,2021.2.3,59.94344940770773,
,SD031.jpg,0,MF031.jpg,0,,,,,0,73,73,80,imgFunc,1,NA,3.1486699003726244,831.3798142001033,834.6330090002157,2024-03-03 14:37:16.060098,2024-03-03 14:37:19.304045,SD031.jpg,0,10924,30-49,2024-03-03_14h31.31.359,Recall,2021.2.3,59.94344940770773,
,DD040.jpg,0,FF040.jpg,0,,,,,0,74,74,39,imgFunc,2,NA,5.401412900071591,834.6309205000289,840.1215208997019,2024-03-03 14:37:19.319010,2024-03-03 14:37:24.808362,DD040.jpg,0,10924,30-49,2024-03-03_14h31.31.359,Recall,2021.2.3,59.94344940770773,
,DD039.jpg,0,FF039.jpg,0,,,,,0,75,75,38,imgFunc,0,NA,4.88179050013423,840.1266793999821,845.0947205997072,2024-03-03 14:37:24.817358,2024-03-03 14:37:29.778924,DD039.jpg,0,10924,30-49,2024-03-03_14h31.31.359,Recall,2021.2.3,59.94344940770773,
,SD033.jpg,0,MF033.jpg,0,,,,,0,76,76,82,imgFunc,1,NA,2.7323151999153197,845.1001341002993,847.9324574000202,2024-03-03 14:37:29.787919,2024-03-03 14:37:32.613729,SD033.jpg,0,10924,30-49,2024-03-03_14h31.31.359,Recall,2021.2.3,59.94344940770773,
,SD025.jpg,0,MF025.jpg,0,,,,,0,77,77,74,imgFunc,1,NA,2.1906282999552786,847.9459249000065,850.2489128001034,2024-03-03 14:37:32.621143,2024-03-03 14:37:34.915628,SD025.jpg,0,10924,30-49,2024-03-03_14h31.31.359,Recall,2021.2.3,59.94344940770773,
,DD018.jpg,0,FF018.jpg,0,,,,,0,78,78,17,imgFunc,0,NA,2.0609677000902593,850.2433096999303,852.4118822994642,2024-03-03 14:37:34.923630,2024-03-03 14:37:37.083676,DD018.jpg,0,10924,30-49,2024-03-03_14h31.31.359,Recall,2021.2.3,59.94344940770773,
,L_DD505.jpg,1,L_FF505.jpg,1,,,,,0,79,79,44,imgFunc,9,NA,2.0974657996557653,852.3987795002759,854.58421120001,2024-03-03 14:37:37.090691,2024-03-03 14:37:39.267813,L_DD505.jpg,1,10924,30-49,2024-03-03_14h31.31.359,Recall,2021.2.3,59.94344940770773,
,SD010.jpg,0,MF010.jpg,0,,,,,0,80,80,59,imgFunc,2,NA,2.0570324999280274,854.5912202000618,856.7425716002472,2024-03-03 14:37:39.276753,2024-03-03 14:37:41.420068,SD010.jpg,0,10924,30-49,2024-03-03_14h31.31.359,Recall,2021.2.3,59.94344940770773,
,SD034.jpg,0,MF034.jpg,0,,,,,0,81,81,83,imgFunc,9,NA,5.046397200319916,856.7381730000488,861.8763120998628,2024-03-03 14:37:41.428050,2024-03-03 14:37:46.557249,SD034.jpg,0,10924,30-49,2024-03-03_14h31.31.359,Recall,2021.2.3,59.94344940770773,
,DD003.jpg,0,FF003.jpg,0,,,,,0,82,82,2,imgFunc,0,NA,2.9806658001616597,861.8837795001455,864.9656246001832,2024-03-03 14:37:46.567246,2024-03-03 14:37:49.643081,DD003.jpg,0,10924,30-49,2024-03-03_14h31.31.359,Recall,2021.2.3,59.94344940770773,
,SD003.jpg,0,MF003.jpg,0,,,,,0,83,83,52,imgFunc,0,NA,3.997068800032139,864.9714133003727,869.0632497998886,2024-03-03 14:37:49.656086,2024-03-03 14:37:53.745437,SD003.jpg,0,10924,30-49,2024-03-03_14h31.31.359,Recall,2021.2.3,59.94344940770773,
,SD037.jpg,0,MF037.jpg,0,,,,,0,84,84,86,imgFunc,2,NA,2.6862622001208365,869.0662190001458,871.8531784005463,2024-03-03 14:37:53.752450,2024-03-03 14:37:56.531104,SD037.jpg,0,10924,30-49,2024-03-03_14h31.31.359,Recall,2021.2.3,59.94344940770773,
,L_DD508.jpg,1,L_FF508.jpg,1,,,,,0,85,85,47,imgFunc,2,NA,3.004300400149077,871.8521676999517,874.955590499565,2024-03-03 14:37:56.539120,2024-03-03 14:37:59.633337,L_DD508.jpg,1,10924,30-49,2024-03-03_14h31.31.359,Recall,2021.2.3,59.94344940770773,
,DD026.jpg,0,FF026.jpg,0,,,,,0,86,86,25,imgFunc,9,NA,2.818150999955833,874.950325100217,877.8693554000929,2024-03-03 14:37:59.641310,2024-03-03 14:38:02.551931,DD026.jpg,0,10924,30-49,2024-03-03_14h31.31.359,Recall,2021.2.3,59.94344940770773,
,SD001.jpg,0,MF001.jpg,0,,,,,0,87,87,50,imgFunc,1,NA,2.255625399760902,877.872895500157,880.2247496997006,2024-03-03 14:38:02.559940,2024-03-03 14:38:04.904050,SD001.jpg,0,10924,30-49,2024-03-03_14h31.31.359,Recall,2021.2.3,59.94344940770773,
,DD036.jpg,0,FF036.jpg,0,,,,,0,88,88,35,imgFunc,2,NA,3.338607099838555,880.2458860999905,883.6834768992849,2024-03-03 14:38:04.920042,2024-03-03 14:38:08.356817,DD036.jpg,0,10924,30-49,2024-03-03_14h31.31.359,Recall,2021.2.3,59.94344940770773,
,SD024.jpg,0,MF024.jpg,0,,,,,0,89,89,73,imgFunc,9,NA,2.2914598998613656,883.6688661002554,886.0539919002913,2024-03-03 14:38:08.364828,2024-03-03 14:38:10.741416,SD024.jpg,0,10924,30-49,2024-03-03_14h31.31.359,Recall,2021.2.3,59.94344940770773,
,SD029.jpg,0,MF029.jpg,0,,,,,0,90,90,78,imgFunc,9,NA,7.085660899989307,886.0588870001957,893.2322790999897,2024-03-03 14:38:10.748399,2024-03-03 14:38:17.913365,SD029.jpg,0,10924,30-49,2024-03-03_14h31.31.359,Recall,2021.2.3,59.94344940770773,
,DD007.jpg,0,FF007.jpg,0,,,,,0,91,91,6,imgFunc,0,NA,3.26831980003044,893.2521726000123,896.6361492997967,2024-03-03 14:38:17.922371,2024-03-03 14:38:21.298775,DD007.jpg,0,10924,30-49,2024-03-03_14h31.31.359,Recall,2021.2.3,59.94344940770773,
,DD005.jpg,0,FF005.jpg,0,,,,,0,92,92,4,imgFunc,2,NA,3.6237077000550926,896.6328715002164,900.3697716998868,2024-03-03 14:38:21.306698,2024-03-03 14:38:25.034815,DD005.jpg,0,10924,30-49,2024-03-03_14h31.31.359,Recall,2021.2.3,59.94344940770773,
,SD006.jpg,0,MF006.jpg,0,,,,,0,93,93,55,imgFunc,9,NA,4.960663799662143,900.367939400021,905.4249796993099,2024-03-03 14:38:25.049579,2024-03-03 14:38:30.105432,SD006.jpg,0,10924,30-49,2024-03-03_14h31.31.359,Recall,2021.2.3,59.94344940770773,
,SD019.jpg,0,MF019.jpg,0,,,,,0,94,94,68,imgFunc,0,NA,3.1641224999912083,905.4282749001868,908.6948845996521,2024-03-03 14:38:30.114437,2024-03-03 14:38:33.374643,SD019.jpg,0,10924,30-49,2024-03-03_14h31.31.359,Recall,2021.2.3,59.94344940770773,
,SD036.jpg,0,MF036.jpg,0,,,,,0,95,95,85,imgFunc,0,NA,3.7856087000109255,908.6947407000698,912.5812174999155,2024-03-03 14:38:33.382645,2024-03-03 14:38:37.260259,SD036.jpg,0,10924,30-49,2024-03-03_14h31.31.359,Recall,2021.2.3,59.94344940770773,
,L_SD505.jpg,1,L_MF505.jpg,1,,,,,0,96,96,94,imgFunc,2,NA,3.8960505998693407,912.5842766002752,916.5885447002947,2024-03-03 14:38:37.268263,2024-03-03 14:38:41.263715,L_SD505.jpg,1,10924,30-49,2024-03-03_14h31.31.359,Recall,2021.2.3,59.94344940770773,
,DD001.jpg,0,FF001.jpg,0,,,,,0,97,97,0,imgFunc,1,NA,2.6542529999278486,916.5941922999918,919.3634835998528,2024-03-03 14:38:41.271718,2024-03-03 14:38:44.031924,DD001.jpg,0,10924,30-49,2024-03-03_14h31.31.359,Recall,2021.2.3,59.94344940770773,
,SD023.jpg,0,MF023.jpg,0,,,,,0,98,98,72,imgFunc,1,NA,4.1905739000067115,919.3459616000764,923.6339354999363,2024-03-03 14:38:44.039929,2024-03-03 14:38:48.318760,SD023.jpg,0,10924,30-49,2024-03-03_14h31.31.359,Recall,2021.2.3,59.94344940770773,
,L_SD502.jpg,1,L_MF502.jpg,1,,,,,0,99,99,91,imgFunc,2,NA,3.3732533999718726,923.6354295001365,927.1039139004424,2024-03-03 14:38:48.326762,2024-03-03 14:38:51.787517,L_SD502.jpg,1,10924,30-49,2024-03-03_14h31.31.359,Recall,2021.2.3,59.94344940770773,
,,,,,,,,,,,,,instrFunc,space,"Great work! 

 Now you will switch to the other image type.

 Press the spacebar whenever you are ready to start.",12.779065299779177,927.0375890000723,939.8601615000516,2024-03-03 14:38:51.788133,2024-03-03 14:39:04.595631,,,10924,30-49,2024-03-03_14h31.31.359,Recall,2021.2.3,59.94344940770773,
,SD012.jpg,0,MF012.jpg,0,,,,,0,0,0,61,imgFunc,2,NA,5.024130099918693,939.9764296002686,945.1316565000452,2024-03-03 14:39:04.628928,2024-03-03 14:39:09.783834,MF012.jpg,0,10924,30-49,2024-03-03_14h31.31.359,Recall,2021.2.3,59.94344940770773,
,SD024.jpg,0,MF024.jpg,0,,,,,0,1,1,73,imgFunc,9,NA,2.7601550999097526,945.1121971001849,947.9785290001892,2024-03-03 14:39:09.793827,2024-03-03 14:39:12.653130,MF024.jpg,0,10924,30-49,2024-03-03_14h31.31.359,Recall,2021.2.3,59.94344940770773,
,SD016.jpg,0,MF016.jpg,0,,,,,0,2,2,65,imgFunc,1,NA,2.2855801000259817,947.9789394000545,950.3632196998224,2024-03-03 14:39:12.661137,2024-03-03 14:39:15.038019,MF016.jpg,0,10924,30-49,2024-03-03_14h31.31.359,Recall,2021.2.3,59.94344940770773,
,SD031.jpg,0,MF031.jpg,0,,,,,0,3,3,80,imgFunc,2,NA,2.417789800092578,950.3668257002719,952.8769233999774,2024-03-03 14:39:15.050011,2024-03-03 14:39:17.556435,MF031.jpg,0,10924,30-49,2024-03-03_14h31.31.359,Recall,2021.2.3,59.94344940770773,
,DD029.jpg,0,FF029.jpg,0,,,,,0,4,4,28,imgFunc,1,NA,2.105277399998158,952.8952653002925,955.1136908004992,2024-03-03 14:39:17.564416,2024-03-03 14:39:19.774608,FF029.jpg,0,10924,30-49,2024-03-03_14h31.31.359,Recall,2021.2.3,59.94344940770773,
,SD027.jpg,0,MF027.jpg,0,,,,,0,5,5,76,imgFunc,9,NA,1.6286786999553442,955.0996529003605,956.8346576001495,2024-03-03 14:39:19.782610,2024-03-03 14:39:21.508586,MF027.jpg,0,10924,30-49,2024-03-03_14h31.31.359,Recall,2021.2.3,59.94344940770773,
,DD012.jpg,0,FF012.jpg,0,,,,,0,6,6,11,imgFunc,2,NA,2.8017441001720726,956.838865400292,959.7384151001461,2024-03-03 14:39:21.518537,2024-03-03 14:39:24.411430,FF012.jpg,0,10924,30-49,2024-03-03_14h31.31.359,Recall,2021.2.3,59.94344940770773,
,L_DD509.jpg,1,L_FF509.jpg,1,,,,,0,7,7,48,imgFunc,2,NA,2.98077749973163,959.7397593003698,962.8258023997769,2024-03-03 14:39:24.419441,2024-03-03 14:39:27.496552,L_FF509.jpg,1,10924,30-49,2024-03-03_14h31.31.359,Recall,2021.2.3,59.94344940770773,
,DD010.jpg,0,FF010.jpg,0,,,,,0,8,8,9,imgFunc,1,NA,1.9627430997788906,962.8139208001085,964.8670655996539,2024-03-03 14:39:27.504465,2024-03-03 14:39:29.548340,FF010.jpg,0,10924,30-49,2024-03-03_14h31.31.359,Recall,2021.2.3,59.94344940770773,
,DD027.jpg,0,FF027.jpg,0,,,,,0,9,9,26,imgFunc,1,NA,3.2550781001336873,964.8735902002081,968.2269493998028,2024-03-03 14:39:29.556206,2024-03-03 14:39:32.900944,FF027.jpg,0,10924,30-49,2024-03-03_14h31.31.359,Recall,2021.2.3,59.94344940770773,
,DD035.jpg,0,FF035.jpg,0,,,,,0,10,10,34,imgFunc,0,NA,8.377582699991763,968.2228520000353,976.6969049000181,2024-03-03 14:39:32.907955,2024-03-03 14:39:41.373710,FF035.jpg,0,10924,30-49,2024-03-03_14h31.31.359,Recall,2021.2.3,59.94344940770773,
,SD028.jpg,0,MF028.jpg,0,,,,,0,11,11,77,imgFunc,9,NA,3.766025500372052,976.7146477000788,980.5983824995346,2024-03-03 14:39:41.382686,2024-03-03 14:39:45.259670,MF028.jpg,0,10924,30-49,2024-03-03_14h31.31.359,Recall,2021.2.3,59.94344940770773,
,L_DD503.jpg,1,L_FF503.jpg,1,,,,,0,12,12,42,imgFunc,2,NA,4.394708400126547,980.5898577002808,985.0816295002587,2024-03-03 14:39:45.273656,2024-03-03 14:39:49.762802,L_FF503.jpg,1,10924,30-49,2024-03-03_14h31.31.359,Recall,2021.2.3,59.94344940770773,
,SD008.jpg,0,MF008.jpg,0,,,,,0,13,13,57,imgFunc,1,NA,2.965237199794501,985.0833294000477,988.1526063000783,2024-03-03 14:39:49.770804,2024-03-03 14:39:52.831799,MF008.jpg,0,10924,30-49,2024-03-03_14h31.31.359,Recall,2021.2.3,59.94344940770773,
,SD006.jpg,0,MF006.jpg,0,,,,,0,14,14,55,imgFunc,9,NA,3.545640300028026,988.1507929000072,991.7875622003339,2024-03-03 14:39:52.839807,2024-03-03 14:39:56.467890,MF006.jpg,0,10924,30-49,2024-03-03_14h31.31.359,Recall,2021.2.3,59.94344940770773,
,L_DD504.jpg,1,L_FF504.jpg,1,,,,,0,15,15,43,imgFunc,2,NA,6.178429499734193,991.7900278000161,998.0621301000938,2024-03-03 14:39:56.475822,2024-03-03 14:40:02.738659,L_FF504.jpg,1,10924,30-49,2024-03-03_14h31.31.359,Recall,2021.2.3,59.94344940770773,
,DD008.jpg,0,FF008.jpg,0,,,,,0,16,16,7,imgFunc,9,NA,3.733250900171697,998.0832013003528,1001.9346100999974,2024-03-03 14:40:02.747637,2024-03-03 14:40:06.591604,FF008.jpg,0,10924,30-49,2024-03-03_14h31.31.359,Recall,2021.2.3,59.94344940770773,
,SD022.jpg,0,MF022.jpg,0,,,,,0,17,17,71,imgFunc,9,NA,4.276532399933785,1001.9240248999558,1006.2965293000452,2024-03-03 14:40:06.606592,2024-03-03 14:40:10.978786,MF022.jpg,0,10924,30-49,2024-03-03_14h31.31.359,Recall,2021.2.3,59.94344940770773,
,DD021.jpg,0,FF021.jpg,0,,,,,0,18,18,20,imgFunc,1,NA,2.7022266001440585,1006.2982443999499,1009.1003928999417,2024-03-03 14:40:10.986805,2024-03-03 14:40:13.780396,FF021.jpg,0,10924,30-49,2024-03-03_14h31.31.359,Recall,2021.2.3,59.94344940770773,
,SD037.jpg,0,MF037.jpg,0,,,,,0,19,19,86,imgFunc,1,NA,3.2044743997976184,1009.0999831003137,1012.4032011996023,2024-03-03 14:40:13.788398,2024-03-03 14:40:17.082632,MF037.jpg,0,10924,30-49,2024-03-03_14h31.31.359,Recall,2021.2.3,59.94344940770773,
,SD001.jpg,0,MF001.jpg,0,,,,,0,20,20,50,imgFunc,2,NA,2.4098376999609172,1012.4147822000086,1014.9329219995998,2024-03-03 14:40:17.090633,2024-03-03 14:40:19.601113,MF001.jpg,0,10924,30-49,2024-03-03_14h31.31.359,Recall,2021.2.3,59.94344940770773,
,L_DD501.jpg,1,L_FF501.jpg,1,,,,,0,21,21,40,imgFunc,0,NA,1.8455593003891408,1014.930890200194,1016.882834800519,2024-03-03 14:40:19.609122,2024-03-03 14:40:21.552563,L_FF501.jpg,1,10924,30-49,2024-03-03_14h31.31.359,Recall,2021.2.3,59.94344940770773,
,L_SD509.jpg,1,L_MF509.jpg,1,,,,,0,22,22,98,imgFunc,9,NA,6.7195525001734495,1016.8809798001312,1023.7028087005019,2024-03-03 14:40:21.560574,2024-03-03 14:40:28.374266,L_MF509.jpg,1,10924,30-49,2024-03-03_14h31.31.359,Recall,2021.2.3,59.94344940770773,
,DD023.jpg,0,FF023.jpg,0,,,,,0,23,23,22,imgFunc,1,NA,2.5362132000736892,1023.6962819001637,1026.3293606997468,2024-03-03 14:40:28.383244,2024-03-03 14:40:31.009681,FF023.jpg,0,10924,30-49,2024-03-03_14h31.31.359,Recall,2021.2.3,59.94344940770773,
,L_SD504.jpg,1,L_MF504.jpg,1,,,,,0,24,24,93,imgFunc,0,NA,3.6625729999504983,1026.3300377000123,1030.0832508997992,2024-03-03 14:40:31.017696,2024-03-03 14:40:34.761450,L_MF504.jpg,1,10924,30-49,2024-03-03_14h31.31.359,Recall,2021.2.3,59.94344940770773,
,SD032.jpg,0,MF032.jpg,0,,,,,0,25,25,81,imgFunc,9,NA,2.5709725003689528,1030.0854306002147,1032.75460139988,2024-03-03 14:40:34.769452,2024-03-03 14:40:37.429819,MF032.jpg,0,10924,30-49,2024-03-03_14h31.31.359,Recall,2021.2.3,59.94344940770773,
,L_SD502.jpg,1,L_MF502.jpg,1,,,,,0,26,26,91,imgFunc,0,NA,3.5130173000507057,1032.7595540001057,1036.3678244003095,2024-03-03 14:40:37.443753,2024-03-03 14:40:41.049845,L_MF502.jpg,1,10924,30-49,2024-03-03_14h31.31.359,Recall,2021.2.3,59.94344940770773,
,SD033.jpg,0,MF033.jpg,0,,,,,0,27,27,82,imgFunc,9,NA,3.489317700266838,1036.3671801001765,1039.9541194001213,2024-03-03 14:40:41.057862,2024-03-03 14:40:44.635844,MF033.jpg,0,10924,30-49,2024-03-03_14h31.31.359,Recall,2021.2.3,59.94344940770773,
,L_SD503.jpg,1,L_MF503.jpg,1,,,,,0,28,28,92,imgFunc,1,NA,3.859914999920875,1039.9566554003395,1043.9102241005749,2024-03-03 14:40:44.643847,2024-03-03 14:40:48.588939,L_MF503.jpg,1,10924,30-49,2024-03-03_14h31.31.359,Recall,2021.2.3,59.94344940770773,
,DD005.jpg,0,FF005.jpg,0,,,,,0,29,29,4,imgFunc,2,NA,3.461995800025761,1043.9146243999712,1047.484132499434,2024-03-03 14:40:48.596941,2024-03-03 14:40:52.158079,FF005.jpg,0,10924,30-49,2024-03-03_14h31.31.359,Recall,2021.2.3,59.94344940770773,
,DD036.jpg,0,FF036.jpg,0,,,,,0,30,30,35,imgFunc,2,NA,8.948860400356352,1047.4914707001299,1056.548967500683,2024-03-03 14:40:52.165092,2024-03-03 14:41:01.214295,FF036.jpg,0,10924,30-49,2024-03-03_14h31.31.359,Recall,2021.2.3,59.94344940770773,
,DD015.jpg,0,FF015.jpg,0,,,,,0,31,31,14,imgFunc,2,NA,5.1812563999556005,1056.5631959000602,1061.8668964998797,2024-03-03 14:41:01.230455,2024-03-03 14:41:06.518122,FF015.jpg,0,10924,30-49,2024-03-03_14h31.31.359,Recall,2021.2.3,59.94344940770773,
,L_SD508.jpg,1,L_MF508.jpg,1,,,,,0,32,32,97,imgFunc,1,NA,2.563413599971682,1061.8451923001558,1064.5125815998763,2024-03-03 14:41:06.527074,2024-03-03 14:41:09.187080,L_MF508.jpg,1,10924,30-49,2024-03-03_14h31.31.359,Recall,2021.2.3,59.94344940770773,
,DD001.jpg,0,FF001.jpg,0,,,,,0,33,33,0,imgFunc,0,NA,3.469653900247067,1064.5067914002575,1068.0764961000532,2024-03-03 14:41:09.195089,2024-03-03 14:41:12.755642,FF001.jpg,0,10924,30-49,2024-03-03_14h31.31.359,Recall,2021.2.3,59.94344940770773,
,SD026.jpg,0,MF026.jpg,0,,,,,0,34,34,75,imgFunc,9,NA,2.2289162003435194,1068.083656700328,1070.4201639001258,2024-03-03 14:41:12.763654,2024-03-03 14:41:15.091812,MF026.jpg,0,10924,30-49,2024-03-03_14h31.31.359,Recall,2021.2.3,59.94344940770773,
,L_DD502.jpg,1,L_FF502.jpg,1,,,,,0,35,35,41,imgFunc,0,NA,13.164250399917364,1070.4282605000772,1083.7053637998179,2024-03-03 14:41:15.098794,2024-03-03 14:41:28.367598,L_FF502.jpg,1,10924,30-49,2024-03-03_14h31.31.359,Recall,2021.2.3,59.94344940770773,
,SD007.jpg,0,MF007.jpg,0,,,,,0,36,36,56,imgFunc,9,NA,2.490304999984801,1083.7183000999503,1086.3305570995435,2024-03-03 14:41:28.378477,2024-03-03 14:41:30.986146,MF007.jpg,0,10924,30-49,2024-03-03_14h31.31.359,Recall,2021.2.3,59.94344940770773,
,L_SD506.jpg,1,L_MF506.jpg,1,,,,,0,37,37,95,imgFunc,2,NA,2.231718000024557,1086.3048535003327,1088.6410849997774,2024-03-03 14:41:30.993161,2024-03-03 14:41:33.321006,L_MF506.jpg,1,10924,30-49,2024-03-03_14h31.31.359,Recall,2021.2.3,59.94344940770773,
,DD030.jpg,0,FF030.jpg,0,,,,,0,38,38,29,imgFunc,0,NA,5.2537469998933375,1088.642551400233,1093.9967705002055,2024-03-03 14:41:33.328987,2024-03-03 14:41:38.674803,FF030.jpg,0,10924,30-49,2024-03-03_14h31.31.359,Recall,2021.2.3,59.94344940770773,
,SD017.jpg,0,MF017.jpg,0,,,,,0,39,39,66,imgFunc,1,NA,3.39641290018335,1094.0042060003616,1097.5054726009257,2024-03-03 14:41:38.683809,2024-03-03 14:41:42.177399,MF017.jpg,0,10924,30-49,2024-03-03_14h31.31.359,Recall,2021.2.3,59.94344940770773,
,SD010.jpg,0,MF010.jpg,0,,,,,0,40,40,59,imgFunc,0,NA,7.753268199972808,1097.5114104002714,1105.3702131998725,2024-03-03 14:41:42.192361,2024-03-03 14:41:50.050212,MF010.jpg,0,10924,30-49,2024-03-03_14h31.31.359,Recall,2021.2.3,59.94344940770773,
,SD002.jpg,0,MF002.jpg,0,,,,,0,41,41,51,imgFunc,1,NA,3.7899011997506022,1105.3788658003323,1109.2803411004134,2024-03-03 14:41:50.058478,2024-03-03 14:41:53.952818,MF002.jpg,0,10924,30-49,2024-03-03_14h31.31.359,Recall,2021.2.3,59.94344940770773,
,DD004.jpg,0,FF004.jpg,0,,,,,0,42,42,3,imgFunc,1,NA,2.6258637998253107,1109.2787572001107,1112.0148803000338,2024-03-03 14:41:53.960595,2024-03-03 14:41:56.687757,FF004.jpg,0,10924,30-49,2024-03-03_14h31.31.359,Recall,2021.2.3,59.94344940770773,
,DD014.jpg,0,FF014.jpg,0,,,,,0,43,43,13,imgFunc,2,NA,2.4975081998854876,1112.0068810000084,1114.6088585001417,2024-03-03 14:41:56.695761,2024-03-03 14:41:59.288680,FF014.jpg,0,10924,30-49,2024-03-03_14h31.31.359,Recall,2021.2.3,59.94344940770773,
,SD021.jpg,0,MF021.jpg,0,,,,,0,44,44,70,imgFunc,1,NA,7.330998999997973,1114.613539500162,1122.053485199809,2024-03-03 14:41:59.296671,2024-03-03 14:42:06.728286,MF021.jpg,0,10924,30-49,2024-03-03_14h31.31.359,Recall,2021.2.3,59.94344940770773,
,DD028.jpg,0,FF028.jpg,0,,,,,0,45,45,27,imgFunc,0,NA,6.227589000016451,1122.0690498002805,1128.4232275011018,2024-03-03 14:42:06.745244,2024-03-03 14:42:13.083138,FF028.jpg,0,10924,30-49,2024-03-03_14h31.31.359,Recall,2021.2.3,59.94344940770773,
,DD033.jpg,0,FF033.jpg,0,,,,,0,46,46,32,imgFunc,2,NA,2.1582299997098744,1128.4027430000715,1130.6518065002747,2024-03-03 14:42:13.092133,2024-03-03 14:42:15.334763,FF033.jpg,0,10924,30-49,2024-03-03_14h31.31.359,Recall,2021.2.3,59.94344940770773,
,SD039.jpg,0,MF039.jpg,0,,,,,0,47,47,88,imgFunc,2,NA,1.7679885998368263,1130.6566570000723,1132.5257179997861,2024-03-03 14:42:15.342765,2024-03-03 14:42:17.202722,MF039.jpg,0,10924,30-49,2024-03-03_14h31.31.359,Recall,2021.2.3,59.94344940770773,
,L_DD506.jpg,1,L_FF506.jpg,1,,,,,0,48,48,45,imgFunc,0,NA,2.3593907998874784,1132.5211763000116,1134.9732029000297,2024-03-03 14:42:17.210724,2024-03-03 14:42:19.653741,L_FF506.jpg,1,10924,30-49,2024-03-03_14h31.31.359,Recall,2021.2.3,59.94344940770773,
,L_DD505.jpg,1,L_FF505.jpg,1,,,,,0,49,49,44,imgFunc,9,NA,7.218812300357968,1134.9819173002616,1142.3048316999339,2024-03-03 14:42:19.661721,2024-03-03 14:42:26.976346,L_FF505.jpg,1,10924,30-49,2024-03-03_14h31.31.359,Recall,2021.2.3,59.94344940770773,
,SD029.jpg,0,MF029.jpg,0,,,,,0,50,50,78,imgFunc,9,NA,4.808771499898285,1142.295703300275,1147.1967810001224,2024-03-03 14:42:26.985341,2024-03-03 14:42:31.879902,MF029.jpg,0,10924,30-49,2024-03-03_14h31.31.359,Recall,2021.2.3,59.94344940770773,
,DD040.jpg,0,FF040.jpg,0,,,,,0,51,51,39,imgFunc,2,NA,2.0466221999377012,1147.201937300153,1149.3516936004162,2024-03-03 14:42:31.888908,2024-03-03 14:42:34.031281,FF040.jpg,0,10924,30-49,2024-03-03_14h31.31.359,Recall,2021.2.3,59.94344940770773,
,DD038.jpg,0,FF038.jpg,0,,,,,0,52,52,37,imgFunc,2,NA,6.699554699938744,1149.3491436000913,1156.1382854995318,2024-03-03 14:42:34.039283,2024-03-03 14:42:40.819815,FF038.jpg,0,10924,30-49,2024-03-03_14h31.31.359,Recall,2021.2.3,59.94344940770773,
,SD003.jpg,0,MF003.jpg,0,,,,,0,53,53,52,imgFunc,2,NA,9.336560899857432,1156.1520569999702,1165.5910279997624,2024-03-03 14:42:40.828794,2024-03-03 14:42:50.259980,MF003.jpg,0,10924,30-49,2024-03-03_14h31.31.359,Recall,2021.2.3,59.94344940770773,
,DD013.jpg,0,FF013.jpg,0,,,,,0,54,54,12,imgFunc,0,NA,3.4749258998781443,1165.6056311000139,1169.207047900185,2024-03-03 14:42:50.276932,2024-03-03 14:42:53.862557,FF013.jpg,0,10924,30-49,2024-03-03_14h31.31.359,Recall,2021.2.3,59.94344940770773,
,DD039.jpg,0,FF039.jpg,0,,,,,0,55,55,38,imgFunc,9,NA,5.559285199735314,1169.1773744001985,1174.8331037997268,2024-03-03 14:42:53.869569,2024-03-03 14:42:59.516219,FF039.jpg,0,10924,30-49,2024-03-03_14h31.31.359,Recall,2021.2.3,59.94344940770773,
,DD019.jpg,0,FF019.jpg,0,,,,,0,56,56,18,imgFunc,0,NA,5.061293699778616,1174.8352248002775,1179.9877852005884,2024-03-03 14:42:59.525228,2024-03-03 14:43:04.670459,FF019.jpg,0,10924,30-49,2024-03-03_14h31.31.359,Recall,2021.2.3,59.94344940770773,
,L_DD508.jpg,1,L_FF508.jpg,1,,,,,0,57,57,47,imgFunc,2,NA,1.9772108998149633,1179.9912171000615,1182.074353300035,2024-03-03 14:43:04.679086,2024-03-03 14:43:06.754624,L_FF508.jpg,1,10924,30-49,2024-03-03_14h31.31.359,Recall,2021.2.3,59.94344940770773,
,SD036.jpg,0,MF036.jpg,0,,,,,0,58,58,85,imgFunc,0,NA,5.314247599802911,1182.0784120000899,1187.500022300519,2024-03-03 14:43:06.762604,2024-03-03 14:43:12.175638,MF036.jpg,0,10924,30-49,2024-03-03_14h31.31.359,Recall,2021.2.3,59.94344940770773,
,DD037.jpg,0,FF037.jpg,0,,,,,0,59,59,36,imgFunc,0,NA,4.010103899985552,1187.518673100043,1191.6531809004955,2024-03-03 14:43:12.192622,2024-03-03 14:43:16.311697,FF037.jpg,0,10924,30-49,2024-03-03_14h31.31.359,Recall,2021.2.3,59.94344940770773,
,DD022.jpg,0,FF022.jpg,0,,,,,0,60,60,21,imgFunc,9,NA,3.0115761002525687,1191.6289245001972,1194.7325384998694,2024-03-03 14:43:16.319700,2024-03-03 14:43:19.414344,FF022.jpg,0,10924,30-49,2024-03-03_14h31.31.359,Recall,2021.2.3,59.94344940770773,
,SD015.jpg,0,MF015.jpg,0,,,,,0,61,61,64,imgFunc,2,NA,2.471126599702984,1194.7376747000962,1197.3076814999804,2024-03-03 14:43:19.421359,2024-03-03 14:43:21.982881,MF015.jpg,0,10924,30-49,2024-03-03_14h31.31.359,Recall,2021.2.3,59.94344940770773,
,SD018.jpg,0,MF018.jpg,0,,,,,0,62,62,67,imgFunc,1,NA,2.732755099888891,1197.2999587003142,1200.1368940002285,2024-03-03 14:43:21.989788,2024-03-03 14:43:24.818245,MF018.jpg,0,10924,30-49,2024-03-03_14h31.31.359,Recall,2021.2.3,59.94344940770773,
,DD016.jpg,0,FF016.jpg,0,,,,,0,63,63,15,imgFunc,2,NA,2.611019799951464,1200.1495481003076,1202.8689576000907,2024-03-03 14:43:24.826247,2024-03-03 14:43:27.536925,FF016.jpg,0,10924,30-49,2024-03-03_14h31.31.359,Recall,2021.2.3,59.94344940770773,
,SD020.jpg,0,MF020.jpg,0,,,,,0,64,64,69,imgFunc,9,NA,5.899891399778426,1202.8525996999815,1208.8413133001886,2024-03-03 14:43:27.544927,2024-03-03 14:43:33.525010,MF020.jpg,0,10924,30-49,2024-03-03_14h31.31.359,Recall,2021.2.3,59.94344940770773,
,DD020.jpg,0,FF020.jpg,0,,,,,0,65,65,19,imgFunc,2,NA,4.608125300146639,1208.848707600031,1213.5658360999078,2024-03-03 14:43:33.533988,2024-03-03 14:43:38.244291,FF020.jpg,0,10924,30-49,2024-03-03_14h31.31.359,Recall,2021.2.3,59.94344940770773,
,SD011.jpg,0,MF011.jpg,0,,,,,0,66,66,60,imgFunc,9,NA,4.589027400128543,1213.5795924002305,1218.2807908998802,2024-03-03 14:43:38.253288,2024-03-03 14:43:42.947947,MF011.jpg,0,10924,30-49,2024-03-03_14h31.31.359,Recall,2021.2.3,59.94344940770773,
,SD038.jpg,0,MF038.jpg,0,,,,,0,67,67,87,imgFunc,9,NA,5.151852400042117,1218.2808671002276,1223.5494535998441,2024-03-03 14:43:42.956517,2024-03-03 14:43:48.218209,MF038.jpg,0,10924,30-49,2024-03-03_14h31.31.359,Recall,2021.2.3,59.94344940770773,
,SD019.jpg,0,MF019.jpg,0,,,,,0,68,68,68,imgFunc,0,NA,2.4771564002148807,1223.5713712000288,1226.1603630995378,2024-03-03 14:43:48.233188,2024-03-03 14:43:50.820308,MF019.jpg,0,10924,30-49,2024-03-03_14h31.31.359,Recall,2021.2.3,59.94344940770773,
,SD004.jpg,0,MF004.jpg,0,,,,,0,69,69,53,imgFunc,1,NA,3.2205628999508917,1226.1401218003593,1229.4605669002049,2024-03-03 14:43:50.827319,2024-03-03 14:43:54.139234,MF004.jpg,0,10924,30-49,2024-03-03_14h31.31.359,Recall,2021.2.3,59.94344940770773,
,SD013.jpg,0,MF013.jpg,0,,,,,0,70,70,62,imgFunc,0,NA,3.169216599781066,1229.4633659003302,1232.7336156000383,2024-03-03 14:43:54.147242,2024-03-03 14:43:57.408725,MF013.jpg,0,10924,30-49,2024-03-03_14h31.31.359,Recall,2021.2.3,59.94344940770773,
,DD006.jpg,0,FF006.jpg,0,,,,,0,71,71,5,imgFunc,9,NA,3.2762599997222424,1232.732436100021,1236.1194409998134,2024-03-03 14:43:57.415684,2024-03-03 14:44:00.794243,FF006.jpg,0,10924,30-49,2024-03-03_14h31.31.359,Recall,2021.2.3,59.94344940770773,
,SD040.jpg,0,MF040.jpg,0,,,,,0,72,72,89,imgFunc,2,NA,2.547889200039208,1236.1327852001414,1238.802409700118,2024-03-03 14:44:00.802147,2024-03-03 14:44:03.462575,MF040.jpg,0,10924,30-49,2024-03-03_14h31.31.359,Recall,2021.2.3,59.94344940770773,
,DD024.jpg,0,FF024.jpg,0,,,,,0,73,73,23,imgFunc,2,NA,11.635252600070089,1238.7973669003695,1250.5251649003476,2024-03-03 14:44:03.477507,2024-03-03 14:44:15.204724,FF024.jpg,0,10924,30-49,2024-03-03_14h31.31.359,Recall,2021.2.3,59.94344940770773,
,SD030.jpg,0,MF030.jpg,0,,,,,0,74,74,79,imgFunc,0,NA,3.020803200080991,1250.5400400003418,1253.673040700145,2024-03-03 14:44:15.213702,2024-03-03 14:44:18.340026,MF030.jpg,0,10924,30-49,2024-03-03_14h31.31.359,Recall,2021.2.3,59.94344940770773,
,DD031.jpg,0,FF031.jpg,0,,,,,0,75,75,30,imgFunc,2,NA,4.102552300319076,1253.6580322999507,1257.8614738001488,2024-03-03 14:44:18.348028,2024-03-03 14:44:22.543200,FF031.jpg,0,10924,30-49,2024-03-03_14h31.31.359,Recall,2021.2.3,59.94344940770773,
,L_DD510.jpg,1,L_FF510.jpg,1,,,,,0,76,76,49,imgFunc,9,NA,6.971134399995208,1257.8775913999416,1264.9662812994793,2024-03-03 14:44:22.551181,2024-03-03 14:44:29.631560,L_FF510.jpg,1,10924,30-49,2024-03-03_14h31.31.359,Recall,2021.2.3,59.94344940770773,
,DD007.jpg,0,FF007.jpg,0,,,,,0,77,77,6,imgFunc,9,NA,2.748638499993831,1264.9799203001894,1267.8463631002232,2024-03-03 14:44:29.640346,2024-03-03 14:44:32.500113,FF007.jpg,0,10924,30-49,2024-03-03_14h31.31.359,Recall,2021.2.3,59.94344940770773,
,L_SD510.jpg,1,L_MF510.jpg,1,,,,,0,78,78,99,imgFunc,9,NA,3.340267799794674,1267.820582299959,1271.2577643995173,2024-03-03 14:44:32.508121,2024-03-03 14:44:35.936563,L_MF510.jpg,1,10924,30-49,2024-03-03_14h31.31.359,Recall,2021.2.3,59.94344940770773,
,L_SD505.jpg,1,L_MF505.jpg,1,,,,,0,79,79,94,imgFunc,2,NA,2.179095400031656,1271.2537278002128,1273.5391273996793,2024-03-03 14:44:35.943575,2024-03-03 14:44:38.220959,L_MF505.jpg,1,10924,30-49,2024-03-03_14h31.31.359,Recall,2021.2.3,59.94344940770773,
,SD023.jpg,0,MF023.jpg,0,,,,,0,80,80,72,imgFunc,0,NA,2.877410599961877,1273.5391726000234,1276.5090391002595,2024-03-03 14:44:38.227965,2024-03-03 14:44:41.189547,MF023.jpg,0,10924,30-49,2024-03-03_14h31.31.359,Recall,2021.2.3,59.94344940770773,
,DD011.jpg,0,FF011.jpg,0,,,,,0,81,81,10,imgFunc,0,NA,3.9779388001188636,1276.5264644999988,1280.6288462998345,2024-03-03 14:44:41.197525,2024-03-03 14:44:45.292494,FF011.jpg,0,10924,30-49,2024-03-03_14h31.31.359,Recall,2021.2.3,59.94344940770773,
,DD017.jpg,0,FF017.jpg,0,,,,,0,82,82,16,imgFunc,9,NA,2.7903283000923693,1280.6340537001379,1283.5404732995667,2024-03-03 14:44:45.306456,2024-03-03 14:44:48.211721,FF017.jpg,0,10924,30-49,2024-03-03_14h31.31.359,Recall,2021.2.3,59.94344940770773,
,DD009.jpg,0,FF009.jpg,0,,,,,0,83,83,8,imgFunc,9,NA,5.228440499864519,1283.5402836999856,1288.8739127996378,2024-03-03 14:44:48.221694,2024-03-03 14:44:53.548781,FF009.jpg,0,10924,30-49,2024-03-03_14h31.31.359,Recall,2021.2.3,59.94344940770773,
,SD014.jpg,0,MF014.jpg,0,,,,,0,84,84,63,imgFunc,0,NA,4.864507100079209,1288.8721671001986,1293.8394611002877,2024-03-03 14:44:53.557759,2024-03-03 14:44:58.519116,MF014.jpg,0,10924,30-49,2024-03-03_14h31.31.359,Recall,2021.2.3,59.94344940770773,
,SD009.jpg,0,MF009.jpg,0,,,,,0,85,85,58,imgFunc,2,NA,1.4061199999414384,1293.8423316003755,1295.3581531001255,2024-03-03 14:44:58.528080,2024-03-03 14:45:00.036876,MF009.jpg,0,10924,30-49,2024-03-03_14h31.31.359,Recall,2021.2.3,59.94344940770773,
,L_DD507.jpg,1,L_FF507.jpg,1,,,,,0,86,86,46,imgFunc,1,NA,1.6568644000217319,1295.3680024002679,1297.1340883001685,2024-03-03 14:45:00.045876,2024-03-03 14:45:01.804768,L_FF507.jpg,1,10924,30-49,2024-03-03_14h31.31.359,Recall,2021.2.3,59.94344940770773,
,DD032.jpg,0,FF032.jpg,0,,,,,0,87,87,31,imgFunc,0,NA,5.423925300128758,1297.136592300143,1302.6588980001397,2024-03-03 14:45:01.819752,2024-03-03 14:45:07.341371,FF032.jpg,0,10924,30-49,2024-03-03_14h31.31.359,Recall,2021.2.3,59.94344940770773,
,SD034.jpg,0,MF034.jpg,0,,,,,0,88,88,83,imgFunc,1,NA,2.108335900120437,1302.6685278001241,1304.885367199313,2024-03-03 14:45:07.350342,2024-03-03 14:45:09.560118,MF034.jpg,0,10924,30-49,2024-03-03_14h31.31.359,Recall,2021.2.3,59.94344940770773,
,SD005.jpg,0,MF005.jpg,0,,,,,0,89,89,54,imgFunc,9,NA,2.180225800257176,1304.8765950002708,1307.1617308999412,2024-03-03 14:45:09.568099,2024-03-03 14:45:11.845113,MF005.jpg,0,10924,30-49,2024-03-03_14h31.31.359,Recall,2021.2.3,59.94344940770773,
,DD026.jpg,0,FF026.jpg,0,,,,,0,90,90,25,imgFunc,2,NA,2.929063600022346,1307.1677059000358,1310.2040236000903,2024-03-03 14:45:11.853115,2024-03-03 14:45:14.881123,FF026.jpg,0,10924,30-49,2024-03-03_14h31.31.359,Recall,2021.2.3,59.94344940770773,
,DD025.jpg,0,FF025.jpg,0,,,,,0,91,91,24,imgFunc,9,NA,2.247298600152135,1310.2095293002203,1312.5620383000933,2024-03-03 14:45:14.889139,2024-03-03 14:45:17.232508,FF025.jpg,0,10924,30-49,2024-03-03_14h31.31.359,Recall,2021.2.3,59.94344940770773,
,L_SD507.jpg,1,L_MF507.jpg,1,,,,,0,92,92,96,imgFunc,9,NA,2.845641499850899,1312.5550844999962,1315.5080608995631,2024-03-03 14:45:17.240028,2024-03-03 14:45:20.184665,L_MF507.jpg,1,10924,30-49,2024-03-03_14h31.31.359,Recall,2021.2.3,59.94344940770773,
,DD018.jpg,0,FF018.jpg,0,,,,,0,93,93,17,imgFunc,0,NA,5.556739200372249,1315.5000424003229,1321.1538557000458,2024-03-03 14:45:20.192351,2024-03-03 14:45:25.838515,FF018.jpg,0,10924,30-49,2024-03-03_14h31.31.359,Recall,2021.2.3,59.94344940770773,
,L_SD501.jpg,1,L_MF501.jpg,1,,,,,0,94,94,90,imgFunc,9,NA,3.0554892998188734,1321.1694622002542,1324.3356198002584,2024-03-03 14:45:25.848510,2024-03-03 14:45:29.007772,L_MF501.jpg,1,10924,30-49,2024-03-03_14h31.31.359,Recall,2021.2.3,59.94344940770773,
,DD003.jpg,0,FF003.jpg,0,,,,,0,95,95,2,imgFunc,1,NA,2.104570100083947,1324.3440273003653,1326.5630383002572,2024-03-03 14:45:29.015774,2024-03-03 14:45:31.226150,FF003.jpg,0,10924,30-49,2024-03-03_14h31.31.359,Recall,2021.2.3,59.94344940770773,
,SD025.jpg,0,MF025.jpg,0,,,,,0,96,96,74,imgFunc,1,NA,2.3506708997301757,1326.5542745003477,1328.9931203005835,2024-03-03 14:45:31.241141,2024-03-03 14:45:33.678133,MF025.jpg,0,10924,30-49,2024-03-03_14h31.31.359,Recall,2021.2.3,59.94344940770773,
,DD002.jpg,0,FF002.jpg,0,,,,,0,97,97,1,imgFunc,0,NA,2.7528398004360497,1328.9916866002604,1331.84348710021,2024-03-03 14:45:33.686135,2024-03-03 14:45:36.529234,FF002.jpg,0,10924,30-49,2024-03-03_14h31.31.359,Recall,2021.2.3,59.94344940770773,
,DD034.jpg,0,FF034.jpg,0,,,,,0,98,98,33,imgFunc,0,NA,3.4194515999406576,1331.845475200098,1335.3656966998242,2024-03-03 14:45:36.537210,2024-03-03 14:45:40.049269,FF034.jpg,0,10924,30-49,2024-03-03_14h31.31.359,Recall,2021.2.3,59.94344940770773,
,SD035.jpg,0,MF035.jpg,0,,,,,0,99,99,84,imgFunc,1,NA,5.795488799922168,1335.3654595003463,1341.2541396999732,2024-03-03 14:45:40.056281,2024-03-03 14:45:45.936769,MF035.jpg,0,10924,30-49,2024-03-03_14h31.31.359,Recall,2021.2.3,59.94344940770773,
