onset	duration	trial_type	response_time	Endowment	Endowment_pmod	Decision	Decision_pmod	Offer_pmod
4.504744	2	cue_nonsocial	n/a	16	-11	n/a	n/a	n/a
4.504744	2	cue_nonsocial_low	n/a	16	-9	n/a	n/a	n/a
12.197612	2	cue_social	n/a	32	7	n/a	n/a	n/a
12.197612	2	cue_social_high	n/a	32	5	n/a	n/a	n/a
19.833956	2	cue_social	n/a	16	-9	n/a	n/a	n/a
19.833956	2	cue_social_low	n/a	16	-11	n/a	n/a	n/a
26.674026	2	cue_social	n/a	16	-9	n/a	n/a	n/a
26.674026	2	cue_social_low	n/a	16	-11	n/a	n/a	n/a
33.450146	2	cue_social	n/a	32	7	n/a	n/a	n/a
33.450146	2	cue_social_high	n/a	32	5	n/a	n/a	n/a
41.008457	2	cue_nonsocial	n/a	16	-11	n/a	n/a	n/a
41.008457	2	cue_nonsocial_low	n/a	16	-9	n/a	n/a	n/a
47.811840	2	cue_nonsocial	n/a	16	-11	n/a	n/a	n/a
47.811840	2	cue_nonsocial_low	n/a	16	-9	n/a	n/a	n/a
54.742847	2	cue_social	n/a	16	-9	n/a	n/a	n/a
54.742847	2	cue_social_low	n/a	16	-11	n/a	n/a	n/a
62.334095	2	cue_social	n/a	16	-9	n/a	n/a	n/a
62.334095	2	cue_social_low	n/a	16	-11	n/a	n/a	n/a
69.871680	2	cue_nonsocial	n/a	16	-11	n/a	n/a	n/a
69.871680	2	cue_nonsocial_low	n/a	16	-9	n/a	n/a	n/a
77.501114	2	cue_nonsocial	n/a	32	5	n/a	n/a	n/a
77.501114	2	cue_nonsocial_high	n/a	32	7	n/a	n/a	n/a
86.731560	2	cue_nonsocial	n/a	32	5	n/a	n/a	n/a
86.731560	2	cue_nonsocial_high	n/a	32	7	n/a	n/a	n/a
97.580550	2	cue_nonsocial	n/a	32	5	n/a	n/a	n/a
97.580550	2	cue_nonsocial_high	n/a	32	7	n/a	n/a	n/a
105.208664	2	cue_nonsocial	n/a	32	5	n/a	n/a	n/a
105.208664	2	cue_nonsocial_high	n/a	32	7	n/a	n/a	n/a
114.438280	2	cue_nonsocial	n/a	32	5	n/a	n/a	n/a
114.438280	2	cue_nonsocial_high	n/a	32	7	n/a	n/a	n/a
122.059980	2	cue_nonsocial	n/a	16	-11	n/a	n/a	n/a
122.059980	2	cue_nonsocial_low	n/a	16	-9	n/a	n/a	n/a
128.880460	2	cue_nonsocial	n/a	32	5	n/a	n/a	n/a
128.880460	2	cue_nonsocial_high	n/a	32	7	n/a	n/a	n/a
138.183750	2	cue_social	n/a	32	7	n/a	n/a	n/a
138.183750	2	cue_social_high	n/a	32	5	n/a	n/a	n/a
144.934310	2	cue_nonsocial	n/a	32	5	n/a	n/a	n/a
144.934310	2	cue_nonsocial_high	n/a	32	7	n/a	n/a	n/a
151.824280	2	cue_social	n/a	32	7	n/a	n/a	n/a
151.824280	2	cue_social_high	n/a	32	5	n/a	n/a	n/a
164.328480	2	cue_social	n/a	16	-9	n/a	n/a	n/a
164.328480	2	cue_social_low	n/a	16	-11	n/a	n/a	n/a
175.144730	2	cue_social	n/a	32	7	n/a	n/a	n/a
175.144730	2	cue_social_high	n/a	32	5	n/a	n/a	n/a
182.747960	2	cue_social	n/a	32	7	n/a	n/a	n/a
182.747960	2	cue_social_high	n/a	32	5	n/a	n/a	n/a
191.985950	2	cue_social	n/a	32	7	n/a	n/a	n/a
191.985950	2	cue_social_high	n/a	32	5	n/a	n/a	n/a
198.734360	2	cue_nonsocial	n/a	32	5	n/a	n/a	n/a
198.734360	2	cue_nonsocial_high	n/a	32	7	n/a	n/a	n/a
205.603650	2	cue_social	n/a	32	7	n/a	n/a	n/a
205.603650	2	cue_social_high	n/a	32	5	n/a	n/a	n/a
212.468250	2	cue_social	n/a	32	7	n/a	n/a	n/a
212.468250	2	cue_social_high	n/a	32	5	n/a	n/a	n/a
221.599560	2	cue_nonsocial	n/a	32	5	n/a	n/a	n/a
221.599560	2	cue_nonsocial_high	n/a	32	7	n/a	n/a	n/a
230.900940	2	cue_social	n/a	32	7	n/a	n/a	n/a
230.900940	2	cue_social_high	n/a	32	5	n/a	n/a	n/a
237.703110	2	cue_social	n/a	16	-9	n/a	n/a	n/a
237.703110	2	cue_social_low	n/a	16	-11	n/a	n/a	n/a
244.542360	2	cue_social	n/a	32	7	n/a	n/a	n/a
244.542360	2	cue_social_high	n/a	32	5	n/a	n/a	n/a
251.271200	2	cue_nonsocial	n/a	32	5	n/a	n/a	n/a
251.271200	2	cue_nonsocial_high	n/a	32	7	n/a	n/a	n/a
258.955260	2	cue_social	n/a	16	-9	n/a	n/a	n/a
258.955260	2	cue_social_low	n/a	16	-11	n/a	n/a	n/a
269.747250	2	cue_nonsocial	n/a	32	5	n/a	n/a	n/a
269.747250	2	cue_nonsocial_high	n/a	32	7	n/a	n/a	n/a
276.567660	2	cue_nonsocial	n/a	32	5	n/a	n/a	n/a
276.567660	2	cue_nonsocial_high	n/a	32	7	n/a	n/a	n/a
283.482760	2	cue_social	n/a	32	7	n/a	n/a	n/a
283.482760	2	cue_social_high	n/a	32	5	n/a	n/a	n/a
292.690700	2	cue_social	n/a	32	7	n/a	n/a	n/a
292.690700	2	cue_social_high	n/a	32	5	n/a	n/a	n/a
299.484600	2	cue_social	n/a	16	-9	n/a	n/a	n/a
299.484600	2	cue_social_low	n/a	16	-11	n/a	n/a	n/a
306.247900	2	cue_nonsocial	n/a	32	5	n/a	n/a	n/a
306.247900	2	cue_nonsocial_high	n/a	32	7	n/a	n/a	n/a
313.079160	2	cue_social	n/a	16	-9	n/a	n/a	n/a
313.079160	2	cue_social_low	n/a	16	-11	n/a	n/a	n/a
319.874200	2	cue_nonsocial	n/a	16	-11	n/a	n/a	n/a
319.874200	2	cue_nonsocial_low	n/a	16	-9	n/a	n/a	n/a
326.779330	2	cue_social	n/a	32	7	n/a	n/a	n/a
326.779330	2	cue_social_high	n/a	32	5	n/a	n/a	n/a
333.500270	2	cue_nonsocial	n/a	16	-11	n/a	n/a	n/a
333.500270	2	cue_nonsocial_low	n/a	16	-9	n/a	n/a	n/a
340.399700	2	cue_social	n/a	16	-9	n/a	n/a	n/a
340.399700	2	cue_social_low	n/a	16	-11	n/a	n/a	n/a
347.129430	2	cue_nonsocial	n/a	32	5	n/a	n/a	n/a
347.129430	2	cue_nonsocial_high	n/a	32	7	n/a	n/a	n/a
354.743200	2	cue_nonsocial	n/a	32	5	n/a	n/a	n/a
354.743200	2	cue_nonsocial_high	n/a	32	7	n/a	n/a	n/a
362.362580	2	cue_nonsocial	n/a	32	5	n/a	n/a	n/a
362.362580	2	cue_nonsocial_high	n/a	32	7	n/a	n/a	n/a
369.993200	2	cue_nonsocial	n/a	32	5	n/a	n/a	n/a
369.993200	2	cue_nonsocial_high	n/a	32	7	n/a	n/a	n/a
6.504812	2.349635	dec_nonsocial_choice	2.349635	16.000000	n/a	4	2.148438e-02	2.148438e-02
6.504812	2.349635	dec_choice	2.349635	16.000000	n/a	4	2.083333e-02	2.083333e-02
6.504812	2.349635	dec_nonsocial_accept	2.349635	16.000000	n/a	4	-1.075000e-01	-1.075000e-01
6.504812	2.349635	dec_accept	2.349635	16.000000	n/a	4	-8.482143e-02	-8.482143e-02
6.504812	2.349635	dec_nonsocial_accept_high	2.349635	16.000000	n/a	4	-1.363636e-01	-1.363636e-01
14.125631	2.026416	dec_social_choice	2.026416	32.000000	n/a	8	2.148438e-02	2.148438e-02
14.125631	2.026416	dec_choice	2.026416	32.000000	n/a	8	2.213542e-02	2.213542e-02
14.125631	2.026416	dec_social_accept	2.026416	32.000000	n/a	8	-1.075000e-01	-1.075000e-01
14.125631	2.026416	dec_accept	2.026416	32.000000	n/a	8	-1.363636e-01	-1.363636e-01
14.125631	2.026416	dec_social_high	2.026416	32.000000	n/a	8	2.213542e-02	2.213542e-02
14.125631	2.026416	dec_social_accept_high	2.026416	32.000000	n/a	8	2.213542e-02	2.213542e-02
21.745888	1.639984	dec_social_choice	1.639984	16.000000	n/a	0	0	-2.285156e-01
21.745888	1.639984	dec_choice	1.639984	16.000000	n/a	0	0	-2.278646e-01
21.745888	1.639984	dec_social_reject	1.639984	16.000000	n/a	0	0	-2.581522e-02
21.745888	1.639984	dec_reject	1.639984	16.000000	n/a	0	0	-3.125000e-02
21.745888	1.639984	dec_social_low	1.639984	16.000000	n/a	0	-2.278646e-01	-2.278646e-01
21.745888	1.639984	dec_social_reject_low	1.639984	16.000000	n/a	1	-1.653646e-01	-2.278646e-01
28.561910	2.456992	dec_social_choice	2.456992	16.000000	n/a	4	2.148438e-02	2.148438e-02
28.561910	2.456992	dec_choice	2.456992	16.000000	n/a	4	2.213542e-02	2.213542e-02
28.561910	2.456992	dec_social_accept	2.456992	16.000000	n/a	4	-1.075000e-01	-1.075000e-01
28.561910	2.456992	dec_accept	2.456992	16.000000	n/a	4	-1.363636e-01	-1.363636e-01
28.561910	2.456992	dec_social_high	2.456992	16.000000	n/a	4	2.213542e-02	2.213542e-02
28.561910	2.456992	dec_social_accept_high	2.456992	16.000000	n/a	4	2.213542e-02	2.213542e-02
35.376747	1.830646	dec_social_choice	1.830646	32.000000	n/a	16	2.714844e-01	2.714844e-01
35.376747	1.830646	dec_choice	1.830646	32.000000	n/a	16	2.721354e-01	2.721354e-01
35.376747	1.830646	dec_social_accept	1.830646	32.000000	n/a	16	1.425000e-01	1.425000e-01
35.376747	1.830646	dec_accept	1.830646	32.000000	n/a	16	1.136364e-01	1.136364e-01
35.376747	1.830646	dec_social_high	1.830646	32.000000	n/a	16	2.721354e-01	2.721354e-01
35.376747	1.830646	dec_social_accept_high	1.830646	32.000000	n/a	16	2.721354e-01	2.721354e-01
42.998905	1.029912	dec_nonsocial_choice	1.029912	16.000000	n/a	0	0	-2.285156e-01
42.998905	1.029912	dec_choice	1.029912	16.000000	n/a	0	0	-2.291667e-01
42.998905	1.029912	dec_nonsocial_reject	1.029912	16.000000	n/a	0	0	3.668478e-02
42.998905	1.029912	dec_reject	1.029912	16.000000	n/a	0	0	4.375000e-02
42.998905	1.029912	dec_nonsocial_reject_low	1.029912	16.000000	n/a	2	3.125000e-02	-9.375000e-02
49.813290	2.553161	dec_nonsocial_choice	2.553161	16.000000	n/a	2	-1.035156e-01	-1.035156e-01
49.813290	2.553161	dec_choice	2.553161	16.000000	n/a	2	-1.041667e-01	-1.041667e-01
49.813290	2.553161	dec_nonsocial_accept	2.553161	16.000000	n/a	2	-2.325000e-01	-2.325000e-01
49.813290	2.553161	dec_accept	2.553161	16.000000	n/a	2	-2.098214e-01	-2.098214e-01
49.813290	2.553161	dec_nonsocial_low	2.553161	16.000000	n/a	2	-1.041667e-01	-1.041667e-01
49.813290	2.553161	dec_nonsocial_accept_low	2.553161	16.000000	n/a	2	-2.098214e-01	-2.098214e-01
56.630013	1.359434	dec_social_choice	1.359434	16.000000	n/a	0	0	-2.285156e-01
56.630013	1.359434	dec_choice	1.359434	16.000000	n/a	0	0	-2.278646e-01
56.630013	1.359434	dec_social_reject	1.359434	16.000000	n/a	0	0	1.616848e-01
56.630013	1.359434	dec_reject	1.359434	16.000000	n/a	0	0	1.562500e-01
56.630013	1.359434	dec_social_reject_low	1.359434	16.000000	n/a	4	2.213542e-02	-2.278646e-01
64.251970	1.447033	dec_social_choice	1.447033	16.000000	n/a	4	2.148438e-02	2.148438e-02
64.251970	1.447033	dec_choice	1.447033	16.000000	n/a	4	2.213542e-02	2.213542e-02
64.251970	1.447033	dec_social_accept	1.447033	16.000000	n/a	4	-1.075000e-01	-1.075000e-01
64.251970	1.447033	dec_accept	1.447033	16.000000	n/a	4	-1.363636e-01	-1.363636e-01
64.251970	1.447033	dec_social_accept_high	1.447033	16.000000	n/a	4	2.213542e-02	2.213542e-02
71.872920	1.234210	dec_nonsocial_choice	1.234210	16.000000	n/a	8	2.714844e-01	2.714844e-01
71.872920	1.234210	dec_choice	1.234210	16.000000	n/a	8	2.708333e-01	2.708333e-01
71.872920	1.234210	dec_nonsocial_accept	1.234210	16.000000	n/a	8	1.425000e-01	1.425000e-01
71.872920	1.234210	dec_accept	1.234210	16.000000	n/a	8	1.651786e-01	1.651786e-01
71.872920	1.234210	dec_nonsocial_high	1.234210	16.000000	n/a	8	2.708333e-01	2.708333e-01
71.872920	1.234210	dec_nonsocial_accept_high	1.234210	16.000000	n/a	8	1.651786e-01	1.651786e-01
79.494410	1.432484	dec_nonsocial_choice	1.432484	32.000000	n/a	16	2.714844e-01	2.714844e-01
79.494410	1.432484	dec_choice	1.432484	32.000000	n/a	16	2.708333e-01	2.708333e-01
79.494410	1.432484	dec_nonsocial_accept	1.432484	32.000000	n/a	16	1.425000e-01	1.425000e-01
79.494410	1.432484	dec_accept	1.432484	32.000000	n/a	16	1.651786e-01	1.651786e-01
79.494410	1.432484	dec_nonsocial_accept_high	1.432484	32.000000	n/a	16	1.136364e-01	1.136364e-01
88.730970	1.364318	dec_nonsocial_choice	1.364318	32.000000	n/a	0	0	-2.285156e-01
88.730970	1.364318	dec_choice	1.364318	32.000000	n/a	0	0	-2.291667e-01
88.730970	1.364318	dec_nonsocial_reject	1.364318	32.000000	n/a	0	0	-2.581522e-02
88.730970	1.364318	dec_reject	1.364318	32.000000	n/a	0	0	-1.875000e-02
88.730970	1.364318	dec_nonsocial_low	1.364318	32.000000	n/a	0	-2.291667e-01	-2.291667e-01
88.730970	1.364318	dec_nonsocial_reject_low	1.364318	32.000000	n/a	2	-1.875000e-02	-8.125000e-02
99.581215	1.331329	dec_nonsocial_choice	1.331329	32.000000	n/a	0	0	-2.285156e-01
99.581215	1.331329	dec_choice	1.331329	32.000000	n/a	0	0	-2.291667e-01
99.581215	1.331329	dec_nonsocial_reject	1.331329	32.000000	n/a	0	0	5.434783e-03
99.581215	1.331329	dec_reject	1.331329	32.000000	n/a	0	0	1.250000e-02
99.581215	1.331329	dec_nonsocial_reject_low	1.331329	32.000000	n/a	3	0	-9.375000e-02
107.203170	1.024279	dec_nonsocial_choice	1.024279	32.000000	n/a	0	0	-2.285156e-01
107.203170	1.024279	dec_choice	1.024279	32.000000	n/a	0	0	-2.291667e-01
107.203170	1.024279	dec_nonsocial_reject	1.024279	32.000000	n/a	0	0	-2.581522e-02
107.203170	1.024279	dec_reject	1.024279	32.000000	n/a	0	0	-1.875000e-02
107.203170	1.024279	dec_nonsocial_reject_low	1.024279	32.000000	n/a	2	-3.125000e-02	-9.375000e-02
116.438770	1.024980	dec_nonsocial_choice	1.024980	32.000000	n/a	8	2.148438e-02	2.148438e-02
116.438770	1.024980	dec_choice	1.024980	32.000000	n/a	8	2.083333e-02	2.083333e-02
116.438770	1.024980	dec_nonsocial_accept	1.024980	32.000000	n/a	8	-1.075000e-01	-1.075000e-01
116.438770	1.024980	dec_accept	1.024980	32.000000	n/a	8	-8.482143e-02	-8.482143e-02
116.438770	1.024980	dec_nonsocial_accept_high	1.024980	32.000000	n/a	8	-1.363636e-01	-1.363636e-01
124.059910	1.775067	dec_nonsocial_choice	1.775067	16.000000	n/a	8	2.714844e-01	2.714844e-01
124.059910	1.775067	dec_choice	1.775067	16.000000	n/a	8	2.708333e-01	2.708333e-01
124.059910	1.775067	dec_nonsocial_accept	1.775067	16.000000	n/a	8	1.425000e-01	1.425000e-01
124.059910	1.775067	dec_accept	1.775067	16.000000	n/a	8	1.651786e-01	1.651786e-01
124.059910	1.775067	dec_nonsocial_high	1.775067	16.000000	n/a	8	2.708333e-01	2.708333e-01
124.059910	1.775067	dec_nonsocial_accept_high	1.775067	16.000000	n/a	8	1.651786e-01	1.651786e-01
130.873920	1.918391	dec_nonsocial_choice	1.918391	32.000000	n/a	2	-1.660156e-01	-1.660156e-01
130.873920	1.918391	dec_choice	1.918391	32.000000	n/a	2	-1.666667e-01	-1.666667e-01
130.873920	1.918391	dec_nonsocial_accept	1.918391	32.000000	n/a	2	-2.950000e-01	-2.950000e-01
130.873920	1.918391	dec_accept	1.918391	32.000000	n/a	2	-2.723214e-01	-2.723214e-01
130.873920	1.918391	dec_nonsocial_accept_low	1.918391	32.000000	n/a	2	-3.238636e-01	-3.238636e-01
140.111770	1.155482	dec_social_choice	1.155482	32.000000	n/a	8	2.148438e-02	2.148438e-02
140.111770	1.155482	dec_choice	1.155482	32.000000	n/a	8	2.213542e-02	2.213542e-02
140.111770	1.155482	dec_social_accept	1.155482	32.000000	n/a	8	-1.075000e-01	-1.075000e-01
140.111770	1.155482	dec_accept	1.155482	32.000000	n/a	8	-1.363636e-01	-1.363636e-01
140.111770	1.155482	dec_social_accept_high	1.155482	32.000000	n/a	8	2.213542e-02	2.213542e-02
146.926910	1.287494	dec_nonsocial_choice	1.287494	32.000000	n/a	16	2.714844e-01	2.714844e-01
146.926910	1.287494	dec_choice	1.287494	32.000000	n/a	16	2.708333e-01	2.708333e-01
146.926910	1.287494	dec_nonsocial_accept	1.287494	32.000000	n/a	16	1.425000e-01	1.425000e-01
146.926910	1.287494	dec_accept	1.287494	32.000000	n/a	16	1.651786e-01	1.651786e-01
146.926910	1.287494	dec_nonsocial_high	1.287494	32.000000	n/a	16	2.708333e-01	2.708333e-01
146.926910	1.287494	dec_nonsocial_accept_high	1.287494	32.000000	n/a	16	1.651786e-01	1.651786e-01
153.741880	1.745881	dec_social_choice	1.745881	32.000000	n/a	0	0	-2.285156e-01
153.741880	1.745881	dec_choice	1.745881	32.000000	n/a	0	0	-2.278646e-01
153.741880	1.745881	dec_social_reject	1.745881	32.000000	n/a	0	0	5.434783e-03
153.741880	1.745881	dec_reject	1.745881	32.000000	n/a	0	0	0
153.741880	1.745881	dec_social_reject_low	1.745881	32.000000	n/a	3	-1.341146e-01	-2.278646e-01
166.207870	1.364153	dec_social_choice	1.364153	16.000000	n/a	8	2.714844e-01	2.714844e-01
166.207870	1.364153	dec_choice	1.364153	16.000000	n/a	8	2.721354e-01	2.721354e-01
166.207870	1.364153	dec_social_accept	1.364153	16.000000	n/a	8	1.425000e-01	1.425000e-01
166.207870	1.364153	dec_accept	1.364153	16.000000	n/a	8	1.136364e-01	1.136364e-01
166.207870	1.364153	dec_social_high	1.364153	16.000000	n/a	8	2.721354e-01	2.721354e-01
166.207870	1.364153	dec_social_accept_high	1.364153	16.000000	n/a	8	2.721354e-01	2.721354e-01
177.059650	1.305393	dec_social_choice	1.305393	32.000000	n/a	0	0	-2.285156e-01
177.059650	1.305393	dec_choice	1.305393	32.000000	n/a	0	0	-2.278646e-01
177.059650	1.305393	dec_social_reject	1.305393	32.000000	n/a	0	0	5.434783e-03
177.059650	1.305393	dec_reject	1.305393	32.000000	n/a	0	0	0
177.059650	1.305393	dec_social_reject_low	1.305393	32.000000	n/a	3	-1.341146e-01	-2.278646e-01
184.680530	1.110981	dec_social_choice	1.110981	32.000000	n/a	16	2.714844e-01	2.714844e-01
184.680530	1.110981	dec_choice	1.110981	32.000000	n/a	16	2.721354e-01	2.721354e-01
184.680530	1.110981	dec_social_accept	1.110981	32.000000	n/a	16	1.425000e-01	1.425000e-01
184.680530	1.110981	dec_accept	1.110981	32.000000	n/a	16	1.136364e-01	1.136364e-01
184.680530	1.110981	dec_social_accept_high	1.110981	32.000000	n/a	16	2.721354e-01	2.721354e-01
193.915560	1.194829	dec_social_choice	1.194829	32.000000	n/a	0	0	-2.285156e-01
193.915560	1.194829	dec_choice	1.194829	32.000000	n/a	0	0	-2.278646e-01
193.915560	1.194829	dec_social_reject	1.194829	32.000000	n/a	0	0	5.434783e-03
193.915560	1.194829	dec_reject	1.194829	32.000000	n/a	0	0	0
193.915560	1.194829	dec_social_low	1.194829	32.000000	n/a	0	-2.278646e-01	-2.278646e-01
193.915560	1.194829	dec_social_reject_low	1.194829	32.000000	n/a	3	-1.341146e-01	-2.278646e-01
200.728880	1.779440	dec_nonsocial_choice	1.779440	32.000000	n/a	0	0	-2.285156e-01
200.728880	1.779440	dec_choice	1.779440	32.000000	n/a	0	0	-2.291667e-01
200.728880	1.779440	dec_nonsocial_reject	1.779440	32.000000	n/a	0	0	5.434783e-03
200.728880	1.779440	dec_reject	1.779440	32.000000	n/a	0	0	1.250000e-02
200.728880	1.779440	dec_nonsocial_low	1.779440	32.000000	n/a	0	-2.291667e-01	-2.291667e-01
200.728880	1.779440	dec_nonsocial_reject_low	1.779440	32.000000	n/a	3	1.250000e-02	-8.125000e-02
207.542910	1.141679	dec_social_choice	1.141679	32.000000	n/a	16	2.714844e-01	2.714844e-01
207.542910	1.141679	dec_choice	1.141679	32.000000	n/a	16	2.721354e-01	2.721354e-01
207.542910	1.141679	dec_social_accept	1.141679	32.000000	n/a	16	1.425000e-01	1.425000e-01
207.542910	1.141679	dec_accept	1.141679	32.000000	n/a	16	1.136364e-01	1.136364e-01
207.542910	1.141679	dec_social_high	1.141679	32.000000	n/a	16	2.721354e-01	2.721354e-01
207.542910	1.141679	dec_social_accept_high	1.141679	32.000000	n/a	16	2.721354e-01	2.721354e-01
214.355850	0.997848	dec_social_choice	0.997848	32.000000	n/a	0	0	-2.285156e-01
214.355850	0.997848	dec_choice	0.997848	32.000000	n/a	0	0	-2.278646e-01
214.355850	0.997848	dec_social_reject	0.997848	32.000000	n/a	0	0	5.434783e-03
214.355850	0.997848	dec_reject	0.997848	32.000000	n/a	0	0	0
214.355850	0.997848	dec_social_reject_low	0.997848	32.000000	n/a	3	-1.341146e-01	-2.278646e-01
223.592240	1.317449	dec_nonsocial_choice	1.317449	32.000000	n/a	8	2.148438e-02	2.148438e-02
223.592240	1.317449	dec_choice	1.317449	32.000000	n/a	8	2.083333e-02	2.083333e-02
223.592240	1.317449	dec_nonsocial_accept	1.317449	32.000000	n/a	8	-1.075000e-01	-1.075000e-01
223.592240	1.317449	dec_accept	1.317449	32.000000	n/a	8	-8.482143e-02	-8.482143e-02
223.592240	1.317449	dec_nonsocial_accept_high	1.317449	32.000000	n/a	8	-1.363636e-01	-1.363636e-01
232.827770	1.374091	dec_social_choice	1.374091	32.000000	n/a	0	0	-2.285156e-01
232.827770	1.374091	dec_choice	1.374091	32.000000	n/a	0	0	-2.278646e-01
232.827770	1.374091	dec_social_reject	1.374091	32.000000	n/a	0	0	-2.581522e-02
232.827770	1.374091	dec_reject	1.374091	32.000000	n/a	0	0	-3.125000e-02
232.827770	1.374091	dec_social_low	1.374091	32.000000	n/a	0	-2.278646e-01	-2.278646e-01
232.827770	1.374091	dec_social_reject_low	1.374091	32.000000	n/a	2	-1.653646e-01	-2.278646e-01
239.641700	1.240204	dec_social_choice	1.240204	16.000000	n/a	0	0	-2.285156e-01
239.641700	1.240204	dec_choice	1.240204	16.000000	n/a	0	0	-2.278646e-01
239.641700	1.240204	dec_social_reject	1.240204	16.000000	n/a	0	0	-2.581522e-02
239.641700	1.240204	dec_reject	1.240204	16.000000	n/a	0	0	-3.125000e-02
239.641700	1.240204	dec_social_low	1.240204	16.000000	n/a	0	-2.278646e-01	-2.278646e-01
239.641700	1.240204	dec_social_reject_low	1.240204	16.000000	n/a	1	-1.653646e-01	-2.278646e-01
246.455830	1.135209	dec_social_choice	1.135209	32.000000	n/a	16	2.714844e-01	2.714844e-01
246.455830	1.135209	dec_choice	1.135209	32.000000	n/a	16	2.721354e-01	2.721354e-01
246.455830	1.135209	dec_social_accept	1.135209	32.000000	n/a	16	1.425000e-01	1.425000e-01
246.455830	1.135209	dec_accept	1.135209	32.000000	n/a	16	1.136364e-01	1.136364e-01
246.455830	1.135209	dec_social_accept_high	1.135209	32.000000	n/a	16	2.721354e-01	2.721354e-01
253.269210	1.161533	dec_nonsocial_choice	1.161533	32.000000	n/a	16	2.714844e-01	2.714844e-01
253.269210	1.161533	dec_choice	1.161533	32.000000	n/a	16	2.708333e-01	2.708333e-01
253.269210	1.161533	dec_nonsocial_accept	1.161533	32.000000	n/a	16	1.425000e-01	1.425000e-01
253.269210	1.161533	dec_accept	1.161533	32.000000	n/a	16	1.651786e-01	1.651786e-01
253.269210	1.161533	dec_nonsocial_accept_high	1.161533	32.000000	n/a	16	1.136364e-01	1.136364e-01
260.892800	1.340949	dec_social_choice	1.340949	16.000000	n/a	0	0	-2.285156e-01
260.892800	1.340949	dec_choice	1.340949	16.000000	n/a	0	0	-2.278646e-01
260.892800	1.340949	dec_social_reject	1.340949	16.000000	n/a	0	0	-2.581522e-02
260.892800	1.340949	dec_reject	1.340949	16.000000	n/a	0	0	-3.125000e-02
260.892800	1.340949	dec_social_reject_low	1.340949	16.000000	n/a	1	-1.653646e-01	-2.278646e-01
271.742800	0.960985	dec_nonsocial_choice	0.960985	32.000000	n/a	8	2.148438e-02	2.148438e-02
271.742800	0.960985	dec_choice	0.960985	32.000000	n/a	8	2.083333e-02	2.083333e-02
271.742800	0.960985	dec_nonsocial_accept	0.960985	32.000000	n/a	8	-1.075000e-01	-1.075000e-01
271.742800	0.960985	dec_accept	0.960985	32.000000	n/a	8	-8.482143e-02	-8.482143e-02
271.742800	0.960985	dec_nonsocial_accept_high	0.960985	32.000000	n/a	8	-1.363636e-01	-1.363636e-01
278.558600	1.200548	dec_nonsocial_choice	1.200548	32.000000	n/a	0	0	-2.285156e-01
278.558600	1.200548	dec_choice	1.200548	32.000000	n/a	0	0	-2.291667e-01
278.558600	1.200548	dec_nonsocial_reject	1.200548	32.000000	n/a	0	0	-2.581522e-02
278.558600	1.200548	dec_reject	1.200548	32.000000	n/a	0	0	-1.875000e-02
278.558600	1.200548	dec_nonsocial_low	1.200548	32.000000	n/a	0	-2.291667e-01	-2.291667e-01
278.558600	1.200548	dec_nonsocial_reject_low	1.200548	32.000000	n/a	2	-1.875000e-02	-8.125000e-02
285.373720	1.112432	dec_social_choice	1.112432	32.000000	n/a	0	0	-2.285156e-01
285.373720	1.112432	dec_choice	1.112432	32.000000	n/a	0	0	-2.278646e-01
285.373720	1.112432	dec_social_reject	1.112432	32.000000	n/a	0	0	-2.581522e-02
285.373720	1.112432	dec_reject	1.112432	32.000000	n/a	0	0	-3.125000e-02
285.373720	1.112432	dec_social_low	1.112432	32.000000	n/a	0	-2.278646e-01	-2.278646e-01
285.373720	1.112432	dec_social_reject_low	1.112432	32.000000	n/a	2	-1.653646e-01	-2.278646e-01
294.610600	1.128460	dec_social_choice	1.128460	32.000000	n/a	0	0	-2.285156e-01
294.610600	1.128460	dec_choice	1.128460	32.000000	n/a	0	0	-2.278646e-01
294.610600	1.128460	dec_social_reject	1.128460	32.000000	n/a	0	0	5.434783e-03
294.610600	1.128460	dec_reject	1.128460	32.000000	n/a	0	0	0
294.610600	1.128460	dec_social_low	1.128460	32.000000	n/a	0	-2.278646e-01	-2.278646e-01
294.610600	1.128460	dec_social_reject_low	1.128460	32.000000	n/a	3	-1.341146e-01	-2.278646e-01
301.425750	1.985199	dec_social_choice	1.985199	16.000000	n/a	0	0	-2.285156e-01
301.425750	1.985199	dec_choice	1.985199	16.000000	n/a	0	0	-2.278646e-01
301.425750	1.985199	dec_social_reject	1.985199	16.000000	n/a	0	0	3.668478e-02
301.425750	1.985199	dec_reject	1.985199	16.000000	n/a	0	0	3.125000e-02
301.425750	1.985199	dec_social_reject_low	1.985199	16.000000	n/a	2	-1.028646e-01	-2.278646e-01
308.239600	1.099263	dec_nonsocial_choice	1.099263	32.000000	n/a	0	0	-2.285156e-01
308.239600	1.099263	dec_choice	1.099263	32.000000	n/a	0	0	-2.291667e-01
308.239600	1.099263	dec_nonsocial_reject	1.099263	32.000000	n/a	0	0	5.434783e-03
308.239600	1.099263	dec_reject	1.099263	32.000000	n/a	0	0	1.250000e-02
308.239600	1.099263	dec_nonsocial_low	1.099263	32.000000	n/a	0	-2.291667e-01	-2.291667e-01
308.239600	1.099263	dec_nonsocial_reject_low	1.099263	32.000000	n/a	3	1.250000e-02	-8.125000e-02
315.054080	1.341146	dec_social_choice	1.341146	16.000000	n/a	8	2.714844e-01	2.714844e-01
315.054080	1.341146	dec_choice	1.341146	16.000000	n/a	8	2.721354e-01	2.721354e-01
315.054080	1.341146	dec_social_accept	1.341146	16.000000	n/a	8	1.425000e-01	1.425000e-01
315.054080	1.341146	dec_accept	1.341146	16.000000	n/a	8	1.136364e-01	1.136364e-01
315.054080	1.341146	dec_social_high	1.341146	16.000000	n/a	8	2.721354e-01	2.721354e-01
315.054080	1.341146	dec_social_accept_high	1.341146	16.000000	n/a	8	2.721354e-01	2.721354e-01
321.867900	1.546727	dec_nonsocial_choice	1.546727	16.000000	n/a	4	2.148438e-02	2.148438e-02
321.867900	1.546727	dec_choice	1.546727	16.000000	n/a	4	2.083333e-02	2.083333e-02
321.867900	1.546727	dec_nonsocial_accept	1.546727	16.000000	n/a	4	-1.075000e-01	-1.075000e-01
321.867900	1.546727	dec_accept	1.546727	16.000000	n/a	4	-8.482143e-02	-8.482143e-02
321.867900	1.546727	dec_nonsocial_accept_high	1.546727	16.000000	n/a	4	-1.363636e-01	-1.363636e-01
328.681850	1.438027	dec_social_choice	1.438027	32.000000	n/a	0	0	-2.285156e-01
328.681850	1.438027	dec_choice	1.438027	32.000000	n/a	0	0	-2.278646e-01
328.681850	1.438027	dec_social_reject	1.438027	32.000000	n/a	0	0	-2.581522e-02
328.681850	1.438027	dec_reject	1.438027	32.000000	n/a	0	0	-3.125000e-02
328.681850	1.438027	dec_social_reject_low	1.438027	32.000000	n/a	2	-1.653646e-01	-2.278646e-01
335.495300	0.895261	dec_nonsocial_choice	0.895261	16.000000	n/a	4	2.148438e-02	2.148438e-02
335.495300	0.895261	dec_choice	0.895261	16.000000	n/a	4	2.083333e-02	2.083333e-02
335.495300	0.895261	dec_nonsocial_accept	0.895261	16.000000	n/a	4	-1.075000e-01	-1.075000e-01
335.495300	0.895261	dec_accept	0.895261	16.000000	n/a	4	-8.482143e-02	-8.482143e-02
335.495300	0.895261	dec_nonsocial_accept_high	0.895261	16.000000	n/a	4	-1.363636e-01	-1.363636e-01
342.309600	0.783427	dec_social_choice	0.783427	16.000000	n/a	4	2.148438e-02	2.148438e-02
342.309600	0.783427	dec_choice	0.783427	16.000000	n/a	4	2.213542e-02	2.213542e-02
342.309600	0.783427	dec_social_accept	0.783427	16.000000	n/a	4	-1.075000e-01	-1.075000e-01
342.309600	0.783427	dec_accept	0.783427	16.000000	n/a	4	-1.363636e-01	-1.363636e-01
342.309600	0.783427	dec_social_accept_high	0.783427	16.000000	n/a	4	2.213542e-02	2.213542e-02
349.122770	1.612670	dec_nonsocial_choice	1.612670	32.000000	n/a	0	0	-2.285156e-01
349.122770	1.612670	dec_choice	1.612670	32.000000	n/a	0	0	-2.291667e-01
349.122770	1.612670	dec_nonsocial_reject	1.612670	32.000000	n/a	0	0	-2.581522e-02
349.122770	1.612670	dec_reject	1.612670	32.000000	n/a	0	0	-1.875000e-02
349.122770	1.612670	dec_nonsocial_reject_low	1.612670	32.000000	n/a	2	-3.125000e-02	-9.375000e-02
356.743380	2.356826	dec_nonsocial_choice	2.356826	32.000000	n/a	0	0	-2.285156e-01
356.743380	2.356826	dec_choice	2.356826	32.000000	n/a	0	0	-2.291667e-01
356.743380	2.356826	dec_nonsocial_reject	2.356826	32.000000	n/a	0	0	5.434783e-03
356.743380	2.356826	dec_reject	2.356826	32.000000	n/a	0	0	1.250000e-02
356.743380	2.356826	dec_nonsocial_low	2.356826	32.000000	n/a	0	-2.291667e-01	-2.291667e-01
356.743380	2.356826	dec_nonsocial_reject_low	2.356826	32.000000	n/a	3	1.250000e-02	-8.125000e-02
364.364380	0.924298	dec_nonsocial_choice	0.924298	32.000000	n/a	16	2.714844e-01	2.714844e-01
364.364380	0.924298	dec_choice	0.924298	32.000000	n/a	16	2.708333e-01	2.708333e-01
364.364380	0.924298	dec_nonsocial_accept	0.924298	32.000000	n/a	16	1.425000e-01	1.425000e-01
364.364380	0.924298	dec_accept	0.924298	32.000000	n/a	16	1.651786e-01	1.651786e-01
364.364380	0.924298	dec_nonsocial_accept_high	0.924298	32.000000	n/a	16	1.136364e-01	1.136364e-01
371.984280	1.252595	dec_nonsocial_choice	1.252595	32.000000	n/a	0	0	-2.285156e-01
371.984280	1.252595	dec_choice	1.252595	32.000000	n/a	0	0	-2.291667e-01
371.984280	1.252595	dec_nonsocial_reject	1.252595	32.000000	n/a	0	0	-2.581522e-02
371.984280	1.252595	dec_reject	1.252595	32.000000	n/a	0	0	-1.875000e-02
371.984280	1.252595	dec_nonsocial_reject_low	1.252595	32.000000	n/a	2	-3.125000e-02	-9.375000e-02
