onset	duration	trial_type	response_time	Endowment	Endowment_pmod	Decision	Decision_pmod	Offer_pmod
4.513681	2	cue_nonsocial	n/a	16	-11	n/a	n/a	n/a
4.513681	2	cue_nonsocial_low	n/a	16	-10	n/a	n/a	n/a
13.739493	2	cue_nonsocial	n/a	16	-11	n/a	n/a	n/a
13.739493	2	cue_nonsocial_low	n/a	16	-10	n/a	n/a	n/a
20.652086	2	cue_social	n/a	32	6	n/a	n/a	n/a
20.652086	2	cue_social_high	n/a	32	5	n/a	n/a	n/a
27.428951	2	cue_social	n/a	32	6	n/a	n/a	n/a
27.428951	2	cue_social_high	n/a	32	5	n/a	n/a	n/a
35.049793	2	cue_social	n/a	32	6	n/a	n/a	n/a
35.049793	2	cue_social_high	n/a	32	5	n/a	n/a	n/a
41.810776	2	cue_nonsocial	n/a	16	-11	n/a	n/a	n/a
41.810776	2	cue_nonsocial_low	n/a	16	-10	n/a	n/a	n/a
48.629364	2	cue_nonsocial	n/a	32	5	n/a	n/a	n/a
48.629364	2	cue_nonsocial_high	n/a	32	6	n/a	n/a	n/a
56.301052	2	cue_social	n/a	32	6	n/a	n/a	n/a
56.301052	2	cue_social_high	n/a	32	5	n/a	n/a	n/a
63.861813	2	cue_nonsocial	n/a	32	5	n/a	n/a	n/a
63.861813	2	cue_nonsocial_high	n/a	32	6	n/a	n/a	n/a
70.673760	2	cue_nonsocial	n/a	32	5	n/a	n/a	n/a
70.673760	2	cue_nonsocial_high	n/a	32	6	n/a	n/a	n/a
78.305824	2	cue_nonsocial	n/a	32	5	n/a	n/a	n/a
78.305824	2	cue_nonsocial_high	n/a	32	6	n/a	n/a	n/a
87.539920	2	cue_nonsocial	n/a	32	5	n/a	n/a	n/a
87.539920	2	cue_nonsocial_high	n/a	32	6	n/a	n/a	n/a
96.768240	2	cue_nonsocial	n/a	32	5	n/a	n/a	n/a
96.768240	2	cue_nonsocial_high	n/a	32	6	n/a	n/a	n/a
104.386220	2	cue_nonsocial	n/a	16	-11	n/a	n/a	n/a
104.386220	2	cue_nonsocial_low	n/a	16	-10	n/a	n/a	n/a
113.684550	2	cue_social	n/a	16	-10	n/a	n/a	n/a
113.684550	2	cue_social_low	n/a	16	-11	n/a	n/a	n/a
122.856430	2	cue_nonsocial	n/a	32	5	n/a	n/a	n/a
122.856430	2	cue_nonsocial_high	n/a	32	6	n/a	n/a	n/a
129.733730	2	cue_social	n/a	32	6	n/a	n/a	n/a
129.733730	2	cue_social_high	n/a	32	5	n/a	n/a	n/a
140.521900	2	cue_nonsocial	n/a	32	5	n/a	n/a	n/a
140.521900	2	cue_nonsocial_high	n/a	32	6	n/a	n/a	n/a
148.149600	2	cue_nonsocial	n/a	32	5	n/a	n/a	n/a
148.149600	2	cue_nonsocial_high	n/a	32	6	n/a	n/a	n/a
158.997240	2	cue_nonsocial	n/a	16	-11	n/a	n/a	n/a
158.997240	2	cue_nonsocial_low	n/a	16	-10	n/a	n/a	n/a
165.811630	2	cue_nonsocial	n/a	32	5	n/a	n/a	n/a
165.811630	2	cue_nonsocial_high	n/a	32	6	n/a	n/a	n/a
172.694060	2	cue_social	n/a	32	6	n/a	n/a	n/a
172.694060	2	cue_social_high	n/a	32	5	n/a	n/a	n/a
179.489140	2	cue_social	n/a	32	6	n/a	n/a	n/a
179.489140	2	cue_social_high	n/a	32	5	n/a	n/a	n/a
187.116930	2	cue_social	n/a	32	6	n/a	n/a	n/a
187.116930	2	cue_social_high	n/a	32	5	n/a	n/a	n/a
194.774570	2	cue_social	n/a	32	6	n/a	n/a	n/a
194.774570	2	cue_social_high	n/a	32	5	n/a	n/a	n/a
201.492700	2	cue_nonsocial	n/a	32	5	n/a	n/a	n/a
201.492700	2	cue_nonsocial_high	n/a	32	6	n/a	n/a	n/a
210.808090	2	cue_social	n/a	16	-10	n/a	n/a	n/a
210.808090	2	cue_social_low	n/a	16	-11	n/a	n/a	n/a
217.606320	2	cue_social	n/a	32	6	n/a	n/a	n/a
217.606320	2	cue_social_high	n/a	32	5	n/a	n/a	n/a
224.366420	2	cue_nonsocial	n/a	32	5	n/a	n/a	n/a
224.366420	2	cue_nonsocial_high	n/a	32	6	n/a	n/a	n/a
232.080300	2	cue_social	n/a	16	-10	n/a	n/a	n/a
232.080300	2	cue_social_low	n/a	16	-11	n/a	n/a	n/a
238.859010	2	cue_social	n/a	32	6	n/a	n/a	n/a
238.859010	2	cue_social_high	n/a	32	5	n/a	n/a	n/a
248.088260	2	cue_social	n/a	16	-10	n/a	n/a	n/a
248.088260	2	cue_social_low	n/a	16	-11	n/a	n/a	n/a
254.904100	2	cue_social	n/a	16	-10	n/a	n/a	n/a
254.904100	2	cue_social_low	n/a	16	-11	n/a	n/a	n/a
261.728200	2	cue_social	n/a	16	-10	n/a	n/a	n/a
261.728200	2	cue_social_low	n/a	16	-11	n/a	n/a	n/a
268.481230	2	cue_nonsocial	n/a	32	5	n/a	n/a	n/a
268.481230	2	cue_nonsocial_high	n/a	32	6	n/a	n/a	n/a
275.285280	2	cue_nonsocial	n/a	32	5	n/a	n/a	n/a
275.285280	2	cue_nonsocial_high	n/a	32	6	n/a	n/a	n/a
282.914340	2	cue_nonsocial	n/a	16	-11	n/a	n/a	n/a
282.914340	2	cue_nonsocial_low	n/a	16	-10	n/a	n/a	n/a
293.821720	2	cue_social	n/a	32	6	n/a	n/a	n/a
293.821720	2	cue_social_high	n/a	32	5	n/a	n/a	n/a
300.576480	2	cue_nonsocial	n/a	16	-11	n/a	n/a	n/a
300.576480	2	cue_nonsocial_low	n/a	16	-10	n/a	n/a	n/a
313.111570	2	cue_social	n/a	32	6	n/a	n/a	n/a
313.111570	2	cue_social_high	n/a	32	5	n/a	n/a	n/a
319.927250	2	cue_social	n/a	16	-10	n/a	n/a	n/a
319.927250	2	cue_social_low	n/a	16	-11	n/a	n/a	n/a
327.481140	2	cue_nonsocial	n/a	32	5	n/a	n/a	n/a
327.481140	2	cue_nonsocial_high	n/a	32	6	n/a	n/a	n/a
334.349880	2	cue_social	n/a	32	6	n/a	n/a	n/a
334.349880	2	cue_social_high	n/a	32	5	n/a	n/a	n/a
341.167450	2	cue_social	n/a	16	-10	n/a	n/a	n/a
341.167450	2	cue_social_low	n/a	16	-11	n/a	n/a	n/a
347.922360	2	cue_nonsocial	n/a	16	-11	n/a	n/a	n/a
347.922360	2	cue_nonsocial_low	n/a	16	-10	n/a	n/a	n/a
354.790800	2	cue_social	n/a	32	6	n/a	n/a	n/a
354.790800	2	cue_social_high	n/a	32	5	n/a	n/a	n/a
362.430800	2	cue_social	n/a	16	-10	n/a	n/a	n/a
362.430800	2	cue_social_low	n/a	16	-11	n/a	n/a	n/a
369.972560	2	cue_nonsocial	n/a	32	5	n/a	n/a	n/a
369.972560	2	cue_nonsocial_high	n/a	32	6	n/a	n/a	n/a
6.503920	2.008468	dec_nonsocial_choice	2.008468	16.000000	n/a	4	1.888021e-02	1.888021e-02
6.503920	2.008468	dec_choice	2.008468	16.000000	n/a	4	1.822917e-02	1.822917e-02
6.503920	2.008468	dec_nonsocial_accept	2.008468	16.000000	n/a	4	-1.125000e-01	-1.125000e-01
6.503920	2.008468	dec_accept	2.008468	16.000000	n/a	4	-1.250000e-01	-1.250000e-01
6.503920	2.008468	dec_nonsocial_high	2.008468	16.000000	n/a	4	1.822917e-02	1.822917e-02
6.503920	2.008468	dec_nonsocial_accept_high	2.008468	16.000000	n/a	4	-1.250000e-01	-1.250000e-01
15.741584	1.186929	dec_nonsocial_choice	1.186929	16.000000	n/a	0	0	-2.311198e-01
15.741584	1.186929	dec_choice	1.186929	16.000000	n/a	0	0	-2.317708e-01
15.741584	1.186929	dec_nonsocial_reject	1.186929	16.000000	n/a	0	0	3.668478e-02
15.741584	1.186929	dec_reject	1.186929	16.000000	n/a	0	0	3.645833e-02
15.741584	1.186929	dec_nonsocial_low	1.186929	16.000000	n/a	0	-2.317708e-01	-2.317708e-01
15.741584	1.186929	dec_nonsocial_reject_low	1.186929	16.000000	n/a	2	3.645833e-02	-8.854167e-02
22.556524	0.793327	dec_social_choice	0.793327	32.000000	n/a	16	2.688802e-01	2.688802e-01
22.556524	0.793327	dec_choice	0.793327	32.000000	n/a	16	2.695312e-01	2.695312e-01
22.556524	0.793327	dec_social_accept	0.793327	32.000000	n/a	16	1.375000e-01	1.375000e-01
22.556524	0.793327	dec_accept	0.793327	32.000000	n/a	16	1.490385e-01	1.490385e-01
22.556524	0.793327	dec_social_accept_high	0.793327	32.000000	n/a	16	2.695312e-01	2.695312e-01
29.370861	1.080416	dec_social_choice	1.080416	32.000000	n/a	16	2.688802e-01	2.688802e-01
29.370861	1.080416	dec_choice	1.080416	32.000000	n/a	16	2.695312e-01	2.695312e-01
29.370861	1.080416	dec_social_accept	1.080416	32.000000	n/a	16	1.375000e-01	1.375000e-01
29.370861	1.080416	dec_accept	1.080416	32.000000	n/a	16	1.490385e-01	1.490385e-01
29.370861	1.080416	dec_social_high	1.080416	32.000000	n/a	16	2.695312e-01	2.695312e-01
29.370861	1.080416	dec_social_accept_high	1.080416	32.000000	n/a	16	2.695312e-01	2.695312e-01
36.991970	1.195305	dec_social_choice	1.195305	32.000000	n/a	16	2.688802e-01	2.688802e-01
36.991970	1.195305	dec_choice	1.195305	32.000000	n/a	16	2.695312e-01	2.695312e-01
36.991970	1.195305	dec_social_accept	1.195305	32.000000	n/a	16	1.375000e-01	1.375000e-01
36.991970	1.195305	dec_accept	1.195305	32.000000	n/a	16	1.490385e-01	1.490385e-01
36.991970	1.195305	dec_social_high	1.195305	32.000000	n/a	16	2.695312e-01	2.695312e-01
36.991970	1.195305	dec_social_accept_high	1.195305	32.000000	n/a	16	2.695312e-01	2.695312e-01
43.805107	1.274468	dec_nonsocial_choice	1.274468	16.000000	n/a	0	0	-2.311198e-01
43.805107	1.274468	dec_choice	1.274468	16.000000	n/a	0	0	-2.317708e-01
43.805107	1.274468	dec_nonsocial_reject	1.274468	16.000000	n/a	0	0	3.668478e-02
43.805107	1.274468	dec_reject	1.274468	16.000000	n/a	0	0	3.645833e-02
43.805107	1.274468	dec_nonsocial_reject_low	1.274468	16.000000	n/a	2	3.693182e-02	-8.806818e-02
50.619510	1.145009	dec_nonsocial_choice	1.145009	32.000000	n/a	0	0	-2.311198e-01
50.619510	1.145009	dec_choice	1.145009	32.000000	n/a	0	0	-2.317708e-01
50.619510	1.145009	dec_nonsocial_reject	1.145009	32.000000	n/a	0	0	-2.581522e-02
50.619510	1.145009	dec_reject	1.145009	32.000000	n/a	0	0	-2.604167e-02
50.619510	1.145009	dec_nonsocial_low	1.145009	32.000000	n/a	0	-2.317708e-01	-2.317708e-01
50.619510	1.145009	dec_nonsocial_reject_low	1.145009	32.000000	n/a	2	-2.604167e-02	-8.854167e-02
58.239925	1.420013	dec_social_choice	1.420013	32.000000	n/a	8	1.888021e-02	1.888021e-02
58.239925	1.420013	dec_choice	1.420013	32.000000	n/a	8	1.953125e-02	1.953125e-02
58.239925	1.420013	dec_social_accept	1.420013	32.000000	n/a	8	-1.125000e-01	-1.125000e-01
58.239925	1.420013	dec_accept	1.420013	32.000000	n/a	8	-1.009615e-01	-1.009615e-01
58.239925	1.420013	dec_social_high	1.420013	32.000000	n/a	8	1.953125e-02	1.953125e-02
58.239925	1.420013	dec_social_accept_high	1.420013	32.000000	n/a	8	1.953125e-02	1.953125e-02
65.861480	1.146827	dec_nonsocial_choice	1.146827	32.000000	n/a	0	0	-2.311198e-01
65.861480	1.146827	dec_choice	1.146827	32.000000	n/a	0	0	-2.317708e-01
65.861480	1.146827	dec_nonsocial_reject	1.146827	32.000000	n/a	0	0	5.434783e-03
65.861480	1.146827	dec_reject	1.146827	32.000000	n/a	0	0	5.208333e-03
65.861480	1.146827	dec_nonsocial_reject_low	1.146827	32.000000	n/a	3	5.681818e-03	-8.806818e-02
72.676400	1.681263	dec_nonsocial_choice	1.681263	32.000000	n/a	0	0	-2.311198e-01
72.676400	1.681263	dec_choice	1.681263	32.000000	n/a	0	0	-2.317708e-01
72.676400	1.681263	dec_nonsocial_reject	1.681263	32.000000	n/a	0	0	-2.581522e-02
72.676400	1.681263	dec_reject	1.681263	32.000000	n/a	0	0	-2.604167e-02
72.676400	1.681263	dec_nonsocial_reject_low	1.681263	32.000000	n/a	2	-2.556818e-02	-8.806818e-02
80.296850	1.248759	dec_nonsocial_choice	1.248759	32.000000	n/a	16	2.688802e-01	2.688802e-01
80.296850	1.248759	dec_choice	1.248759	32.000000	n/a	16	2.682292e-01	2.682292e-01
80.296850	1.248759	dec_nonsocial_accept	1.248759	32.000000	n/a	16	1.375000e-01	1.375000e-01
80.296850	1.248759	dec_accept	1.248759	32.000000	n/a	16	1.250000e-01	1.250000e-01
80.296850	1.248759	dec_nonsocial_accept_high	1.248759	32.000000	n/a	16	1.490385e-01	1.490385e-01
89.532270	1.291453	dec_nonsocial_choice	1.291453	32.000000	n/a	8	1.888021e-02	1.888021e-02
89.532270	1.291453	dec_choice	1.291453	32.000000	n/a	8	1.822917e-02	1.822917e-02
89.532270	1.291453	dec_nonsocial_accept	1.291453	32.000000	n/a	8	-1.125000e-01	-1.125000e-01
89.532270	1.291453	dec_accept	1.291453	32.000000	n/a	8	-1.250000e-01	-1.250000e-01
89.532270	1.291453	dec_nonsocial_high	1.291453	32.000000	n/a	8	1.822917e-02	1.822917e-02
89.532270	1.291453	dec_nonsocial_accept_high	1.291453	32.000000	n/a	8	-1.250000e-01	-1.250000e-01
98.768570	1.109075	dec_nonsocial_choice	1.109075	32.000000	n/a	0	0	-2.311198e-01
98.768570	1.109075	dec_choice	1.109075	32.000000	n/a	0	0	-2.317708e-01
98.768570	1.109075	dec_nonsocial_reject	1.109075	32.000000	n/a	0	0	-2.581522e-02
98.768570	1.109075	dec_reject	1.109075	32.000000	n/a	0	0	-2.604167e-02
98.768570	1.109075	dec_nonsocial_low	1.109075	32.000000	n/a	0	-2.317708e-01	-2.317708e-01
98.768570	1.109075	dec_nonsocial_reject_low	1.109075	32.000000	n/a	2	-2.604167e-02	-8.854167e-02
106.387450	1.079971	dec_nonsocial_choice	1.079971	16.000000	n/a	8	2.688802e-01	2.688802e-01
106.387450	1.079971	dec_choice	1.079971	16.000000	n/a	8	2.682292e-01	2.682292e-01
106.387450	1.079971	dec_nonsocial_accept	1.079971	16.000000	n/a	8	1.375000e-01	1.375000e-01
106.387450	1.079971	dec_accept	1.079971	16.000000	n/a	8	1.250000e-01	1.250000e-01
106.387450	1.079971	dec_nonsocial_accept_high	1.079971	16.000000	n/a	8	1.490385e-01	1.490385e-01
115.623245	1.156052	dec_social_choice	1.156052	16.000000	n/a	0	0	-2.311198e-01
115.623245	1.156052	dec_choice	1.156052	16.000000	n/a	0	0	-2.304688e-01
115.623245	1.156052	dec_social_reject	1.156052	16.000000	n/a	0	0	3.668478e-02
115.623245	1.156052	dec_reject	1.156052	16.000000	n/a	0	0	3.693182e-02
115.623245	1.156052	dec_social_low	1.156052	16.000000	n/a	0	-2.304688e-01	-2.304688e-01
115.623245	1.156052	dec_social_reject_low	1.156052	16.000000	n/a	2	-1.054688e-01	-2.304688e-01
124.859480	1.036259	dec_nonsocial_choice	1.036259	32.000000	n/a	8	1.888021e-02	1.888021e-02
124.859480	1.036259	dec_choice	1.036259	32.000000	n/a	8	1.822917e-02	1.822917e-02
124.859480	1.036259	dec_nonsocial_accept	1.036259	32.000000	n/a	8	-1.125000e-01	-1.125000e-01
124.859480	1.036259	dec_accept	1.036259	32.000000	n/a	8	-1.250000e-01	-1.250000e-01
124.859480	1.036259	dec_nonsocial_high	1.036259	32.000000	n/a	8	1.822917e-02	1.822917e-02
124.859480	1.036259	dec_nonsocial_accept_high	1.036259	32.000000	n/a	8	-1.250000e-01	-1.250000e-01
131.671860	1.845993	dec_social_choice	1.845993	32.000000	n/a	8	1.888021e-02	1.888021e-02
131.671860	1.845993	dec_choice	1.845993	32.000000	n/a	8	1.953125e-02	1.953125e-02
131.671860	1.845993	dec_social_accept	1.845993	32.000000	n/a	8	-1.125000e-01	-1.125000e-01
131.671860	1.845993	dec_accept	1.845993	32.000000	n/a	8	-1.009615e-01	-1.009615e-01
131.671860	1.845993	dec_social_accept_high	1.845993	32.000000	n/a	8	1.953125e-02	1.953125e-02
142.523210	1.895621	dec_nonsocial_choice	1.895621	32.000000	n/a	8	1.888021e-02	1.888021e-02
142.523210	1.895621	dec_choice	1.895621	32.000000	n/a	8	1.822917e-02	1.822917e-02
142.523210	1.895621	dec_nonsocial_accept	1.895621	32.000000	n/a	8	-1.125000e-01	-1.125000e-01
142.523210	1.895621	dec_accept	1.895621	32.000000	n/a	8	-1.250000e-01	-1.250000e-01
142.523210	1.895621	dec_nonsocial_high	1.895621	32.000000	n/a	8	1.822917e-02	1.822917e-02
142.523210	1.895621	dec_nonsocial_accept_high	1.895621	32.000000	n/a	8	-1.250000e-01	-1.250000e-01
150.144880	1.075171	dec_nonsocial_choice	1.075171	32.000000	n/a	0	0	-2.311198e-01
150.144880	1.075171	dec_choice	1.075171	32.000000	n/a	0	0	-2.317708e-01
150.144880	1.075171	dec_nonsocial_reject	1.075171	32.000000	n/a	0	0	-2.581522e-02
150.144880	1.075171	dec_reject	1.075171	32.000000	n/a	0	0	-2.604167e-02
150.144880	1.075171	dec_nonsocial_low	1.075171	32.000000	n/a	0	-2.317708e-01	-2.317708e-01
150.144880	1.075171	dec_nonsocial_reject_low	1.075171	32.000000	n/a	2	-2.604167e-02	-8.854167e-02
160.997860	1.585412	dec_nonsocial_choice	1.585412	16.000000	n/a	0	0	-2.311198e-01
160.997860	1.585412	dec_choice	1.585412	16.000000	n/a	0	0	-2.317708e-01
160.997860	1.585412	dec_nonsocial_reject	1.585412	16.000000	n/a	0	0	3.668478e-02
160.997860	1.585412	dec_reject	1.585412	16.000000	n/a	0	0	3.645833e-02
160.997860	1.585412	dec_nonsocial_reject_low	1.585412	16.000000	n/a	2	3.693182e-02	-8.806818e-02
167.810710	1.177906	dec_nonsocial_choice	1.177906	32.000000	n/a	16	2.688802e-01	2.688802e-01
167.810710	1.177906	dec_choice	1.177906	32.000000	n/a	16	2.682292e-01	2.682292e-01
167.810710	1.177906	dec_nonsocial_accept	1.177906	32.000000	n/a	16	1.375000e-01	1.375000e-01
167.810710	1.177906	dec_accept	1.177906	32.000000	n/a	16	1.250000e-01	1.250000e-01
167.810710	1.177906	dec_nonsocial_accept_high	1.177906	32.000000	n/a	16	1.490385e-01	1.490385e-01
174.625460	1.065260	dec_social_choice	1.065260	32.000000	n/a	0	0	-2.311198e-01
174.625460	1.065260	dec_choice	1.065260	32.000000	n/a	0	0	-2.304688e-01
174.625460	1.065260	dec_social_reject	1.065260	32.000000	n/a	0	0	-2.581522e-02
174.625460	1.065260	dec_reject	1.065260	32.000000	n/a	0	0	-2.556818e-02
174.625460	1.065260	dec_social_low	1.065260	32.000000	n/a	0	-2.304688e-01	-2.304688e-01
174.625460	1.065260	dec_social_reject_low	1.065260	32.000000	n/a	2	-1.679688e-01	-2.304688e-01
181.440110	1.166613	dec_social_choice	1.166613	32.000000	n/a	0	0	-2.311198e-01
181.440110	1.166613	dec_choice	1.166613	32.000000	n/a	0	0	-2.304688e-01
181.440110	1.166613	dec_social_reject	1.166613	32.000000	n/a	0	0	5.434783e-03
181.440110	1.166613	dec_reject	1.166613	32.000000	n/a	0	0	5.681818e-03
181.440110	1.166613	dec_social_low	1.166613	32.000000	n/a	0	-2.304688e-01	-2.304688e-01
181.440110	1.166613	dec_social_reject_low	1.166613	32.000000	n/a	3	-1.367188e-01	-2.304688e-01
189.061340	0.958085	dec_social_choice	0.958085	32.000000	n/a	2	-1.686198e-01	-1.686198e-01
189.061340	0.958085	dec_choice	0.958085	32.000000	n/a	2	-1.679688e-01	-1.679688e-01
189.061340	0.958085	dec_social_accept	0.958085	32.000000	n/a	2	-3.000000e-01	-3.000000e-01
189.061340	0.958085	dec_accept	0.958085	32.000000	n/a	2	-2.884615e-01	-2.884615e-01
189.061340	0.958085	dec_social_low	0.958085	32.000000	n/a	2	-1.679688e-01	-1.679688e-01
189.061340	0.958085	dec_social_accept_low	0.958085	32.000000	n/a	2	-1.679688e-01	-1.679688e-01
196.681320	1.258891	dec_social_choice	1.258891	32.000000	n/a	0	0	-2.311198e-01
196.681320	1.258891	dec_choice	1.258891	32.000000	n/a	0	0	-2.304688e-01
196.681320	1.258891	dec_social_reject	1.258891	32.000000	n/a	0	0	5.434783e-03
196.681320	1.258891	dec_reject	1.258891	32.000000	n/a	0	0	5.681818e-03
196.681320	1.258891	dec_social_low	1.258891	32.000000	n/a	0	-2.304688e-01	-2.304688e-01
196.681320	1.258891	dec_social_reject_low	1.258891	32.000000	n/a	3	-1.367188e-01	-2.304688e-01
203.495820	1.244563	dec_nonsocial_choice	1.244563	32.000000	n/a	0	0	-2.311198e-01
203.495820	1.244563	dec_choice	1.244563	32.000000	n/a	0	0	-2.317708e-01
203.495820	1.244563	dec_nonsocial_reject	1.244563	32.000000	n/a	0	0	-2.581522e-02
203.495820	1.244563	dec_reject	1.244563	32.000000	n/a	0	0	-2.604167e-02
203.495820	1.244563	dec_nonsocial_reject_low	1.244563	32.000000	n/a	2	-2.556818e-02	-8.806818e-02
212.732100	2.215967	dec_social_choice	2.215967	16.000000	n/a	4	1.888021e-02	1.888021e-02
212.732100	2.215967	dec_choice	2.215967	16.000000	n/a	4	1.953125e-02	1.953125e-02
212.732100	2.215967	dec_social_accept	2.215967	16.000000	n/a	4	-1.125000e-01	-1.125000e-01
212.732100	2.215967	dec_accept	2.215967	16.000000	n/a	4	-1.009615e-01	-1.009615e-01
212.732100	2.215967	dec_social_high	2.215967	16.000000	n/a	4	1.953125e-02	1.953125e-02
212.732100	2.215967	dec_social_accept_high	2.215967	16.000000	n/a	4	1.953125e-02	1.953125e-02
219.547230	1.628913	dec_social_choice	1.628913	32.000000	n/a	16	2.688802e-01	2.688802e-01
219.547230	1.628913	dec_choice	1.628913	32.000000	n/a	16	2.695312e-01	2.695312e-01
219.547230	1.628913	dec_social_accept	1.628913	32.000000	n/a	16	1.375000e-01	1.375000e-01
219.547230	1.628913	dec_accept	1.628913	32.000000	n/a	16	1.490385e-01	1.490385e-01
219.547230	1.628913	dec_social_high	1.628913	32.000000	n/a	16	2.695312e-01	2.695312e-01
219.547230	1.628913	dec_social_accept_high	1.628913	32.000000	n/a	16	2.695312e-01	2.695312e-01
226.361880	1.021961	dec_nonsocial_choice	1.021961	32.000000	n/a	16	2.688802e-01	2.688802e-01
226.361880	1.021961	dec_choice	1.021961	32.000000	n/a	16	2.682292e-01	2.682292e-01
226.361880	1.021961	dec_nonsocial_accept	1.021961	32.000000	n/a	16	1.375000e-01	1.375000e-01
226.361880	1.021961	dec_accept	1.021961	32.000000	n/a	16	1.250000e-01	1.250000e-01
226.361880	1.021961	dec_nonsocial_high	1.021961	32.000000	n/a	16	2.682292e-01	2.682292e-01
226.361880	1.021961	dec_nonsocial_accept_high	1.021961	32.000000	n/a	16	1.250000e-01	1.250000e-01
233.982760	1.136960	dec_social_choice	1.136960	16.000000	n/a	8	2.688802e-01	2.688802e-01
233.982760	1.136960	dec_choice	1.136960	16.000000	n/a	8	2.695312e-01	2.695312e-01
233.982760	1.136960	dec_social_accept	1.136960	16.000000	n/a	8	1.375000e-01	1.375000e-01
233.982760	1.136960	dec_accept	1.136960	16.000000	n/a	8	1.490385e-01	1.490385e-01
233.982760	1.136960	dec_social_accept_high	1.136960	16.000000	n/a	8	2.695312e-01	2.695312e-01
240.797800	1.305617	dec_social_choice	1.305617	32.000000	n/a	8	1.888021e-02	1.888021e-02
240.797800	1.305617	dec_choice	1.305617	32.000000	n/a	8	1.953125e-02	1.953125e-02
240.797800	1.305617	dec_social_accept	1.305617	32.000000	n/a	8	-1.125000e-01	-1.125000e-01
240.797800	1.305617	dec_accept	1.305617	32.000000	n/a	8	-1.009615e-01	-1.009615e-01
240.797800	1.305617	dec_social_high	1.305617	32.000000	n/a	8	1.953125e-02	1.953125e-02
240.797800	1.305617	dec_social_accept_high	1.305617	32.000000	n/a	8	1.953125e-02	1.953125e-02
250.032470	1.487069	dec_social_choice	1.487069	16.000000	n/a	0	0	-2.311198e-01
250.032470	1.487069	dec_choice	1.487069	16.000000	n/a	0	0	-2.304688e-01
250.032470	1.487069	dec_social_reject	1.487069	16.000000	n/a	0	0	3.668478e-02
250.032470	1.487069	dec_reject	1.487069	16.000000	n/a	0	0	3.693182e-02
250.032470	1.487069	dec_social_low	1.487069	16.000000	n/a	0	-2.304688e-01	-2.304688e-01
250.032470	1.487069	dec_social_reject_low	1.487069	16.000000	n/a	2	-1.054688e-01	-2.304688e-01
256.845640	1.302731	dec_social_choice	1.302731	16.000000	n/a	0	0	-2.311198e-01
256.845640	1.302731	dec_choice	1.302731	16.000000	n/a	0	0	-2.304688e-01
256.845640	1.302731	dec_social_reject	1.302731	16.000000	n/a	0	0	3.668478e-02
256.845640	1.302731	dec_reject	1.302731	16.000000	n/a	0	0	3.693182e-02
256.845640	1.302731	dec_social_reject_low	1.302731	16.000000	n/a	2	-1.054688e-01	-2.304688e-01
263.659150	1.197041	dec_social_choice	1.197041	16.000000	n/a	0	0	-2.311198e-01
263.659150	1.197041	dec_choice	1.197041	16.000000	n/a	0	0	-2.304688e-01
263.659150	1.197041	dec_social_reject	1.197041	16.000000	n/a	0	0	-2.581522e-02
263.659150	1.197041	dec_reject	1.197041	16.000000	n/a	0	0	-2.556818e-02
263.659150	1.197041	dec_social_low	1.197041	16.000000	n/a	0	-2.304688e-01	-2.304688e-01
263.659150	1.197041	dec_social_reject_low	1.197041	16.000000	n/a	1	-1.679688e-01	-2.304688e-01
270.473660	1.463162	dec_nonsocial_choice	1.463162	32.000000	n/a	16	2.688802e-01	2.688802e-01
270.473660	1.463162	dec_choice	1.463162	32.000000	n/a	16	2.682292e-01	2.682292e-01
270.473660	1.463162	dec_nonsocial_accept	1.463162	32.000000	n/a	16	1.375000e-01	1.375000e-01
270.473660	1.463162	dec_accept	1.463162	32.000000	n/a	16	1.250000e-01	1.250000e-01
270.473660	1.463162	dec_nonsocial_accept_high	1.463162	32.000000	n/a	16	1.490385e-01	1.490385e-01
277.287100	1.066997	dec_nonsocial_choice	1.066997	32.000000	n/a	8	1.888021e-02	1.888021e-02
277.287100	1.066997	dec_choice	1.066997	32.000000	n/a	8	1.822917e-02	1.822917e-02
277.287100	1.066997	dec_nonsocial_accept	1.066997	32.000000	n/a	8	-1.125000e-01	-1.125000e-01
277.287100	1.066997	dec_accept	1.066997	32.000000	n/a	8	-1.250000e-01	-1.250000e-01
277.287100	1.066997	dec_nonsocial_accept_high	1.066997	32.000000	n/a	8	-1.009615e-01	-1.009615e-01
284.910460	1.153625	dec_nonsocial_choice	1.153625	16.000000	n/a	0	0	-2.311198e-01
284.910460	1.153625	dec_choice	1.153625	16.000000	n/a	0	0	-2.317708e-01
284.910460	1.153625	dec_nonsocial_reject	1.153625	16.000000	n/a	0	0	3.668478e-02
284.910460	1.153625	dec_reject	1.153625	16.000000	n/a	0	0	3.645833e-02
284.910460	1.153625	dec_nonsocial_reject_low	1.153625	16.000000	n/a	2	3.693182e-02	-8.806818e-02
295.761840	1.088993	dec_social_choice	1.088993	32.000000	n/a	8	1.888021e-02	1.888021e-02
295.761840	1.088993	dec_choice	1.088993	32.000000	n/a	8	1.953125e-02	1.953125e-02
295.761840	1.088993	dec_social_accept	1.088993	32.000000	n/a	8	-1.125000e-01	-1.125000e-01
295.761840	1.088993	dec_accept	1.088993	32.000000	n/a	8	-1.009615e-01	-1.009615e-01
295.761840	1.088993	dec_social_accept_high	1.088993	32.000000	n/a	8	1.953125e-02	1.953125e-02
302.576750	1.292107	dec_nonsocial_choice	1.292107	16.000000	n/a	0	0	-2.311198e-01
302.576750	1.292107	dec_choice	1.292107	16.000000	n/a	0	0	-2.317708e-01
302.576750	1.292107	dec_nonsocial_reject	1.292107	16.000000	n/a	0	0	-2.581522e-02
302.576750	1.292107	dec_reject	1.292107	16.000000	n/a	0	0	-2.604167e-02
302.576750	1.292107	dec_nonsocial_reject_low	1.292107	16.000000	n/a	1	-2.556818e-02	-8.806818e-02
315.041800	1.184317	dec_social_choice	1.184317	32.000000	n/a	0	0	-2.311198e-01
315.041800	1.184317	dec_choice	1.184317	32.000000	n/a	0	0	-2.304688e-01
315.041800	1.184317	dec_social_reject	1.184317	32.000000	n/a	0	0	-2.581522e-02
315.041800	1.184317	dec_reject	1.184317	32.000000	n/a	0	0	-2.556818e-02
315.041800	1.184317	dec_social_low	1.184317	32.000000	n/a	0	-2.304688e-01	-2.304688e-01
315.041800	1.184317	dec_social_reject_low	1.184317	32.000000	n/a	2	-1.679688e-01	-2.304688e-01
321.854430	1.319707	dec_social_choice	1.319707	16.000000	n/a	0	0	-2.311198e-01
321.854430	1.319707	dec_choice	1.319707	16.000000	n/a	0	0	-2.304688e-01
321.854430	1.319707	dec_social_reject	1.319707	16.000000	n/a	0	0	-2.581522e-02
321.854430	1.319707	dec_reject	1.319707	16.000000	n/a	0	0	-2.556818e-02
321.854430	1.319707	dec_social_low	1.319707	16.000000	n/a	0	-2.304688e-01	-2.304688e-01
321.854430	1.319707	dec_social_reject_low	1.319707	16.000000	n/a	1	-1.679688e-01	-2.304688e-01
329.475860	1.122005	dec_nonsocial_choice	1.122005	32.000000	n/a	0	0	-2.311198e-01
329.475860	1.122005	dec_choice	1.122005	32.000000	n/a	0	0	-2.317708e-01
329.475860	1.122005	dec_nonsocial_reject	1.122005	32.000000	n/a	0	0	5.434783e-03
329.475860	1.122005	dec_reject	1.122005	32.000000	n/a	0	0	5.208333e-03
329.475860	1.122005	dec_nonsocial_reject_low	1.122005	32.000000	n/a	3	5.681818e-03	-8.806818e-02
336.290220	1.488150	dec_social_choice	1.488150	32.000000	n/a	0	0	-2.311198e-01
336.290220	1.488150	dec_choice	1.488150	32.000000	n/a	0	0	-2.304688e-01
336.290220	1.488150	dec_social_reject	1.488150	32.000000	n/a	0	0	5.434783e-03
336.290220	1.488150	dec_reject	1.488150	32.000000	n/a	0	0	5.681818e-03
336.290220	1.488150	dec_social_low	1.488150	32.000000	n/a	0	-2.304688e-01	-2.304688e-01
336.290220	1.488150	dec_social_reject_low	1.488150	32.000000	n/a	3	-1.367188e-01	-2.304688e-01
343.103100	1.141467	dec_social_choice	1.141467	16.000000	n/a	4	1.888021e-02	1.888021e-02
343.103100	1.141467	dec_choice	1.141467	16.000000	n/a	4	1.953125e-02	1.953125e-02
343.103100	1.141467	dec_social_accept	1.141467	16.000000	n/a	4	-1.125000e-01	-1.125000e-01
343.103100	1.141467	dec_accept	1.141467	16.000000	n/a	4	-1.009615e-01	-1.009615e-01
343.103100	1.141467	dec_social_high	1.141467	16.000000	n/a	4	1.953125e-02	1.953125e-02
343.103100	1.141467	dec_social_accept_high	1.141467	16.000000	n/a	4	1.953125e-02	1.953125e-02
349.917600	1.655204	dec_nonsocial_choice	1.655204	16.000000	n/a	4	1.888021e-02	1.888021e-02
349.917600	1.655204	dec_choice	1.655204	16.000000	n/a	4	1.822917e-02	1.822917e-02
349.917600	1.655204	dec_nonsocial_accept	1.655204	16.000000	n/a	4	-1.125000e-01	-1.125000e-01
349.917600	1.655204	dec_accept	1.655204	16.000000	n/a	4	-1.250000e-01	-1.250000e-01
349.917600	1.655204	dec_nonsocial_high	1.655204	16.000000	n/a	4	1.822917e-02	1.822917e-02
349.917600	1.655204	dec_nonsocial_accept_high	1.655204	16.000000	n/a	4	-1.250000e-01	-1.250000e-01
356.731700	3.115944	dec_social_choice	3.115944	32.000000	n/a	0	0	-2.311198e-01
356.731700	3.115944	dec_choice	3.115944	32.000000	n/a	0	0	-2.304688e-01
356.731700	3.115944	dec_social_reject	3.115944	32.000000	n/a	0	0	-2.581522e-02
356.731700	3.115944	dec_reject	3.115944	32.000000	n/a	0	0	-2.556818e-02
356.731700	3.115944	dec_social_reject_low	3.115944	32.000000	n/a	2	-1.679688e-01	-2.304688e-01
364.353300	1.379583	dec_social_choice	1.379583	16.000000	n/a	8	2.688802e-01	2.688802e-01
364.353300	1.379583	dec_choice	1.379583	16.000000	n/a	8	2.695312e-01	2.695312e-01
364.353300	1.379583	dec_social_accept	1.379583	16.000000	n/a	8	1.375000e-01	1.375000e-01
364.353300	1.379583	dec_accept	1.379583	16.000000	n/a	8	1.490385e-01	1.490385e-01
364.353300	1.379583	dec_social_accept_high	1.379583	16.000000	n/a	8	2.695312e-01	2.695312e-01
371.974670	1.105292	dec_nonsocial_choice	1.105292	32.000000	n/a	16	2.688802e-01	2.688802e-01
371.974670	1.105292	dec_choice	1.105292	32.000000	n/a	16	2.682292e-01	2.682292e-01
371.974670	1.105292	dec_nonsocial_accept	1.105292	32.000000	n/a	16	1.375000e-01	1.375000e-01
371.974670	1.105292	dec_accept	1.105292	32.000000	n/a	16	1.250000e-01	1.250000e-01
371.974670	1.105292	dec_nonsocial_high	1.105292	32.000000	n/a	16	2.682292e-01	2.682292e-01
371.974670	1.105292	dec_nonsocial_accept_high	1.105292	32.000000	n/a	16	1.250000e-01	1.250000e-01
