onset	duration	trial_type	rt	resp	gender	image_left	image_right
0.593315799953416	3.0012473000679165	decision	1.533285200013779	left	S	SD001.jpg	SD002.jpg
4.1433223999338225	1.0166625999845564	win	n/a	n/a	n/a	SD001.jpg	SD002.jpg
11.076911599957384	3.001946400036104	decision	1.532979500014335	right	S	SD003.jpg	SD004.jpg
14.626553099951707	1.000227199983783	loss	n/a	n/a	n/a	SD003.jpg	SD004.jpg
17.34350059996359	3.001906399964355	decision	1.5325353000080213	right	S	SD005.jpg	SD006.jpg
20.89355949999299	1.0000555999577045	win	n/a	n/a	n/a	SD005.jpg	SD006.jpg
23.61054379993584	3.0009244000539184	decision	1.532439799979329	left	D	DD001.jpg	DD002.jpg
27.159898299956694	1.0003402000293136	win	n/a	n/a	n/a	DD001.jpg	DD002.jpg
31.97658329992555	3.0009452000958845	decision	1.5332437000470236	right	D	DD003.jpg	DD004.jpg
35.52651049999986	1.0001109999138862	loss	n/a	n/a	n/a	DD003.jpg	DD004.jpg
42.42658470000606	3.002236899919808	decision	1.5327969999052584	right	S	SD007.jpg	SD008.jpg
45.976817499962635	1.0163965000538155	loss	n/a	n/a	n/a	SD007.jpg	SD008.jpg
50.82657959999051	3.0009146999800578	decision	1.2832252000225708	right	S	SD009.jpg	SD010.jpg
54.376438200008124	1.0001825999934226	win	n/a	n/a	n/a	SD009.jpg	SD010.jpg
59.21031889994629	3.00090620003175	decision	1.532203600043431	right	D	DD005.jpg	DD006.jpg
62.75969869992696	1.0003909000661224	loss	n/a	n/a	n/a	DD005.jpg	DD006.jpg
65.49321099999361	3.0011478000087664	decision	1.283283600001596	right	D	DD007.jpg	DD008.jpg
69.04301409993786	1.0003683000104502	win	n/a	n/a	n/a	DD007.jpg	DD008.jpg
71.7598742999835	3.0010776999406517	decision	2.2825284999562427	right	D	DD009.jpg	DD010.jpg
75.30985730001703	1.0169025999493897	win	n/a	n/a	n/a	DD009.jpg	DD010.jpg
78.04323509999085	3.001302000018768	decision	2.0327370000304654	right	D	DD011.jpg	DD012.jpg
81.59338450001087	1.0166229999158531	loss	n/a	n/a	n/a	DD011.jpg	DD012.jpg
86.42682429996785	3.0019619000377133	decision	1.282983500044793	right	S	SD011.jpg	SD012.jpg
89.97620589996222	1.000265400041826	loss	n/a	n/a	n/a	SD011.jpg	SD012.jpg
92.6932625999907	3.000519199995324	decision	1.782230700016953	left	S	SD013.jpg	SD014.jpg
96.24316840001848	1.01643829990644	win	n/a	n/a	n/a	SD013.jpg	SD014.jpg
103.17633579997346	3.001536799944006	decision	1.783434099983424	left	S	SD015.jpg	SD016.jpg
106.72633669991046	1.0000425000907853	win	n/a	n/a	n/a	SD015.jpg	SD016.jpg
109.44314709992614	3.0016356999985874	decision	1.2825812000082806	right	D	DD013.jpg	DD014.jpg
112.99291619996075	1.0001519999932498	win	n/a	n/a	n/a	DD013.jpg	DD014.jpg
119.90958330000285	3.00116739992518	decision	1.2831358999246731	right	S	SD017.jpg	SD018.jpg
123.45957549999002	1.0001494999742135	win	n/a	n/a	n/a	SD017.jpg	SD018.jpg
128.29339000000618	3.001381399924867	decision	1.2821394999045879	left	D	DD015.jpg	DD016.jpg
131.84305329993367	1.0001940000802279	win	n/a	n/a	n/a	DD015.jpg	DD016.jpg
136.67652699991595	3.0023047000868246	decision	1.2829181000124663	right	S	SD019.jpg	SD020.jpg
140.22626249992754	1.0164529000176117	win	n/a	n/a	n/a	SD019.jpg	SD020.jpg
145.0598089999985	3.001832599984482	decision	1.2824081999715418	left	D	DD017.jpg	DD018.jpg
148.60945819993503	1.000143300043419	win	n/a	n/a	n/a	DD017.jpg	DD018.jpg
161.82627269998193	3.0014749999390915	decision	1.0331639000214636	right	S	SD021.jpg	SD022.jpg
165.3761825999245	1.0166617000941187	loss	n/a	n/a	n/a	SD021.jpg	SD022.jpg
172.31002819992136	3.0016710000345483	decision	1.2817008000565693	right	S	SD023.jpg	SD024.jpg
175.8593550999649	1.0005048000020906	win	n/a	n/a	n/a	SD023.jpg	SD024.jpg
182.77617500000633	3.0015420999843627	decision	1.0325384999159724	left	S	SD025.jpg	SD026.jpg
186.32614229992032	1.0001541000092402	loss	n/a	n/a	n/a	SD025.jpg	SD026.jpg
191.14315939997323	3.00097289995756	decision	1.0322576999897137	right	S	SD027.jpg	SD028.jpg
194.69261209992692	1.000092800008133	loss	n/a	n/a	n/a	SD027.jpg	SD028.jpg
197.44316329993308	3.0015426999889314	decision	1.282826600014232	left	D	DD019.jpg	DD020.jpg
200.99266160000116	1.0003752999473363	loss	n/a	n/a	n/a	DD019.jpg	DD020.jpg
203.70938629994635	3.0007166999857873	decision	1.532269100076519	right	D	DD021.jpg	DD022.jpg
207.25995709991548	1.016400400083512	win	n/a	n/a	n/a	DD021.jpg	DD022.jpg
214.19267599994782	3.0016632999759167	decision	1.533997599966824	left	S	SD029.jpg	SD030.jpg
217.74259479995817	1.0001172999618575	loss	n/a	n/a	n/a	SD029.jpg	SD030.jpg
224.659719999996	3.0018850999185815	decision	1.0329574999632314	right	S	SD031.jpg	SD032.jpg
228.20939689991064	1.0165342000545934	win	n/a	n/a	n/a	SD031.jpg	SD032.jpg
233.0426375999814	3.000959899974987	decision	1.2838201000122353	left	D	DD023.jpg	DD024.jpg
236.59265699994285	1.016579500050284	loss	n/a	n/a	n/a	DD023.jpg	DD024.jpg
239.32583250000607	3.001702499925159	decision	1.2827931999927387	right	D	DD025.jpg	DD026.jpg
242.87599540001247	1.0002134999958798	win	n/a	n/a	n/a	DD025.jpg	DD026.jpg
247.69250639993697	3.001288100029342	decision	1.2825968000106514	right	D	DD027.jpg	DD028.jpg
251.24266129999887	1.0169873000122607	loss	n/a	n/a	n/a	DD027.jpg	DD028.jpg
253.975995899993	3.0017746000085026	decision	1.2824206999503076	left	S	SD033.jpg	SD034.jpg
257.52620700001717	1.0164307999657467	loss	n/a	n/a	n/a	SD033.jpg	SD034.jpg
260.2763053999515	3.001337500056252	decision	1.2827043000143021	right	S	SD035.jpg	SD036.jpg
263.82568889996037	1.0005257000448182	loss	n/a	n/a	n/a	SD035.jpg	SD036.jpg
266.54269689996727	3.000662500038743	decision	1.2833375999471173	right	S	SD037.jpg	SD038.jpg
270.0923980999505	1.000646600034088	win	n/a	n/a	n/a	SD037.jpg	SD038.jpg
277.00914129999	3.0012135999277234	decision	1.0324843999696895	left	D	DD029.jpg	DD030.jpg
280.55942780000623	1.0166208000155166	loss	n/a	n/a	n/a	DD029.jpg	DD030.jpg
283.30962850002106	3.0005050000036135	decision	1.0320049999281764	right	D	DD031.jpg	DD032.jpg
286.859137399937	1.0172477000160143	loss	n/a	n/a	n/a	DD031.jpg	DD032.jpg
291.69247909996193	3.0011192000238225	decision	1.2826192999491468	right	D	DD033.jpg	DD034.jpg
295.2426301999949	1.0167364999651909	win	n/a	n/a	n/a	DD033.jpg	DD034.jpg
302.17564809997566	3.000945599982515	decision	1.283229999942705	right	S	SD039.jpg	SD040.jpg
305.7256822999334	1.0165742000099272	loss	n/a	n/a	n/a	SD039.jpg	SD040.jpg
312.6760574999498	3.001550400047563	decision	1.0323193999938667	left	D	DD035.jpg	DD036.jpg
316.2259927999694	1.0165944000473246	win	n/a	n/a	n/a	DD035.jpg	DD036.jpg
318.9593843999319	3.000740100047551	decision	1.5331562000792474	left	D	DD037.jpg	DD038.jpg
322.5093102999963	1.0161518999375403	loss	n/a	n/a	n/a	DD037.jpg	DD038.jpg
325.2423745999113	3.00153050001245	decision	1.2832135000498965	left	D	DD039.jpg	DD040.jpg
328.79222009994555	1.000309200026095	loss	n/a	n/a	n/a	DD039.jpg	DD040.jpg
