onset	duration	trial_type	response_time	Endowment	Decision	Offer
4.586763	2	cue_social	n/a	32	n/a	n/a
4.586763	2	cue_social_high	n/a	32	n/a	n/a
6.524741	1.583266	dec_social_high	1.583266	32	n/a	16
6.524741	1.583266	dec_social_high_accept	1.583266	32	accept	16
13.808620	2	cue_social	n/a	32	n/a	n/a
13.808620	2	cue_social_high	n/a	32	n/a	n/a
15.774691	1.649669	dec_social_high	1.649669	32	n/a	3
15.774691	1.649669	dec_social_high_reject	1.649669	32	reject	3
20.600857	2	cue_nonsocial	n/a	16	n/a	n/a
20.600857	2	cue_nonsocial_low	n/a	16	n/a	n/a
22.607620	0.883707	dec_nonsocial_low	0.883707	16	n/a	8
22.607620	0.883707	dec_nonsocial_low_accept	0.883707	16	accept	8
27.498728	2	cue_social	n/a	16	n/a	n/a
27.498728	2	cue_social_low	n/a	16	n/a	n/a
29.441595	1.299576	dec_social_low	1.299576	16	n/a	2
29.441595	1.299576	dec_social_low_reject	1.299576	16	reject	2
34.331394	2	cue_social	n/a	32	n/a	n/a
34.331394	2	cue_social_high	n/a	32	n/a	n/a
36.274600	1.583760	dec_social_high	1.583760	32	n/a	16
36.274600	1.583760	dec_social_high_accept	1.583760	32	accept	16
41.901270	2	cue_nonsocial	n/a	32	n/a	n/a
41.901270	2	cue_nonsocial_high	n/a	32	n/a	n/a
43.909103	1.398763	dec_nonsocial_high	1.398763	32	n/a	8
43.909103	1.398763	dec_nonsocial_high_reject	1.398763	32	reject	8
52.840004	2	cue_social	n/a	32	n/a	n/a
52.840004	2	cue_social_high	n/a	32	n/a	n/a
54.773520	0.967702	dec_social_high	0.967702	32	n/a	16
54.773520	0.967702	dec_social_high_accept	0.967702	32	accept	16
59.601110	2	cue_nonsocial	n/a	16	n/a	n/a
59.601110	2	cue_nonsocial_low	n/a	16	n/a	n/a
61.608147	0.899758	dec_nonsocial_low	0.899758	16	n/a	2
61.608147	0.899758	dec_nonsocial_low_reject	0.899758	16	reject	2
68.867676	2	cue_nonsocial	n/a	32	n/a	n/a
68.867676	2	cue_nonsocial_high	n/a	32	n/a	n/a
70.873795	0.900684	dec_nonsocial_high	0.900684	32	n/a	2
70.873795	0.900684	dec_nonsocial_high_reject	0.900684	32	reject	2
75.764850	2	cue_social	n/a	32	n/a	n/a
75.764850	2	cue_social_high	n/a	32	n/a	n/a
77.707160	1.034171	dec_social_high	1.034171	32	n/a	3
77.707160	1.034171	dec_social_high_accept	1.034171	32	accept	3
84.951610	2	cue_nonsocial	n/a	16	n/a	n/a
84.951610	2	cue_nonsocial_low	n/a	16	n/a	n/a
86.958030	1.899835	dec_nonsocial_low	1.899835	16	n/a	2
86.958030	1.899835	dec_nonsocial_low_reject	1.899835	16	reject	2
91.784120	2	cue_nonsocial	n/a	16	n/a	n/a
91.784120	2	cue_nonsocial_low	n/a	16	n/a	n/a
93.790370	1.633815	dec_nonsocial_low	1.633815	16	n/a	8
93.790370	1.633815	dec_nonsocial_low_accept	1.633815	16	accept	8
98.689880	2	cue_social	n/a	32	n/a	n/a
98.689880	2	cue_social_high	n/a	32	n/a	n/a
100.624626	1.416546	dec_social_high	1.416546	32	n/a	2
100.624626	1.416546	dec_social_high_reject	1.416546	32	reject	2
107.867790	2	cue_nonsocial	n/a	32	n/a	n/a
107.867790	2	cue_nonsocial_high	n/a	32	n/a	n/a
109.874610	1.733085	dec_nonsocial_high	1.733085	32	n/a	2
109.874610	1.733085	dec_nonsocial_high_reject	1.733085	32	reject	2
115.518250	2	cue_nonsocial	n/a	32	n/a	n/a
115.518250	2	cue_nonsocial_high	n/a	32	n/a	n/a
117.524610	0.916113	dec_nonsocial_high	0.916113	32	n/a	16
117.524610	0.916113	dec_nonsocial_high_accept	0.916113	32	accept	16
122.419106	2	cue_social	n/a	32	n/a	n/a
122.419106	2	cue_social_high	n/a	32	n/a	n/a
124.358665	1.815320	dec_social_high	1.815320	32	n/a	8
124.358665	1.815320	dec_social_high_accept	1.815320	32	accept	8
130.058140	2	cue_social	n/a	16	n/a	n/a
130.058140	2	cue_social_low	n/a	16	n/a	n/a
132.007630	1.216350	dec_social_low	1.216350	16	n/a	4
132.007630	1.216350	dec_social_low_accept	1.216350	16	accept	4
137.708620	2	cue_social	n/a	32	n/a	n/a
137.708620	2	cue_social_high	n/a	32	n/a	n/a
139.657620	1.083472	dec_social_high	1.083472	32	n/a	16
139.657620	1.083472	dec_social_high_accept	1.083472	32	accept	16
144.484450	2	cue_nonsocial	n/a	32	n/a	n/a
144.484450	2	cue_nonsocial_high	n/a	32	n/a	n/a
146.491360	1.315677	dec_nonsocial_high	1.315677	32	n/a	2
146.491360	1.315677	dec_nonsocial_high_reject	1.315677	32	reject	2
151.317470	2	cue_nonsocial	n/a	32	n/a	n/a
151.317470	2	cue_nonsocial_high	n/a	32	n/a	n/a
153.324630	1.150094	dec_nonsocial_high	1.150094	32	n/a	8
153.324630	1.150094	dec_nonsocial_high_accept	1.150094	32	accept	8
158.150990	2	cue_nonsocial	n/a	32	n/a	n/a
158.150990	2	cue_nonsocial_high	n/a	32	n/a	n/a
160.156950	1.434061	dec_nonsocial_high	1.434061	32	n/a	3
160.156950	1.434061	dec_nonsocial_high_reject	1.434061	32	reject	3
169.085130	2	cue_social	n/a	16	n/a	n/a
169.085130	2	cue_social_low	n/a	16	n/a	n/a
171.023670	1.483965	dec_social_low	1.483965	16	n/a	2
171.023670	1.483965	dec_social_low_reject	1.483965	16	reject	2
176.759780	2	cue_social	n/a	16	n/a	n/a
176.759780	2	cue_social_low	n/a	16	n/a	n/a
178.674580	1.199759	dec_social_low	1.199759	16	n/a	8
178.674580	1.199759	dec_social_low_accept	1.199759	16	accept	8
183.571370	2	cue_social	n/a	32	n/a	n/a
183.571370	2	cue_social_high	n/a	32	n/a	n/a
185.507800	1.233222	dec_social_high	1.233222	32	n/a	2
185.507800	1.233222	dec_social_high_reject	1.233222	32	reject	2
191.134250	2	cue_nonsocial	n/a	16	n/a	n/a
191.134250	2	cue_nonsocial_low	n/a	16	n/a	n/a
193.140230	1.266654	dec_nonsocial_low	1.266654	16	n/a	4
193.140230	1.266654	dec_nonsocial_low_accept	1.266654	16	accept	4
198.026820	2	cue_social	n/a	16	n/a	n/a
198.026820	2	cue_social_low	n/a	16	n/a	n/a
199.974640	1.165998	dec_social_low	1.165998	16	n/a	1
199.974640	1.165998	dec_social_low_reject	1.165998	16	reject	1
205.617300	2	cue_nonsocial	n/a	32	n/a	n/a
205.617300	2	cue_nonsocial_high	n/a	32	n/a	n/a
207.624650	1.365836	dec_nonsocial_high	1.365836	32	n/a	16
207.624650	1.365836	dec_nonsocial_high_accept	1.365836	32	accept	16
212.513530	2	cue_social	n/a	16	n/a	n/a
212.513530	2	cue_social_low	n/a	16	n/a	n/a
214.457610	1.366196	dec_social_low	1.366196	16	n/a	2
214.457610	1.366196	dec_social_low_reject	1.366196	16	reject	2
219.284010	2	cue_nonsocial	n/a	16	n/a	n/a
219.284010	2	cue_nonsocial_low	n/a	16	n/a	n/a
221.290860	1.066294	dec_nonsocial_low	1.066294	16	n/a	2
221.290860	1.066294	dec_nonsocial_low_reject	1.066294	16	reject	2
231.767300	2	cue_nonsocial	n/a	16	n/a	n/a
231.767300	2	cue_nonsocial_low	n/a	16	n/a	n/a
233.773420	1.183849	dec_nonsocial_low	1.183849	16	n/a	1
233.773420	1.183849	dec_nonsocial_low_reject	1.183849	16	reject	1
241.017780	2	cue_nonsocial	n/a	32	n/a	n/a
241.017780	2	cue_nonsocial_high	n/a	32	n/a	n/a
243.023600	1.283799	dec_nonsocial_high	1.283799	32	n/a	2
243.023600	1.283799	dec_nonsocial_high_reject	1.283799	32	reject	2
248.667050	2	cue_nonsocial	n/a	16	n/a	n/a
248.667050	2	cue_nonsocial_low	n/a	16	n/a	n/a
250.674620	1.265859	dec_nonsocial_low	1.265859	16	n/a	2
250.674620	1.265859	dec_nonsocial_low_reject	1.265859	16	reject	2
255.500690	2	cue_nonsocial	n/a	32	n/a	n/a
255.500690	2	cue_nonsocial_high	n/a	32	n/a	n/a
257.507720	1.532770	dec_nonsocial_high	1.532770	32	n/a	3
257.507720	1.532770	dec_nonsocial_high_reject	1.532770	32	reject	3
262.334140	2	cue_nonsocial	n/a	32	n/a	n/a
262.334140	2	cue_nonsocial_high	n/a	32	n/a	n/a
264.340580	1.550099	dec_nonsocial_high	1.550099	32	n/a	2
264.340580	1.550099	dec_nonsocial_high_reject	1.550099	32	reject	2
270.058200	2	cue_social	n/a	32	n/a	n/a
270.058200	2	cue_social_high	n/a	32	n/a	n/a
271.974400	1.232986	dec_social_high	1.232986	32	n/a	2
271.974400	1.232986	dec_social_high_reject	1.232986	32	reject	2
276.801760	2	cue_nonsocial	n/a	16	n/a	n/a
276.801760	2	cue_nonsocial_low	n/a	16	n/a	n/a
278.807600	1.282998	dec_nonsocial_low	1.282998	16	n/a	4
278.807600	1.282998	dec_nonsocial_low_accept	1.282998	16	accept	4
283.699100	2	cue_social	n/a	16	n/a	n/a
283.699100	2	cue_social_low	n/a	16	n/a	n/a
285.640100	1.250332	dec_social_low	1.250332	16	n/a	4
285.640100	1.250332	dec_social_low_accept	1.250332	16	accept	4
292.945620	2	cue_social	n/a	16	n/a	n/a
292.945620	2	cue_social_low	n/a	16	n/a	n/a
294.889980	0.916758	dec_social_low	0.916758	16	n/a	4
294.889980	0.916758	dec_social_low_accept	0.916758	16	accept	4
299.717200	2	cue_nonsocial	n/a	16	n/a	n/a
299.717200	2	cue_nonsocial_low	n/a	16	n/a	n/a
301.724640	1.199177	dec_nonsocial_low	1.199177	16	n/a	4
301.724640	1.199177	dec_nonsocial_low_accept	1.199177	16	accept	4
310.660740	2	cue_social	n/a	16	n/a	n/a
310.660740	2	cue_social_low	n/a	16	n/a	n/a
312.590640	1.216591	dec_social_low	1.216591	16	n/a	1
312.590640	1.216591	dec_social_low_reject	1.216591	16	reject	1
317.417140	2	cue_nonsocial	n/a	32	n/a	n/a
317.417140	2	cue_nonsocial_high	n/a	32	n/a	n/a
319.424650	1.915518	dec_nonsocial_high	1.915518	32	n/a	8
319.424650	1.915518	dec_nonsocial_high_accept	1.915518	32	accept	8
326.699700	2	cue_social	n/a	32	n/a	n/a
326.699700	2	cue_social_high	n/a	32	n/a	n/a
328.690670	1.399693	dec_social_high	1.399693	32	n/a	8
328.690670	1.399693	dec_social_high_accept	1.399693	32	accept	8
334.333980	2	cue_nonsocial	n/a	32	n/a	n/a
334.333980	2	cue_nonsocial_high	n/a	32	n/a	n/a
336.340700	1.150060	dec_nonsocial_high	1.150060	32	n/a	16
336.340700	1.150060	dec_nonsocial_high_accept	1.150060	32	accept	16
342.038330	2	cue_social	n/a	32	n/a	n/a
342.038330	2	cue_social_high	n/a	32	n/a	n/a
343.974640	1.199133	dec_social_high	1.199133	32	n/a	2
343.974640	1.199133	dec_social_high_reject	1.199133	32	reject	2
348.852660	2	cue_social	n/a	16	n/a	n/a
348.852660	2	cue_social_low	n/a	16	n/a	n/a
350.807560	1.282916	dec_social_low	1.282916	16	n/a	4
350.807560	1.282916	dec_social_low_accept	1.282916	16	accept	4
355.633800	2	cue_nonsocial	n/a	32	n/a	n/a
355.633800	2	cue_nonsocial_high	n/a	32	n/a	n/a
357.640720	0.982934	dec_nonsocial_high	0.982934	32	n/a	16
357.640720	0.982934	dec_nonsocial_high_accept	0.982934	32	accept	16
363.292330	2	cue_social	n/a	16	n/a	n/a
363.292330	2	cue_social_low	n/a	16	n/a	n/a
365.289760	1.184144	dec_social_low	1.184144	16	n/a	2
365.289760	1.184144	dec_social_low_reject	1.184144	16	reject	2
370.154600	2	cue_social	n/a	16	n/a	n/a
370.154600	2	cue_social_low	n/a	16	n/a	n/a
372.123630	1.166701	dec_social_low	1.166701	16	n/a	8
372.123630	1.166701	dec_social_low_accept	1.166701	16	accept	8
