onset	duration	trial_type	response_time	Endowment	Endowment_pmod	Decision	Decision_pmod	Offer_pmod
4.586763	2	cue_social	n/a	32	8	n/a	n/a	n/a
4.586763	2	cue_social_high	n/a	32	7	n/a	n/a	n/a
13.808620	2	cue_social	n/a	32	8	n/a	n/a	n/a
13.808620	2	cue_social_high	n/a	32	7	n/a	n/a	n/a
20.600857	2	cue_nonsocial	n/a	16	-9	n/a	n/a	n/a
20.600857	2	cue_nonsocial_low	n/a	16	-8	n/a	n/a	n/a
27.498728	2	cue_social	n/a	16	-8	n/a	n/a	n/a
27.498728	2	cue_social_low	n/a	16	-9	n/a	n/a	n/a
34.331394	2	cue_social	n/a	32	8	n/a	n/a	n/a
34.331394	2	cue_social_high	n/a	32	7	n/a	n/a	n/a
41.901270	2	cue_nonsocial	n/a	32	7	n/a	n/a	n/a
41.901270	2	cue_nonsocial_high	n/a	32	8	n/a	n/a	n/a
52.840004	2	cue_social	n/a	32	8	n/a	n/a	n/a
52.840004	2	cue_social_high	n/a	32	7	n/a	n/a	n/a
59.601110	2	cue_nonsocial	n/a	16	-9	n/a	n/a	n/a
59.601110	2	cue_nonsocial_low	n/a	16	-8	n/a	n/a	n/a
68.867676	2	cue_nonsocial	n/a	32	7	n/a	n/a	n/a
68.867676	2	cue_nonsocial_high	n/a	32	8	n/a	n/a	n/a
75.764850	2	cue_social	n/a	32	8	n/a	n/a	n/a
75.764850	2	cue_social_high	n/a	32	7	n/a	n/a	n/a
84.951610	2	cue_nonsocial	n/a	16	-9	n/a	n/a	n/a
84.951610	2	cue_nonsocial_low	n/a	16	-8	n/a	n/a	n/a
91.784120	2	cue_nonsocial	n/a	16	-9	n/a	n/a	n/a
91.784120	2	cue_nonsocial_low	n/a	16	-8	n/a	n/a	n/a
98.689880	2	cue_social	n/a	32	8	n/a	n/a	n/a
98.689880	2	cue_social_high	n/a	32	7	n/a	n/a	n/a
107.867790	2	cue_nonsocial	n/a	32	7	n/a	n/a	n/a
107.867790	2	cue_nonsocial_high	n/a	32	8	n/a	n/a	n/a
115.518250	2	cue_nonsocial	n/a	32	7	n/a	n/a	n/a
115.518250	2	cue_nonsocial_high	n/a	32	8	n/a	n/a	n/a
122.419106	2	cue_social	n/a	32	8	n/a	n/a	n/a
122.419106	2	cue_social_high	n/a	32	7	n/a	n/a	n/a
130.058140	2	cue_social	n/a	16	-8	n/a	n/a	n/a
130.058140	2	cue_social_low	n/a	16	-9	n/a	n/a	n/a
137.708620	2	cue_social	n/a	32	8	n/a	n/a	n/a
137.708620	2	cue_social_high	n/a	32	7	n/a	n/a	n/a
144.484450	2	cue_nonsocial	n/a	32	7	n/a	n/a	n/a
144.484450	2	cue_nonsocial_high	n/a	32	8	n/a	n/a	n/a
151.317470	2	cue_nonsocial	n/a	32	7	n/a	n/a	n/a
151.317470	2	cue_nonsocial_high	n/a	32	8	n/a	n/a	n/a
158.150990	2	cue_nonsocial	n/a	32	7	n/a	n/a	n/a
158.150990	2	cue_nonsocial_high	n/a	32	8	n/a	n/a	n/a
169.085130	2	cue_social	n/a	16	-8	n/a	n/a	n/a
169.085130	2	cue_social_low	n/a	16	-9	n/a	n/a	n/a
176.759780	2	cue_social	n/a	16	-8	n/a	n/a	n/a
176.759780	2	cue_social_low	n/a	16	-9	n/a	n/a	n/a
183.571370	2	cue_social	n/a	32	8	n/a	n/a	n/a
183.571370	2	cue_social_high	n/a	32	7	n/a	n/a	n/a
191.134250	2	cue_nonsocial	n/a	16	-9	n/a	n/a	n/a
191.134250	2	cue_nonsocial_low	n/a	16	-8	n/a	n/a	n/a
198.026820	2	cue_social	n/a	16	-8	n/a	n/a	n/a
198.026820	2	cue_social_low	n/a	16	-9	n/a	n/a	n/a
205.617300	2	cue_nonsocial	n/a	32	7	n/a	n/a	n/a
205.617300	2	cue_nonsocial_high	n/a	32	8	n/a	n/a	n/a
212.513530	2	cue_social	n/a	16	-8	n/a	n/a	n/a
212.513530	2	cue_social_low	n/a	16	-9	n/a	n/a	n/a
219.284010	2	cue_nonsocial	n/a	16	-9	n/a	n/a	n/a
219.284010	2	cue_nonsocial_low	n/a	16	-8	n/a	n/a	n/a
231.767300	2	cue_nonsocial	n/a	16	-9	n/a	n/a	n/a
231.767300	2	cue_nonsocial_low	n/a	16	-8	n/a	n/a	n/a
241.017780	2	cue_nonsocial	n/a	32	7	n/a	n/a	n/a
241.017780	2	cue_nonsocial_high	n/a	32	8	n/a	n/a	n/a
248.667050	2	cue_nonsocial	n/a	16	-9	n/a	n/a	n/a
248.667050	2	cue_nonsocial_low	n/a	16	-8	n/a	n/a	n/a
255.500690	2	cue_nonsocial	n/a	32	7	n/a	n/a	n/a
255.500690	2	cue_nonsocial_high	n/a	32	8	n/a	n/a	n/a
262.334140	2	cue_nonsocial	n/a	32	7	n/a	n/a	n/a
262.334140	2	cue_nonsocial_high	n/a	32	8	n/a	n/a	n/a
270.058200	2	cue_social	n/a	32	8	n/a	n/a	n/a
270.058200	2	cue_social_high	n/a	32	7	n/a	n/a	n/a
276.801760	2	cue_nonsocial	n/a	16	-9	n/a	n/a	n/a
276.801760	2	cue_nonsocial_low	n/a	16	-8	n/a	n/a	n/a
283.699100	2	cue_social	n/a	16	-8	n/a	n/a	n/a
283.699100	2	cue_social_low	n/a	16	-9	n/a	n/a	n/a
292.945620	2	cue_social	n/a	16	-8	n/a	n/a	n/a
292.945620	2	cue_social_low	n/a	16	-9	n/a	n/a	n/a
299.717200	2	cue_nonsocial	n/a	16	-9	n/a	n/a	n/a
299.717200	2	cue_nonsocial_low	n/a	16	-8	n/a	n/a	n/a
310.660740	2	cue_social	n/a	16	-8	n/a	n/a	n/a
310.660740	2	cue_social_low	n/a	16	-9	n/a	n/a	n/a
317.417140	2	cue_nonsocial	n/a	32	7	n/a	n/a	n/a
317.417140	2	cue_nonsocial_high	n/a	32	8	n/a	n/a	n/a
326.699700	2	cue_social	n/a	32	8	n/a	n/a	n/a
326.699700	2	cue_social_high	n/a	32	7	n/a	n/a	n/a
334.333980	2	cue_nonsocial	n/a	32	7	n/a	n/a	n/a
334.333980	2	cue_nonsocial_high	n/a	32	8	n/a	n/a	n/a
342.038330	2	cue_social	n/a	32	8	n/a	n/a	n/a
342.038330	2	cue_social_high	n/a	32	7	n/a	n/a	n/a
348.852660	2	cue_social	n/a	16	-8	n/a	n/a	n/a
348.852660	2	cue_social_low	n/a	16	-9	n/a	n/a	n/a
355.633800	2	cue_nonsocial	n/a	32	7	n/a	n/a	n/a
355.633800	2	cue_nonsocial_high	n/a	32	8	n/a	n/a	n/a
363.292330	2	cue_social	n/a	16	-8	n/a	n/a	n/a
363.292330	2	cue_social_low	n/a	16	-9	n/a	n/a	n/a
370.154600	2	cue_social	n/a	16	-8	n/a	n/a	n/a
370.154600	2	cue_social_low	n/a	16	-9	n/a	n/a	n/a
6.524741	1.583266	dec_social_choice	1.583266	32.000000	n/a	16	2.682292e-01	2.682292e-01
6.524741	1.583266	dec_choice	1.583266	32.000000	n/a	16	2.682292e-01	2.682292e-01
6.524741	1.583266	dec_social_accept	1.583266	32.000000	n/a	16	1.315104e-01	1.315104e-01
6.524741	1.583266	dec_accept	1.583266	32.000000	n/a	16	1.466346e-01	1.466346e-01
6.524741	1.583266	dec_social_high	1.583266	32.000000	n/a	16	2.682292e-01	2.682292e-01
6.524741	1.583266	dec_social_accept_high	1.583266	32.000000	n/a	16	2.682292e-01	2.682292e-01
15.774691	1.649669	dec_social_choice	1.649669	32.000000	n/a	0	0	-2.317708e-01
15.774691	1.649669	dec_choice	1.649669	32.000000	n/a	0	0	-2.317708e-01
15.774691	1.649669	dec_social_reject	1.649669	32.000000	n/a	0	0	-1.302083e-03
15.774691	1.649669	dec_reject	1.649669	32.000000	n/a	0	0	5.681818e-03
15.774691	1.649669	dec_social_reject_low	1.649669	32.000000	n/a	3	-1.380208e-01	-2.317708e-01
22.607620	0.883707	dec_nonsocial_choice	0.883707	16.000000	n/a	8	2.682292e-01	2.682292e-01
22.607620	0.883707	dec_choice	0.883707	16.000000	n/a	8	2.682292e-01	2.682292e-01
22.607620	0.883707	dec_nonsocial_accept	0.883707	16.000000	n/a	8	1.315104e-01	1.315104e-01
22.607620	0.883707	dec_accept	0.883707	16.000000	n/a	8	1.136364e-01	1.136364e-01
22.607620	0.883707	dec_nonsocial_high	0.883707	16.000000	n/a	8	2.682292e-01	2.682292e-01
22.607620	0.883707	dec_nonsocial_accept_high	0.883707	16.000000	n/a	8	1.136364e-01	1.136364e-01
29.441595	1.299576	dec_social_choice	1.299576	16.000000	n/a	0	0	-2.317708e-01
29.441595	1.299576	dec_choice	1.299576	16.000000	n/a	0	0	-2.317708e-01
29.441595	1.299576	dec_social_reject	1.299576	16.000000	n/a	0	0	2.994792e-02
29.441595	1.299576	dec_reject	1.299576	16.000000	n/a	0	0	3.693182e-02
29.441595	1.299576	dec_social_reject_low	1.299576	16.000000	n/a	2	-1.067708e-01	-2.317708e-01
36.274600	1.583760	dec_social_choice	1.583760	32.000000	n/a	16	2.682292e-01	2.682292e-01
36.274600	1.583760	dec_choice	1.583760	32.000000	n/a	16	2.682292e-01	2.682292e-01
36.274600	1.583760	dec_social_accept	1.583760	32.000000	n/a	16	1.315104e-01	1.315104e-01
36.274600	1.583760	dec_accept	1.583760	32.000000	n/a	16	1.466346e-01	1.466346e-01
36.274600	1.583760	dec_social_high	1.583760	32.000000	n/a	16	2.682292e-01	2.682292e-01
36.274600	1.583760	dec_social_accept_high	1.583760	32.000000	n/a	16	2.682292e-01	2.682292e-01
43.909103	1.398763	dec_nonsocial_choice	1.398763	32.000000	n/a	0	0	-2.317708e-01
43.909103	1.398763	dec_choice	1.398763	32.000000	n/a	0	0	-2.317708e-01
43.909103	1.398763	dec_nonsocial_reject	1.398763	32.000000	n/a	0	0	1.549479e-01
43.909103	1.398763	dec_reject	1.398763	32.000000	n/a	0	0	1.490385e-01
43.909103	1.398763	dec_nonsocial_reject_low	1.398763	32.000000	n/a	8	1.619318e-01	-8.806818e-02
54.773520	0.967702	dec_social_choice	0.967702	32.000000	n/a	16	2.682292e-01	2.682292e-01
54.773520	0.967702	dec_choice	0.967702	32.000000	n/a	16	2.682292e-01	2.682292e-01
54.773520	0.967702	dec_social_accept	0.967702	32.000000	n/a	16	1.315104e-01	1.315104e-01
54.773520	0.967702	dec_accept	0.967702	32.000000	n/a	16	1.466346e-01	1.466346e-01
54.773520	0.967702	dec_social_high	0.967702	32.000000	n/a	16	2.682292e-01	2.682292e-01
54.773520	0.967702	dec_social_accept_high	0.967702	32.000000	n/a	16	2.682292e-01	2.682292e-01
61.608147	0.899758	dec_nonsocial_choice	0.899758	16.000000	n/a	0	0	-2.317708e-01
61.608147	0.899758	dec_choice	0.899758	16.000000	n/a	0	0	-2.317708e-01
61.608147	0.899758	dec_nonsocial_reject	0.899758	16.000000	n/a	0	0	2.994792e-02
61.608147	0.899758	dec_reject	0.899758	16.000000	n/a	0	0	2.403846e-02
61.608147	0.899758	dec_nonsocial_reject_low	0.899758	16.000000	n/a	2	3.693182e-02	-8.806818e-02
70.873795	0.900684	dec_nonsocial_choice	0.900684	32.000000	n/a	0	0	-2.317708e-01
70.873795	0.900684	dec_choice	0.900684	32.000000	n/a	0	0	-2.317708e-01
70.873795	0.900684	dec_nonsocial_reject	0.900684	32.000000	n/a	0	0	-3.255208e-02
70.873795	0.900684	dec_reject	0.900684	32.000000	n/a	0	0	-3.846154e-02
70.873795	0.900684	dec_nonsocial_reject_low	0.900684	32.000000	n/a	2	-2.556818e-02	-8.806818e-02
77.707160	1.034171	dec_social_choice	1.034171	32.000000	n/a	3	-1.380208e-01	-1.380208e-01
77.707160	1.034171	dec_choice	1.034171	32.000000	n/a	3	-1.380208e-01	-1.380208e-01
77.707160	1.034171	dec_social_accept	1.034171	32.000000	n/a	3	-2.747396e-01	-2.747396e-01
77.707160	1.034171	dec_accept	1.034171	32.000000	n/a	3	-2.596154e-01	-2.596154e-01
77.707160	1.034171	dec_social_accept_low	1.034171	32.000000	n/a	3	-1.380208e-01	-1.380208e-01
86.958030	1.899835	dec_nonsocial_choice	1.899835	16.000000	n/a	0	0	-2.317708e-01
86.958030	1.899835	dec_choice	1.899835	16.000000	n/a	0	0	-2.317708e-01
86.958030	1.899835	dec_nonsocial_reject	1.899835	16.000000	n/a	0	0	2.994792e-02
86.958030	1.899835	dec_reject	1.899835	16.000000	n/a	0	0	2.403846e-02
86.958030	1.899835	dec_nonsocial_low	1.899835	16.000000	n/a	0	-2.317708e-01	-2.317708e-01
86.958030	1.899835	dec_nonsocial_reject_low	1.899835	16.000000	n/a	2	2.403846e-02	-1.009615e-01
93.790370	1.633815	dec_nonsocial_choice	1.633815	16.000000	n/a	8	2.682292e-01	2.682292e-01
93.790370	1.633815	dec_choice	1.633815	16.000000	n/a	8	2.682292e-01	2.682292e-01
93.790370	1.633815	dec_nonsocial_accept	1.633815	16.000000	n/a	8	1.315104e-01	1.315104e-01
93.790370	1.633815	dec_accept	1.633815	16.000000	n/a	8	1.136364e-01	1.136364e-01
93.790370	1.633815	dec_nonsocial_accept_high	1.633815	16.000000	n/a	8	1.466346e-01	1.466346e-01
100.624626	1.416546	dec_social_choice	1.416546	32.000000	n/a	0	0	-2.317708e-01
100.624626	1.416546	dec_choice	1.416546	32.000000	n/a	0	0	-2.317708e-01
100.624626	1.416546	dec_social_reject	1.416546	32.000000	n/a	0	0	-3.255208e-02
100.624626	1.416546	dec_reject	1.416546	32.000000	n/a	0	0	-2.556818e-02
100.624626	1.416546	dec_social_low	1.416546	32.000000	n/a	0	-2.317708e-01	-2.317708e-01
100.624626	1.416546	dec_social_reject_low	1.416546	32.000000	n/a	2	-1.692708e-01	-2.317708e-01
109.874610	1.733085	dec_nonsocial_choice	1.733085	32.000000	n/a	0	0	-2.317708e-01
109.874610	1.733085	dec_choice	1.733085	32.000000	n/a	0	0	-2.317708e-01
109.874610	1.733085	dec_nonsocial_reject	1.733085	32.000000	n/a	0	0	-3.255208e-02
109.874610	1.733085	dec_reject	1.733085	32.000000	n/a	0	0	-3.846154e-02
109.874610	1.733085	dec_nonsocial_reject_low	1.733085	32.000000	n/a	2	-2.556818e-02	-8.806818e-02
117.524610	0.916113	dec_nonsocial_choice	0.916113	32.000000	n/a	16	2.682292e-01	2.682292e-01
117.524610	0.916113	dec_choice	0.916113	32.000000	n/a	16	2.682292e-01	2.682292e-01
117.524610	0.916113	dec_nonsocial_accept	0.916113	32.000000	n/a	16	1.315104e-01	1.315104e-01
117.524610	0.916113	dec_accept	0.916113	32.000000	n/a	16	1.136364e-01	1.136364e-01
117.524610	0.916113	dec_nonsocial_high	0.916113	32.000000	n/a	16	2.682292e-01	2.682292e-01
117.524610	0.916113	dec_nonsocial_accept_high	0.916113	32.000000	n/a	16	1.136364e-01	1.136364e-01
124.358665	1.815320	dec_social_choice	1.815320	32.000000	n/a	8	1.822917e-02	1.822917e-02
124.358665	1.815320	dec_choice	1.815320	32.000000	n/a	8	1.822917e-02	1.822917e-02
124.358665	1.815320	dec_social_accept	1.815320	32.000000	n/a	8	-1.184896e-01	-1.184896e-01
124.358665	1.815320	dec_accept	1.815320	32.000000	n/a	8	-1.033654e-01	-1.033654e-01
124.358665	1.815320	dec_social_accept_high	1.815320	32.000000	n/a	8	1.822917e-02	1.822917e-02
132.007630	1.216350	dec_social_choice	1.216350	16.000000	n/a	4	1.822917e-02	1.822917e-02
132.007630	1.216350	dec_choice	1.216350	16.000000	n/a	4	1.822917e-02	1.822917e-02
132.007630	1.216350	dec_social_accept	1.216350	16.000000	n/a	4	-1.184896e-01	-1.184896e-01
132.007630	1.216350	dec_accept	1.216350	16.000000	n/a	4	-1.033654e-01	-1.033654e-01
132.007630	1.216350	dec_social_high	1.216350	16.000000	n/a	4	1.822917e-02	1.822917e-02
132.007630	1.216350	dec_social_accept_high	1.216350	16.000000	n/a	4	1.822917e-02	1.822917e-02
139.657620	1.083472	dec_social_choice	1.083472	32.000000	n/a	16	2.682292e-01	2.682292e-01
139.657620	1.083472	dec_choice	1.083472	32.000000	n/a	16	2.682292e-01	2.682292e-01
139.657620	1.083472	dec_social_accept	1.083472	32.000000	n/a	16	1.315104e-01	1.315104e-01
139.657620	1.083472	dec_accept	1.083472	32.000000	n/a	16	1.466346e-01	1.466346e-01
139.657620	1.083472	dec_social_high	1.083472	32.000000	n/a	16	2.682292e-01	2.682292e-01
139.657620	1.083472	dec_social_accept_high	1.083472	32.000000	n/a	16	2.682292e-01	2.682292e-01
146.491360	1.315677	dec_nonsocial_choice	1.315677	32.000000	n/a	0	0	-2.317708e-01
146.491360	1.315677	dec_choice	1.315677	32.000000	n/a	0	0	-2.317708e-01
146.491360	1.315677	dec_nonsocial_reject	1.315677	32.000000	n/a	0	0	-3.255208e-02
146.491360	1.315677	dec_reject	1.315677	32.000000	n/a	0	0	-3.846154e-02
146.491360	1.315677	dec_nonsocial_low	1.315677	32.000000	n/a	0	-2.317708e-01	-2.317708e-01
146.491360	1.315677	dec_nonsocial_reject_low	1.315677	32.000000	n/a	2	-3.846154e-02	-1.009615e-01
153.324630	1.150094	dec_nonsocial_choice	1.150094	32.000000	n/a	8	1.822917e-02	1.822917e-02
153.324630	1.150094	dec_choice	1.150094	32.000000	n/a	8	1.822917e-02	1.822917e-02
153.324630	1.150094	dec_nonsocial_accept	1.150094	32.000000	n/a	8	-1.184896e-01	-1.184896e-01
153.324630	1.150094	dec_accept	1.150094	32.000000	n/a	8	-1.363636e-01	-1.363636e-01
153.324630	1.150094	dec_nonsocial_high	1.150094	32.000000	n/a	8	1.822917e-02	1.822917e-02
153.324630	1.150094	dec_nonsocial_accept_high	1.150094	32.000000	n/a	8	-1.363636e-01	-1.363636e-01
160.156950	1.434061	dec_nonsocial_choice	1.434061	32.000000	n/a	0	0	-2.317708e-01
160.156950	1.434061	dec_choice	1.434061	32.000000	n/a	0	0	-2.317708e-01
160.156950	1.434061	dec_nonsocial_reject	1.434061	32.000000	n/a	0	0	-1.302083e-03
160.156950	1.434061	dec_reject	1.434061	32.000000	n/a	0	0	-7.211538e-03
160.156950	1.434061	dec_nonsocial_low	1.434061	32.000000	n/a	0	-2.317708e-01	-2.317708e-01
160.156950	1.434061	dec_nonsocial_reject_low	1.434061	32.000000	n/a	3	-7.211538e-03	-1.009615e-01
171.023670	1.483965	dec_social_choice	1.483965	16.000000	n/a	0	0	-2.317708e-01
171.023670	1.483965	dec_choice	1.483965	16.000000	n/a	0	0	-2.317708e-01
171.023670	1.483965	dec_social_reject	1.483965	16.000000	n/a	0	0	2.994792e-02
171.023670	1.483965	dec_reject	1.483965	16.000000	n/a	0	0	3.693182e-02
171.023670	1.483965	dec_social_reject_low	1.483965	16.000000	n/a	2	-1.067708e-01	-2.317708e-01
178.674580	1.199759	dec_social_choice	1.199759	16.000000	n/a	8	2.682292e-01	2.682292e-01
178.674580	1.199759	dec_choice	1.199759	16.000000	n/a	8	2.682292e-01	2.682292e-01
178.674580	1.199759	dec_social_accept	1.199759	16.000000	n/a	8	1.315104e-01	1.315104e-01
178.674580	1.199759	dec_accept	1.199759	16.000000	n/a	8	1.466346e-01	1.466346e-01
178.674580	1.199759	dec_social_accept_high	1.199759	16.000000	n/a	8	2.682292e-01	2.682292e-01
185.507800	1.233222	dec_social_choice	1.233222	32.000000	n/a	0	0	-2.317708e-01
185.507800	1.233222	dec_choice	1.233222	32.000000	n/a	0	0	-2.317708e-01
185.507800	1.233222	dec_social_reject	1.233222	32.000000	n/a	0	0	-3.255208e-02
185.507800	1.233222	dec_reject	1.233222	32.000000	n/a	0	0	-2.556818e-02
185.507800	1.233222	dec_social_reject_low	1.233222	32.000000	n/a	2	-1.692708e-01	-2.317708e-01
193.140230	1.266654	dec_nonsocial_choice	1.266654	16.000000	n/a	4	1.822917e-02	1.822917e-02
193.140230	1.266654	dec_choice	1.266654	16.000000	n/a	4	1.822917e-02	1.822917e-02
193.140230	1.266654	dec_nonsocial_accept	1.266654	16.000000	n/a	4	-1.184896e-01	-1.184896e-01
193.140230	1.266654	dec_accept	1.266654	16.000000	n/a	4	-1.363636e-01	-1.363636e-01
193.140230	1.266654	dec_nonsocial_accept_high	1.266654	16.000000	n/a	4	-1.033654e-01	-1.033654e-01
199.974640	1.165998	dec_social_choice	1.165998	16.000000	n/a	0	0	-2.317708e-01
199.974640	1.165998	dec_choice	1.165998	16.000000	n/a	0	0	-2.317708e-01
199.974640	1.165998	dec_social_reject	1.165998	16.000000	n/a	0	0	-3.255208e-02
199.974640	1.165998	dec_reject	1.165998	16.000000	n/a	0	0	-2.556818e-02
199.974640	1.165998	dec_social_reject_low	1.165998	16.000000	n/a	1	-1.692708e-01	-2.317708e-01
207.624650	1.365836	dec_nonsocial_choice	1.365836	32.000000	n/a	16	2.682292e-01	2.682292e-01
207.624650	1.365836	dec_choice	1.365836	32.000000	n/a	16	2.682292e-01	2.682292e-01
207.624650	1.365836	dec_nonsocial_accept	1.365836	32.000000	n/a	16	1.315104e-01	1.315104e-01
207.624650	1.365836	dec_accept	1.365836	32.000000	n/a	16	1.136364e-01	1.136364e-01
207.624650	1.365836	dec_nonsocial_high	1.365836	32.000000	n/a	16	2.682292e-01	2.682292e-01
207.624650	1.365836	dec_nonsocial_accept_high	1.365836	32.000000	n/a	16	1.136364e-01	1.136364e-01
214.457610	1.366196	dec_social_choice	1.366196	16.000000	n/a	0	0	-2.317708e-01
214.457610	1.366196	dec_choice	1.366196	16.000000	n/a	0	0	-2.317708e-01
214.457610	1.366196	dec_social_reject	1.366196	16.000000	n/a	0	0	2.994792e-02
214.457610	1.366196	dec_reject	1.366196	16.000000	n/a	0	0	3.693182e-02
214.457610	1.366196	dec_social_low	1.366196	16.000000	n/a	0	-2.317708e-01	-2.317708e-01
214.457610	1.366196	dec_social_reject_low	1.366196	16.000000	n/a	2	-1.067708e-01	-2.317708e-01
221.290860	1.066294	dec_nonsocial_choice	1.066294	16.000000	n/a	0	0	-2.317708e-01
221.290860	1.066294	dec_choice	1.066294	16.000000	n/a	0	0	-2.317708e-01
221.290860	1.066294	dec_nonsocial_reject	1.066294	16.000000	n/a	0	0	2.994792e-02
221.290860	1.066294	dec_reject	1.066294	16.000000	n/a	0	0	2.403846e-02
221.290860	1.066294	dec_nonsocial_reject_low	1.066294	16.000000	n/a	2	3.693182e-02	-8.806818e-02
233.773420	1.183849	dec_nonsocial_choice	1.183849	16.000000	n/a	0	0	-2.317708e-01
233.773420	1.183849	dec_choice	1.183849	16.000000	n/a	0	0	-2.317708e-01
233.773420	1.183849	dec_nonsocial_reject	1.183849	16.000000	n/a	0	0	-3.255208e-02
233.773420	1.183849	dec_reject	1.183849	16.000000	n/a	0	0	-3.846154e-02
233.773420	1.183849	dec_nonsocial_low	1.183849	16.000000	n/a	0	-2.317708e-01	-2.317708e-01
233.773420	1.183849	dec_nonsocial_reject_low	1.183849	16.000000	n/a	1	-3.846154e-02	-1.009615e-01
243.023600	1.283799	dec_nonsocial_choice	1.283799	32.000000	n/a	0	0	-2.317708e-01
243.023600	1.283799	dec_choice	1.283799	32.000000	n/a	0	0	-2.317708e-01
243.023600	1.283799	dec_nonsocial_reject	1.283799	32.000000	n/a	0	0	-3.255208e-02
243.023600	1.283799	dec_reject	1.283799	32.000000	n/a	0	0	-3.846154e-02
243.023600	1.283799	dec_nonsocial_low	1.283799	32.000000	n/a	0	-2.317708e-01	-2.317708e-01
243.023600	1.283799	dec_nonsocial_reject_low	1.283799	32.000000	n/a	2	-3.846154e-02	-1.009615e-01
250.674620	1.265859	dec_nonsocial_choice	1.265859	16.000000	n/a	0	0	-2.317708e-01
250.674620	1.265859	dec_choice	1.265859	16.000000	n/a	0	0	-2.317708e-01
250.674620	1.265859	dec_nonsocial_reject	1.265859	16.000000	n/a	0	0	2.994792e-02
250.674620	1.265859	dec_reject	1.265859	16.000000	n/a	0	0	2.403846e-02
250.674620	1.265859	dec_nonsocial_low	1.265859	16.000000	n/a	0	-2.317708e-01	-2.317708e-01
250.674620	1.265859	dec_nonsocial_reject_low	1.265859	16.000000	n/a	2	2.403846e-02	-1.009615e-01
257.507720	1.532770	dec_nonsocial_choice	1.532770	32.000000	n/a	0	0	-2.317708e-01
257.507720	1.532770	dec_choice	1.532770	32.000000	n/a	0	0	-2.317708e-01
257.507720	1.532770	dec_nonsocial_reject	1.532770	32.000000	n/a	0	0	-1.302083e-03
257.507720	1.532770	dec_reject	1.532770	32.000000	n/a	0	0	-7.211538e-03
257.507720	1.532770	dec_nonsocial_reject_low	1.532770	32.000000	n/a	3	5.681818e-03	-8.806818e-02
264.340580	1.550099	dec_nonsocial_choice	1.550099	32.000000	n/a	0	0	-2.317708e-01
264.340580	1.550099	dec_choice	1.550099	32.000000	n/a	0	0	-2.317708e-01
264.340580	1.550099	dec_nonsocial_reject	1.550099	32.000000	n/a	0	0	-3.255208e-02
264.340580	1.550099	dec_reject	1.550099	32.000000	n/a	0	0	-3.846154e-02
264.340580	1.550099	dec_nonsocial_low	1.550099	32.000000	n/a	0	-2.317708e-01	-2.317708e-01
264.340580	1.550099	dec_nonsocial_reject_low	1.550099	32.000000	n/a	2	-3.846154e-02	-1.009615e-01
271.974400	1.232986	dec_social_choice	1.232986	32.000000	n/a	0	0	-2.317708e-01
271.974400	1.232986	dec_choice	1.232986	32.000000	n/a	0	0	-2.317708e-01
271.974400	1.232986	dec_social_reject	1.232986	32.000000	n/a	0	0	-3.255208e-02
271.974400	1.232986	dec_reject	1.232986	32.000000	n/a	0	0	-2.556818e-02
271.974400	1.232986	dec_social_reject_low	1.232986	32.000000	n/a	2	-1.692708e-01	-2.317708e-01
278.807600	1.282998	dec_nonsocial_choice	1.282998	16.000000	n/a	4	1.822917e-02	1.822917e-02
278.807600	1.282998	dec_choice	1.282998	16.000000	n/a	4	1.822917e-02	1.822917e-02
278.807600	1.282998	dec_nonsocial_accept	1.282998	16.000000	n/a	4	-1.184896e-01	-1.184896e-01
278.807600	1.282998	dec_accept	1.282998	16.000000	n/a	4	-1.363636e-01	-1.363636e-01
278.807600	1.282998	dec_nonsocial_accept_high	1.282998	16.000000	n/a	4	-1.033654e-01	-1.033654e-01
285.640100	1.250332	dec_social_choice	1.250332	16.000000	n/a	4	1.822917e-02	1.822917e-02
285.640100	1.250332	dec_choice	1.250332	16.000000	n/a	4	1.822917e-02	1.822917e-02
285.640100	1.250332	dec_social_accept	1.250332	16.000000	n/a	4	-1.184896e-01	-1.184896e-01
285.640100	1.250332	dec_accept	1.250332	16.000000	n/a	4	-1.033654e-01	-1.033654e-01
285.640100	1.250332	dec_social_accept_high	1.250332	16.000000	n/a	4	1.822917e-02	1.822917e-02
294.889980	0.916758	dec_social_choice	0.916758	16.000000	n/a	4	1.822917e-02	1.822917e-02
294.889980	0.916758	dec_choice	0.916758	16.000000	n/a	4	1.822917e-02	1.822917e-02
294.889980	0.916758	dec_social_accept	0.916758	16.000000	n/a	4	-1.184896e-01	-1.184896e-01
294.889980	0.916758	dec_accept	0.916758	16.000000	n/a	4	-1.033654e-01	-1.033654e-01
294.889980	0.916758	dec_social_accept_high	0.916758	16.000000	n/a	4	1.822917e-02	1.822917e-02
301.724640	1.199177	dec_nonsocial_choice	1.199177	16.000000	n/a	4	1.822917e-02	1.822917e-02
301.724640	1.199177	dec_choice	1.199177	16.000000	n/a	4	1.822917e-02	1.822917e-02
301.724640	1.199177	dec_nonsocial_accept	1.199177	16.000000	n/a	4	-1.184896e-01	-1.184896e-01
301.724640	1.199177	dec_accept	1.199177	16.000000	n/a	4	-1.363636e-01	-1.363636e-01
301.724640	1.199177	dec_nonsocial_high	1.199177	16.000000	n/a	4	1.822917e-02	1.822917e-02
301.724640	1.199177	dec_nonsocial_accept_high	1.199177	16.000000	n/a	4	-1.363636e-01	-1.363636e-01
312.590640	1.216591	dec_social_choice	1.216591	16.000000	n/a	0	0	-2.317708e-01
312.590640	1.216591	dec_choice	1.216591	16.000000	n/a	0	0	-2.317708e-01
312.590640	1.216591	dec_social_reject	1.216591	16.000000	n/a	0	0	-3.255208e-02
312.590640	1.216591	dec_reject	1.216591	16.000000	n/a	0	0	-2.556818e-02
312.590640	1.216591	dec_social_low	1.216591	16.000000	n/a	0	-2.317708e-01	-2.317708e-01
312.590640	1.216591	dec_social_reject_low	1.216591	16.000000	n/a	1	-1.692708e-01	-2.317708e-01
319.424650	1.915518	dec_nonsocial_choice	1.915518	32.000000	n/a	8	1.822917e-02	1.822917e-02
319.424650	1.915518	dec_choice	1.915518	32.000000	n/a	8	1.822917e-02	1.822917e-02
319.424650	1.915518	dec_nonsocial_accept	1.915518	32.000000	n/a	8	-1.184896e-01	-1.184896e-01
319.424650	1.915518	dec_accept	1.915518	32.000000	n/a	8	-1.363636e-01	-1.363636e-01
319.424650	1.915518	dec_nonsocial_accept_high	1.915518	32.000000	n/a	8	-1.033654e-01	-1.033654e-01
328.690670	1.399693	dec_social_choice	1.399693	32.000000	n/a	8	1.822917e-02	1.822917e-02
328.690670	1.399693	dec_choice	1.399693	32.000000	n/a	8	1.822917e-02	1.822917e-02
328.690670	1.399693	dec_social_accept	1.399693	32.000000	n/a	8	-1.184896e-01	-1.184896e-01
328.690670	1.399693	dec_accept	1.399693	32.000000	n/a	8	-1.033654e-01	-1.033654e-01
328.690670	1.399693	dec_social_accept_high	1.399693	32.000000	n/a	8	1.822917e-02	1.822917e-02
336.340700	1.150060	dec_nonsocial_choice	1.150060	32.000000	n/a	16	2.682292e-01	2.682292e-01
336.340700	1.150060	dec_choice	1.150060	32.000000	n/a	16	2.682292e-01	2.682292e-01
336.340700	1.150060	dec_nonsocial_accept	1.150060	32.000000	n/a	16	1.315104e-01	1.315104e-01
336.340700	1.150060	dec_accept	1.150060	32.000000	n/a	16	1.136364e-01	1.136364e-01
336.340700	1.150060	dec_nonsocial_accept_high	1.150060	32.000000	n/a	16	1.466346e-01	1.466346e-01
343.974640	1.199133	dec_social_choice	1.199133	32.000000	n/a	0	0	-2.317708e-01
343.974640	1.199133	dec_choice	1.199133	32.000000	n/a	0	0	-2.317708e-01
343.974640	1.199133	dec_social_reject	1.199133	32.000000	n/a	0	0	-3.255208e-02
343.974640	1.199133	dec_reject	1.199133	32.000000	n/a	0	0	-2.556818e-02
343.974640	1.199133	dec_social_low	1.199133	32.000000	n/a	0	-2.317708e-01	-2.317708e-01
343.974640	1.199133	dec_social_reject_low	1.199133	32.000000	n/a	2	-1.692708e-01	-2.317708e-01
350.807560	1.282916	dec_social_choice	1.282916	16.000000	n/a	4	1.822917e-02	1.822917e-02
350.807560	1.282916	dec_choice	1.282916	16.000000	n/a	4	1.822917e-02	1.822917e-02
350.807560	1.282916	dec_social_accept	1.282916	16.000000	n/a	4	-1.184896e-01	-1.184896e-01
350.807560	1.282916	dec_accept	1.282916	16.000000	n/a	4	-1.033654e-01	-1.033654e-01
350.807560	1.282916	dec_social_high	1.282916	16.000000	n/a	4	1.822917e-02	1.822917e-02
350.807560	1.282916	dec_social_accept_high	1.282916	16.000000	n/a	4	1.822917e-02	1.822917e-02
357.640720	0.982934	dec_nonsocial_choice	0.982934	32.000000	n/a	16	2.682292e-01	2.682292e-01
357.640720	0.982934	dec_choice	0.982934	32.000000	n/a	16	2.682292e-01	2.682292e-01
357.640720	0.982934	dec_nonsocial_accept	0.982934	32.000000	n/a	16	1.315104e-01	1.315104e-01
357.640720	0.982934	dec_accept	0.982934	32.000000	n/a	16	1.136364e-01	1.136364e-01
357.640720	0.982934	dec_nonsocial_high	0.982934	32.000000	n/a	16	2.682292e-01	2.682292e-01
357.640720	0.982934	dec_nonsocial_accept_high	0.982934	32.000000	n/a	16	1.136364e-01	1.136364e-01
365.289760	1.184144	dec_social_choice	1.184144	16.000000	n/a	0	0	-2.317708e-01
365.289760	1.184144	dec_choice	1.184144	16.000000	n/a	0	0	-2.317708e-01
365.289760	1.184144	dec_social_reject	1.184144	16.000000	n/a	0	0	2.994792e-02
365.289760	1.184144	dec_reject	1.184144	16.000000	n/a	0	0	3.693182e-02
365.289760	1.184144	dec_social_low	1.184144	16.000000	n/a	0	-2.317708e-01	-2.317708e-01
365.289760	1.184144	dec_social_reject_low	1.184144	16.000000	n/a	2	-1.067708e-01	-2.317708e-01
372.123630	1.166701	dec_social_choice	1.166701	16.000000	n/a	8	2.682292e-01	2.682292e-01
372.123630	1.166701	dec_choice	1.166701	16.000000	n/a	8	2.682292e-01	2.682292e-01
372.123630	1.166701	dec_social_accept	1.166701	16.000000	n/a	8	1.315104e-01	1.315104e-01
372.123630	1.166701	dec_accept	1.166701	16.000000	n/a	8	1.466346e-01	1.466346e-01
372.123630	1.166701	dec_social_accept_high	1.166701	16.000000	n/a	8	2.682292e-01	2.682292e-01
