instrText,stimDoor,stimDoorLure,stimFace,stimFaceLure,Instructions.thisRepN,Instructions.thisTrialN,Instructions.thisN,Instructions.thisIndex,Trials.thisRepN,Trials.thisTrialN,Trials.thisN,Trials.thisIndex,Func,Keys,Text,RespTime,Onset,Offset,SystemTime_Start,SystemTime_Stop,Stim,Lure,Participant*,Age,date,expName,psychopyVersion,frameRate,
"In the earlier Feedback Games, you chose which doors contained a prize, and which peers liked you. 

You then saw positive or negative feedback (green check mark or red X) from the door or peer you selected.

You will now see a series of doors and peers, some of which you saw during the earlier Feedback Games, and some that you have never seen before.

Please press the spacebar to continue.",,,,,0,0,0,0,,,,,instrFunc,space,"In the earlier Feedback Games, you chose which doors contained a prize, and which peers liked you. 

You then saw positive or negative feedback (green check mark or red X) from the door or peer you selected.

You will now see a series of doors and peers, some of which you saw during the earlier Feedback Games, and some that you have never seen before.

Please press the spacebar to continue.",16.790204199962318,32.378368200035766,49.24087130033877,2023-06-07 19:12:25.142017,2023-06-07 19:12:41.989607,,,10701,18-29,2023-06-07_19h12.21.612,Recall,2021.2.3,60.02916216540903,
"For doors/peers that you remember selecting and getting feedback from, your job is to RECALL what feedback you received. 

Press '1' if you recall positive feedback. 

Press '2' if you recall negative feedback

Press the spacebar to continue.",,,,,0,1,1,1,,,,,instrFunc,space,"For doors/peers that you remember selecting and getting feedback from, your job is to RECALL what feedback you received. 

Press '1' if you recall positive feedback. 

Press '2' if you recall negative feedback

Press the spacebar to continue.",9.973303399980068,49.21141899994109,59.232048140023835,2023-06-07 19:12:41.990619,2023-06-07 19:12:51.995950,,,10701,18-29,2023-06-07_19h12.21.612,Recall,2021.2.3,60.02916216540903,
"For doors/peers that you don't remember getting feedback from, your job is to PREDICT what feedback you WOULD HAVE received.

Press '9' if you predict positive feedback.

Press '0' if you predict negative feedback. 

Please press the spacebar to continue.",,,,,0,2,2,2,,,,,instrFunc,space,"For doors/peers that you don't remember getting feedback from, your job is to PREDICT what feedback you WOULD HAVE received.

Press '9' if you predict positive feedback.

Press '0' if you predict negative feedback. 

Please press the spacebar to continue.",22.397236399934627,59.21930410002824,81.66672124003526,2023-06-07 19:12:51.996951,2023-06-07 19:13:14.429145,,,10701,18-29,2023-06-07_19h12.21.612,Recall,2021.2.3,60.02916216540903,
"This task is self-paced, and the prompts will always stay on the screen so that you know which buttons to press.

On the next screen we will show you what those prompts look like, so that you know exactly what to expect. 

You will start with either doors or peers, and then switch halfway through. 

Please press the spacebar to continue.",,,,,0,3,3,3,,,,,instrFunc,space,"This task is self-paced, and the prompts will always stay on the screen so that you know which buttons to press.

On the next screen we will show you what those prompts look like, so that you know exactly what to expect. 

You will start with either doors or peers, and then switch halfway through. 

Please press the spacebar to continue.",12.862830699887127,81.6498058999423,94.5572348398855,2023-06-07 19:13:14.430160,2023-06-07 19:13:27.322271,,,10701,18-29,2023-06-07_19h12.21.612,Recall,2021.2.3,60.02916216540903,
,,,,,,,,,,,,,imgtextFunc,space,"Here is what the screen will look like while you make your ratings.
The green circles remind you to press 1 or 9 for positive feedback.
The red circles remind you to press 2 or 0 for negative feedback.









Please let the experimenter know if you have any questions.

Whenever you're ready, press the spacebar to start the task.",12.375540799926966,94.68880440003704,107.24486694007646,2023-06-07 19:13:27.332246,2023-06-07 19:13:39.882199,,,10701,18-29,2023-06-07_19h12.21.612,Recall,2021.2.3,60.02916216540903,
,L_SD504.jpg,1,L_MF504.jpg,1,,,,,0,0,0,93,imgFunc,0,NA,3.5379819999216124,107.23073960002512,110.90625781996641,2023-06-07 19:13:39.919890,2023-06-07 19:13:43.584246,L_SD504.jpg,1,10701,18-29,2023-06-07_19h12.21.612,Recall,2021.2.3,60.02916216540903,
,SD008.jpg,0,MF008.jpg,0,,,,,0,1,1,57,imgFunc,0,NA,3.8948687999509275,110.87371690000873,114.87346924003214,2023-06-07 19:13:43.594221,2023-06-07 19:13:47.587205,SD008.jpg,0,10701,18-29,2023-06-07_19h12.21.612,Recall,2021.2.3,60.02916216540903,
,SD017.jpg,0,MF017.jpg,0,,,,,0,2,2,66,imgFunc,9,NA,2.70196760003455,114.86670609994326,117.66936043999158,2023-06-07 19:13:47.595185,2023-06-07 19:13:50.389268,SD017.jpg,0,10701,18-29,2023-06-07_19h12.21.612,Recall,2021.2.3,60.02916216540903,
,DD032.jpg,0,FF032.jpg,0,,,,,0,3,3,31,imgFunc,0,NA,12.69422420009505,117.67435939994175,130.45947653998155,2023-06-07 19:13:50.401238,2023-06-07 19:14:03.181761,DD032.jpg,0,10701,18-29,2023-06-07_19h12.21.612,Recall,2021.2.3,60.02916216540903,
,DD029.jpg,0,FF029.jpg,0,,,,,0,4,4,28,imgFunc,9,NA,2.277015300001949,130.49163349997252,132.88918083999306,2023-06-07 19:14:03.191736,2023-06-07 19:14:05.583615,DD029.jpg,0,10701,18-29,2023-06-07_19h12.21.612,Recall,2021.2.3,60.02916216540903,
,SD011.jpg,0,MF011.jpg,0,,,,,0,5,5,60,imgFunc,1,NA,2.410814900067635,132.8698730999604,135.3892682400765,2023-06-07 19:14:05.591618,2023-06-07 19:14:08.102081,SD011.jpg,0,10701,18-29,2023-06-07_19h12.21.612,Recall,2021.2.3,60.02916216540903,
,DD026.jpg,0,FF026.jpg,0,,,,,0,6,6,25,imgFunc,0,NA,5.205779599957168,135.39486570004374,140.71523174003232,2023-06-07 19:14:08.110062,2023-06-07 19:14:13.422651,DD026.jpg,0,10701,18-29,2023-06-07_19h12.21.612,Recall,2021.2.3,60.02916216540903,
,SD033.jpg,0,MF033.jpg,0,,,,,0,7,7,82,imgFunc,9,NA,1.9599723999854177,140.73655200004578,142.80568944010884,2023-06-07 19:14:13.438610,2023-06-07 19:14:15.507662,SD033.jpg,0,10701,18-29,2023-06-07_19h12.21.612,Recall,2021.2.3,60.02916216540903,
,SD010.jpg,0,MF010.jpg,0,,,,,0,8,8,59,imgFunc,0,NA,0.9094909999985248,142.78728369995952,143.78930593992118,2023-06-07 19:14:15.514645,2023-06-07 19:14:16.508333,SD010.jpg,0,10701,18-29,2023-06-07_19h12.21.612,Recall,2021.2.3,60.02916216540903,
,DD004.jpg,0,FF004.jpg,0,,,,,0,9,9,3,imgFunc,0,NA,1.5823381999507546,143.78607869998086,145.47187113994732,2023-06-07 19:14:16.515316,2023-06-07 19:14:18.192716,DD004.jpg,0,10701,18-29,2023-06-07_19h12.21.612,Recall,2021.2.3,60.02916216540903,
,SD023.jpg,0,MF023.jpg,0,,,,,0,10,10,72,imgFunc,0,NA,1.0357649999205023,145.46860270004254,146.6043373401044,2023-06-07 19:14:18.199700,2023-06-07 19:14:19.327024,SD023.jpg,0,10701,18-29,2023-06-07_19h12.21.612,Recall,2021.2.3,60.02916216540903,
,SD005.jpg,0,MF005.jpg,0,,,,,0,11,11,54,imgFunc,2,NA,5.581680400064215,146.60284129995853,152.27538193995133,2023-06-07 19:14:19.334007,2023-06-07 19:14:24.998060,SD005.jpg,0,10701,18-29,2023-06-07_19h12.21.612,Recall,2021.2.3,60.02916216540903,
,L_SD508.jpg,1,L_MF508.jpg,1,,,,,0,12,12,97,imgFunc,9,NA,2.4672137999441475,152.30144830001518,154.86985164007638,2023-06-07 19:14:25.014019,2023-06-07 19:14:27.582945,L_SD508.jpg,1,10701,18-29,2023-06-07_19h12.21.612,Recall,2021.2.3,60.02916216540903,
,DD010.jpg,0,FF010.jpg,0,,,,,0,13,13,9,imgFunc,0,NA,1.1382647000718862,154.86239929997828,156.09830523992423,2023-06-07 19:14:27.589928,2023-06-07 19:14:28.817278,DD010.jpg,0,10701,18-29,2023-06-07_19h12.21.612,Recall,2021.2.3,60.02916216540903,
,DD005.jpg,0,FF005.jpg,0,,,,,0,14,14,4,imgFunc,1,NA,1.313914499944076,156.0946263000369,157.49717794009484,2023-06-07 19:14:28.824261,2023-06-07 19:14:30.218253,DD005.jpg,0,10701,18-29,2023-06-07_19h12.21.612,Recall,2021.2.3,60.02916216540903,
,SD012.jpg,0,MF012.jpg,0,,,,,0,15,15,61,imgFunc,0,NA,0.888621799997054,157.49608169996645,158.48139484005515,2023-06-07 19:14:30.225236,2023-06-07 19:14:31.202145,SD012.jpg,0,10701,18-29,2023-06-07_19h12.21.612,Recall,2021.2.3,60.02916216540903,
,SD025.jpg,0,MF025.jpg,0,,,,,0,16,16,74,imgFunc,9,NA,2.5984865999780595,158.49016289995052,161.19146793987602,2023-06-07 19:14:31.210147,2023-06-07 19:14:33.903964,SD025.jpg,0,10701,18-29,2023-06-07_19h12.21.612,Recall,2021.2.3,60.02916216540903,
,DD027.jpg,0,FF027.jpg,0,,,,,0,17,17,26,imgFunc,0,NA,0.9986091000027955,161.19398710003588,162.28266943991184,2023-06-07 19:14:33.917928,2023-06-07 19:14:35.004570,DD027.jpg,0,10701,18-29,2023-06-07_19h12.21.612,Recall,2021.2.3,60.02916216540903,
,DD036.jpg,0,FF036.jpg,0,,,,,0,18,18,35,imgFunc,0,NA,1.315597099950537,162.28511749999598,163.70374104008079,2023-06-07 19:14:35.012552,2023-06-07 19:14:36.422658,DD036.jpg,0,10701,18-29,2023-06-07_19h12.21.612,Recall,2021.2.3,60.02916216540903,
,L_SD510.jpg,1,L_MF510.jpg,1,,,,,0,19,19,99,imgFunc,2,NA,2.239095799974166,163.70542000001296,166.04250783997122,2023-06-07 19:14:36.429641,2023-06-07 19:14:38.758018,L_SD510.jpg,1,10701,18-29,2023-06-07_19h12.21.612,Recall,2021.2.3,60.02916216540903,
,DD024.jpg,0,FF024.jpg,0,,,,,0,20,20,23,imgFunc,9,NA,1.0664511000504717,166.04601799999364,167.21464764000848,2023-06-07 19:14:38.765001,2023-06-07 19:14:39.925324,DD024.jpg,0,10701,18-29,2023-06-07_19h12.21.612,Recall,2021.2.3,60.02916216540903,
,L_SD501.jpg,1,L_MF501.jpg,1,,,,,0,21,21,90,imgFunc,9,NA,2.493840199895203,167.21056200005114,169.81413344002794,2023-06-07 19:14:39.932307,2023-06-07 19:14:42.527149,L_SD501.jpg,1,10701,18-29,2023-06-07_19h12.21.612,Recall,2021.2.3,60.02916216540903,
,SD039.jpg,0,MF039.jpg,0,,,,,0,22,22,88,imgFunc,0,NA,1.9452600999502465,169.79937130003236,171.835802639951,2023-06-07 19:14:42.534134,2023-06-07 19:14:44.561832,SD039.jpg,0,10701,18-29,2023-06-07_19h12.21.612,Recall,2021.2.3,60.02916216540903,
,SD024.jpg,0,MF024.jpg,0,,,,,0,23,23,73,imgFunc,0,NA,1.0602382998913527,171.83646290004253,172.98864104016684,2023-06-07 19:14:44.568815,2023-06-07 19:14:45.712604,SD024.jpg,0,10701,18-29,2023-06-07_19h12.21.612,Recall,2021.2.3,60.02916216540903,
,DD006.jpg,0,FF006.jpg,0,,,,,0,24,24,5,imgFunc,9,NA,1.2517596000107005,172.99696170003153,174.34923284011893,2023-06-07 19:14:45.719610,2023-06-07 19:14:47.063678,DD006.jpg,0,10701,18-29,2023-06-07_19h12.21.612,Recall,2021.2.3,60.02916216540903,
,SD032.jpg,0,MF032.jpg,0,,,,,0,25,25,81,imgFunc,0,NA,0.6701303999871016,174.34654779999983,175.1151487401221,2023-06-07 19:14:47.070670,2023-06-07 19:14:47.830751,SD032.jpg,0,10701,18-29,2023-06-07_19h12.21.612,Recall,2021.2.3,60.02916216540903,
,SD031.jpg,0,MF031.jpg,0,,,,,0,26,26,80,imgFunc,9,NA,0.7996078000869602,175.12097100005485,176.01129093999043,2023-06-07 19:14:47.843729,2023-06-07 19:14:48.731525,SD031.jpg,0,10701,18-29,2023-06-07_19h12.21.612,Recall,2021.2.3,60.02916216540903,
,L_DD504.jpg,1,L_FF504.jpg,1,,,,,0,27,27,43,imgFunc,0,NA,1.5500897000310943,176.01054769998882,177.66343183990102,2023-06-07 19:14:48.738508,2023-06-07 19:14:50.382876,L_DD504.jpg,1,10701,18-29,2023-06-07_19h12.21.612,Recall,2021.2.3,60.02916216540903,
,L_DD502.jpg,1,L_FF502.jpg,1,,,,,0,28,28,41,imgFunc,0,NA,1.3823627000674605,177.65814329998102,179.12741954007652,2023-06-07 19:14:50.389860,2023-06-07 19:14:51.850674,L_DD502.jpg,1,10701,18-29,2023-06-07_19h12.21.612,Recall,2021.2.3,60.02916216540903,
,SD015.jpg,0,MF015.jpg,0,,,,,0,29,29,64,imgFunc,0,NA,0.9788577000144869,179.1338794999756,180.2190878400579,2023-06-07 19:14:51.857657,2023-06-07 19:14:52.934637,SD015.jpg,0,10701,18-29,2023-06-07_19h12.21.612,Recall,2021.2.3,60.02916216540903,
,DD019.jpg,0,FF019.jpg,0,,,,,0,30,30,18,imgFunc,9,NA,1.1378273000009358,180.22282350005116,181.47549824009184,2023-06-07 19:14:52.941620,2023-06-07 19:14:54.185630,DD019.jpg,0,10701,18-29,2023-06-07_19h12.21.612,Recall,2021.2.3,60.02916216540903,
,SD009.jpg,0,MF009.jpg,0,,,,,0,31,31,58,imgFunc,0,NA,3.829375700093806,181.48323679994792,185.4049203399336,2023-06-07 19:14:54.200592,2023-06-07 19:14:58.121780,SD009.jpg,0,10701,18-29,2023-06-07_19h12.21.612,Recall,2021.2.3,60.02916216540903,
,SD004.jpg,0,MF004.jpg,0,,,,,0,32,32,53,imgFunc,0,NA,2.043432299979031,185.39719799999148,187.53201974008698,2023-06-07 19:14:58.129760,2023-06-07 19:15:00.255975,SD004.jpg,0,10701,18-29,2023-06-07_19h12.21.612,Recall,2021.2.3,60.02916216540903,
,SD030.jpg,0,MF030.jpg,0,,,,,0,33,33,79,imgFunc,0,NA,0.9287848999956623,187.54377610003576,188.57844844006468,2023-06-07 19:15:00.263956,2023-06-07 19:15:01.290557,SD030.jpg,0,10701,18-29,2023-06-07_19h12.21.612,Recall,2021.2.3,60.02916216540903,
,L_DD509.jpg,1,L_FF509.jpg,1,,,,,0,34,34,48,imgFunc,0,NA,0.14340139995329082,188.5692726999987,188.80446274008136,2023-06-07 19:15:01.297541,2023-06-07 19:15:01.524001,L_DD509.jpg,1,10701,18-29,2023-06-07_19h12.21.612,Recall,2021.2.3,60.02916216540903,
,DD013.jpg,0,FF013.jpg,0,,,,,0,35,35,12,imgFunc,0,NA,0.9024599000113085,188.80227390001528,189.80395293992478,2023-06-07 19:15:01.531982,2023-06-07 19:15:02.525010,DD013.jpg,0,10701,18-29,2023-06-07_19h12.21.612,Recall,2021.2.3,60.02916216540903,
,DD040.jpg,0,FF040.jpg,0,,,,,0,36,36,39,imgFunc,9,NA,0.8519127999898046,189.81274910003413,190.75031114008743,2023-06-07 19:15:02.539972,2023-06-07 19:15:03.475745,DD040.jpg,0,10701,18-29,2023-06-07_19h12.21.612,Recall,2021.2.3,60.02916216540903,
,L_DD507.jpg,1,L_FF507.jpg,1,,,,,0,37,37,46,imgFunc,0,NA,0.7072101000230759,190.74949529999867,191.55153224011883,2023-06-07 19:15:03.482728,2023-06-07 19:15:04.276156,L_DD507.jpg,1,10701,18-29,2023-06-07_19h12.21.612,Recall,2021.2.3,60.02916216540903,
,DD016.jpg,0,FF016.jpg,0,,,,,0,38,38,15,imgFunc,9,NA,0.6765160999493673,191.5642467000289,192.3493208400905,2023-06-07 19:15:04.283139,2023-06-07 19:15:05.059966,DD016.jpg,0,10701,18-29,2023-06-07_19h12.21.612,Recall,2021.2.3,60.02916216540903,
,DD014.jpg,0,FF014.jpg,0,,,,,0,39,39,13,imgFunc,0,NA,1.4740746000315994,192.34254340000916,193.9121703399578,2023-06-07 19:15:05.066967,2023-06-07 19:15:06.628149,DD014.jpg,0,10701,18-29,2023-06-07_19h12.21.612,Recall,2021.2.3,60.02916216540903,
,DD018.jpg,0,FF018.jpg,0,,,,,0,40,40,17,imgFunc,0,NA,1.6725005999905989,193.9121812999947,195.68136404000688,2023-06-07 19:15:06.635132,2023-06-07 19:15:08.396066,DD018.jpg,0,10701,18-29,2023-06-07_19h12.21.612,Recall,2021.2.3,60.02916216540903,
,SD002.jpg,0,MF002.jpg,0,,,,,0,41,41,51,imgFunc,0,NA,0.7402388999471441,195.66847010003403,196.50400954007637,2023-06-07 19:15:08.403049,2023-06-07 19:15:09.229709,SD002.jpg,0,10701,18-29,2023-06-07_19h12.21.612,Recall,2021.2.3,60.02916216540903,
,SD001.jpg,0,MF001.jpg,0,,,,,0,42,42,50,imgFunc,1,NA,2.9888595999218524,196.50787620001938,199.59512384003028,2023-06-07 19:15:09.236693,2023-06-07 19:15:12.315478,SD001.jpg,0,10701,18-29,2023-06-07_19h12.21.612,Recall,2021.2.3,60.02916216540903,
,SD006.jpg,0,MF006.jpg,0,,,,,0,43,43,55,imgFunc,0,NA,1.1782698000315577,199.59841239999514,200.88445904001128,2023-06-07 19:15:12.322461,2023-06-07 19:15:13.599681,SD006.jpg,0,10701,18-29,2023-06-07_19h12.21.612,Recall,2021.2.3,60.02916216540903,
,L_DD505.jpg,1,L_FF505.jpg,1,,,,,0,44,44,44,imgFunc,0,NA,1.3641988999443129,200.88452590000816,202.35383804014418,2023-06-07 19:15:13.606664,2023-06-07 19:15:15.067382,L_DD505.jpg,1,10701,18-29,2023-06-07_19h12.21.612,Recall,2021.2.3,60.02916216540903,
,SD036.jpg,0,MF036.jpg,0,,,,,0,45,45,85,imgFunc,9,NA,1.29872369999066,202.35775890003424,203.74780374008697,2023-06-07 19:15:15.081347,2023-06-07 19:15:16.468597,SD036.jpg,0,10701,18-29,2023-06-07_19h12.21.612,Recall,2021.2.3,60.02916216540903,
,DD034.jpg,0,FF034.jpg,0,,,,,0,46,46,33,imgFunc,1,NA,1.249428499955684,203.75129849999212,205.1034056399949,2023-06-07 19:15:16.475581,2023-06-07 19:15:17.819356,DD034.jpg,0,10701,18-29,2023-06-07_19h12.21.612,Recall,2021.2.3,60.02916216540903,
,L_SD502.jpg,1,L_MF502.jpg,1,,,,,0,47,47,91,imgFunc,0,NA,1.2675272999331355,205.1012469000416,206.47032634005882,2023-06-07 19:15:17.826339,2023-06-07 19:15:19.187112,L_SD502.jpg,1,10701,18-29,2023-06-07_19h12.21.612,Recall,2021.2.3,60.02916216540903,
,DD002.jpg,0,FF002.jpg,0,,,,,0,48,48,1,imgFunc,9,NA,1.3290459000272676,206.47158749995288,207.9077676399611,2023-06-07 19:15:19.194096,2023-06-07 19:15:20.621527,DD002.jpg,0,10701,18-29,2023-06-07_19h12.21.612,Recall,2021.2.3,60.02916216540903,
,DD017.jpg,0,FF017.jpg,0,,,,,0,49,49,16,imgFunc,0,NA,2.0616718999808654,207.90679759997874,210.07637043995783,2023-06-07 19:15:20.628510,2023-06-07 19:15:22.789506,DD017.jpg,0,10701,18-29,2023-06-07_19h12.21.612,Recall,2021.2.3,60.02916216540903,
,DD037.jpg,0,FF037.jpg,0,,,,,0,50,50,36,imgFunc,0,NA,2.084339900058694,210.08425069996156,212.27259574003983,2023-06-07 19:15:22.804490,2023-06-07 19:15:24.991232,DD037.jpg,0,10701,18-29,2023-06-07_19h12.21.612,Recall,2021.2.3,60.02916216540903,
,DD030.jpg,0,FF030.jpg,0,,,,,0,51,51,29,imgFunc,0,NA,2.3407985999947414,212.26794609997887,214.70462004002184,2023-06-07 19:15:24.998237,2023-06-07 19:15:27.426479,DD030.jpg,0,10701,18-29,2023-06-07_19h12.21.612,Recall,2021.2.3,60.02916216540903,
,DD011.jpg,0,FF011.jpg,0,,,,,0,52,52,10,imgFunc,0,NA,5.060518200043589,214.70811060001142,219.86306224006694,2023-06-07 19:15:27.433463,2023-06-07 19:15:32.580145,DD011.jpg,0,10701,18-29,2023-06-07_19h12.21.612,Recall,2021.2.3,60.02916216540903,
,DD009.jpg,0,FF009.jpg,0,,,,,0,53,53,8,imgFunc,0,NA,3.909328900044784,219.8592944999691,223.8599330399884,2023-06-07 19:15:32.589123,2023-06-07 19:15:36.583116,DD009.jpg,0,10701,18-29,2023-06-07_19h12.21.612,Recall,2021.2.3,60.02916216540903,
,L_SD505.jpg,1,L_MF505.jpg,1,,,,,0,54,54,94,imgFunc,2,NA,2.460399999981746,223.87627250002697,226.44540294003673,2023-06-07 19:15:36.591096,2023-06-07 19:15:39.151607,L_SD505.jpg,1,10701,18-29,2023-06-07_19h12.21.612,Recall,2021.2.3,60.02916216540903,
,DD003.jpg,0,FF003.jpg,0,,,,,0,55,55,2,imgFunc,0,NA,0.8282046999083832,226.44458220002707,227.36541784007568,2023-06-07 19:15:39.166569,2023-06-07 19:15:40.085730,DD003.jpg,0,10701,18-29,2023-06-07_19h12.21.612,Recall,2021.2.3,60.02916216540903,
,L_SD507.jpg,1,L_MF507.jpg,1,,,,,0,56,56,96,imgFunc,9,NA,0.9472688999958336,227.35737240000162,228.39290864008944,2023-06-07 19:15:40.092713,2023-06-07 19:15:41.119466,L_SD507.jpg,1,10701,18-29,2023-06-07_19h12.21.612,Recall,2021.2.3,60.02916216540903,
,DD008.jpg,0,FF008.jpg,0,,,,,0,57,57,7,imgFunc,0,NA,1.1612126999534667,228.39944690000266,229.65178044012282,2023-06-07 19:15:41.126471,2023-06-07 19:15:42.370615,DD008.jpg,0,10701,18-29,2023-06-07_19h12.21.612,Recall,2021.2.3,60.02916216540903,
,DD021.jpg,0,FF021.jpg,0,,,,,0,58,58,20,imgFunc,0,NA,1.0574463000521064,229.65498899994418,230.8241506400518,2023-06-07 19:15:42.377598,2023-06-07 19:15:43.538143,DD021.jpg,0,10701,18-29,2023-06-07_19h12.21.612,Recall,2021.2.3,60.02916216540903,
,SD035.jpg,0,MF035.jpg,0,,,,,0,59,59,84,imgFunc,0,NA,0.7880872000241652,230.82059020001907,231.706550240051,2023-06-07 19:15:43.545126,2023-06-07 19:15:44.422397,SD035.jpg,0,10701,18-29,2023-06-07_19h12.21.612,Recall,2021.2.3,60.02916216540903,
,L_SD506.jpg,1,L_MF506.jpg,1,,,,,0,60,60,95,imgFunc,0,NA,1.0453321000095457,231.69918049999978,232.83480094000697,2023-06-07 19:15:44.429380,2023-06-07 19:15:45.556266,L_SD506.jpg,1,10701,18-29,2023-06-07_19h12.21.612,Recall,2021.2.3,60.02916216540903,
,SD021.jpg,0,MF021.jpg,0,,,,,0,61,61,70,imgFunc,0,NA,1.0588308000005782,232.8297977000475,233.98247163998894,2023-06-07 19:15:45.563249,2023-06-07 19:15:46.707084,SD021.jpg,0,10701,18-29,2023-06-07_19h12.21.612,Recall,2021.2.3,60.02916216540903,
,DD001.jpg,0,FF001.jpg,0,,,,,0,62,62,0,imgFunc,9,NA,1.3595874999882653,233.98493190004956,235.43782534007914,2023-06-07 19:15:46.714067,2023-06-07 19:15:48.157763,DD001.jpg,0,10701,18-29,2023-06-07_19h12.21.612,Recall,2021.2.3,60.02916216540903,
,L_DD501.jpg,1,L_FF501.jpg,1,,,,,0,63,63,40,imgFunc,0,NA,0.5642965999431908,235.43640360003337,236.10517574008554,2023-06-07 19:15:48.165745,2023-06-07 19:15:48.825288,L_DD501.jpg,1,10701,18-29,2023-06-07_19h12.21.612,Recall,2021.2.3,60.02916216540903,
,SD013.jpg,0,MF013.jpg,0,,,,,0,64,64,62,imgFunc,0,NA,0.7786209000041708,236.10191790002864,236.95817444007844,2023-06-07 19:15:48.838255,2023-06-07 19:15:49.692430,SD013.jpg,0,10701,18-29,2023-06-07_19h12.21.612,Recall,2021.2.3,60.02916216540903,
,DD020.jpg,0,FF020.jpg,0,,,,,0,65,65,19,imgFunc,0,NA,0.7581443999661133,236.97047549998388,237.82291724008974,2023-06-07 19:15:49.699413,2023-06-07 19:15:50.543335,DD020.jpg,0,10701,18-29,2023-06-07_19h12.21.612,Recall,2021.2.3,60.02916216540903,
,SD040.jpg,0,MF040.jpg,0,,,,,0,66,66,89,imgFunc,9,NA,0.549359199940227,237.82736580003984,238.47913903999142,2023-06-07 19:15:50.550318,2023-06-07 19:15:51.193494,SD040.jpg,0,10701,18-29,2023-06-07_19h12.21.612,Recall,2021.2.3,60.02916216540903,
,L_DD506.jpg,1,L_FF506.jpg,1,,,,,0,67,67,45,imgFunc,0,NA,0.6469893000321463,238.4896335999947,239.25861493998673,2023-06-07 19:15:51.200477,2023-06-07 19:15:51.960811,L_DD506.jpg,1,10701,18-29,2023-06-07_19h12.21.612,Recall,2021.2.3,60.02916216540903,
,DD039.jpg,0,FF039.jpg,0,,,,,0,68,68,38,imgFunc,9,NA,0.7129135999130085,239.2556322000455,240.09114814002533,2023-06-07 19:15:51.967795,2023-06-07 19:15:52.794844,DD039.jpg,0,10701,18-29,2023-06-07_19h12.21.612,Recall,2021.2.3,60.02916216540903,
,L_DD508.jpg,1,L_FF508.jpg,1,,,,,0,69,69,47,imgFunc,0,NA,0.65109429997392,240.09364840004127,240.8480608400423,2023-06-07 19:15:52.808810,2023-06-07 19:15:53.561953,L_DD508.jpg,1,10701,18-29,2023-06-07_19h12.21.612,Recall,2021.2.3,60.02916216540903,
,DD015.jpg,0,FF015.jpg,0,,,,,0,70,70,14,imgFunc,0,NA,1.1600013000424951,240.84058479999658,242.09316554001998,2023-06-07 19:15:53.568936,2023-06-07 19:15:54.812966,DD015.jpg,0,10701,18-29,2023-06-07_19h12.21.612,Recall,2021.2.3,60.02916216540903,
,DD028.jpg,0,FF028.jpg,0,,,,,0,71,71,27,imgFunc,9,NA,0.7714421999407932,242.0851735000033,242.95421404007357,2023-06-07 19:15:54.819948,2023-06-07 19:15:55.680191,DD028.jpg,0,10701,18-29,2023-06-07_19h12.21.612,Recall,2021.2.3,60.02916216540903,
,SD019.jpg,0,MF019.jpg,0,,,,,0,72,72,68,imgFunc,0,NA,0.6046017999760807,242.95612220000476,243.65828643995337,2023-06-07 19:15:55.687174,2023-06-07 19:15:56.380616,SD019.jpg,0,10701,18-29,2023-06-07_19h12.21.612,Recall,2021.2.3,60.02916216540903,
,SD018.jpg,0,MF018.jpg,0,,,,,0,73,73,67,imgFunc,0,NA,0.6497421999229118,243.65486420004163,244.39056304015685,2023-06-07 19:15:56.387599,2023-06-07 19:15:57.114709,SD018.jpg,0,10701,18-29,2023-06-07_19h12.21.612,Recall,2021.2.3,60.02916216540903,
,SD028.jpg,0,MF028.jpg,0,,,,,0,74,74,77,imgFunc,9,NA,0.7302316999994218,244.3903015999822,245.20937454001978,2023-06-07 19:15:57.121692,2023-06-07 19:15:57.931966,SD028.jpg,0,10701,18-29,2023-06-07_19h12.21.612,Recall,2021.2.3,60.02916216540903,
,SD016.jpg,0,MF016.jpg,0,,,,,0,75,75,65,imgFunc,0,NA,0.48823350004386157,245.2003887000028,245.76903454004787,2023-06-07 19:15:57.938949,2023-06-07 19:15:58.499122,SD016.jpg,0,10701,18-29,2023-06-07_19h12.21.612,Recall,2021.2.3,60.02916216540903,
,L_SD509.jpg,1,L_MF509.jpg,1,,,,,0,76,76,98,imgFunc,0,NA,0.5656061000190675,245.77102570002899,246.42297544004396,2023-06-07 19:15:58.506105,2023-06-07 19:15:59.149464,L_SD509.jpg,1,10701,18-29,2023-06-07_19h12.21.612,Recall,2021.2.3,60.02916216540903,
,L_DD503.jpg,1,L_FF503.jpg,1,,,,,0,77,77,42,imgFunc,0,NA,0.5536917001008987,246.42258689994924,247.07434374000877,2023-06-07 19:15:59.156447,2023-06-07 19:15:59.799226,L_DD503.jpg,1,10701,18-29,2023-06-07_19h12.21.612,Recall,2021.2.3,60.02916216540903,
,L_SD503.jpg,1,L_MF503.jpg,1,,,,,0,78,78,92,imgFunc,9,NA,0.4255976000567898,247.09507279994432,247.615203840076,2023-06-07 19:15:59.815188,2023-06-07 19:16:00.333725,L_SD503.jpg,1,10701,18-29,2023-06-07_19h12.21.612,Recall,2021.2.3,60.02916216540903,
,DD033.jpg,0,FF033.jpg,0,,,,,0,79,79,32,imgFunc,0,NA,0.3865405999822542,247.60615320003126,248.09075504005887,2023-06-07 19:16:00.341680,2023-06-07 19:16:00.817315,DD033.jpg,0,10701,18-29,2023-06-07_19h12.21.612,Recall,2021.2.3,60.02916216540903,
,SD022.jpg,0,MF022.jpg,0,,,,,0,80,80,71,imgFunc,0,NA,0.4035268999869004,248.09316519997083,248.59493224008474,2023-06-07 19:16:00.824298,2023-06-07 19:16:01.317422,SD022.jpg,0,10701,18-29,2023-06-07_19h12.21.612,Recall,2021.2.3,60.02916216540903,
,DD022.jpg,0,FF022.jpg,0,,,,,0,81,81,21,imgFunc,9,NA,1.100457499967888,248.5883721000282,249.7744581400184,2023-06-07 19:16:01.324405,2023-06-07 19:16:02.501960,DD022.jpg,0,10701,18-29,2023-06-07_19h12.21.612,Recall,2021.2.3,60.02916216540903,
,SD026.jpg,0,MF026.jpg,0,,,,,0,82,82,75,imgFunc,0,NA,0.40544270002283156,249.7713544999715,250.27318013994955,2023-06-07 19:16:02.508943,2023-06-07 19:16:03.002006,SD026.jpg,0,10701,18-29,2023-06-07_19h12.21.612,Recall,2021.2.3,60.02916216540903,
,L_DD510.jpg,1,L_FF510.jpg,1,,,,,0,83,83,49,imgFunc,9,NA,1.255404100054875,250.28901339997537,251.64392284001224,2023-06-07 19:16:03.016968,2023-06-07 19:16:04.369826,L_DD510.jpg,1,10701,18-29,2023-06-07_19h12.21.612,Recall,2021.2.3,60.02916216540903,
,SD014.jpg,0,MF014.jpg,0,,,,,0,84,84,63,imgFunc,9,NA,1.2939500000793487,251.6427154999692,253.0287237400189,2023-06-07 19:16:04.376809,2023-06-07 19:16:05.754165,SD014.jpg,0,10701,18-29,2023-06-07_19h12.21.612,Recall,2021.2.3,60.02916216540903,
,SD007.jpg,0,MF007.jpg,0,,,,,0,85,85,56,imgFunc,9,NA,0.8307736000278965,253.02588149998337,253.94493224006146,2023-06-07 19:16:05.761148,2023-06-07 19:16:06.671691,SD007.jpg,0,10701,18-29,2023-06-07_19h12.21.612,Recall,2021.2.3,60.02916216540903,
,DD025.jpg,0,FF025.jpg,0,,,,,0,86,86,24,imgFunc,0,NA,2.217271599918604,253.94337510003243,256.2466078400612,2023-06-07 19:16:06.678674,2023-06-07 19:16:08.973097,DD025.jpg,0,10701,18-29,2023-06-07_19h12.21.612,Recall,2021.2.3,60.02916216540903,
,SD029.jpg,0,MF029.jpg,0,,,,,0,87,87,78,imgFunc,1,NA,1.9970533999148756,256.24372240004595,258.3301526401192,2023-06-07 19:16:08.980081,2023-06-07 19:16:11.057987,SD029.jpg,0,10701,18-29,2023-06-07_19h12.21.612,Recall,2021.2.3,60.02916216540903,
,SD034.jpg,0,MF034.jpg,0,,,,,0,88,88,83,imgFunc,2,NA,2.3167622999753803,258.3318589000264,260.7349381400272,2023-06-07 19:16:11.064992,2023-06-07 19:16:13.459735,SD034.jpg,0,10701,18-29,2023-06-07_19h12.21.612,Recall,2021.2.3,60.02916216540903,
,SD037.jpg,0,MF037.jpg,0,,,,,0,89,89,86,imgFunc,0,NA,0.7751773999771103,260.7372994000325,261.6060777400853,2023-06-07 19:16:13.466718,2023-06-07 19:16:14.327060,SD037.jpg,0,10701,18-29,2023-06-07_19h12.21.612,Recall,2021.2.3,60.02916216540903,
,SD027.jpg,0,MF027.jpg,0,,,,,0,90,90,76,imgFunc,0,NA,0.7833616000134498,261.6091963000363,262.49466694006696,2023-06-07 19:16:14.334066,2023-06-07 19:16:15.211099,SD027.jpg,0,10701,18-29,2023-06-07_19h12.21.612,Recall,2021.2.3,60.02916216540903,
,DD031.jpg,0,FF031.jpg,0,,,,,0,91,91,30,imgFunc,1,NA,1.3704058000585064,262.50225699995644,263.9878017400624,2023-06-07 19:16:15.218104,2023-06-07 19:16:16.695456,DD031.jpg,0,10701,18-29,2023-06-07_19h12.21.612,Recall,2021.2.3,60.02916216540903,
,SD020.jpg,0,MF020.jpg,0,,,,,0,92,92,69,imgFunc,0,NA,1.0750095000257716,263.9895607000217,265.1639039401198,2023-06-07 19:16:16.708424,2023-06-07 19:16:17.879817,SD020.jpg,0,10701,18-29,2023-06-07_19h12.21.612,Recall,2021.2.3,60.02916216540903,
,DD007.jpg,0,FF007.jpg,0,,,,,0,93,93,6,imgFunc,0,NA,1.167806199984625,265.1607900999952,266.42969403997995,2023-06-07 19:16:17.886800,2023-06-07 19:16:19.147274,DD007.jpg,0,10701,18-29,2023-06-07_19h12.21.612,Recall,2021.2.3,60.02916216540903,
,DD012.jpg,0,FF012.jpg,0,,,,,0,94,94,11,imgFunc,0,NA,1.1663410000037402,266.4262982000364,267.685959840077,2023-06-07 19:16:19.159267,2023-06-07 19:16:20.414870,DD012.jpg,0,10701,18-29,2023-06-07_19h12.21.612,Recall,2021.2.3,60.02916216540903,
,SD038.jpg,0,MF038.jpg,0,,,,,0,95,95,87,imgFunc,1,NA,1.5042064000153914,267.68850739998743,269.291435840074,2023-06-07 19:16:20.421854,2023-06-07 19:16:22.015986,SD038.jpg,0,10701,18-29,2023-06-07_19h12.21.612,Recall,2021.2.3,60.02916216540903,
,SD003.jpg,0,MF003.jpg,0,,,,,0,96,96,52,imgFunc,9,NA,3.206850800081156,269.2898383999709,272.5937703399686,2023-06-07 19:16:22.022970,2023-06-07 19:16:25.318415,SD003.jpg,0,10701,18-29,2023-06-07_19h12.21.612,Recall,2021.2.3,60.02916216540903,
,DD023.jpg,0,FF023.jpg,0,,,,,0,97,97,22,imgFunc,0,NA,1.9346830999711528,272.6098399000475,274.6484421400819,2023-06-07 19:16:25.332379,2023-06-07 19:16:27.369914,DD023.jpg,0,10701,18-29,2023-06-07_19h12.21.612,Recall,2021.2.3,60.02916216540903,
,DD038.jpg,0,FF038.jpg,0,,,,,0,98,98,37,imgFunc,0,NA,1.1293786999303848,274.6393006000435,275.85863154008985,2023-06-07 19:16:27.376897,2023-06-07 19:16:28.587493,DD038.jpg,0,10701,18-29,2023-06-07_19h12.21.612,Recall,2021.2.3,60.02916216540903,
,DD035.jpg,0,FF035.jpg,0,,,,,0,99,99,34,imgFunc,1,NA,1.452729000011459,275.8678138999967,277.42057864007074,2023-06-07 19:16:28.594476,2023-06-07 19:16:30.138509,DD035.jpg,0,10701,18-29,2023-06-07_19h12.21.612,Recall,2021.2.3,60.02916216540903,
,,,,,,,,,,,,,instrFunc,space,"Great work! 

 Now you will switch to the other image type.

 Press the spacebar whenever you are ready to start.",3.5975933000445366,277.34688880003523,280.97996304009575,2023-06-07 19:16:30.139509,2023-06-07 19:16:33.756769,,,10701,18-29,2023-06-07_19h12.21.612,Recall,2021.2.3,60.02916216540903,
,SD019.jpg,0,MF019.jpg,0,,,,,0,0,0,68,imgFunc,1,NA,4.9071369000012055,281.06120520003606,286.07842381997034,2023-06-07 19:16:33.792316,2023-06-07 19:16:38.794893,MF019.jpg,0,10701,18-29,2023-06-07_19h12.21.612,Recall,2021.2.3,60.02916216540903,
,SD007.jpg,0,MF007.jpg,0,,,,,0,1,1,56,imgFunc,0,NA,6.934990299982019,286.0737006999552,293.10982994001824,2023-06-07 19:16:38.803879,2023-06-07 19:16:45.833110,MF007.jpg,0,10701,18-29,2023-06-07_19h12.21.612,Recall,2021.2.3,60.02916216540903,
,SD001.jpg,0,MF001.jpg,0,,,,,0,2,2,50,imgFunc,0,NA,16.153948900057003,293.11863469996024,309.3777022399008,2023-06-07 19:16:45.842111,2023-06-07 19:17:02.095058,MF001.jpg,0,10701,18-29,2023-06-07_19h12.21.612,Recall,2021.2.3,60.02916216540903,
,SD031.jpg,0,MF031.jpg,0,,,,,0,3,3,80,imgFunc,0,NA,0.8119113000575453,309.40465120004956,310.33822918019723,2023-06-07 19:17:02.112015,2023-06-07 19:17:03.029063,MF031.jpg,0,10701,18-29,2023-06-07_19h12.21.612,Recall,2021.2.3,60.02916216540903,
,L_SD509.jpg,1,L_MF509.jpg,1,,,,,0,4,4,98,imgFunc,0,NA,2.41842220001854,310.3103018000256,312.83041173999663,2023-06-07 19:17:03.036046,2023-06-07 19:17:05.547444,L_MF509.jpg,1,10701,18-29,2023-06-07_19h12.21.612,Recall,2021.2.3,60.02916216540903,
,DD020.jpg,0,FF020.jpg,0,,,,,0,5,5,19,imgFunc,0,NA,2.6523599999491125,312.8201664000517,315.5739993400639,2023-06-07 19:17:05.554427,2023-06-07 19:17:08.299653,FF020.jpg,0,10701,18-29,2023-06-07_19h12.21.612,Recall,2021.2.3,60.02916216540903,
,DD002.jpg,0,FF002.jpg,0,,,,,0,6,6,1,imgFunc,2,NA,2.6569437000434846,315.57574720005505,318.32922934007365,2023-06-07 19:17:08.306636,2023-06-07 19:17:11.051672,FF002.jpg,0,10701,18-29,2023-06-07_19h12.21.612,Recall,2021.2.3,60.02916216540903,
,DD028.jpg,0,FF028.jpg,0,,,,,0,7,7,27,imgFunc,1,NA,1.1842032000422478,318.33626899996307,319.62183503992856,2023-06-07 19:17:11.058656,2023-06-07 19:17:12.335638,FF028.jpg,0,10701,18-29,2023-06-07_19h12.21.612,Recall,2021.2.3,60.02916216540903,
,L_DD509.jpg,1,L_FF509.jpg,1,,,,,0,8,8,48,imgFunc,2,NA,2.2408335000509396,319.6159183999989,321.95294553996064,2023-06-07 19:17:12.343166,2023-06-07 19:17:14.671171,L_FF509.jpg,1,10701,18-29,2023-06-07_19h12.21.612,Recall,2021.2.3,60.02916216540903,
,SD032.jpg,0,MF032.jpg,0,,,,,0,9,9,81,imgFunc,1,NA,1.3577165000606328,321.94694569997955,323.3993036401225,2023-06-07 19:17:14.678152,2023-06-07 19:17:16.121721,MF032.jpg,0,10701,18-29,2023-06-07_19h12.21.612,Recall,2021.2.3,60.02916216540903,
,DD025.jpg,0,FF025.jpg,0,,,,,0,10,10,24,imgFunc,1,NA,1.0491471999557689,323.3995904000476,324.551978840027,2023-06-07 19:17:16.128726,2023-06-07 19:17:17.272717,FF025.jpg,0,10701,18-29,2023-06-07_19h12.21.612,Recall,2021.2.3,60.02916216540903,
,SD016.jpg,0,MF016.jpg,0,,,,,0,11,11,65,imgFunc,2,NA,1.4841582999797538,324.55658410000615,326.142661340069,2023-06-07 19:17:17.279700,2023-06-07 19:17:18.857270,MF016.jpg,0,10701,18-29,2023-06-07_19h12.21.612,Recall,2021.2.3,60.02916216540903,
,SD012.jpg,0,MF012.jpg,0,,,,,0,12,12,61,imgFunc,1,NA,1.4252458999399096,326.15138840000145,327.6757838400081,2023-06-07 19:17:18.870202,2023-06-07 19:17:20.391832,MF012.jpg,0,10701,18-29,2023-06-07_19h12.21.612,Recall,2021.2.3,60.02916216540903,
,L_DD501.jpg,1,L_FF501.jpg,1,,,,,0,13,13,40,imgFunc,2,NA,1.2419646000489593,327.6706890000496,329.00657484005205,2023-06-07 19:17:20.398815,2023-06-07 19:17:21.725934,L_FF501.jpg,1,10701,18-29,2023-06-07_19h12.21.612,Recall,2021.2.3,60.02916216540903,
,L_SD507.jpg,1,L_MF507.jpg,1,,,,,0,14,14,96,imgFunc,2,NA,2.6242763999616727,329.00038360001054,331.72093914006837,2023-06-07 19:17:21.732917,2023-06-07 19:17:24.444475,L_MF507.jpg,1,10701,18-29,2023-06-07_19h12.21.612,Recall,2021.2.3,60.02916216540903,
,DD023.jpg,0,FF023.jpg,0,,,,,0,15,15,22,imgFunc,1,NA,1.051001299987547,331.71739899995737,332.8699012399884,2023-06-07 19:17:24.451460,2023-06-07 19:17:25.595420,FF023.jpg,0,10701,18-29,2023-06-07_19h12.21.612,Recall,2021.2.3,60.02916216540903,
,SD015.jpg,0,MF015.jpg,0,,,,,0,16,16,64,imgFunc,1,NA,1.1428963000653312,332.8735859999433,334.1096060399432,2023-06-07 19:17:25.602403,2023-06-07 19:17:26.829757,MF015.jpg,0,10701,18-29,2023-06-07_19h12.21.612,Recall,2021.2.3,60.02916216540903,
,DD019.jpg,0,FF019.jpg,0,,,,,0,17,17,18,imgFunc,1,NA,0.9982598000206053,334.12224029994104,335.22609783988446,2023-06-07 19:17:26.844719,2023-06-07 19:17:27.947255,FF019.jpg,0,10701,18-29,2023-06-07_19h12.21.612,Recall,2021.2.3,60.02916216540903,
,SD003.jpg,0,MF003.jpg,0,,,,,0,18,18,52,imgFunc,2,NA,15.487430299981497,335.2328959000297,350.8274543400621,2023-06-07 19:17:27.955258,2023-06-07 19:17:43.541737,MF003.jpg,0,10701,18-29,2023-06-07_19h12.21.612,Recall,2021.2.3,60.02916216540903,
,DD011.jpg,0,FF011.jpg,0,,,,,0,19,19,10,imgFunc,2,NA,3.1547252000309527,350.8457760999445,354.1282190399943,2023-06-07 19:17:43.551712,2023-06-07 19:17:46.827533,FF011.jpg,0,10701,18-29,2023-06-07_19h12.21.612,Recall,2021.2.3,60.02916216540903,
,L_DD508.jpg,1,L_FF508.jpg,1,,,,,0,20,20,47,imgFunc,1,NA,7.311231500003487,354.1134751000209,361.5368860400049,2023-06-07 19:17:46.834517,2023-06-07 19:17:54.249583,L_FF508.jpg,1,10701,18-29,2023-06-07_19h12.21.612,Recall,2021.2.3,60.02916216540903,
,SD027.jpg,0,MF027.jpg,0,,,,,0,21,21,76,imgFunc,1,NA,0.9531282000243664,361.55948699999135,362.6418094399851,2023-06-07 19:17:54.258561,2023-06-07 19:17:55.333664,MF027.jpg,0,10701,18-29,2023-06-07_19h12.21.612,Recall,2021.2.3,60.02916216540903,
,SD021.jpg,0,MF021.jpg,0,,,,,0,22,22,70,imgFunc,2,NA,0.945889399969019,362.60683649999555,363.64240354008507,2023-06-07 19:17:55.340647,2023-06-07 19:17:56.367982,MF021.jpg,0,10701,18-29,2023-06-07_19h12.21.612,Recall,2021.2.3,60.02916216540903,
,L_SD501.jpg,1,L_MF501.jpg,1,,,,,0,23,23,90,imgFunc,1,NA,1.034308800008148,363.63872449996416,364.7577280398691,2023-06-07 19:17:56.374965,2023-06-07 19:17:57.485723,L_MF501.jpg,1,10701,18-29,2023-06-07_19h12.21.612,Recall,2021.2.3,60.02916216540903,
,SD038.jpg,0,MF038.jpg,0,,,,,0,24,24,87,imgFunc,2,NA,1.8646432999521494,364.7598626000108,366.71249073999934,2023-06-07 19:17:57.492705,2023-06-07 19:17:59.436728,MF038.jpg,0,10701,18-29,2023-06-07_19h12.21.612,Recall,2021.2.3,60.02916216540903,
,SD020.jpg,0,MF020.jpg,0,,,,,0,25,25,69,imgFunc,0,NA,2.4111182000488043,366.7095618000021,369.2130263400031,2023-06-07 19:17:59.443711,2023-06-07 19:18:01.938436,MF020.jpg,0,10701,18-29,2023-06-07_19h12.21.612,Recall,2021.2.3,60.02916216540903,
,DD010.jpg,0,FF010.jpg,0,,,,,0,26,26,9,imgFunc,1,NA,1.0763658999931067,369.2281949999742,370.4021059400402,2023-06-07 19:18:01.951403,2023-06-07 19:18:03.122727,FF010.jpg,0,10701,18-29,2023-06-07_19h12.21.612,Recall,2021.2.3,60.02916216540903,
,DD014.jpg,0,FF014.jpg,0,,,,,0,27,27,13,imgFunc,9,NA,2.635698899975978,370.40506280004047,373.14170274010394,2023-06-07 19:18:03.129710,2023-06-07 19:18:05.857902,FF014.jpg,0,10701,18-29,2023-06-07_19h12.21.612,Recall,2021.2.3,60.02916216540903,
,SD033.jpg,0,MF033.jpg,0,,,,,0,28,28,82,imgFunc,1,NA,1.3523577000014484,373.12828589999117,374.58110774005763,2023-06-07 19:18:05.864886,2023-06-07 19:18:07.309061,MF033.jpg,0,10701,18-29,2023-06-07_19h12.21.612,Recall,2021.2.3,60.02916216540903,
,DD018.jpg,0,FF018.jpg,0,,,,,0,29,29,17,imgFunc,1,NA,1.335073700058274,374.5855993999867,376.02154623996466,2023-06-07 19:18:07.316045,2023-06-07 19:18:08.743524,FF018.jpg,0,10701,18-29,2023-06-07_19h12.21.612,Recall,2021.2.3,60.02916216540903,
,SD037.jpg,0,MF037.jpg,0,,,,,0,30,30,86,imgFunc,1,NA,1.2982470999704674,376.0223257000325,377.4247020400362,2023-06-07 19:18:08.750507,2023-06-07 19:18:10.144458,MF037.jpg,0,10701,18-29,2023-06-07_19h12.21.612,Recall,2021.2.3,60.02916216540903,
,L_DD504.jpg,1,L_FF504.jpg,1,,,,,0,31,31,43,imgFunc,1,NA,0.8285636999644339,377.4281898000045,378.3460104400292,2023-06-07 19:18:10.160417,2023-06-07 19:18:11.078469,L_FF504.jpg,1,10701,18-29,2023-06-07_19h12.21.612,Recall,2021.2.3,60.02916216540903,
,DD013.jpg,0,FF013.jpg,0,,,,,0,32,32,12,imgFunc,1,NA,1.7096941000781953,378.35501349996775,380.1580199400196,2023-06-07 19:18:11.085453,2023-06-07 19:18:12.879783,FF013.jpg,0,10701,18-29,2023-06-07_19h12.21.612,Recall,2021.2.3,60.02916216540903,
,DD006.jpg,0,FF006.jpg,0,,,,,0,33,33,5,imgFunc,2,NA,1.6686412000562996,380.1560323999729,381.9255525399931,2023-06-07 19:18:12.886766,2023-06-07 19:18:14.647685,FF006.jpg,0,10701,18-29,2023-06-07_19h12.21.612,Recall,2021.2.3,60.02916216540903,
,L_SD505.jpg,1,L_MF505.jpg,1,,,,,0,34,34,94,imgFunc,2,NA,1.5481319000246003,381.9245913999621,383.5775555400178,2023-06-07 19:18:14.654668,2023-06-07 19:18:16.298979,L_MF505.jpg,1,10701,18-29,2023-06-07_19h12.21.612,Recall,2021.2.3,60.02916216540903,
,SD024.jpg,0,MF024.jpg,0,,,,,0,35,35,73,imgFunc,2,NA,1.1472232000669464,383.5894786999561,384.84231313993223,2023-06-07 19:18:16.305962,2023-06-07 19:18:17.550190,MF024.jpg,0,10701,18-29,2023-06-07_19h12.21.612,Recall,2021.2.3,60.02916216540903,
,DD035.jpg,0,FF035.jpg,0,,,,,0,36,36,34,imgFunc,1,NA,1.198354099993594,384.8343873999547,386.1368216399569,2023-06-07 19:18:17.557171,2023-06-07 19:18:18.850690,FF035.jpg,0,10701,18-29,2023-06-07_19h12.21.612,Recall,2021.2.3,60.02916216540903,
,DD040.jpg,0,FF040.jpg,0,,,,,0,37,37,39,imgFunc,1,NA,0.869001799961552,386.1233542000409,387.0915895400103,2023-06-07 19:18:18.858671,2023-06-07 19:18:19.817487,FF040.jpg,0,10701,18-29,2023-06-07_19h12.21.612,Recall,2021.2.3,60.02916216540903,
,SD017.jpg,0,MF017.jpg,0,,,,,0,38,38,66,imgFunc,1,NA,0.8408309000078589,387.0960586000001,388.0306332401233,2023-06-07 19:18:19.825465,2023-06-07 19:18:20.752295,MF017.jpg,0,10701,18-29,2023-06-07_19h12.21.612,Recall,2021.2.3,60.02916216540903,
,SD002.jpg,0,MF002.jpg,0,,,,,0,39,39,51,imgFunc,2,NA,0.9030124000273645,388.03364489995874,389.0353217399679,2023-06-07 19:18:20.760306,2023-06-07 19:18:21.753068,MF002.jpg,0,10701,18-29,2023-06-07_19h12.21.612,Recall,2021.2.3,60.02916216540903,
,SD030.jpg,0,MF030.jpg,0,,,,,0,40,40,79,imgFunc,1,NA,0.749304800061509,389.0513620999409,389.9065171398688,2023-06-07 19:18:21.767032,2023-06-07 19:18:22.620182,MF030.jpg,0,10701,18-29,2023-06-07_19h12.21.612,Recall,2021.2.3,60.02916216540903,
,SD010.jpg,0,MF010.jpg,0,,,,,0,41,41,59,imgFunc,2,NA,0.7391820000484586,389.9013820999535,390.7368041400332,2023-06-07 19:18:22.627186,2023-06-07 19:18:23.454134,MF010.jpg,0,10701,18-29,2023-06-07_19h12.21.612,Recall,2021.2.3,60.02916216540903,
,L_SD508.jpg,1,L_MF508.jpg,1,,,,,0,42,42,97,imgFunc,2,NA,2.286194400046952,390.7304560999619,393.11697853996884,2023-06-07 19:18:23.461139,2023-06-07 19:18:25.839216,L_MF508.jpg,1,10701,18-29,2023-06-07_19h12.21.612,Recall,2021.2.3,60.02916216540903,
,DD012.jpg,0,FF012.jpg,0,,,,,0,43,43,11,imgFunc,0,NA,1.1624793999362737,393.1182028000476,394.38758584007155,2023-06-07 19:18:25.846220,2023-06-07 19:18:27.106774,FF012.jpg,0,10701,18-29,2023-06-07_19h12.21.612,Recall,2021.2.3,60.02916216540903,
,L_SD506.jpg,1,L_MF506.jpg,1,,,,,0,44,44,95,imgFunc,0,NA,1.4636338000418618,394.3850545999594,395.95441174006555,2023-06-07 19:18:27.113757,2023-06-07 19:18:28.674370,L_MF506.jpg,1,10701,18-29,2023-06-07_19h12.21.612,Recall,2021.2.3,60.02916216540903,
,L_SD502.jpg,1,L_MF502.jpg,1,,,,,0,45,45,91,imgFunc,9,NA,4.16210359998513,395.9585854000179,400.2151324400911,2023-06-07 19:18:28.689353,2023-06-07 19:18:32.944203,L_MF502.jpg,1,10701,18-29,2023-06-07_19h12.21.612,Recall,2021.2.3,60.02916216540903,
,SD036.jpg,0,MF036.jpg,0,,,,,0,46,46,85,imgFunc,9,NA,1.489927800022997,400.22258289996535,401.8079344400903,2023-06-07 19:18:32.952206,2023-06-07 19:18:34.529068,MF036.jpg,0,10701,18-29,2023-06-07_19h12.21.612,Recall,2021.2.3,60.02916216540903,
,SD026.jpg,0,MF026.jpg,0,,,,,0,47,47,75,imgFunc,0,NA,1.307204799959436,401.8213797999779,403.23986283992417,2023-06-07 19:18:34.536051,2023-06-07 19:18:35.946306,MF026.jpg,0,10701,18-29,2023-06-07_19h12.21.612,Recall,2021.2.3,60.02916216540903,
,SD039.jpg,0,MF039.jpg,0,,,,,0,48,48,88,imgFunc,9,NA,1.8676969999214634,403.2447129000211,405.23047434014734,2023-06-07 19:18:35.953289,2023-06-07 19:18:37.930232,MF039.jpg,0,10701,18-29,2023-06-07_19h12.21.612,Recall,2021.2.3,60.02916216540903,
,SD028.jpg,0,MF028.jpg,0,,,,,0,49,49,77,imgFunc,2,NA,1.829635199974291,405.22704929998145,407.17995284008794,2023-06-07 19:18:37.938210,2023-06-07 19:18:39.882743,MF028.jpg,0,10701,18-29,2023-06-07_19h12.21.612,Recall,2021.2.3,60.02916216540903,
,DD032.jpg,0,FF032.jpg,0,,,,,0,50,50,31,imgFunc,9,NA,2.1865986000047997,407.1580928999465,409.44458753988147,2023-06-07 19:18:39.889726,2023-06-07 19:18:42.167706,FF032.jpg,0,10701,18-29,2023-06-07_19h12.21.612,Recall,2021.2.3,60.02916216540903,
,L_DD503.jpg,1,L_FF503.jpg,1,,,,,0,51,51,42,imgFunc,0,NA,2.57111540006008,409.4455677999649,412.1150857399916,2023-06-07 19:18:42.175709,2023-06-07 19:18:44.836372,L_FF503.jpg,1,10701,18-29,2023-06-07_19h12.21.612,Recall,2021.2.3,60.02916216540903,
,SD025.jpg,0,MF025.jpg,0,,,,,0,52,52,74,imgFunc,0,NA,0.972632999997586,412.1240373000037,413.20955344010144,2023-06-07 19:18:44.843355,2023-06-07 19:18:45.920649,MF025.jpg,0,10701,18-29,2023-06-07_19h12.21.612,Recall,2021.2.3,60.02916216540903,
,L_DD502.jpg,1,L_FF502.jpg,1,,,,,0,53,53,41,imgFunc,0,NA,2.30230570002459,413.202379400027,415.60577134008054,2023-06-07 19:18:45.927633,2023-06-07 19:18:48.322259,L_FF502.jpg,1,10701,18-29,2023-06-07_19h12.21.612,Recall,2021.2.3,60.02916216540903,
,DD036.jpg,0,FF036.jpg,0,,,,,0,54,54,35,imgFunc,9,NA,1.3246137000387534,415.6037448999705,417.02761573996395,2023-06-07 19:18:48.335226,2023-06-07 19:18:49.756414,FF036.jpg,0,10701,18-29,2023-06-07_19h12.21.612,Recall,2021.2.3,60.02916216540903,
,SD023.jpg,0,MF023.jpg,0,,,,,0,55,55,72,imgFunc,9,NA,0.9251407999545336,417.03557549999095,418.05294944008347,2023-06-07 19:18:49.764421,2023-06-07 19:18:50.774271,MF023.jpg,0,10701,18-29,2023-06-07_19h12.21.612,Recall,2021.2.3,60.02916216540903,
,DD022.jpg,0,FF022.jpg,0,,,,,0,56,56,21,imgFunc,9,NA,1.0817666999064386,418.05469330004416,419.2401236400474,2023-06-07 19:18:50.781254,2023-06-07 19:18:51.957799,FF022.jpg,0,10701,18-29,2023-06-07_19h12.21.612,Recall,2021.2.3,60.02916216540903,
,SD008.jpg,0,MF008.jpg,0,,,,,0,57,57,57,imgFunc,9,NA,4.082344499998726,419.2303064999869,423.40198214002885,2023-06-07 19:18:51.964780,2023-06-07 19:18:56.128069,MF008.jpg,0,10701,18-29,2023-06-07_19h12.21.612,Recall,2021.2.3,60.02916216540903,
,SD034.jpg,0,MF034.jpg,0,,,,,0,58,58,83,imgFunc,0,NA,0.8988485999871045,423.40595329995267,424.4069353400264,2023-06-07 19:18:56.136071,2023-06-07 19:18:57.128434,MF034.jpg,0,10701,18-29,2023-06-07_19h12.21.612,Recall,2021.2.3,60.02916216540903,
,DD037.jpg,0,FF037.jpg,0,,,,,0,59,59,36,imgFunc,0,NA,1.1960687000537291,424.4206004999578,425.70847493992187,2023-06-07 19:18:57.143397,2023-06-07 19:18:58.429707,FF037.jpg,0,10701,18-29,2023-06-07_19h12.21.612,Recall,2021.2.3,60.02916216540903,
,SD022.jpg,0,MF022.jpg,0,,,,,0,60,60,71,imgFunc,1,NA,1.1623122999444604,425.71040570002515,426.97938063996844,2023-06-07 19:18:58.436690,2023-06-07 19:18:59.696914,MF022.jpg,0,10701,18-29,2023-06-07_19h12.21.612,Recall,2021.2.3,60.02916216540903,
,SD040.jpg,0,MF040.jpg,0,,,,,0,61,61,89,imgFunc,2,NA,2.4896005000919104,426.97487309994176,429.5607242399128,2023-06-07 19:18:59.704895,2023-06-07 19:19:02.282409,MF040.jpg,0,10701,18-29,2023-06-07_19h12.21.612,Recall,2021.2.3,60.02916216540903,
,DD007.jpg,0,FF007.jpg,0,,,,,0,62,62,6,imgFunc,2,NA,1.3948724999791011,429.5576851000078,431.04395353992004,2023-06-07 19:19:02.289392,2023-06-07 19:19:03.766900,FF007.jpg,0,10701,18-29,2023-06-07_19h12.21.612,Recall,2021.2.3,60.02916216540903,
,SD009.jpg,0,MF009.jpg,0,,,,,0,63,63,58,imgFunc,2,NA,1.371440100017935,431.0532570000505,432.53863264003303,2023-06-07 19:19:03.773883,2023-06-07 19:19:05.251148,MF009.jpg,0,10701,18-29,2023-06-07_19h12.21.612,Recall,2021.2.3,60.02916216540903,
,SD018.jpg,0,MF018.jpg,0,,,,,0,64,64,67,imgFunc,1,NA,1.8577091000042856,432.53502680000383,434.50484634016175,2023-06-07 19:19:05.258132,2023-06-07 19:19:07.219332,MF018.jpg,0,10701,18-29,2023-06-07_19h12.21.612,Recall,2021.2.3,60.02916216540903,
,L_SD510.jpg,1,L_MF510.jpg,1,,,,,0,65,65,99,imgFunc,1,NA,3.981225399998948,434.4915295999963,438.56302094005514,2023-06-07 19:19:07.226315,2023-06-07 19:19:11.288920,L_MF510.jpg,1,10701,18-29,2023-06-07_19h12.21.612,Recall,2021.2.3,60.02916216540903,
,DD004.jpg,0,FF004.jpg,0,,,,,0,66,66,3,imgFunc,1,NA,1.2435516000259668,438.5731272000121,439.9255664398661,2023-06-07 19:19:11.295903,2023-06-07 19:19:12.639637,FF004.jpg,0,10701,18-29,2023-06-07_19h12.21.612,Recall,2021.2.3,60.02916216540903,
,L_DD506.jpg,1,L_FF506.jpg,1,,,,,0,67,67,45,imgFunc,1,NA,1.427552100038156,439.924942899961,441.4609778400045,2023-06-07 19:19:12.646620,2023-06-07 19:19:14.173671,L_FF506.jpg,1,10701,18-29,2023-06-07_19h12.21.612,Recall,2021.2.3,60.02916216540903,
,DD008.jpg,0,FF008.jpg,0,,,,,0,68,68,7,imgFunc,1,NA,1.4988659000955522,441.46981399995275,443.07213653996587,2023-06-07 19:19:14.189606,2023-06-07 19:19:15.791955,FF008.jpg,0,10701,18-29,2023-06-07_19h12.21.612,Recall,2021.2.3,60.02916216540903,
,SD014.jpg,0,MF014.jpg,0,,,,,0,69,69,63,imgFunc,1,NA,1.4013099999865517,443.06306539999787,444.5660611400381,2023-06-07 19:19:15.798938,2023-06-07 19:19:17.293201,MF014.jpg,0,10701,18-29,2023-06-07_19h12.21.612,Recall,2021.2.3,60.02916216540903,
,DD024.jpg,0,FF024.jpg,0,,,,,0,70,70,23,imgFunc,1,NA,1.2410628000507131,444.5676346999826,445.9036109398585,2023-06-07 19:19:17.300184,2023-06-07 19:19:18.627522,FF024.jpg,0,10701,18-29,2023-06-07_19h12.21.612,Recall,2021.2.3,60.02916216540903,
,SD004.jpg,0,MF004.jpg,0,,,,,0,71,71,53,imgFunc,2,NA,1.0162729000439867,445.90444399998523,447.0234481401276,2023-06-07 19:19:18.634505,2023-06-07 19:19:19.745181,MF004.jpg,0,10701,18-29,2023-06-07_19h12.21.612,Recall,2021.2.3,60.02916216540903,
,SD006.jpg,0,MF006.jpg,0,,,,,0,72,72,55,imgFunc,1,NA,0.8645661999471486,447.02418529998977,447.9924125400139,2023-06-07 19:19:19.752161,2023-06-07 19:19:20.712298,MF006.jpg,0,10701,18-29,2023-06-07_19h12.21.612,Recall,2021.2.3,60.02916216540903,
,SD013.jpg,0,MF013.jpg,0,,,,,0,73,73,62,imgFunc,2,NA,0.8434046000475064,448.0051327999681,448.940635540057,2023-06-07 19:19:20.728258,2023-06-07 19:19:21.663170,MF013.jpg,0,10701,18-29,2023-06-07_19h12.21.612,Recall,2021.2.3,60.02916216540903,
,DD030.jpg,0,FF030.jpg,0,,,,,0,74,74,29,imgFunc,0,NA,2.201841100002639,448.93481350003276,451.23782734014094,2023-06-07 19:19:21.670161,2023-06-07 19:19:23.964695,FF030.jpg,0,10701,18-29,2023-06-07_19h12.21.612,Recall,2021.2.3,60.02916216540903,
,DD033.jpg,0,FF033.jpg,0,,,,,0,75,75,32,imgFunc,9,NA,2.472875100094825,451.23981099994853,453.8100112399552,2023-06-07 19:19:23.971678,2023-06-07 19:19:26.533156,FF033.jpg,0,10701,18-29,2023-06-07_19h12.21.612,Recall,2021.2.3,60.02916216540903,
,DD038.jpg,0,FF038.jpg,0,,,,,0,76,76,37,imgFunc,0,NA,5.977000800077803,453.81563019996975,459.90414533996955,2023-06-07 19:19:26.541159,2023-06-07 19:19:32.620850,FF038.jpg,0,10701,18-29,2023-06-07_19h12.21.612,Recall,2021.2.3,60.02916216540903,
,DD029.jpg,0,FF029.jpg,0,,,,,0,77,77,28,imgFunc,1,NA,1.0766247001010925,459.93201919994317,461.1302345399745,2023-06-07 19:19:32.629828,2023-06-07 19:19:33.821405,FF029.jpg,0,10701,18-29,2023-06-07_19h12.21.612,Recall,2021.2.3,60.02916216540903,
,SD011.jpg,0,MF011.jpg,0,,,,,0,78,78,60,imgFunc,2,NA,2.142867699963972,461.10586989996955,463.3562260400504,2023-06-07 19:19:33.830384,2023-06-07 19:19:36.073467,MF011.jpg,0,10701,18-29,2023-06-07_19h12.21.612,Recall,2021.2.3,60.02916216540903,
,DD026.jpg,0,FF026.jpg,0,,,,,0,79,79,25,imgFunc,1,NA,1.2593636999372393,463.357313000015,464.726701340056,2023-06-07 19:19:36.080451,2023-06-07 19:19:37.441186,FF026.jpg,0,10701,18-29,2023-06-07_19h12.21.612,Recall,2021.2.3,60.02916216540903,
,DD015.jpg,0,FF015.jpg,0,,,,,0,80,80,14,imgFunc,0,NA,2.0403420000802726,464.7203351999633,466.8570255400846,2023-06-07 19:19:37.448169,2023-06-07 19:19:39.576244,FF015.jpg,0,10701,18-29,2023-06-07_19h12.21.612,Recall,2021.2.3,60.02916216540903,
,L_DD505.jpg,1,L_FF505.jpg,1,,,,,0,81,81,44,imgFunc,0,NA,12.270829599932767,466.85791130003054,479.2349560400471,2023-06-07 19:19:39.583227,2023-06-07 19:19:51.951660,L_FF505.jpg,1,10701,18-29,2023-06-07_19h12.21.612,Recall,2021.2.3,60.02916216540903,
,DD039.jpg,0,FF039.jpg,0,,,,,0,82,82,38,imgFunc,1,NA,0.8885494999121875,479.27215820003767,480.29966928006615,2023-06-07 19:19:51.971609,2023-06-07 19:19:52.985760,FF039.jpg,0,10701,18-29,2023-06-07_19h12.21.612,Recall,2021.2.3,60.02916216540903,
,L_SD503.jpg,1,L_MF503.jpg,1,,,,,0,83,83,92,imgFunc,2,NA,1.2605585999554023,480.26816500001587,481.6354708401486,2023-06-07 19:19:52.993740,2023-06-07 19:19:54.353332,L_MF503.jpg,1,10701,18-29,2023-06-07_19h12.21.612,Recall,2021.2.3,60.02916216540903,
,DD003.jpg,0,FF003.jpg,0,,,,,0,84,84,2,imgFunc,0,NA,2.756851500016637,481.627847100026,484.48140494001564,2023-06-07 19:19:54.360547,2023-06-07 19:19:57.205483,FF003.jpg,0,10701,18-29,2023-06-07_19h12.21.612,Recall,2021.2.3,60.02916216540903,
,L_DD510.jpg,1,L_FF510.jpg,1,,,,,0,85,85,49,imgFunc,0,NA,1.5098840999417007,484.48281860002317,486.0856352400733,2023-06-07 19:19:57.212466,2023-06-07 19:19:58.806820,L_FF510.jpg,1,10701,18-29,2023-06-07_19h12.21.612,Recall,2021.2.3,60.02916216540903,
,SD005.jpg,0,MF005.jpg,0,,,,,0,86,86,54,imgFunc,1,NA,2.213493200019002,486.0909087000182,488.4101093400968,2023-06-07 19:19:58.813803,2023-06-07 19:20:01.124217,MF005.jpg,0,10701,18-29,2023-06-07_19h12.21.612,Recall,2021.2.3,60.02916216540903,
,DD027.jpg,0,FF027.jpg,0,,,,,0,87,87,26,imgFunc,2,NA,1.1478874000022188,488.4208704000339,489.68884228006937,2023-06-07 19:20:01.141173,2023-06-07 19:20:02.392861,FF027.jpg,0,10701,18-29,2023-06-07_19h12.21.612,Recall,2021.2.3,60.02916216540903,
,DD017.jpg,0,FF017.jpg,0,,,,,0,88,88,16,imgFunc,9,NA,1.5955059999832883,489.668983999989,491.37187164009083,2023-06-07 19:20:02.399845,2023-06-07 19:20:04.093843,FF017.jpg,0,10701,18-29,2023-06-07_19h12.21.612,Recall,2021.2.3,60.02916216540903,
,DD016.jpg,0,FF016.jpg,0,,,,,0,89,89,15,imgFunc,2,NA,1.1498623000225052,491.37885149999056,492.63064814009704,2023-06-07 19:20:04.101833,2023-06-07 19:20:05.344921,FF016.jpg,0,10701,18-29,2023-06-07_19h12.21.612,Recall,2021.2.3,60.02916216540903,
,SD035.jpg,0,MF035.jpg,0,,,,,0,90,90,84,imgFunc,0,NA,0.8557991000125185,492.63298939995,493.60173803998623,2023-06-07 19:20:05.351904,2023-06-07 19:20:06.312022,MF035.jpg,0,10701,18-29,2023-06-07_19h12.21.612,Recall,2021.2.3,60.02916216540903,
,DD001.jpg,0,FF001.jpg,0,,,,,0,91,91,0,imgFunc,1,NA,1.1638513000216335,493.5966807999648,494.865946339909,2023-06-07 19:20:06.319005,2023-06-07 19:20:07.579503,FF001.jpg,0,10701,18-29,2023-06-07_19h12.21.612,Recall,2021.2.3,60.02916216540903,
,DD034.jpg,0,FF034.jpg,0,,,,,0,92,92,33,imgFunc,0,NA,1.6953222000738606,494.8573834999697,496.66067533998284,2023-06-07 19:20:07.586486,2023-06-07 19:20:09.380979,FF034.jpg,0,10701,18-29,2023-06-07_19h12.21.612,Recall,2021.2.3,60.02916216540903,
,SD029.jpg,0,MF029.jpg,0,,,,,0,93,93,78,imgFunc,2,NA,1.6576220999704674,496.6630497999722,498.432546140044,2023-06-07 19:20:09.387962,2023-06-07 19:20:11.149018,MF029.jpg,0,10701,18-29,2023-06-07_19h12.21.612,Recall,2021.2.3,60.02916216540903,
,DD031.jpg,0,FF031.jpg,0,,,,,0,94,94,30,imgFunc,0,NA,2.308205400011502,498.4284066000255,500.8319328400539,2023-06-07 19:20:11.156001,2023-06-07 19:20:13.550835,FF031.jpg,0,10701,18-29,2023-06-07_19h12.21.612,Recall,2021.2.3,60.02916216540903,
,L_DD507.jpg,1,L_FF507.jpg,1,,,,,0,95,95,46,imgFunc,0,NA,2.8322207001037896,500.8404866999481,503.79392173991073,2023-06-07 19:20:13.557819,2023-06-07 19:20:16.502903,L_FF507.jpg,1,10701,18-29,2023-06-07_19h12.21.612,Recall,2021.2.3,60.02916216540903,
,L_SD504.jpg,1,L_MF504.jpg,1,,,,,0,96,96,93,imgFunc,9,NA,5.323164200061001,503.7975461999886,509.2345269799698,2023-06-07 19:20:16.518862,2023-06-07 19:20:21.939963,L_MF504.jpg,1,10701,18-29,2023-06-07_19h12.21.612,Recall,2021.2.3,60.02916216540903,
,DD005.jpg,0,FF005.jpg,0,,,,,0,97,97,4,imgFunc,1,NA,2.2755119999637827,509.22120929998346,511.60457054001745,2023-06-07 19:20:21.948941,2023-06-07 19:20:24.325231,FF005.jpg,0,10701,18-29,2023-06-07_19h12.21.612,Recall,2021.2.3,60.02916216540903,
,DD009.jpg,0,FF009.jpg,0,,,,,0,98,98,8,imgFunc,9,NA,2.605764999985695,511.60276439995505,514.3064868400106,2023-06-07 19:20:24.332214,2023-06-07 19:20:27.027333,FF009.jpg,0,10701,18-29,2023-06-07_19h12.21.612,Recall,2021.2.3,60.02916216540903,
,DD021.jpg,0,FF021.jpg,0,,,,,0,99,99,20,imgFunc,9,NA,1.4229669000487775,514.321603700053,515.8574525400763,2023-06-07 19:20:27.034316,2023-06-07 19:20:28.561845,FF021.jpg,0,10701,18-29,2023-06-07_19h12.21.612,Recall,2021.2.3,60.02916216540903,
