onset	duration	trial_type	rt	resp	gender	image_left	image_right
0.631868399912491	3.00126849999651	decision	2.032582900021225	right	M	MF001.jpg	MF002.jpg
4.18170169997029	1.01672290009446	win	n/a	n/a	n/a	MF001.jpg	MF002.jpg
11.1484586000443	3.2997580000665	decision	3.2992380999494344	left	M	MF003.jpg	MF004.jpg
14.9983715000562	1.0167990999762	loss	n/a	n/a	n/a	MF003.jpg	MF004.jpg
17.7653286000714	3.00124590005726	decision	2.533070500008762	left	M	MF005.jpg	MF006.jpg
21.3151461000089	1.01666310010478	win	n/a	n/a	n/a	MF005.jpg	MF006.jpg
24.081842900021	3.00158459995873	decision	2.2827101999428123	right	F	FF001.jpg	FF002.jpg
27.6318022999913	1.0167237999849	win	n/a	n/a	n/a	FF001.jpg	FF002.jpg
32.49841869995	3.00163600011729	decision	2.5330817999783903	left	F	FF003.jpg	FF004.jpg
36.0483671999536	1.00008430005983	loss	n/a	n/a	n/a	FF003.jpg	FF004.jpg
42.9982783000451	3.00082099996507	decision	2.535252599976957	right	M	MF007.jpg	MF008.jpg
46.5487111001275	1.01621019979939	loss	n/a	n/a	n/a	MF007.jpg	MF008.jpg
51.4151469001081	3.0008878998924	decision	2.5323949998710304	left	M	MF009.jpg	MF010.jpg
54.9650640001055	1.00003060000017	win	n/a	n/a	n/a	MF009.jpg	MF010.jpg
59.8151259000879	3.00108619988896	decision	2.532445800025016	left	F	FF005.jpg	FF006.jpg
63.3647976000793	1.00009989994578	loss	n/a	n/a	n/a	FF005.jpg	FF006.jpg
66.1151209000964	3.03484570002183	decision-missed	n/a	n/a	F	FF007.jpg	FF008.jpg
69.6985265000258	1.01666840002872	win	n/a	n/a	n/a	FF007.jpg	FF008.jpg
72.4651033999398	3.00154010020196	decision	1.782467900076881	right	F	FF009.jpg	FF010.jpg
76.0150657000486	1.01662259991281	win	n/a	n/a	n/a	FF009.jpg	FF010.jpg
78.7816681999248	3.00178040005267	decision	2.032793699996546	left	F	FF011.jpg	FF012.jpg
82.3316407999955	1.0000634000171	loss	n/a	n/a	n/a	FF011.jpg	FF012.jpg
87.18161040009	3.00078999996185	decision	1.7839001000393182	right	M	MF011.jpg	MF012.jpg
90.7319732001051	1.01628650003113	loss	n/a	n/a	n/a	MF011.jpg	MF012.jpg
93.498283199966	3.00101280002855	decision	2.2833215000573546	left	M	MF013.jpg	MF014.jpg
97.0482652001083	1.01673189993016	win	n/a	n/a	n/a	MF013.jpg	MF014.jpg
104.015057699988	3.00149070005864	decision	2.032502799993381	left	M	MF015.jpg	MF016.jpg
107.564984899946	1.01665750006214	win	n/a	n/a	n/a	MF015.jpg	MF016.jpg
110.331670700107	3.00089739984833	decision	2.2832549000158906	left	F	FF013.jpg	FF014.jpg
113.881639600033	1.01655209995806	win	n/a	n/a	n/a	FF013.jpg	FF014.jpg
120.848313499941	3.00120460009202	decision	2.533436000114307	left	M	MF017.jpg	MF018.jpg
124.398248899961	1.01669190009125	win	n/a	n/a	n/a	MF017.jpg	MF018.jpg
129.265058099991	3.00125339999795	decision	1.7825518001336604	left	F	FF015.jpg	FF016.jpg
132.814808400115	1.00010719988495	win	n/a	n/a	n/a	FF015.jpg	FF016.jpg
137.664970000042	3.00170459994115	decision	2.282704799901694	left	M	MF019.jpg	MF020.jpg
141.214940099977	1.01656020013615	win	n/a	n/a	n/a	MF019.jpg	MF020.jpg
146.081412500003	3.00078590004705	decision	2.2830976999830455	right	F	FF017.jpg	FF018.jpg
149.631518800044	1.00000649993308	win	n/a	n/a	n/a	FF017.jpg	FF018.jpg
162.881454500137	3.00017459993251	decision	2.033177299890667	left	M	MF021.jpg	MF022.jpg
166.431796899997	1.01640600012615	loss	n/a	n/a	n/a	MF021.jpg	MF022.jpg
173.398250899976	3.00116159999743	decision	2.0333102999720722	left	M	MF023.jpg	MF024.jpg
176.948151800083	1.01658099982888	win	n/a	n/a	n/a	MF023.jpg	MF024.jpg
183.914888300002	3.00166940013878	decision	2.533471900038421	left	M	MF025.jpg	MF026.jpg
187.464808899909	1.01657220022753	loss	n/a	n/a	n/a	MF025.jpg	MF026.jpg
192.331669199979	3.001963699935	decision	2.2829092999454588	right	M	MF027.jpg	MF028.jpg
195.88132559997	1.00003680004738	loss	n/a	n/a	n/a	MF027.jpg	MF028.jpg
198.63153959997	3.00119139999151	decision	2.28301959997043	left	F	FF019.jpg	FF020.jpg
202.181249600137	1.000093099894	loss	n/a	n/a	n/a	FF019.jpg	FF020.jpg
204.931387800025	3.00134310009889	decision	2.0326737000141293	right	F	FF021.jpg	FF022.jpg
208.481331699993	1.00000980007462	win	n/a	n/a	n/a	FF021.jpg	FF022.jpg
215.431396699976	3.00166209996678	decision	2.282958500087261	right	M	MF029.jpg	MF030.jpg
218.981312300079	1.00000420003198	loss	n/a	n/a	n/a	MF029.jpg	MF030.jpg
225.931773199933	3.00178960012272	decision	2.0337161000352353	left	M	MF031.jpg	MF032.jpg
229.481287400005	1.01664680009708	win	n/a	n/a	n/a	MF031.jpg	MF032.jpg
234.348011099966	3.00141660007648	decision	1.7835293000098318	right	F	FF023.jpg	FF024.jpg
237.897942099953	1.00003380002454	loss	n/a	n/a	n/a	FF023.jpg	FF024.jpg
240.648281099973	3.00075360015035	decision	2.533208000008017	left	F	FF025.jpg	FF026.jpg
244.198203100124	1.01620909990743	win	n/a	n/a	n/a	FF025.jpg	FF026.jpg
249.064593000105	3.00162559980527	decision	2.0325678000226617	left	F	FF027.jpg	FF028.jpg
252.614659199957	1.00021430011839	loss	n/a	n/a	n/a	FF027.jpg	FF028.jpg
255.364624999929	3.00100360019132	decision	1.5331934001296759	right	M	MF033.jpg	MF034.jpg
258.914610200096	1.01661159982905	loss	n/a	n/a	n/a	MF033.jpg	MF034.jpg
261.681089200079	3.0014772999566	decision	1.5336873000487685	left	M	MF035.jpg	MF036.jpg
265.231271800119	1.01670679985546	loss	n/a	n/a	n/a	MF035.jpg	MF036.jpg
267.997890600003	3.00068780011497	decision	1.7830332000739872	right	M	MF037.jpg	MF038.jpg
271.548260699958	1.01633470016532	win	n/a	n/a	n/a	MF037.jpg	MF038.jpg
278.514711499913	3.00086400005966	decision	1.5331800000276417	left	F	FF029.jpg	FF030.jpg
282.064576999983	1.01666660001501	loss	n/a	n/a	n/a	FF029.jpg	FF030.jpg
284.831312699942	3.00163220008835	decision	1.282760800095275	right	F	FF031.jpg	FF032.jpg
288.381265300093	1.01658009993844	loss	n/a	n/a	n/a	FF031.jpg	FF032.jpg
293.248232200043	3.00087859993801	decision	1.5332551999017596	left	F	FF033.jpg	FF034.jpg
296.79789009993	1.01662480016239	win	n/a	n/a	n/a	FF033.jpg	FF034.jpg
303.764534099959	3.00103690009564	decision	1.5325533000286669	right	M	MF039.jpg	MF040.jpg
307.31450149999	1.01660159998573	loss	n/a	n/a	n/a	MF039.jpg	MF040.jpg
314.281261899974	3.00231890007854	decision	1.5328574001323432	left	F	FF035.jpg	FF036.jpg
317.831141399918	1.0000329001341	win	n/a	n/a	n/a	FF035.jpg	FF036.jpg
320.581215600017	3.00135849998333	decision	2.283306200057268	right	F	FF037.jpg	FF038.jpg
324.131179000018	1.01655260007828	loss	n/a	n/a	n/a	FF037.jpg	FF038.jpg
326.897943200078	3.00155719998293	decision	1.5328085999935865	left	F	FF039.jpg	FF040.jpg
330.447819800116	1.01655389997177	loss	n/a	n/a	n/a	FF039.jpg	FF040.jpg
