onset	duration	trial_type	response_time	Endowment	Endowment_pmod	Decision	Decision_pmod	Offer_pmod
4.620119	2	cue_social	n/a	32	8	n/a	n/a	n/a
4.620119	2	cue_social_high	n/a	32	7	n/a	n/a	n/a
13.798145	2	cue_social	n/a	32	8	n/a	n/a	n/a
13.798145	2	cue_social_high	n/a	32	7	n/a	n/a	n/a
20.588331	2	cue_nonsocial	n/a	16	-9	n/a	n/a	n/a
20.588331	2	cue_nonsocial_low	n/a	16	-8	n/a	n/a	n/a
27.490517	2	cue_social	n/a	16	-8	n/a	n/a	n/a
27.490517	2	cue_social_low	n/a	16	-9	n/a	n/a	n/a
34.327507	2	cue_social	n/a	32	8	n/a	n/a	n/a
34.327507	2	cue_social_high	n/a	32	7	n/a	n/a	n/a
41.904633	2	cue_nonsocial	n/a	32	7	n/a	n/a	n/a
41.904633	2	cue_nonsocial_high	n/a	32	8	n/a	n/a	n/a
52.853992	2	cue_social	n/a	32	8	n/a	n/a	n/a
52.853992	2	cue_social_high	n/a	32	7	n/a	n/a	n/a
59.605015	2	cue_nonsocial	n/a	16	-9	n/a	n/a	n/a
59.605015	2	cue_nonsocial_low	n/a	16	-8	n/a	n/a	n/a
68.854294	2	cue_nonsocial	n/a	32	7	n/a	n/a	n/a
68.854294	2	cue_nonsocial_high	n/a	32	8	n/a	n/a	n/a
75.769910	2	cue_social	n/a	32	8	n/a	n/a	n/a
75.769910	2	cue_social_high	n/a	32	7	n/a	n/a	n/a
84.938180	2	cue_nonsocial	n/a	16	-9	n/a	n/a	n/a
84.938180	2	cue_nonsocial_low	n/a	16	-8	n/a	n/a	n/a
91.771420	2	cue_nonsocial	n/a	16	-9	n/a	n/a	n/a
91.771420	2	cue_nonsocial_low	n/a	16	-8	n/a	n/a	n/a
98.686450	2	cue_social	n/a	32	8	n/a	n/a	n/a
98.686450	2	cue_social_high	n/a	32	7	n/a	n/a	n/a
107.854630	2	cue_nonsocial	n/a	32	7	n/a	n/a	n/a
107.854630	2	cue_nonsocial_high	n/a	32	8	n/a	n/a	n/a
115.504800	2	cue_nonsocial	n/a	32	7	n/a	n/a	n/a
115.504800	2	cue_nonsocial_high	n/a	32	8	n/a	n/a	n/a
122.419174	2	cue_social	n/a	32	8	n/a	n/a	n/a
122.419174	2	cue_social_high	n/a	32	7	n/a	n/a	n/a
129.994700	2	cue_social	n/a	16	-8	n/a	n/a	n/a
129.994700	2	cue_social_low	n/a	16	-9	n/a	n/a	n/a
137.722030	2	cue_social	n/a	32	8	n/a	n/a	n/a
137.722030	2	cue_social_high	n/a	32	7	n/a	n/a	n/a
144.471470	2	cue_nonsocial	n/a	32	7	n/a	n/a	n/a
144.471470	2	cue_nonsocial_high	n/a	32	8	n/a	n/a	n/a
151.304570	2	cue_nonsocial	n/a	32	7	n/a	n/a	n/a
151.304570	2	cue_nonsocial_high	n/a	32	8	n/a	n/a	n/a
158.137990	2	cue_nonsocial	n/a	32	7	n/a	n/a	n/a
158.137990	2	cue_nonsocial_high	n/a	32	8	n/a	n/a	n/a
169.099690	2	cue_social	n/a	16	-8	n/a	n/a	n/a
169.099690	2	cue_social_low	n/a	16	-9	n/a	n/a	n/a
176.725040	2	cue_social	n/a	16	-8	n/a	n/a	n/a
176.725040	2	cue_social_low	n/a	16	-9	n/a	n/a	n/a
183.551990	2	cue_social	n/a	32	8	n/a	n/a	n/a
183.551990	2	cue_social_high	n/a	32	7	n/a	n/a	n/a
191.137480	2	cue_nonsocial	n/a	16	-9	n/a	n/a	n/a
191.137480	2	cue_nonsocial_low	n/a	16	-8	n/a	n/a	n/a
198.052250	2	cue_social	n/a	16	-8	n/a	n/a	n/a
198.052250	2	cue_social_low	n/a	16	-9	n/a	n/a	n/a
205.621080	2	cue_nonsocial	n/a	32	7	n/a	n/a	n/a
205.621080	2	cue_nonsocial_high	n/a	32	8	n/a	n/a	n/a
212.517180	2	cue_social	n/a	16	-8	n/a	n/a	n/a
212.517180	2	cue_social_low	n/a	16	-9	n/a	n/a	n/a
219.287730	2	cue_nonsocial	n/a	16	-9	n/a	n/a	n/a
219.287730	2	cue_nonsocial_low	n/a	16	-8	n/a	n/a	n/a
231.771000	2	cue_nonsocial	n/a	16	-9	n/a	n/a	n/a
231.771000	2	cue_nonsocial_low	n/a	16	-8	n/a	n/a	n/a
241.021180	2	cue_nonsocial	n/a	32	7	n/a	n/a	n/a
241.021180	2	cue_nonsocial_high	n/a	32	8	n/a	n/a	n/a
248.670880	2	cue_nonsocial	n/a	16	-9	n/a	n/a	n/a
248.670880	2	cue_nonsocial_low	n/a	16	-8	n/a	n/a	n/a
255.504380	2	cue_nonsocial	n/a	32	7	n/a	n/a	n/a
255.504380	2	cue_nonsocial_high	n/a	32	8	n/a	n/a	n/a
262.337680	2	cue_nonsocial	n/a	32	7	n/a	n/a	n/a
262.337680	2	cue_nonsocial_high	n/a	32	8	n/a	n/a	n/a
270.045700	2	cue_social	n/a	32	8	n/a	n/a	n/a
270.045700	2	cue_social_high	n/a	32	7	n/a	n/a	n/a
276.820980	2	cue_nonsocial	n/a	16	-9	n/a	n/a	n/a
276.820980	2	cue_nonsocial_low	n/a	16	-8	n/a	n/a	n/a
283.705600	2	cue_social	n/a	16	-8	n/a	n/a	n/a
283.705600	2	cue_social_low	n/a	16	-9	n/a	n/a	n/a
292.974150	2	cue_social	n/a	16	-8	n/a	n/a	n/a
292.974150	2	cue_social_low	n/a	16	-9	n/a	n/a	n/a
299.737820	2	cue_nonsocial	n/a	16	-9	n/a	n/a	n/a
299.737820	2	cue_nonsocial_low	n/a	16	-8	n/a	n/a	n/a
310.679720	2	cue_social	n/a	16	-8	n/a	n/a	n/a
310.679720	2	cue_social_low	n/a	16	-9	n/a	n/a	n/a
317.437530	2	cue_nonsocial	n/a	32	7	n/a	n/a	n/a
317.437530	2	cue_nonsocial_high	n/a	32	8	n/a	n/a	n/a
326.750270	2	cue_social	n/a	32	8	n/a	n/a	n/a
326.750270	2	cue_social_high	n/a	32	7	n/a	n/a	n/a
334.337130	2	cue_nonsocial	n/a	32	7	n/a	n/a	n/a
334.337130	2	cue_nonsocial_high	n/a	32	8	n/a	n/a	n/a
342.045600	2	cue_social	n/a	32	8	n/a	n/a	n/a
342.045600	2	cue_social_high	n/a	32	7	n/a	n/a	n/a
348.879760	2	cue_social	n/a	16	-8	n/a	n/a	n/a
348.879760	2	cue_social_low	n/a	16	-9	n/a	n/a	n/a
355.653720	2	cue_nonsocial	n/a	32	7	n/a	n/a	n/a
355.653720	2	cue_nonsocial_high	n/a	32	8	n/a	n/a	n/a
363.342830	2	cue_social	n/a	16	-8	n/a	n/a	n/a
363.342830	2	cue_social_low	n/a	16	-9	n/a	n/a	n/a
370.195620	2	cue_social	n/a	16	-8	n/a	n/a	n/a
370.195620	2	cue_social_low	n/a	16	-9	n/a	n/a	n/a
6.511594	0.949559	dec_social_choice	0.949559	32.000000	n/a	16	2.682292e-01	2.682292e-01
6.511594	0.949559	dec_choice	0.949559	32.000000	n/a	16	2.682292e-01	2.682292e-01
6.511594	0.949559	dec_social_accept	0.949559	32.000000	n/a	16	1.466346e-01	1.466346e-01
6.511594	0.949559	dec_accept	0.949559	32.000000	n/a	16	1.466346e-01	1.466346e-01
6.511594	0.949559	dec_social_high	0.949559	32.000000	n/a	16	2.682292e-01	2.682292e-01
6.511594	0.949559	dec_social_accept_high	0.949559	32.000000	n/a	16	2.682292e-01	2.682292e-01
15.761714	1.182678	dec_social_choice	1.182678	32.000000	n/a	0	0	-2.317708e-01
15.761714	1.182678	dec_choice	1.182678	32.000000	n/a	0	0	-2.317708e-01
15.761714	1.182678	dec_social_reject	1.182678	32.000000	n/a	0	0	5.681818e-03
15.761714	1.182678	dec_reject	1.182678	32.000000	n/a	0	0	5.681818e-03
15.761714	1.182678	dec_social_reject_low	1.182678	32.000000	n/a	3	-1.380208e-01	-2.317708e-01
22.594850	0.949685	dec_nonsocial_choice	0.949685	16.000000	n/a	8	2.682292e-01	2.682292e-01
22.594850	0.949685	dec_choice	0.949685	16.000000	n/a	8	2.682292e-01	2.682292e-01
22.594850	0.949685	dec_nonsocial_accept	0.949685	16.000000	n/a	8	1.466346e-01	1.466346e-01
22.594850	0.949685	dec_accept	0.949685	16.000000	n/a	8	1.466346e-01	1.466346e-01
22.594850	0.949685	dec_nonsocial_high	0.949685	16.000000	n/a	8	2.682292e-01	2.682292e-01
22.594850	0.949685	dec_nonsocial_accept_high	0.949685	16.000000	n/a	8	1.466346e-01	1.466346e-01
29.428621	0.799184	dec_social_choice	0.799184	16.000000	n/a	0	0	-2.317708e-01
29.428621	0.799184	dec_choice	0.799184	16.000000	n/a	0	0	-2.317708e-01
29.428621	0.799184	dec_social_reject	0.799184	16.000000	n/a	0	0	3.693182e-02
29.428621	0.799184	dec_reject	0.799184	16.000000	n/a	0	0	3.693182e-02
29.428621	0.799184	dec_social_reject_low	0.799184	16.000000	n/a	2	-1.067708e-01	-2.317708e-01
36.261993	0.649312	dec_social_choice	0.649312	32.000000	n/a	16	2.682292e-01	2.682292e-01
36.261993	0.649312	dec_choice	0.649312	32.000000	n/a	16	2.682292e-01	2.682292e-01
36.261993	0.649312	dec_social_accept	0.649312	32.000000	n/a	16	1.466346e-01	1.466346e-01
36.261993	0.649312	dec_accept	0.649312	32.000000	n/a	16	1.466346e-01	1.466346e-01
36.261993	0.649312	dec_social_high	0.649312	32.000000	n/a	16	2.682292e-01	2.682292e-01
36.261993	0.649312	dec_social_accept_high	0.649312	32.000000	n/a	16	2.682292e-01	2.682292e-01
43.910458	0.750595	dec_nonsocial_choice	0.750595	32.000000	n/a	8	1.822917e-02	1.822917e-02
43.910458	0.750595	dec_choice	0.750595	32.000000	n/a	8	1.822917e-02	1.822917e-02
43.910458	0.750595	dec_nonsocial_accept	0.750595	32.000000	n/a	8	-1.033654e-01	-1.033654e-01
43.910458	0.750595	dec_accept	0.750595	32.000000	n/a	8	-1.033654e-01	-1.033654e-01
43.910458	0.750595	dec_nonsocial_high	0.750595	32.000000	n/a	8	1.822917e-02	1.822917e-02
43.910458	0.750595	dec_nonsocial_accept_high	0.750595	32.000000	n/a	8	-1.033654e-01	-1.033654e-01
54.777940	0.599926	dec_social_choice	0.599926	32.000000	n/a	16	2.682292e-01	2.682292e-01
54.777940	0.599926	dec_choice	0.599926	32.000000	n/a	16	2.682292e-01	2.682292e-01
54.777940	0.599926	dec_social_accept	0.599926	32.000000	n/a	16	1.466346e-01	1.466346e-01
54.777940	0.599926	dec_accept	0.599926	32.000000	n/a	16	1.466346e-01	1.466346e-01
54.777940	0.599926	dec_social_high	0.599926	32.000000	n/a	16	2.682292e-01	2.682292e-01
54.777940	0.599926	dec_social_accept_high	0.599926	32.000000	n/a	16	2.682292e-01	2.682292e-01
61.610893	1.350149	dec_nonsocial_choice	1.350149	16.000000	n/a	0	0	-2.317708e-01
61.610893	1.350149	dec_choice	1.350149	16.000000	n/a	0	0	-2.317708e-01
61.610893	1.350149	dec_nonsocial_reject	1.350149	16.000000	n/a	0	0	3.693182e-02
61.610893	1.350149	dec_reject	1.350149	16.000000	n/a	0	0	3.693182e-02
61.610893	1.350149	dec_nonsocial_reject_low	1.350149	16.000000	n/a	2	3.693182e-02	-8.806818e-02
70.861610	1.449580	dec_nonsocial_choice	1.449580	32.000000	n/a	0	0	-2.317708e-01
70.861610	1.449580	dec_choice	1.449580	32.000000	n/a	0	0	-2.317708e-01
70.861610	1.449580	dec_nonsocial_reject	1.449580	32.000000	n/a	0	0	-2.556818e-02
70.861610	1.449580	dec_reject	1.449580	32.000000	n/a	0	0	-2.556818e-02
70.861610	1.449580	dec_nonsocial_reject_low	1.449580	32.000000	n/a	2	-2.556818e-02	-8.806818e-02
77.693344	1.033830	dec_social_choice	1.033830	32.000000	n/a	3	-1.380208e-01	-1.380208e-01
77.693344	1.033830	dec_choice	1.033830	32.000000	n/a	3	-1.380208e-01	-1.380208e-01
77.693344	1.033830	dec_social_accept	1.033830	32.000000	n/a	3	-2.596154e-01	-2.596154e-01
77.693344	1.033830	dec_accept	1.033830	32.000000	n/a	3	-2.596154e-01	-2.596154e-01
77.693344	1.033830	dec_social_accept_low	1.033830	32.000000	n/a	3	-1.380208e-01	-1.380208e-01
86.944855	1.032865	dec_nonsocial_choice	1.032865	16.000000	n/a	0	0	-2.317708e-01
86.944855	1.032865	dec_choice	1.032865	16.000000	n/a	0	0	-2.317708e-01
86.944855	1.032865	dec_nonsocial_reject	1.032865	16.000000	n/a	0	0	3.693182e-02
86.944855	1.032865	dec_reject	1.032865	16.000000	n/a	0	0	3.693182e-02
86.944855	1.032865	dec_nonsocial_low	1.032865	16.000000	n/a	0	-2.317708e-01	-2.317708e-01
86.944855	1.032865	dec_nonsocial_reject_low	1.032865	16.000000	n/a	2	3.693182e-02	-8.806818e-02
93.778000	1.049928	dec_nonsocial_choice	1.049928	16.000000	n/a	8	2.682292e-01	2.682292e-01
93.778000	1.049928	dec_choice	1.049928	16.000000	n/a	8	2.682292e-01	2.682292e-01
93.778000	1.049928	dec_nonsocial_accept	1.049928	16.000000	n/a	8	1.466346e-01	1.466346e-01
93.778000	1.049928	dec_accept	1.049928	16.000000	n/a	8	1.466346e-01	1.466346e-01
93.778000	1.049928	dec_nonsocial_accept_high	1.049928	16.000000	n/a	8	1.466346e-01	1.466346e-01
100.610420	1.333358	dec_social_choice	1.333358	32.000000	n/a	0	0	-2.317708e-01
100.610420	1.333358	dec_choice	1.333358	32.000000	n/a	0	0	-2.317708e-01
100.610420	1.333358	dec_social_reject	1.333358	32.000000	n/a	0	0	-2.556818e-02
100.610420	1.333358	dec_reject	1.333358	32.000000	n/a	0	0	-2.556818e-02
100.610420	1.333358	dec_social_low	1.333358	32.000000	n/a	0	-2.317708e-01	-2.317708e-01
100.610420	1.333358	dec_social_reject_low	1.333358	32.000000	n/a	2	-1.692708e-01	-2.317708e-01
109.860990	1.033587	dec_nonsocial_choice	1.033587	32.000000	n/a	0	0	-2.317708e-01
109.860990	1.033587	dec_choice	1.033587	32.000000	n/a	0	0	-2.317708e-01
109.860990	1.033587	dec_nonsocial_reject	1.033587	32.000000	n/a	0	0	-2.556818e-02
109.860990	1.033587	dec_reject	1.033587	32.000000	n/a	0	0	-2.556818e-02
109.860990	1.033587	dec_nonsocial_reject_low	1.033587	32.000000	n/a	2	-2.556818e-02	-8.806818e-02
117.510830	0.983400	dec_nonsocial_choice	0.983400	32.000000	n/a	16	2.682292e-01	2.682292e-01
117.510830	0.983400	dec_choice	0.983400	32.000000	n/a	16	2.682292e-01	2.682292e-01
117.510830	0.983400	dec_nonsocial_accept	0.983400	32.000000	n/a	16	1.466346e-01	1.466346e-01
117.510830	0.983400	dec_accept	0.983400	32.000000	n/a	16	1.466346e-01	1.466346e-01
117.510830	0.983400	dec_nonsocial_high	0.983400	32.000000	n/a	16	2.682292e-01	2.682292e-01
117.510830	0.983400	dec_nonsocial_accept_high	0.983400	32.000000	n/a	16	1.466346e-01	1.466346e-01
124.343610	1.100749	dec_social_choice	1.100749	32.000000	n/a	8	1.822917e-02	1.822917e-02
124.343610	1.100749	dec_choice	1.100749	32.000000	n/a	8	1.822917e-02	1.822917e-02
124.343610	1.100749	dec_social_accept	1.100749	32.000000	n/a	8	-1.033654e-01	-1.033654e-01
124.343610	1.100749	dec_accept	1.100749	32.000000	n/a	8	-1.033654e-01	-1.033654e-01
124.343610	1.100749	dec_social_accept_high	1.100749	32.000000	n/a	8	1.822917e-02	1.822917e-02
131.994840	0.965736	dec_social_choice	0.965736	16.000000	n/a	4	1.822917e-02	1.822917e-02
131.994840	0.965736	dec_choice	0.965736	16.000000	n/a	4	1.822917e-02	1.822917e-02
131.994840	0.965736	dec_social_accept	0.965736	16.000000	n/a	4	-1.033654e-01	-1.033654e-01
131.994840	0.965736	dec_accept	0.965736	16.000000	n/a	4	-1.033654e-01	-1.033654e-01
131.994840	0.965736	dec_social_high	0.965736	16.000000	n/a	4	1.822917e-02	1.822917e-02
131.994840	0.965736	dec_social_accept_high	0.965736	16.000000	n/a	4	1.822917e-02	1.822917e-02
139.644520	0.782631	dec_social_choice	0.782631	32.000000	n/a	16	2.682292e-01	2.682292e-01
139.644520	0.782631	dec_choice	0.782631	32.000000	n/a	16	2.682292e-01	2.682292e-01
139.644520	0.782631	dec_social_accept	0.782631	32.000000	n/a	16	1.466346e-01	1.466346e-01
139.644520	0.782631	dec_accept	0.782631	32.000000	n/a	16	1.466346e-01	1.466346e-01
139.644520	0.782631	dec_social_high	0.782631	32.000000	n/a	16	2.682292e-01	2.682292e-01
139.644520	0.782631	dec_social_accept_high	0.782631	32.000000	n/a	16	2.682292e-01	2.682292e-01
146.477810	0.949405	dec_nonsocial_choice	0.949405	32.000000	n/a	0	0	-2.317708e-01
146.477810	0.949405	dec_choice	0.949405	32.000000	n/a	0	0	-2.317708e-01
146.477810	0.949405	dec_nonsocial_reject	0.949405	32.000000	n/a	0	0	-2.556818e-02
146.477810	0.949405	dec_reject	0.949405	32.000000	n/a	0	0	-2.556818e-02
146.477810	0.949405	dec_nonsocial_low	0.949405	32.000000	n/a	0	-2.317708e-01	-2.317708e-01
146.477810	0.949405	dec_nonsocial_reject_low	0.949405	32.000000	n/a	2	-2.556818e-02	-8.806818e-02
153.310650	1.100271	dec_nonsocial_choice	1.100271	32.000000	n/a	8	1.822917e-02	1.822917e-02
153.310650	1.100271	dec_choice	1.100271	32.000000	n/a	8	1.822917e-02	1.822917e-02
153.310650	1.100271	dec_nonsocial_accept	1.100271	32.000000	n/a	8	-1.033654e-01	-1.033654e-01
153.310650	1.100271	dec_accept	1.100271	32.000000	n/a	8	-1.033654e-01	-1.033654e-01
153.310650	1.100271	dec_nonsocial_high	1.100271	32.000000	n/a	8	1.822917e-02	1.822917e-02
153.310650	1.100271	dec_nonsocial_accept_high	1.100271	32.000000	n/a	8	-1.033654e-01	-1.033654e-01
160.144410	1.065939	dec_nonsocial_choice	1.065939	32.000000	n/a	0	0	-2.317708e-01
160.144410	1.065939	dec_choice	1.065939	32.000000	n/a	0	0	-2.317708e-01
160.144410	1.065939	dec_nonsocial_reject	1.065939	32.000000	n/a	0	0	5.681818e-03
160.144410	1.065939	dec_reject	1.065939	32.000000	n/a	0	0	5.681818e-03
160.144410	1.065939	dec_nonsocial_low	1.065939	32.000000	n/a	0	-2.317708e-01	-2.317708e-01
160.144410	1.065939	dec_nonsocial_reject_low	1.065939	32.000000	n/a	3	5.681818e-03	-8.806818e-02
171.010960	1.333221	dec_social_choice	1.333221	16.000000	n/a	0	0	-2.317708e-01
171.010960	1.333221	dec_choice	1.333221	16.000000	n/a	0	0	-2.317708e-01
171.010960	1.333221	dec_social_reject	1.333221	16.000000	n/a	0	0	3.693182e-02
171.010960	1.333221	dec_reject	1.333221	16.000000	n/a	0	0	3.693182e-02
171.010960	1.333221	dec_social_reject_low	1.333221	16.000000	n/a	2	-1.067708e-01	-2.317708e-01
178.660870	0.866285	dec_social_choice	0.866285	16.000000	n/a	8	2.682292e-01	2.682292e-01
178.660870	0.866285	dec_choice	0.866285	16.000000	n/a	8	2.682292e-01	2.682292e-01
178.660870	0.866285	dec_social_accept	0.866285	16.000000	n/a	8	1.466346e-01	1.466346e-01
178.660870	0.866285	dec_accept	0.866285	16.000000	n/a	8	1.466346e-01	1.466346e-01
178.660870	0.866285	dec_social_accept_high	0.866285	16.000000	n/a	8	2.682292e-01	2.682292e-01
185.494430	1.283045	dec_social_choice	1.283045	32.000000	n/a	0	0	-2.317708e-01
185.494430	1.283045	dec_choice	1.283045	32.000000	n/a	0	0	-2.317708e-01
185.494430	1.283045	dec_social_reject	1.283045	32.000000	n/a	0	0	-2.556818e-02
185.494430	1.283045	dec_reject	1.283045	32.000000	n/a	0	0	-2.556818e-02
185.494430	1.283045	dec_social_reject_low	1.283045	32.000000	n/a	2	-1.692708e-01	-2.317708e-01
193.144030	1.183254	dec_nonsocial_choice	1.183254	16.000000	n/a	4	1.822917e-02	1.822917e-02
193.144030	1.183254	dec_choice	1.183254	16.000000	n/a	4	1.822917e-02	1.822917e-02
193.144030	1.183254	dec_nonsocial_accept	1.183254	16.000000	n/a	4	-1.033654e-01	-1.033654e-01
193.144030	1.183254	dec_accept	1.183254	16.000000	n/a	4	-1.033654e-01	-1.033654e-01
193.144030	1.183254	dec_nonsocial_accept_high	1.183254	16.000000	n/a	4	-1.033654e-01	-1.033654e-01
199.976750	0.917103	dec_social_choice	0.917103	16.000000	n/a	0	0	-2.317708e-01
199.976750	0.917103	dec_choice	0.917103	16.000000	n/a	0	0	-2.317708e-01
199.976750	0.917103	dec_social_reject	0.917103	16.000000	n/a	0	0	-2.556818e-02
199.976750	0.917103	dec_reject	0.917103	16.000000	n/a	0	0	-2.556818e-02
199.976750	0.917103	dec_social_reject_low	0.917103	16.000000	n/a	1	-1.692708e-01	-2.317708e-01
207.627910	0.899425	dec_nonsocial_choice	0.899425	32.000000	n/a	16	2.682292e-01	2.682292e-01
207.627910	0.899425	dec_choice	0.899425	32.000000	n/a	16	2.682292e-01	2.682292e-01
207.627910	0.899425	dec_nonsocial_accept	0.899425	32.000000	n/a	16	1.466346e-01	1.466346e-01
207.627910	0.899425	dec_accept	0.899425	32.000000	n/a	16	1.466346e-01	1.466346e-01
207.627910	0.899425	dec_nonsocial_high	0.899425	32.000000	n/a	16	2.682292e-01	2.682292e-01
207.627910	0.899425	dec_nonsocial_accept_high	0.899425	32.000000	n/a	16	1.466346e-01	1.466346e-01
214.460110	1.216866	dec_social_choice	1.216866	16.000000	n/a	0	0	-2.317708e-01
214.460110	1.216866	dec_choice	1.216866	16.000000	n/a	0	0	-2.317708e-01
214.460110	1.216866	dec_social_reject	1.216866	16.000000	n/a	0	0	3.693182e-02
214.460110	1.216866	dec_reject	1.216866	16.000000	n/a	0	0	3.693182e-02
214.460110	1.216866	dec_social_low	1.216866	16.000000	n/a	0	-2.317708e-01	-2.317708e-01
214.460110	1.216866	dec_social_reject_low	1.216866	16.000000	n/a	2	-1.067708e-01	-2.317708e-01
221.293350	0.783995	dec_nonsocial_choice	0.783995	16.000000	n/a	0	0	-2.317708e-01
221.293350	0.783995	dec_choice	0.783995	16.000000	n/a	0	0	-2.317708e-01
221.293350	0.783995	dec_nonsocial_reject	0.783995	16.000000	n/a	0	0	3.693182e-02
221.293350	0.783995	dec_reject	0.783995	16.000000	n/a	0	0	3.693182e-02
221.293350	0.783995	dec_nonsocial_reject_low	0.783995	16.000000	n/a	2	3.693182e-02	-8.806818e-02
233.777700	0.999566	dec_nonsocial_choice	0.999566	16.000000	n/a	0	0	-2.317708e-01
233.777700	0.999566	dec_choice	0.999566	16.000000	n/a	0	0	-2.317708e-01
233.777700	0.999566	dec_nonsocial_reject	0.999566	16.000000	n/a	0	0	-2.556818e-02
233.777700	0.999566	dec_reject	0.999566	16.000000	n/a	0	0	-2.556818e-02
233.777700	0.999566	dec_nonsocial_low	0.999566	16.000000	n/a	0	-2.317708e-01	-2.317708e-01
233.777700	0.999566	dec_nonsocial_reject_low	0.999566	16.000000	n/a	1	-2.556818e-02	-8.806818e-02
243.027590	0.865849	dec_nonsocial_choice	0.865849	32.000000	n/a	0	0	-2.317708e-01
243.027590	0.865849	dec_choice	0.865849	32.000000	n/a	0	0	-2.317708e-01
243.027590	0.865849	dec_nonsocial_reject	0.865849	32.000000	n/a	0	0	-2.556818e-02
243.027590	0.865849	dec_reject	0.865849	32.000000	n/a	0	0	-2.556818e-02
243.027590	0.865849	dec_nonsocial_low	0.865849	32.000000	n/a	0	-2.317708e-01	-2.317708e-01
243.027590	0.865849	dec_nonsocial_reject_low	0.865849	32.000000	n/a	2	-2.556818e-02	-8.806818e-02
250.678200	0.998837	dec_nonsocial_choice	0.998837	16.000000	n/a	0	0	-2.317708e-01
250.678200	0.998837	dec_choice	0.998837	16.000000	n/a	0	0	-2.317708e-01
250.678200	0.998837	dec_nonsocial_reject	0.998837	16.000000	n/a	0	0	3.693182e-02
250.678200	0.998837	dec_reject	0.998837	16.000000	n/a	0	0	3.693182e-02
250.678200	0.998837	dec_nonsocial_low	0.998837	16.000000	n/a	0	-2.317708e-01	-2.317708e-01
250.678200	0.998837	dec_nonsocial_reject_low	0.998837	16.000000	n/a	2	3.693182e-02	-8.806818e-02
257.511380	1.382659	dec_nonsocial_choice	1.382659	32.000000	n/a	3	-1.380208e-01	-1.380208e-01
257.511380	1.382659	dec_choice	1.382659	32.000000	n/a	3	-1.380208e-01	-1.380208e-01
257.511380	1.382659	dec_nonsocial_accept	1.382659	32.000000	n/a	3	-2.596154e-01	-2.596154e-01
257.511380	1.382659	dec_accept	1.382659	32.000000	n/a	3	-2.596154e-01	-2.596154e-01
257.511380	1.382659	dec_nonsocial_low	1.382659	32.000000	n/a	3	-1.380208e-01	-1.380208e-01
257.511380	1.382659	dec_nonsocial_accept_low	1.382659	32.000000	n/a	3	-2.596154e-01	-2.596154e-01
264.344730	1.432407	dec_nonsocial_choice	1.432407	32.000000	n/a	0	0	-2.317708e-01
264.344730	1.432407	dec_choice	1.432407	32.000000	n/a	0	0	-2.317708e-01
264.344730	1.432407	dec_nonsocial_reject	1.432407	32.000000	n/a	0	0	-2.556818e-02
264.344730	1.432407	dec_reject	1.432407	32.000000	n/a	0	0	-2.556818e-02
264.344730	1.432407	dec_nonsocial_low	1.432407	32.000000	n/a	0	-2.317708e-01	-2.317708e-01
264.344730	1.432407	dec_nonsocial_reject_low	1.432407	32.000000	n/a	2	-2.556818e-02	-8.806818e-02
271.993900	0.999907	dec_social_choice	0.999907	32.000000	n/a	0	0	-2.317708e-01
271.993900	0.999907	dec_choice	0.999907	32.000000	n/a	0	0	-2.317708e-01
271.993900	0.999907	dec_social_reject	0.999907	32.000000	n/a	0	0	-2.556818e-02
271.993900	0.999907	dec_reject	0.999907	32.000000	n/a	0	0	-2.556818e-02
271.993900	0.999907	dec_social_reject_low	0.999907	32.000000	n/a	2	-1.692708e-01	-2.317708e-01
278.826700	1.200650	dec_nonsocial_choice	1.200650	16.000000	n/a	4	1.822917e-02	1.822917e-02
278.826700	1.200650	dec_choice	1.200650	16.000000	n/a	4	1.822917e-02	1.822917e-02
278.826700	1.200650	dec_nonsocial_accept	1.200650	16.000000	n/a	4	-1.033654e-01	-1.033654e-01
278.826700	1.200650	dec_accept	1.200650	16.000000	n/a	4	-1.033654e-01	-1.033654e-01
278.826700	1.200650	dec_nonsocial_accept_high	1.200650	16.000000	n/a	4	-1.033654e-01	-1.033654e-01
285.660550	0.983141	dec_social_choice	0.983141	16.000000	n/a	4	1.822917e-02	1.822917e-02
285.660550	0.983141	dec_choice	0.983141	16.000000	n/a	4	1.822917e-02	1.822917e-02
285.660550	0.983141	dec_social_accept	0.983141	16.000000	n/a	4	-1.033654e-01	-1.033654e-01
285.660550	0.983141	dec_accept	0.983141	16.000000	n/a	4	-1.033654e-01	-1.033654e-01
285.660550	0.983141	dec_social_accept_high	0.983141	16.000000	n/a	4	1.822917e-02	1.822917e-02
294.909880	0.800641	dec_social_choice	0.800641	16.000000	n/a	4	1.822917e-02	1.822917e-02
294.909880	0.800641	dec_choice	0.800641	16.000000	n/a	4	1.822917e-02	1.822917e-02
294.909880	0.800641	dec_social_accept	0.800641	16.000000	n/a	4	-1.033654e-01	-1.033654e-01
294.909880	0.800641	dec_accept	0.800641	16.000000	n/a	4	-1.033654e-01	-1.033654e-01
294.909880	0.800641	dec_social_accept_high	0.800641	16.000000	n/a	4	1.822917e-02	1.822917e-02
301.743800	1.083276	dec_nonsocial_choice	1.083276	16.000000	n/a	4	1.822917e-02	1.822917e-02
301.743800	1.083276	dec_choice	1.083276	16.000000	n/a	4	1.822917e-02	1.822917e-02
301.743800	1.083276	dec_nonsocial_accept	1.083276	16.000000	n/a	4	-1.033654e-01	-1.033654e-01
301.743800	1.083276	dec_accept	1.083276	16.000000	n/a	4	-1.033654e-01	-1.033654e-01
301.743800	1.083276	dec_nonsocial_high	1.083276	16.000000	n/a	4	1.822917e-02	1.822917e-02
301.743800	1.083276	dec_nonsocial_accept_high	1.083276	16.000000	n/a	4	-1.033654e-01	-1.033654e-01
312.609740	1.217020	dec_social_choice	1.217020	16.000000	n/a	0	0	-2.317708e-01
312.609740	1.217020	dec_choice	1.217020	16.000000	n/a	0	0	-2.317708e-01
312.609740	1.217020	dec_social_reject	1.217020	16.000000	n/a	0	0	-2.556818e-02
312.609740	1.217020	dec_reject	1.217020	16.000000	n/a	0	0	-2.556818e-02
312.609740	1.217020	dec_social_low	1.217020	16.000000	n/a	0	-2.317708e-01	-2.317708e-01
312.609740	1.217020	dec_social_reject_low	1.217020	16.000000	n/a	1	-1.692708e-01	-2.317708e-01
319.443600	1.133260	dec_nonsocial_choice	1.133260	32.000000	n/a	8	1.822917e-02	1.822917e-02
319.443600	1.133260	dec_choice	1.133260	32.000000	n/a	8	1.822917e-02	1.822917e-02
319.443600	1.133260	dec_nonsocial_accept	1.133260	32.000000	n/a	8	-1.033654e-01	-1.033654e-01
319.443600	1.133260	dec_accept	1.133260	32.000000	n/a	8	-1.033654e-01	-1.033654e-01
319.443600	1.133260	dec_nonsocial_accept_high	1.133260	32.000000	n/a	8	-1.033654e-01	-1.033654e-01
328.693020	0.783393	dec_social_choice	0.783393	32.000000	n/a	8	1.822917e-02	1.822917e-02
328.693020	0.783393	dec_choice	0.783393	32.000000	n/a	8	1.822917e-02	1.822917e-02
328.693020	0.783393	dec_social_accept	0.783393	32.000000	n/a	8	-1.033654e-01	-1.033654e-01
328.693020	0.783393	dec_accept	0.783393	32.000000	n/a	8	-1.033654e-01	-1.033654e-01
328.693020	0.783393	dec_social_accept_high	0.783393	32.000000	n/a	8	1.822917e-02	1.822917e-02
336.344270	1.215423	dec_nonsocial_choice	1.215423	32.000000	n/a	16	2.682292e-01	2.682292e-01
336.344270	1.215423	dec_choice	1.215423	32.000000	n/a	16	2.682292e-01	2.682292e-01
336.344270	1.215423	dec_nonsocial_accept	1.215423	32.000000	n/a	16	1.466346e-01	1.466346e-01
336.344270	1.215423	dec_accept	1.215423	32.000000	n/a	16	1.466346e-01	1.466346e-01
336.344270	1.215423	dec_nonsocial_accept_high	1.215423	32.000000	n/a	16	1.466346e-01	1.466346e-01
343.992700	1.066943	dec_social_choice	1.066943	32.000000	n/a	0	0	-2.317708e-01
343.992700	1.066943	dec_choice	1.066943	32.000000	n/a	0	0	-2.317708e-01
343.992700	1.066943	dec_social_reject	1.066943	32.000000	n/a	0	0	-2.556818e-02
343.992700	1.066943	dec_reject	1.066943	32.000000	n/a	0	0	-2.556818e-02
343.992700	1.066943	dec_social_low	1.066943	32.000000	n/a	0	-2.317708e-01	-2.317708e-01
343.992700	1.066943	dec_social_reject_low	1.066943	32.000000	n/a	2	-1.692708e-01	-2.317708e-01
350.826450	1.000391	dec_social_choice	1.000391	16.000000	n/a	4	1.822917e-02	1.822917e-02
350.826450	1.000391	dec_choice	1.000391	16.000000	n/a	4	1.822917e-02	1.822917e-02
350.826450	1.000391	dec_social_accept	1.000391	16.000000	n/a	4	-1.033654e-01	-1.033654e-01
350.826450	1.000391	dec_accept	1.000391	16.000000	n/a	4	-1.033654e-01	-1.033654e-01
350.826450	1.000391	dec_social_high	1.000391	16.000000	n/a	4	1.822917e-02	1.822917e-02
350.826450	1.000391	dec_social_accept_high	1.000391	16.000000	n/a	4	1.822917e-02	1.822917e-02
357.659360	0.750707	dec_nonsocial_choice	0.750707	32.000000	n/a	16	2.682292e-01	2.682292e-01
357.659360	0.750707	dec_choice	0.750707	32.000000	n/a	16	2.682292e-01	2.682292e-01
357.659360	0.750707	dec_nonsocial_accept	0.750707	32.000000	n/a	16	1.466346e-01	1.466346e-01
357.659360	0.750707	dec_accept	0.750707	32.000000	n/a	16	1.466346e-01	1.466346e-01
357.659360	0.750707	dec_nonsocial_high	0.750707	32.000000	n/a	16	2.682292e-01	2.682292e-01
357.659360	0.750707	dec_nonsocial_accept_high	0.750707	32.000000	n/a	16	1.466346e-01	1.466346e-01
365.309720	1.016734	dec_social_choice	1.016734	16.000000	n/a	0	0	-2.317708e-01
365.309720	1.016734	dec_choice	1.016734	16.000000	n/a	0	0	-2.317708e-01
365.309720	1.016734	dec_social_reject	1.016734	16.000000	n/a	0	0	3.693182e-02
365.309720	1.016734	dec_reject	1.016734	16.000000	n/a	0	0	3.693182e-02
365.309720	1.016734	dec_social_low	1.016734	16.000000	n/a	0	-2.317708e-01	-2.317708e-01
365.309720	1.016734	dec_social_reject_low	1.016734	16.000000	n/a	2	-1.067708e-01	-2.317708e-01
372.142800	1.016656	dec_social_choice	1.016656	16.000000	n/a	8	2.682292e-01	2.682292e-01
372.142800	1.016656	dec_choice	1.016656	16.000000	n/a	8	2.682292e-01	2.682292e-01
372.142800	1.016656	dec_social_accept	1.016656	16.000000	n/a	8	1.466346e-01	1.466346e-01
372.142800	1.016656	dec_accept	1.016656	16.000000	n/a	8	1.466346e-01	1.466346e-01
372.142800	1.016656	dec_social_accept_high	1.016656	16.000000	n/a	8	2.682292e-01	2.682292e-01
