instrText,stimDoor,stimDoorLure,stimFace,stimFaceLure,Instructions.thisRepN,Instructions.thisTrialN,Instructions.thisN,Instructions.thisIndex,Trials.thisRepN,Trials.thisTrialN,Trials.thisN,Trials.thisIndex,Func,Keys,Text,RespTime,Onset,Offset,SystemTime_Start,SystemTime_Stop,Stim,Lure,Participant*,Age,date,expName,psychopyVersion,frameRate,
"In the earlier Feedback Games, you chose which doors contained a prize, and which peers liked you. 

You then saw positive or negative feedback (green check mark or red X) from the door or peer you selected.

You will now see a series of doors and peers, some of which you saw during the earlier Feedback Games, and some that you have never seen before.

Please press the spacebar to continue.",,,,,0,0,0,0,,,,,instrFunc,space,"In the earlier Feedback Games, you chose which doors contained a prize, and which peers liked you. 

You then saw positive or negative feedback (green check mark or red X) from the door or peer you selected.

You will now see a series of doors and peers, some of which you saw during the earlier Feedback Games, and some that you have never seen before.

Please press the spacebar to continue.",23.617300000041723,46.973312200047076,70.69512710068375,2023-05-09 14:50:06.282914,2023-05-09 14:50:30.004949,,,10617,70-89+,2023_May_09_1450,Recall,2021.2.3,59.73134032054131,
"For doors/peers that you remember selecting and getting feedback from, your job is to RECALL what feedback you received. 

Press '1' if you recall positive feedback. 

Press '2' if you recall negative feedback

Press the spacebar to continue.",,,,,0,1,1,1,,,,,instrFunc,space,"For doors/peers that you remember selecting and getting feedback from, your job is to RECALL what feedback you received. 

Press '1' if you recall positive feedback. 

Press '2' if you recall negative feedback

Press the spacebar to continue.",27.0234790998511,70.63911210000515,97.71683609997854,2023-05-09 14:50:30.005925,2023-05-09 14:50:57.073501,,,10617,70-89+,2023_May_09_1450,Recall,2021.2.3,59.73134032054131,
"For doors/peers that you don't remember getting feedback from, your job is to PREDICT what feedback you WOULD HAVE received.

Press '9' if you predict positive feedback.

Press '0' if you predict negative feedback. 

Please press the spacebar to continue.",,,,,0,2,2,2,,,,,instrFunc,space,"For doors/peers that you don't remember getting feedback from, your job is to PREDICT what feedback you WOULD HAVE received.

Press '9' if you predict positive feedback.

Press '0' if you predict negative feedback. 

Please press the spacebar to continue.",54.16989460028708,97.70879449974746,151.93955439981073,2023-05-09 14:50:57.074494,2023-05-09 14:51:51.295322,,,10617,70-89+,2023_May_09_1450,Recall,2021.2.3,59.73134032054131,
"This task is self-paced, and the prompts will always stay on the screen so that you know which buttons to press.

On the next screen we will show you what those prompts look like, so that you know exactly what to expect. 

You will start with either doors or peers, and then switch halfway through. 

Please press the spacebar to continue.",,,,,0,3,3,3,,,,,instrFunc,space,"This task is self-paced, and the prompts will always stay on the screen so that you know which buttons to press.

On the next screen we will show you what those prompts look like, so that you know exactly what to expect. 

You will start with either doors or peers, and then switch halfway through. 

Please press the spacebar to continue.",22.882013000082225,151.93244219990447,174.87543119955808,2023-05-09 14:51:51.296293,2023-05-09 14:52:14.228590,,,10617,70-89+,2023_May_09_1450,Recall,2021.2.3,59.73134032054131,
,,,,,,,,,,,,,imgtextFunc,space,"Here is what the screen will look like while you make your ratings.
The green circles remind you to press 1 or 9 for positive feedback.
The red circles remind you to press 2 or 0 for positive feedback.









Please let the experimenter know if you have any questions.

Whenever you're ready, press the spacebar to start the task.",19.965300200041384,174.99311609985307,195.13497859984636,2023-05-09 14:52:14.237539,2023-05-09 14:52:34.376969,,,10617,70-89+,2023_May_09_1450,Recall,2021.2.3,59.73134032054131,
,SD008.jpg,0,MF008.jpg,0,,,,,0,0,0,57,imgFunc,1,NA,20.56698830006644,195.1355661000125,215.8242256003432,2023-05-09 14:52:34.420830,2023-05-09 14:52:55.109112,MF008.jpg,0,10617,70-89+,2023_May_09_1450,Recall,2021.2.3,59.73134032054131,
,SD003.jpg,0,MF003.jpg,0,,,,,0,1,1,52,imgFunc,1,NA,3.1977655002847314,215.824807099998,219.12991249980405,2023-05-09 14:52:55.120083,2023-05-09 14:52:58.427281,MF003.jpg,0,10617,70-89+,2023_May_09_1450,Recall,2021.2.3,59.73134032054131,
,SD029.jpg,0,MF029.jpg,0,,,,,0,2,2,78,imgFunc,2,NA,3.3520507998764515,219.11063040001318,222.5586092993617,2023-05-09 14:52:58.435239,2023-05-09 14:53:01.880084,MF029.jpg,0,10617,70-89+,2023_May_09_1450,Recall,2021.2.3,59.73134032054131,
,L_SD506.jpg,1,L_MF506.jpg,1,,,,,0,3,3,95,imgFunc,2,NA,6.051003700122237,222.56334419967607,228.71207329956815,2023-05-09 14:53:01.888033,2023-05-09 14:53:08.034457,L_MF506.jpg,1,10617,70-89+,2023_May_09_1450,Recall,2021.2.3,59.73134032054131,
,DD040.jpg,0,FF040.jpg,0,,,,,0,4,4,39,imgFunc,1,NA,2.343561999965459,228.72677990002558,231.17116810008883,2023-05-09 14:53:08.043403,2023-05-09 14:53:10.486462,FF040.jpg,0,10617,70-89+,2023_May_09_1450,Recall,2021.2.3,59.73134032054131,
,SD036.jpg,0,MF036.jpg,0,,,,,0,5,5,85,imgFunc,2,NA,3.922291500028223,231.17203699983656,235.18622579984367,2023-05-09 14:53:10.494441,2023-05-09 14:53:14.505877,MF036.jpg,0,10617,70-89+,2023_May_09_1450,Recall,2021.2.3,59.73134032054131,
,DD010.jpg,0,FF010.jpg,0,,,,,0,6,6,9,imgFunc,1,NA,2.0454469001851976,235.20089449966326,237.3453871998936,2023-05-09 14:53:14.514825,2023-05-09 14:53:16.657321,FF010.jpg,0,10617,70-89+,2023_May_09_1450,Recall,2021.2.3,59.73134032054131,
,L_DD508.jpg,1,L_FF508.jpg,1,,,,,0,7,7,47,imgFunc,2,NA,8.362046400085092,237.34028959972784,245.79140539979562,2023-05-09 14:53:16.664276,2023-05-09 14:53:25.112969,L_FF508.jpg,1,10617,70-89+,2023_May_09_1450,Recall,2021.2.3,59.73134032054131,
,SD033.jpg,0,MF033.jpg,0,,,,,0,8,8,82,imgFunc,2,NA,2.7856336003169417,245.80487929983065,248.6837149998173,2023-05-09 14:53:25.121925,2023-05-09 14:53:27.998484,MF033.jpg,0,10617,70-89+,2023_May_09_1450,Recall,2021.2.3,59.73134032054131,
,L_DD509.jpg,1,L_FF509.jpg,1,,,,,0,9,9,48,imgFunc,1,NA,1.8496501999907196,248.68467269977555,250.63280549971387,2023-05-09 14:53:28.005437,2023-05-09 14:53:29.950281,L_FF509.jpg,1,10617,70-89+,2023_May_09_1450,Recall,2021.2.3,59.73134032054131,
,SD011.jpg,0,MF011.jpg,0,,,,,0,10,10,60,imgFunc,1,NA,1.701742900069803,250.63257789984345,252.42953169997782,2023-05-09 14:53:29.957234,2023-05-09 14:53:31.751846,MF011.jpg,0,10617,70-89+,2023_May_09_1450,Recall,2021.2.3,59.73134032054131,
,DD002.jpg,0,FF002.jpg,0,,,,,0,11,11,1,imgFunc,9,NA,4.499212099704891,252.4351045996882,257.03260819939896,2023-05-09 14:53:31.759805,2023-05-09 14:53:36.354823,FF002.jpg,0,10617,70-89+,2023_May_09_1450,Recall,2021.2.3,59.73134032054131,
,L_SD509.jpg,1,L_MF509.jpg,1,,,,,0,12,12,98,imgFunc,1,NA,6.6579734003171325,257.04432949982584,263.79204379953444,2023-05-09 14:53:36.363800,2023-05-09 14:53:43.109971,L_MF509.jpg,1,10617,70-89+,2023_May_09_1450,Recall,2021.2.3,59.73134032054131,
,SD027.jpg,0,MF027.jpg,0,,,,,0,13,13,76,imgFunc,9,NA,21.966973800212145,263.79952599992976,285.8585021998733,2023-05-09 14:53:43.117928,2023-05-09 14:54:05.175897,MF027.jpg,0,10617,70-89+,2023_May_09_1450,Recall,2021.2.3,59.73134032054131,
,DD039.jpg,0,FF039.jpg,0,,,,,0,14,14,38,imgFunc,9,NA,2.6424683001823723,285.899859899655,288.67187689989805,2023-05-09 14:54:05.186840,2023-05-09 14:54:07.960796,FF039.jpg,0,10617,70-89+,2023_May_09_1450,Recall,2021.2.3,59.73134032054131,
,L_DD501.jpg,1,L_FF501.jpg,1,,,,,0,15,15,40,imgFunc,1,NA,3.9545816997997463,288.64365560002625,292.6919709998183,2023-05-09 14:54:07.967748,2023-05-09 14:54:12.013538,L_FF501.jpg,1,10617,70-89+,2023_May_09_1450,Recall,2021.2.3,59.73134032054131,
,SD025.jpg,0,MF025.jpg,0,,,,,0,16,16,74,imgFunc,1,NA,2.1494988999329507,292.69673960004,294.94362999964505,2023-05-09 14:54:12.021515,2023-05-09 14:54:14.265692,MF025.jpg,0,10617,70-89+,2023_May_09_1450,Recall,2021.2.3,59.73134032054131,
,L_SD502.jpg,1,L_MF502.jpg,1,,,,,0,17,17,91,imgFunc,0,NA,3.6658914000727236,294.9483684999868,298.71263960003853,2023-05-09 14:54:14.272673,2023-05-09 14:54:18.035046,L_MF502.jpg,1,10617,70-89+,2023_May_09_1450,Recall,2021.2.3,59.73134032054131,
,SD026.jpg,0,MF026.jpg,0,,,,,0,18,18,75,imgFunc,0,NA,2.144617000129074,298.71765899984166,300.94704339979216,2023-05-09 14:54:18.041999,2023-05-09 14:54:20.269524,MF026.jpg,0,10617,70-89+,2023_May_09_1450,Recall,2021.2.3,59.73134032054131,
,DD030.jpg,0,FF030.jpg,0,,,,,0,19,19,29,imgFunc,2,NA,3.6624447000212967,300.95183969987556,304.70048510003835,2023-05-09 14:54:20.277478,2023-05-09 14:54:24.022698,FF030.jpg,0,10617,70-89+,2023_May_09_1450,Recall,2021.2.3,59.73134032054131,
,SD004.jpg,0,MF004.jpg,0,,,,,0,20,20,53,imgFunc,1,NA,1.7958595003001392,304.7063739998266,306.5849265996367,2023-05-09 14:54:24.030677,2023-05-09 14:54:25.907032,MF004.jpg,0,10617,70-89+,2023_May_09_1450,Recall,2021.2.3,59.73134032054131,
,DD007.jpg,0,FF007.jpg,0,,,,,0,21,21,6,imgFunc,1,NA,1.2268316997215152,306.5874214996584,307.9012457993813,2023-05-09 14:54:25.913985,2023-05-09 14:54:27.224959,FF007.jpg,0,10617,70-89+,2023_May_09_1450,Recall,2021.2.3,59.73134032054131,
,SD016.jpg,0,MF016.jpg,0,,,,,0,22,22,65,imgFunc,9,NA,3.0808215001598,307.90946839982644,311.08933159988374,2023-05-09 14:54:27.231941,2023-05-09 14:54:30.409955,MF016.jpg,0,10617,70-89+,2023_May_09_1450,Recall,2021.2.3,59.73134032054131,
,L_SD510.jpg,1,L_MF510.jpg,1,,,,,0,23,23,99,imgFunc,0,NA,2.633855300024152,311.10028239991516,313.83241759985685,2023-05-09 14:54:30.416936,2023-05-09 14:54:33.145919,L_MF510.jpg,1,10617,70-89+,2023_May_09_1450,Recall,2021.2.3,59.73134032054131,
,SD005.jpg,0,MF005.jpg,0,,,,,0,24,24,54,imgFunc,1,NA,4.5789723000489175,313.82735719997436,318.4925517993979,2023-05-09 14:54:33.152902,2023-05-09 14:54:37.816007,MF005.jpg,0,10617,70-89+,2023_May_09_1450,Recall,2021.2.3,59.73134032054131,
,DD028.jpg,0,FF028.jpg,0,,,,,0,25,25,27,imgFunc,1,NA,1.3487867000512779,318.50542169995606,319.946738100145,2023-05-09 14:54:37.824961,2023-05-09 14:54:39.266121,FF028.jpg,0,10617,70-89+,2023_May_09_1450,Recall,2021.2.3,59.73134032054131,
,SD023.jpg,0,MF023.jpg,0,,,,,0,26,26,72,imgFunc,9,NA,3.666351600084454,319.94777899980545,323.6973882992752,2023-05-09 14:54:39.273102,2023-05-09 14:54:43.019131,MF023.jpg,0,10617,70-89+,2023_May_09_1450,Recall,2021.2.3,59.73134032054131,
,DD015.jpg,0,FF015.jpg,0,,,,,0,27,27,14,imgFunc,1,NA,7.245662500150502,323.70457419985905,331.0394667997025,2023-05-09 14:54:43.026092,2023-05-09 14:54:50.358402,FF015.jpg,0,10617,70-89+,2023_May_09_1450,Recall,2021.2.3,59.73134032054131,
,L_DD504.jpg,1,L_FF504.jpg,1,,,,,0,28,28,43,imgFunc,1,NA,1.072282399982214,331.04604209959507,332.2050631996244,2023-05-09 14:54:50.367349,2023-05-09 14:54:51.525453,L_FF504.jpg,1,10617,70-89+,2023_May_09_1450,Recall,2021.2.3,59.73134032054131,
,SD015.jpg,0,MF015.jpg,0,,,,,0,29,29,64,imgFunc,0,NA,3.171071100048721,332.2111124000512,335.4744977997616,2023-05-09 14:54:51.533454,2023-05-09 14:54:54.794173,MF015.jpg,0,10617,70-89+,2023_May_09_1450,Recall,2021.2.3,59.73134032054131,
,SD018.jpg,0,MF018.jpg,0,,,,,0,30,30,67,imgFunc,2,NA,4.185603199992329,335.4766340996139,339.7593339998275,2023-05-09 14:54:54.801127,2023-05-09 14:54:59.080590,MF018.jpg,0,10617,70-89+,2023_May_09_1450,Recall,2021.2.3,59.73134032054131,
,DD009.jpg,0,FF009.jpg,0,,,,,0,31,31,8,imgFunc,2,NA,1.1376020996831357,339.7644602996297,340.99406459974125,2023-05-09 14:54:59.088569,2023-05-09 14:55:00.314797,FF009.jpg,0,10617,70-89+,2023_May_09_1450,Recall,2021.2.3,59.73134032054131,
,SD031.jpg,0,MF031.jpg,0,,,,,0,32,32,80,imgFunc,0,NA,3.7067362000234425,341.0194997000508,344.8362348000519,2023-05-09 14:55:00.329757,2023-05-09 14:55:04.134641,MF031.jpg,0,10617,70-89+,2023_May_09_1450,Recall,2021.2.3,59.73134032054131,
,SD038.jpg,0,MF038.jpg,0,,,,,0,33,33,87,imgFunc,9,NA,5.291120400186628,344.81904560001567,350.2022953000851,2023-05-09 14:55:04.141595,2023-05-09 14:55:09.522043,MF038.jpg,0,10617,70-89+,2023_May_09_1450,Recall,2021.2.3,59.73134032054131,
,SD035.jpg,0,MF035.jpg,0,,,,,0,34,34,84,imgFunc,1,NA,3.0067683001980186,350.207630999852,353.3031575996429,2023-05-09 14:55:09.530022,2023-05-09 14:55:12.624214,MF035.jpg,0,10617,70-89+,2023_May_09_1450,Recall,2021.2.3,59.73134032054131,
,DD032.jpg,0,FF032.jpg,0,,,,,0,35,35,31,imgFunc,2,NA,2.5337784998118877,353.31240929989144,355.93803169950843,2023-05-09 14:55:12.634188,2023-05-09 14:55:15.259089,FF032.jpg,0,10617,70-89+,2023_May_09_1450,Recall,2021.2.3,59.73134032054131,
,SD034.jpg,0,MF034.jpg,0,,,,,0,36,36,83,imgFunc,2,NA,1.5537259001284838,355.94041459960863,357.58719279943034,2023-05-09 14:55:15.266068,2023-05-09 14:55:16.910283,MF034.jpg,0,10617,70-89+,2023_May_09_1450,Recall,2021.2.3,59.73134032054131,
,SD002.jpg,0,MF002.jpg,0,,,,,0,37,37,51,imgFunc,9,NA,2.262665099930018,357.5914958999492,359.93815979966894,2023-05-09 14:55:16.917264,2023-05-09 14:55:19.261346,MF002.jpg,0,10617,70-89+,2023_May_09_1450,Recall,2021.2.3,59.73134032054131,
,DD031.jpg,0,FF031.jpg,0,,,,,0,38,38,30,imgFunc,1,NA,1.8535476000979543,359.9527044999413,361.89984079962596,2023-05-09 14:55:19.278300,2023-05-09 14:55:21.214285,FF031.jpg,0,10617,70-89+,2023_May_09_1450,Recall,2021.2.3,59.73134032054131,
,L_SD503.jpg,1,L_MF503.jpg,1,,,,,0,39,39,92,imgFunc,1,NA,1.542079500388354,361.89625660004094,363.5249148993753,2023-05-09 14:55:21.222249,2023-05-09 14:55:22.847922,L_MF503.jpg,1,10617,70-89+,2023_May_09_1450,Recall,2021.2.3,59.73134032054131,
,DD025.jpg,0,FF025.jpg,0,,,,,0,40,40,24,imgFunc,1,NA,0.9328691000118852,363.5292666000314,364.5592513997108,2023-05-09 14:55:22.854913,2023-05-09 14:55:23.882165,FF025.jpg,0,10617,70-89+,2023_May_09_1450,Recall,2021.2.3,59.73134032054131,
,DD029.jpg,0,FF029.jpg,0,,,,,0,41,41,28,imgFunc,9,NA,2.5717517999000847,364.5623524999246,367.2266069999896,2023-05-09 14:55:23.889153,2023-05-09 14:55:26.550521,FF029.jpg,0,10617,70-89+,2023_May_09_1450,Recall,2021.2.3,59.73134032054131,
,DD008.jpg,0,FF008.jpg,0,,,,,0,42,42,7,imgFunc,0,NA,4.229226500261575,367.23303359979764,371.5488772992976,2023-05-09 14:55:26.557474,2023-05-09 14:55:30.870764,FF008.jpg,0,10617,70-89+,2023_May_09_1450,Recall,2021.2.3,59.73134032054131,
,DD038.jpg,0,FF038.jpg,0,,,,,0,43,43,37,imgFunc,1,NA,2.047236400190741,371.55885429959744,373.7038723998703,2023-05-09 14:55:30.878736,2023-05-09 14:55:33.021483,FF038.jpg,0,10617,70-89+,2023_May_09_1450,Recall,2021.2.3,59.73134032054131,
,DD024.jpg,0,FF024.jpg,0,,,,,0,44,44,23,imgFunc,2,NA,1.2918781000189483,373.70629739994183,375.0869199000299,2023-05-09 14:55:33.028464,2023-05-09 14:55:34.405851,FF024.jpg,0,10617,70-89+,2023_May_09_1450,Recall,2021.2.3,59.73134032054131,
,SD020.jpg,0,MF020.jpg,0,,,,,0,45,45,69,imgFunc,2,NA,0.8001087000593543,375.0859502996318,375.9824603991583,2023-05-09 14:55:34.412832,2023-05-09 14:55:35.306269,MF020.jpg,0,10617,70-89+,2023_May_09_1450,Recall,2021.2.3,59.73134032054131,
,SD010.jpg,0,MF010.jpg,0,,,,,0,46,46,59,imgFunc,9,NA,2.8567006001248956,375.9973474997096,378.9384755999781,2023-05-09 14:55:35.317219,2023-05-09 14:55:38.259146,MF010.jpg,0,10617,70-89+,2023_May_09_1450,Recall,2021.2.3,59.73134032054131,
,DD016.jpg,0,FF016.jpg,0,,,,,0,47,47,15,imgFunc,0,NA,1.0663684997707605,378.9397538998164,380.1019991999492,2023-05-09 14:55:38.266107,2023-05-09 14:55:39.426014,FF016.jpg,0,10617,70-89+,2023_May_09_1450,Recall,2021.2.3,59.73134032054131,
,SD022.jpg,0,MF022.jpg,0,,,,,0,48,48,71,imgFunc,0,NA,1.8751592999324203,380.10692429961637,382.0719091994688,2023-05-09 14:55:39.432996,2023-05-09 14:55:41.394795,MF022.jpg,0,10617,70-89+,2023_May_09_1450,Recall,2021.2.3,59.73134032054131,
,L_SD507.jpg,1,L_MF507.jpg,1,,,,,0,49,49,96,imgFunc,0,NA,2.8113938998430967,382.0748671996407,384.9722589994781,2023-05-09 14:55:41.401746,2023-05-09 14:55:44.296372,L_MF507.jpg,1,10617,70-89+,2023_May_09_1450,Recall,2021.2.3,59.73134032054131,
,L_SD504.jpg,1,L_MF504.jpg,1,,,,,0,50,50,93,imgFunc,1,NA,4.204874299932271,384.9772104998119,389.27715909993276,2023-05-09 14:55:44.303356,2023-05-09 14:55:48.599950,L_MF504.jpg,1,10617,70-89+,2023_May_09_1450,Recall,2021.2.3,59.73134032054131,
,SD019.jpg,0,MF019.jpg,0,,,,,0,51,51,68,imgFunc,1,NA,1.0118781002238393,389.28233650000766,390.3775484999642,2023-05-09 14:55:48.607929,2023-05-09 14:55:49.700558,MF019.jpg,0,10617,70-89+,2023_May_09_1450,Recall,2021.2.3,59.73134032054131,
,DD003.jpg,0,FF003.jpg,0,,,,,0,52,52,2,imgFunc,2,NA,1.8643295001238585,390.3817513999529,392.32870720047504,2023-05-09 14:55:49.707518,2023-05-09 14:55:51.651827,FF003.jpg,0,10617,70-89+,2023_May_09_1450,Recall,2021.2.3,59.73134032054131,
,SD040.jpg,0,MF040.jpg,0,,,,,0,53,53,89,imgFunc,9,NA,4.721291900146753,392.3327678996138,397.1487171994522,2023-05-09 14:55:51.659783,2023-05-09 14:55:56.472487,MF040.jpg,0,10617,70-89+,2023_May_09_1450,Recall,2021.2.3,59.73134032054131,
,SD006.jpg,0,MF006.jpg,0,,,,,0,54,54,55,imgFunc,9,NA,1.1994210998527706,397.17465800000355,398.48371329996735,2023-05-09 14:55:56.481471,2023-05-09 14:55:57.789749,MF006.jpg,0,10617,70-89+,2023_May_09_1450,Recall,2021.2.3,59.73134032054131,
,SD001.jpg,0,MF001.jpg,0,,,,,0,55,55,50,imgFunc,9,NA,2.0386560996994376,398.4714007000439,400.6021831999533,2023-05-09 14:55:57.796702,2023-05-09 14:55:59.925038,MF001.jpg,0,10617,70-89+,2023_May_09_1450,Recall,2021.2.3,59.73134032054131,
,DD022.jpg,0,FF022.jpg,0,,,,,0,56,56,21,imgFunc,1,NA,2.623973499983549,400.614067599643,403.34369739936665,2023-05-09 14:55:59.932009,2023-05-09 14:56:02.659571,FF022.jpg,0,10617,70-89+,2023_May_09_1450,Recall,2021.2.3,59.73134032054131,
,SD021.jpg,0,MF021.jpg,0,,,,,0,57,57,70,imgFunc,1,NA,2.210029700305313,403.3401313996874,405.63789029978216,2023-05-09 14:56:02.666531,2023-05-09 14:56:04.961838,MF021.jpg,0,10617,70-89+,2023_May_09_1450,Recall,2021.2.3,59.73134032054131,
,DD036.jpg,0,FF036.jpg,0,,,,,0,58,58,35,imgFunc,9,NA,2.7717536999844015,405.6423526997678,408.50552219944075,2023-05-09 14:56:04.968792,2023-05-09 14:56:07.829954,FF036.jpg,0,10617,70-89+,2023_May_09_1450,Recall,2021.2.3,59.73134032054131,
,DD001.jpg,0,FF001.jpg,0,,,,,0,59,59,0,imgFunc,9,NA,1.6648393999785185,408.50927140004933,410.256819000002,2023-05-09 14:56:07.836938,2023-05-09 14:56:09.581744,FF001.jpg,0,10617,70-89+,2023_May_09_1450,Recall,2021.2.3,59.73134032054131,
,DD020.jpg,0,FF020.jpg,0,,,,,0,60,60,19,imgFunc,1,NA,21.873439699877053,410.26860009972006,432.24612809950486,2023-05-09 14:56:09.588704,2023-05-09 14:56:31.563758,FF020.jpg,0,10617,70-89+,2023_May_09_1450,Recall,2021.2.3,59.73134032054131,
,DD021.jpg,0,FF021.jpg,0,,,,,0,61,61,20,imgFunc,2,NA,3.021372700110078,432.28070489969105,435.42458739923313,2023-05-09 14:56:31.573739,2023-05-09 14:56:34.716313,FF021.jpg,0,10617,70-89+,2023_May_09_1450,Recall,2021.2.3,59.73134032054131,
,DD004.jpg,0,FF004.jpg,0,,,,,0,62,62,3,imgFunc,1,NA,2.08948180032894,435.3965193997137,437.5760904997587,2023-05-09 14:56:34.723294,2023-05-09 14:56:36.900744,FF004.jpg,0,10617,70-89+,2023_May_09_1450,Recall,2021.2.3,59.73134032054131,
,SD030.jpg,0,MF030.jpg,0,,,,,0,63,63,79,imgFunc,1,NA,1.3931327001191676,437.58091549994424,439.06190959969535,2023-05-09 14:56:36.907725,2023-05-09 14:56:38.385937,MF030.jpg,0,10617,70-89+,2023_May_09_1450,Recall,2021.2.3,59.73134032054131,
,DD014.jpg,0,FF014.jpg,0,,,,,0,64,64,13,imgFunc,9,NA,1.5960014001466334,439.0660695997067,440.744398299139,2023-05-09 14:56:38.393889,2023-05-09 14:56:40.069557,FF014.jpg,0,10617,70-89+,2023_May_09_1450,Recall,2021.2.3,59.73134032054131,
,SD017.jpg,0,MF017.jpg,0,,,,,0,65,65,66,imgFunc,0,NA,0.9850670997984707,440.7489398997277,441.8290989995003,2023-05-09 14:56:40.076539,2023-05-09 14:56:41.153687,MF017.jpg,0,10617,70-89+,2023_May_09_1450,Recall,2021.2.3,59.73134032054131,
,DD026.jpg,0,FF026.jpg,0,,,,,0,66,66,25,imgFunc,9,NA,2.316427099984139,441.8335613999516,444.24821650004014,2023-05-09 14:56:41.160680,2023-05-09 14:56:43.572404,FF026.jpg,0,10617,70-89+,2023_May_09_1450,Recall,2021.2.3,59.73134032054131,
,L_DD502.jpg,1,L_FF502.jpg,1,,,,,0,67,67,41,imgFunc,2,NA,1.7653608997352421,444.2567026996985,446.1136950994842,2023-05-09 14:56:43.583375,2023-05-09 14:56:45.440424,L_FF502.jpg,1,10617,70-89+,2023_May_09_1450,Recall,2021.2.3,59.73134032054131,
,SD039.jpg,0,MF039.jpg,0,,,,,0,68,68,88,imgFunc,2,NA,0.027901599649339914,446.1221240996383,446.2369419001043,2023-05-09 14:56:45.448402,2023-05-09 14:56:45.560133,MF039.jpg,0,10617,70-89+,2023_May_09_1450,Recall,2021.2.3,59.73134032054131,
,L_SD505.jpg,1,L_MF505.jpg,1,,,,,0,69,69,94,imgFunc,1,NA,1.9113680003210902,446.23866539960727,448.2327739992179,2023-05-09 14:56:45.567114,2023-05-09 14:56:47.558739,L_MF505.jpg,1,10617,70-89+,2023_May_09_1450,Recall,2021.2.3,59.73134032054131,
,SD007.jpg,0,MF007.jpg,0,,,,,0,70,70,56,imgFunc,1,NA,1.5208288002759218,448.23713359981775,449.8508526994847,2023-05-09 14:56:47.565727,2023-05-09 14:56:49.176900,MF007.jpg,0,10617,70-89+,2023_May_09_1450,Recall,2021.2.3,59.73134032054131,
,L_DD503.jpg,1,L_FF503.jpg,1,,,,,0,71,71,42,imgFunc,1,NA,2.23058159975335,449.85550139984116,452.16963639948517,2023-05-09 14:56:49.183879,2023-05-09 14:56:51.495551,L_FF503.jpg,1,10617,70-89+,2023_May_09_1450,Recall,2021.2.3,59.73134032054131,
,DD023.jpg,0,FF023.jpg,0,,,,,0,72,72,22,imgFunc,9,NA,2.37521590013057,452.17475649993867,454.63756059948355,2023-05-09 14:56:51.502511,2023-05-09 14:56:53.962970,FF023.jpg,0,10617,70-89+,2023_May_09_1450,Recall,2021.2.3,59.73134032054131,
,SD032.jpg,0,MF032.jpg,0,,,,,0,73,73,81,imgFunc,9,NA,3.12667529983446,454.63929970003664,457.8550952998921,2023-05-09 14:56:53.969922,2023-05-09 14:56:57.182589,MF032.jpg,0,10617,70-89+,2023_May_09_1450,Recall,2021.2.3,59.73134032054131,
,DD012.jpg,0,FF012.jpg,0,,,,,0,74,74,11,imgFunc,9,NA,2.7675993000157177,457.8624358000234,460.7257018997334,2023-05-09 14:56:57.189549,2023-05-09 14:57:00.050415,FF012.jpg,0,10617,70-89+,2023_May_09_1450,Recall,2021.2.3,59.73134032054131,
,SD013.jpg,0,MF013.jpg,0,,,,,0,75,75,62,imgFunc,9,NA,1.7797192996367812,460.73823029967025,462.6190208992921,2023-05-09 14:57:00.058392,2023-05-09 14:57:01.935910,MF013.jpg,0,10617,70-89+,2023_May_09_1450,Recall,2021.2.3,59.73134032054131,
,L_DD505.jpg,1,L_FF505.jpg,1,,,,,0,76,76,44,imgFunc,9,NA,2.0961686996743083,462.6141039999202,464.7943972996436,2023-05-09 14:57:01.942891,2023-05-09 14:57:04.120554,L_FF505.jpg,1,10617,70-89+,2023_May_09_1450,Recall,2021.2.3,59.73134032054131,
,SD012.jpg,0,MF012.jpg,0,,,,,0,77,77,61,imgFunc,9,NA,1.4124348000623286,464.8016233998351,466.29800259973854,2023-05-09 14:57:04.128532,2023-05-09 14:57:05.621750,MF012.jpg,0,10617,70-89+,2023_May_09_1450,Recall,2021.2.3,59.73134032054131,
,DD035.jpg,0,FF035.jpg,0,,,,,0,78,78,34,imgFunc,1,NA,2.2960550002753735,466.30192989995703,468.68183979950845,2023-05-09 14:57:05.629719,2023-05-09 14:57:08.007139,FF035.jpg,0,10617,70-89+,2023_May_09_1450,Recall,2021.2.3,59.73134032054131,
,DD017.jpg,0,FF017.jpg,0,,,,,0,79,79,16,imgFunc,2,NA,1.153514000121504,468.69242669967934,469.93874389957637,2023-05-09 14:57:08.014121,2023-05-09 14:57:09.258003,FF017.jpg,0,10617,70-89+,2023_May_09_1450,Recall,2021.2.3,59.73134032054131,
,DD037.jpg,0,FF037.jpg,0,,,,,0,80,80,36,imgFunc,1,NA,1.5339367999695241,469.9360519000329,471.5647486997768,2023-05-09 14:57:09.265955,2023-05-09 14:57:10.891641,FF037.jpg,0,10617,70-89+,2023_May_09_1450,Recall,2021.2.3,59.73134032054131,
,DD018.jpg,0,FF018.jpg,0,,,,,0,81,81,17,imgFunc,9,NA,3.3796985000371933,471.5703785996884,475.0358372996561,2023-05-09 14:57:10.898629,2023-05-09 14:57:14.361101,FF018.jpg,0,10617,70-89+,2023_May_09_1450,Recall,2021.2.3,59.73134032054131,
,L_DD510.jpg,1,L_FF510.jpg,1,,,,,0,82,82,49,imgFunc,9,NA,1.1436912999488413,475.03825179999694,476.2691166996956,2023-05-09 14:57:14.368052,2023-05-09 14:57:15.595958,L_FF510.jpg,1,10617,70-89+,2023_May_09_1450,Recall,2021.2.3,59.73134032054131,
,DD027.jpg,0,FF027.jpg,0,,,,,0,83,83,26,imgFunc,9,NA,1.457981000188738,476.2759399996139,477.82170460000634,2023-05-09 14:57:15.603937,2023-05-09 14:57:17.146971,FF027.jpg,0,10617,70-89+,2023_May_09_1450,Recall,2021.2.3,59.73134032054131,
,DD005.jpg,0,FF005.jpg,0,,,,,0,84,84,4,imgFunc,9,NA,1.733058299869299,477.82486609974876,479.63784009963274,2023-05-09 14:57:17.153959,2023-05-09 14:57:18.964531,FF005.jpg,0,10617,70-89+,2023_May_09_1450,Recall,2021.2.3,59.73134032054131,
,L_SD501.jpg,1,L_MF501.jpg,1,,,,,0,85,85,90,imgFunc,9,NA,1.8097343002445996,479.6443877997808,481.54103379976004,2023-05-09 14:57:18.971510,2023-05-09 14:57:20.865455,L_MF501.jpg,1,10617,70-89+,2023_May_09_1450,Recall,2021.2.3,59.73134032054131,
,DD006.jpg,0,FF006.jpg,0,,,,,0,86,86,5,imgFunc,0,NA,2.013173900078982,481.5446666995995,483.64270249940455,2023-05-09 14:57:20.872439,2023-05-09 14:57:22.967225,FF006.jpg,0,10617,70-89+,2023_May_09_1450,Recall,2021.2.3,59.73134032054131,
,DD033.jpg,0,FF033.jpg,0,,,,,0,87,87,32,imgFunc,9,NA,1.928760000038892,483.64524880005047,485.66037089983,2023-05-09 14:57:22.974182,2023-05-09 14:57:24.985847,FF033.jpg,0,10617,70-89+,2023_May_09_1450,Recall,2021.2.3,59.73134032054131,
,SD028.jpg,0,MF028.jpg,0,,,,,0,88,88,77,imgFunc,9,NA,1.2682698001153767,485.6656561996788,487.0270948000252,2023-05-09 14:57:24.993798,2023-05-09 14:57:26.353127,MF028.jpg,0,10617,70-89+,2023_May_09_1450,Recall,2021.2.3,59.73134032054131,
,SD009.jpg,0,MF009.jpg,0,,,,,0,89,89,58,imgFunc,0,NA,1.6717433002777398,487.0300993998535,488.79377029975876,2023-05-09 14:57:26.360140,2023-05-09 14:57:28.121077,MF009.jpg,0,10617,70-89+,2023_May_09_1450,Recall,2021.2.3,59.73134032054131,
,DD011.jpg,0,FF011.jpg,0,,,,,0,90,90,10,imgFunc,1,NA,2.5357729997485876,488.81413519987836,491.44497469998896,2023-05-09 14:57:28.128037,2023-05-09 14:57:30.756508,FF011.jpg,0,10617,70-89+,2023_May_09_1450,Recall,2021.2.3,59.73134032054131,
,SD024.jpg,0,MF024.jpg,0,,,,,0,91,91,73,imgFunc,1,NA,2.202597599942237,491.4352690996602,493.731671099551,2023-05-09 14:57:30.764467,2023-05-09 14:57:33.057848,MF024.jpg,0,10617,70-89+,2023_May_09_1450,Recall,2021.2.3,59.73134032054131,
,L_SD508.jpg,1,L_MF508.jpg,1,,,,,0,92,92,97,imgFunc,1,NA,3.8681115000508726,493.7378521999344,497.70156920002773,2023-05-09 14:57:33.065827,2023-05-09 14:57:37.026869,L_MF508.jpg,1,10617,70-89+,2023_May_09_1450,Recall,2021.2.3,59.73134032054131,
,L_DD506.jpg,1,L_FF506.jpg,1,,,,,0,93,93,45,imgFunc,9,NA,2.2205579997971654,497.70547409961,500.0209569996223,2023-05-09 14:57:37.033823,2023-05-09 14:57:39.346067,L_FF506.jpg,1,10617,70-89+,2023_May_09_1450,Recall,2021.2.3,59.73134032054131,
,DD034.jpg,0,FF034.jpg,0,,,,,0,94,94,33,imgFunc,2,NA,2.1499801999889314,500.02390439994633,502.2541030999273,2023-05-09 14:57:39.353048,2023-05-09 14:57:41.580591,FF034.jpg,0,10617,70-89+,2023_May_09_1450,Recall,2021.2.3,59.73134032054131,
,SD014.jpg,0,MF014.jpg,0,,,,,0,95,95,63,imgFunc,1,NA,2.164468999952078,502.25751399993896,504.50531719997525,2023-05-09 14:57:41.587551,2023-05-09 14:57:43.832047,MF014.jpg,0,10617,70-89+,2023_May_09_1450,Recall,2021.2.3,59.73134032054131,
,L_DD507.jpg,1,L_FF507.jpg,1,,,,,0,96,96,46,imgFunc,1,NA,1.7600711002014577,504.509829999879,506.35748260002583,2023-05-09 14:57:43.839028,2023-05-09 14:57:45.683483,L_FF507.jpg,1,10617,70-89+,2023_May_09_1450,Recall,2021.2.3,59.73134032054131,
,DD019.jpg,0,FF019.jpg,0,,,,,0,97,97,18,imgFunc,1,NA,0.8375726998783648,506.3603069996461,507.2914146995172,2023-05-09 14:57:45.690443,2023-05-09 14:57:46.618000,FF019.jpg,0,10617,70-89+,2023_May_09_1450,Recall,2021.2.3,59.73134032054131,
,SD037.jpg,0,MF037.jpg,0,,,,,0,98,98,86,imgFunc,9,NA,3.081984099932015,507.29985919967294,510.48071819962934,2023-05-09 14:57:46.624951,2023-05-09 14:57:49.803069,MF037.jpg,0,10617,70-89+,2023_May_09_1450,Recall,2021.2.3,59.73134032054131,
,DD013.jpg,0,FF013.jpg,0,,,,,0,99,99,12,imgFunc,0,NA,2.234738599974662,510.48330699978396,512.8131709997542,2023-05-09 14:57:49.811050,2023-05-09 14:57:52.138314,FF013.jpg,0,10617,70-89+,2023_May_09_1450,Recall,2021.2.3,59.73134032054131,
,,,,,,,,,,,,,instrFunc,space,"Great work! 

 Now you will switch to the other image type.

 Press the spacebar whenever you are ready to start.",3.5161779997870326,512.7537660999224,516.3149027000181,2023-05-09 14:57:52.139289,2023-05-09 14:57:55.689528,,,10617,70-89+,2023_May_09_1450,Recall,2021.2.3,59.73134032054131,
,SD003.jpg,0,MF003.jpg,0,,,,,0,0,0,52,imgFunc,1,NA,17.629168199840933,516.3927674000151,534.1148018999957,2023-05-09 14:57:55.724435,2023-05-09 14:58:13.437147,SD003.jpg,0,10617,70-89+,2023_May_09_1450,Recall,2021.2.3,59.73134032054131,
,DD036.jpg,0,FF036.jpg,0,,,,,0,1,1,35,imgFunc,1,NA,2.066299400292337,534.1395457996987,536.3143395995721,2023-05-09 14:58:13.447091,2023-05-09 14:58:15.622335,DD036.jpg,0,10617,70-89+,2023_May_09_1450,Recall,2021.2.3,59.73134032054131,
,DD022.jpg,0,FF022.jpg,0,,,,,0,2,2,21,imgFunc,2,NA,2.2400495996698737,536.3018171000294,538.630179699976,2023-05-09 14:58:15.630323,2023-05-09 14:58:17.956751,DD022.jpg,0,10617,70-89+,2023_May_09_1450,Recall,2021.2.3,59.73134032054131,
,DD039.jpg,0,FF039.jpg,0,,,,,0,3,3,38,imgFunc,2,NA,1.8079888997599483,538.6298329997808,540.526664099656,2023-05-09 14:58:17.963733,2023-05-09 14:58:19.857749,DD039.jpg,0,10617,70-89+,2023_May_09_1450,Recall,2021.2.3,59.73134032054131,
,DD025.jpg,0,FF025.jpg,0,,,,,0,4,4,24,imgFunc,2,NA,1.860230399761349,540.529567099642,542.4779021996073,2023-05-09 14:58:19.864699,2023-05-09 14:58:21.810015,DD025.jpg,0,10617,70-89+,2023_May_09_1450,Recall,2021.2.3,59.73134032054131,
,SD018.jpg,0,MF018.jpg,0,,,,,0,5,5,67,imgFunc,1,NA,2.0667006000876427,542.4832982998341,544.6280501997098,2023-05-09 14:58:21.817994,2023-05-09 14:58:23.961523,SD018.jpg,0,10617,70-89+,2023_May_09_1450,Recall,2021.2.3,59.73134032054131,
,L_DD501.jpg,1,L_FF501.jpg,1,,,,,0,6,6,40,imgFunc,1,NA,2.2684491998516023,544.6413635998033,547.003978499677,2023-05-09 14:58:23.968475,2023-05-09 14:58:26.329055,L_DD501.jpg,1,10617,70-89+,2023_May_09_1450,Recall,2021.2.3,59.73134032054131,
,DD034.jpg,0,FF034.jpg,0,,,,,0,7,7,33,imgFunc,1,NA,1.176002399995923,547.0059030996636,548.2701166993938,2023-05-09 14:58:26.336037,2023-05-09 14:58:27.597282,DD034.jpg,0,10617,70-89+,2023_May_09_1450,Recall,2021.2.3,59.73134032054131,
,DD007.jpg,0,FF007.jpg,0,,,,,0,8,8,6,imgFunc,1,NA,2.8612214997410774,548.2725921999663,551.2194154001772,2023-05-09 14:58:27.604292,2023-05-09 14:58:30.549034,DD007.jpg,0,10617,70-89+,2023_May_09_1450,Recall,2021.2.3,59.73134032054131,
,DD040.jpg,0,FF040.jpg,0,,,,,0,9,9,39,imgFunc,2,NA,2.9195448998361826,551.2223326000385,554.2207892998122,2023-05-09 14:58:30.556015,2023-05-09 14:58:33.551456,DD040.jpg,0,10617,70-89+,2023_May_09_1450,Recall,2021.2.3,59.73134032054131,
,SD033.jpg,0,MF033.jpg,0,,,,,0,10,10,82,imgFunc,1,NA,3.1111875004135072,554.2309310999699,557.4276626002975,2023-05-09 14:58:33.559414,2023-05-09 14:58:36.753876,SD033.jpg,0,10617,70-89+,2023_May_09_1450,Recall,2021.2.3,59.73134032054131,
,DD005.jpg,0,FF005.jpg,0,,,,,0,11,11,4,imgFunc,2,NA,1.605304999742657,557.4324653996155,559.1291904994287,2023-05-09 14:58:36.760861,2023-05-09 14:58:38.454319,DD005.jpg,0,10617,70-89+,2023_May_09_1450,Recall,2021.2.3,59.73134032054131,
,SD012.jpg,0,MF012.jpg,0,,,,,0,12,12,61,imgFunc,1,NA,2.2053273003548384,559.1364499996416,561.4339601998217,2023-05-09 14:58:38.462297,2023-05-09 14:58:40.756213,SD012.jpg,0,10617,70-89+,2023_May_09_1450,Recall,2021.2.3,59.73134032054131,
,SD010.jpg,0,MF010.jpg,0,,,,,0,13,13,59,imgFunc,1,NA,1.5408605998381972,561.4329944998026,563.0633541997522,2023-05-09 14:58:40.763191,2023-05-09 14:58:42.390525,SD010.jpg,0,10617,70-89+,2023_May_09_1450,Recall,2021.2.3,59.73134032054131,
,SD006.jpg,0,MF006.jpg,0,,,,,0,14,14,55,imgFunc,2,NA,1.7423161999322474,563.0634821997955,564.8950170991011,2023-05-09 14:58:42.397506,2023-05-09 14:58:44.225633,SD006.jpg,0,10617,70-89+,2023_May_09_1450,Recall,2021.2.3,59.73134032054131,
,SD023.jpg,0,MF023.jpg,0,,,,,0,15,15,72,imgFunc,1,NA,2.7254805001430213,564.8963094996288,567.7110368991271,2023-05-09 14:58:44.232614,2023-05-09 14:58:47.044681,SD023.jpg,0,10617,70-89+,2023_May_09_1450,Recall,2021.2.3,59.73134032054131,
,SD025.jpg,0,MF025.jpg,0,,,,,0,16,16,74,imgFunc,2,NA,2.6061872001737356,567.7198030999862,570.4166392995976,2023-05-09 14:58:47.051663,2023-05-09 14:58:49.745962,SD025.jpg,0,10617,70-89+,2023_May_09_1450,Recall,2021.2.3,59.73134032054131,
,L_DD510.jpg,1,L_FF510.jpg,1,,,,,0,17,17,49,imgFunc,9,NA,4.201977100223303,570.4198785996996,574.7023322000168,2023-05-09 14:58:49.752921,2023-05-09 14:58:54.032410,L_DD510.jpg,1,10617,70-89+,2023_May_09_1450,Recall,2021.2.3,59.73134032054131,
,SD039.jpg,0,MF039.jpg,0,,,,,0,18,18,88,imgFunc,9,NA,2.8993168002925813,574.7065898999572,577.6881292997859,2023-05-09 14:58:54.040388,2023-05-09 14:58:57.018688,SD039.jpg,0,10617,70-89+,2023_May_09_1450,Recall,2021.2.3,59.73134032054131,
,DD016.jpg,0,FF016.jpg,0,,,,,0,19,19,15,imgFunc,1,NA,2.170424200128764,577.6993982000276,579.96259440016,2023-05-09 14:58:57.025667,2023-05-09 14:58:59.286554,DD016.jpg,0,10617,70-89+,2023_May_09_1450,Recall,2021.2.3,59.73134032054131,
,SD019.jpg,0,MF019.jpg,0,,,,,0,20,20,68,imgFunc,2,NA,2.691179800312966,579.9625637996942,582.7423825995065,2023-05-09 14:58:59.294533,2023-05-09 14:59:02.071280,SD019.jpg,0,10617,70-89+,2023_May_09_1450,Recall,2021.2.3,59.73134032054131,
,SD011.jpg,0,MF011.jpg,0,,,,,0,21,21,60,imgFunc,9,NA,2.6782941999845207,582.7434314996935,585.508519499097,2023-05-09 14:59:02.078261,2023-05-09 14:59:04.840080,SD011.jpg,0,10617,70-89+,2023_May_09_1450,Recall,2021.2.3,59.73134032054131,
,SD032.jpg,0,MF032.jpg,0,,,,,0,22,22,81,imgFunc,2,NA,3.0510355001315475,585.514656199608,588.6455290000886,2023-05-09 14:59:04.848068,2023-05-09 14:59:07.975894,SD032.jpg,0,10617,70-89+,2023_May_09_1450,Recall,2021.2.3,59.73134032054131,
,DD031.jpg,0,FF031.jpg,0,,,,,0,23,23,30,imgFunc,0,NA,2.145336200017482,588.6524204998277,590.8834641999565,2023-05-09 14:59:07.982879,2023-05-09 14:59:10.211001,DD031.jpg,0,10617,70-89+,2023_May_09_1450,Recall,2021.2.3,59.73134032054131,
,L_DD508.jpg,1,L_FF508.jpg,1,,,,,0,24,24,47,imgFunc,0,NA,1.2982498998753726,590.8914860999212,592.2875936999917,2023-05-09 14:59:10.218951,2023-05-09 14:59:11.611783,L_DD508.jpg,1,10617,70-89+,2023_May_09_1450,Recall,2021.2.3,59.73134032054131,
,L_DD507.jpg,1,L_FF507.jpg,1,,,,,0,25,25,46,imgFunc,0,NA,1.9292677999474108,592.2844464997761,594.2991098999046,2023-05-09 14:59:11.618776,2023-05-09 14:59:13.630578,L_DD507.jpg,1,10617,70-89+,2023_May_09_1450,Recall,2021.2.3,59.73134032054131,
,L_DD505.jpg,1,L_FF505.jpg,1,,,,,0,26,26,44,imgFunc,0,NA,3.166428300086409,594.3035287996754,597.5509835993871,2023-05-09 14:59:13.637567,2023-05-09 14:59:16.882908,L_DD505.jpg,1,10617,70-89+,2023_May_09_1450,Recall,2021.2.3,59.73134032054131,
,DD015.jpg,0,FF015.jpg,0,,,,,0,27,27,14,imgFunc,1,NA,2.818835999816656,597.5550285996869,600.4511426994577,2023-05-09 14:59:16.890859,2023-05-09 14:59:19.784649,DD015.jpg,0,10617,70-89+,2023_May_09_1450,Recall,2021.2.3,59.73134032054131,
,L_SD510.jpg,1,L_MF510.jpg,1,,,,,0,28,28,99,imgFunc,0,NA,3.445392499677837,600.4563249000348,603.9880525004119,2023-05-09 14:59:19.791639,2023-05-09 14:59:23.320511,L_SD510.jpg,1,10617,70-89+,2023_May_09_1450,Recall,2021.2.3,59.73134032054131,
,DD027.jpg,0,FF027.jpg,0,,,,,0,29,29,26,imgFunc,0,NA,5.95670669991523,603.9930018000305,610.0267745996825,2023-05-09 14:59:23.327492,2023-05-09 14:59:29.358296,DD027.jpg,0,10617,70-89+,2023_May_09_1450,Recall,2021.2.3,59.73134032054131,
,DD028.jpg,0,FF028.jpg,0,,,,,0,30,30,27,imgFunc,0,NA,1.4471742999739945,610.0385553999804,611.5814363998361,2023-05-09 14:59:29.367271,2023-05-09 14:59:30.909132,DD028.jpg,0,10617,70-89+,2023_May_09_1450,Recall,2021.2.3,59.73134032054131,
,SD031.jpg,0,MF031.jpg,0,,,,,0,31,31,80,imgFunc,0,NA,1.81034450000152,611.5796213997528,613.4762037997134,2023-05-09 14:59:30.916114,2023-05-09 14:59:32.810127,SD031.jpg,0,10617,70-89+,2023_May_09_1450,Recall,2021.2.3,59.73134032054131,
,SD026.jpg,0,MF026.jpg,0,,,,,0,32,32,75,imgFunc,0,NA,1.0765815996564925,613.489371499978,614.6568065998144,2023-05-09 14:59:32.824117,2023-05-09 14:59:33.978170,SD026.jpg,0,10617,70-89+,2023_May_09_1450,Recall,2021.2.3,59.73134032054131,
,L_SD508.jpg,1,L_MF508.jpg,1,,,,,0,33,33,97,imgFunc,0,NA,2.1466688998043537,614.6510309996083,616.8817098992877,2023-05-09 14:59:33.985180,2023-05-09 14:59:36.213181,L_SD508.jpg,1,10617,70-89+,2023_May_09_1450,Recall,2021.2.3,59.73134032054131,
,L_DD506.jpg,1,L_FF506.jpg,1,,,,,0,34,34,45,imgFunc,2,NA,1.7008934002369642,616.888912699651,618.6678688996471,2023-05-09 14:59:36.221131,2023-05-09 14:59:37.997424,L_DD506.jpg,1,10617,70-89+,2023_May_09_1450,Recall,2021.2.3,59.73134032054131,
,DD026.jpg,0,FF026.jpg,0,,,,,0,35,35,25,imgFunc,1,NA,2.625670399982482,618.6679731998593,621.3826365000568,2023-05-09 14:59:38.004403,2023-05-09 14:59:40.716145,DD026.jpg,0,10617,70-89+,2023_May_09_1450,Recall,2021.2.3,59.73134032054131,
,DD014.jpg,0,FF014.jpg,0,,,,,0,36,36,13,imgFunc,1,NA,2.4406047998927534,621.3891749996692,623.9199946997687,2023-05-09 14:59:40.723127,2023-05-09 14:59:43.251699,DD014.jpg,0,10617,70-89+,2023_May_09_1450,Recall,2021.2.3,59.73134032054131,
,SD028.jpg,0,MF028.jpg,0,,,,,0,37,37,77,imgFunc,9,NA,7.106109899934381,623.9236244000494,631.1073815999553,2023-05-09 14:59:43.258678,2023-05-09 14:59:50.440239,SD028.jpg,0,10617,70-89+,2023_May_09_1450,Recall,2021.2.3,59.73134032054131,
,SD007.jpg,0,MF007.jpg,0,,,,,0,38,38,56,imgFunc,2,NA,3.5941246999427676,631.1235227999277,634.8011220996268,2023-05-09 14:59:50.449244,2023-05-09 14:59:54.125829,SD007.jpg,0,10617,70-89+,2023_May_09_1450,Recall,2021.2.3,59.73134032054131,
,DD038.jpg,0,FF038.jpg,0,,,,,0,39,39,37,imgFunc,2,NA,1.7030627997592092,634.7987505998462,636.579810699448,2023-05-09 14:59:54.132817,2023-05-09 14:59:55.911156,DD038.jpg,0,10617,70-89+,2023_May_09_1450,Recall,2021.2.3,59.73134032054131,
,DD002.jpg,0,FF002.jpg,0,,,,,0,40,40,1,imgFunc,1,NA,1.9172660997137427,636.5844232998788,638.5805158996955,2023-05-09 14:59:55.918138,2023-05-09 14:59:57.911829,DD002.jpg,0,10617,70-89+,2023_May_09_1450,Recall,2021.2.3,59.73134032054131,
,SD008.jpg,0,MF008.jpg,0,,,,,0,41,41,57,imgFunc,0,NA,2.5105611998587847,638.5830699997023,641.1797827994451,2023-05-09 14:59:57.919808,2023-05-09 15:00:00.513288,SD008.jpg,0,10617,70-89+,2023_May_09_1450,Recall,2021.2.3,59.73134032054131,
,L_SD501.jpg,1,L_MF501.jpg,1,,,,,0,42,42,90,imgFunc,9,NA,2.532503600232303,641.1931655998342,643.8240690999664,2023-05-09 15:00:00.521239,2023-05-09 15:00:03.149261,L_SD501.jpg,1,10617,70-89+,2023_May_09_1450,Recall,2021.2.3,59.73134032054131,
,DD019.jpg,0,FF019.jpg,0,,,,,0,43,43,18,imgFunc,2,NA,2.1636844002641737,643.8260527998209,646.0726143000647,2023-05-09 15:00:03.156214,2023-05-09 15:00:05.400587,DD019.jpg,0,10617,70-89+,2023_May_09_1450,Recall,2021.2.3,59.73134032054131,
,L_SD506.jpg,1,L_MF506.jpg,1,,,,,0,44,44,95,imgFunc,1,NA,2.0991711001843214,646.0745426998474,648.2558800997213,2023-05-09 15:00:05.407569,2023-05-09 15:00:07.586010,L_SD506.jpg,1,10617,70-89+,2023_May_09_1450,Recall,2021.2.3,59.73134032054131,
,DD021.jpg,0,FF021.jpg,0,,,,,0,45,45,20,imgFunc,1,NA,1.5011934000067413,648.2644426999614,649.8592013996094,2023-05-09 15:00:07.593978,2023-05-09 15:00:09.186722,DD021.jpg,0,10617,70-89+,2023_May_09_1450,Recall,2021.2.3,59.73134032054131,
,L_SD503.jpg,1,L_MF503.jpg,1,,,,,0,46,46,92,imgFunc,1,NA,1.4907503998838365,649.8589808000252,651.4379804995842,2023-05-09 15:00:09.193703,2023-05-09 15:00:10.770456,L_SD503.jpg,1,10617,70-89+,2023_May_09_1450,Recall,2021.2.3,59.73134032054131,
,DD033.jpg,0,FF033.jpg,0,,,,,0,47,47,32,imgFunc,2,NA,2.803386799991131,651.4422812997364,654.3244965998456,2023-05-09 15:00:10.777438,2023-05-09 15:00:13.656476,DD033.jpg,0,10617,70-89+,2023_May_09_1450,Recall,2021.2.3,59.73134032054131,
,SD017.jpg,0,MF017.jpg,0,,,,,0,48,48,66,imgFunc,0,NA,4.722707999870181,654.3309191996232,659.1466344995424,2023-05-09 15:00:13.663458,2023-05-09 15:00:18.476871,SD017.jpg,0,10617,70-89+,2023_May_09_1450,Recall,2021.2.3,59.73134032054131,
,L_SD504.jpg,1,L_MF504.jpg,1,,,,,0,49,49,93,imgFunc,9,NA,1.9987520999275148,659.1588695999235,661.2520702993497,2023-05-09 15:00:18.485856,2023-05-09 15:00:20.578473,L_SD504.jpg,1,10617,70-89+,2023_May_09_1450,Recall,2021.2.3,59.73134032054131,
,SD014.jpg,0,MF014.jpg,0,,,,,0,50,50,63,imgFunc,2,NA,2.8749120999127626,661.250666399952,664.2149267001078,2023-05-09 15:00:20.585455,2023-05-09 15:00:23.547091,SD014.jpg,0,10617,70-89+,2023_May_09_1450,Recall,2021.2.3,59.73134032054131,
,L_SD507.jpg,1,L_MF507.jpg,1,,,,,0,51,51,96,imgFunc,9,NA,2.1623587999492884,664.2193157998845,666.4613862996921,2023-05-09 15:00:23.557034,2023-05-09 15:00:25.798431,L_SD507.jpg,1,10617,70-89+,2023_May_09_1450,Recall,2021.2.3,59.73134032054131,
,DD001.jpg,0,FF001.jpg,0,,,,,0,52,52,0,imgFunc,0,NA,2.592744200024754,666.4688947997056,669.1505784001201,2023-05-09 15:00:25.805412,2023-05-09 15:00:28.484272,DD001.jpg,0,10617,70-89+,2023_May_09_1450,Recall,2021.2.3,59.73134032054131,
,DD030.jpg,0,FF030.jpg,0,,,,,0,53,53,29,imgFunc,1,NA,2.5846257000230253,669.1570023996755,671.8200337998569,2023-05-09 15:00:28.491253,2023-05-09 15:00:31.152028,DD030.jpg,0,10617,70-89+,2023_May_09_1450,Recall,2021.2.3,59.73134032054131,
,SD002.jpg,0,MF002.jpg,0,,,,,0,54,54,51,imgFunc,1,NA,1.917782099917531,671.8238605000079,673.821776099503,2023-05-09 15:00:31.158989,2023-05-09 15:00:33.153715,SD002.jpg,0,10617,70-89+,2023_May_09_1450,Recall,2021.2.3,59.73134032054131,
,SD034.jpg,0,MF034.jpg,0,,,,,0,55,55,83,imgFunc,1,NA,1.805804300121963,673.8237514998764,675.705418900121,2023-05-09 15:00:33.160675,2023-05-09 15:00:35.038897,SD034.jpg,0,10617,70-89+,2023_May_09_1450,Recall,2021.2.3,59.73134032054131,
,DD009.jpg,0,FF009.jpg,0,,,,,0,56,56,8,imgFunc,1,NA,1.2286472995765507,675.7130053997971,677.0251140999608,2023-05-09 15:00:35.045850,2023-05-09 15:00:36.355932,DD009.jpg,0,10617,70-89+,2023_May_09_1450,Recall,2021.2.3,59.73134032054131,
,SD036.jpg,0,MF036.jpg,0,,,,,0,57,57,85,imgFunc,9,NA,1.679045199882239,677.0305540999398,678.7939682998694,2023-05-09 15:00:36.362918,2023-05-09 15:00:38.123677,SD036.jpg,0,10617,70-89+,2023_May_09_1450,Recall,2021.2.3,59.73134032054131,
,SD005.jpg,0,MF005.jpg,0,,,,,0,58,58,54,imgFunc,0,NA,1.7467235997319221,678.7948618000373,680.6261264001951,2023-05-09 15:00:38.130636,2023-05-09 15:00:39.958951,SD005.jpg,0,10617,70-89+,2023_May_09_1450,Recall,2021.2.3,59.73134032054131,
,DD013.jpg,0,FF013.jpg,0,,,,,0,59,59,12,imgFunc,0,NA,1.1535661998204887,680.6280582998879,681.8570805001073,2023-05-09 15:00:39.966900,2023-05-09 15:00:41.193151,DD013.jpg,0,10617,70-89+,2023_May_09_1450,Recall,2021.2.3,59.73134032054131,
,DD011.jpg,0,FF011.jpg,0,,,,,0,60,60,10,imgFunc,2,NA,2.3622729000635445,681.867306899745,684.3120813998394,2023-05-09 15:00:41.201104,2023-05-09 15:00:43.644519,DD011.jpg,0,10617,70-89+,2023_May_09_1450,Recall,2021.2.3,59.73134032054131,
,L_SD509.jpg,1,L_MF509.jpg,1,,,,,0,61,61,98,imgFunc,1,NA,1.5352996001020074,684.3182920999825,685.9320327998139,2023-05-09 15:00:43.651498,2023-05-09 15:00:45.262333,L_SD509.jpg,1,10617,70-89+,2023_May_09_1450,Recall,2021.2.3,59.73134032054131,
,DD023.jpg,0,FF023.jpg,0,,,,,0,62,62,22,imgFunc,0,NA,3.8898388002999127,685.9318657997064,689.8977622995153,2023-05-09 15:00:45.269294,2023-05-09 15:00:49.232482,DD023.jpg,0,10617,70-89+,2023_May_09_1450,Recall,2021.2.3,59.73134032054131,
,SD022.jpg,0,MF022.jpg,0,,,,,0,63,63,71,imgFunc,0,NA,1.2513460000045598,689.9063342995942,691.2351056993939,2023-05-09 15:00:49.239442,2023-05-09 15:00:50.566321,SD022.jpg,0,10617,70-89+,2023_May_09_1450,Recall,2021.2.3,59.73134032054131,
,DD012.jpg,0,FF012.jpg,0,,,,,0,64,64,11,imgFunc,1,NA,3.0458680000156164,691.255819699727,694.3972526998259,2023-05-09 15:00:50.577298,2023-05-09 15:00:53.718582,DD012.jpg,0,10617,70-89+,2023_May_09_1450,Recall,2021.2.3,59.73134032054131,
,SD029.jpg,0,MF029.jpg,0,,,,,0,65,65,78,imgFunc,2,NA,1.6480752998031676,694.389487199951,696.1198243992403,2023-05-09 15:00:53.725561,2023-05-09 15:00:55.453092,SD029.jpg,0,10617,70-89+,2023_May_09_1450,Recall,2021.2.3,59.73134032054131,
,DD004.jpg,0,FF004.jpg,0,,,,,0,66,66,3,imgFunc,1,NA,1.775785299949348,696.1256956998259,697.9893543994986,2023-05-09 15:00:55.460074,2023-05-09 15:00:57.320753,DD004.jpg,0,10617,70-89+,2023_May_09_1450,Recall,2021.2.3,59.73134032054131,
,SD024.jpg,0,MF024.jpg,0,,,,,0,67,67,73,imgFunc,9,NA,2.8609950998798013,697.9925774000585,700.9403532994911,2023-05-09 15:00:57.327732,2023-05-09 15:01:00.272852,SD024.jpg,0,10617,70-89+,2023_May_09_1450,Recall,2021.2.3,59.73134032054131,
,SD013.jpg,0,MF013.jpg,0,,,,,0,68,68,62,imgFunc,0,NA,2.62814569985494,700.9455242999829,703.660002999939,2023-05-09 15:01:00.279833,2023-05-09 15:01:02.991649,SD013.jpg,0,10617,70-89+,2023_May_09_1450,Recall,2021.2.3,59.73134032054131,
,DD035.jpg,0,FF035.jpg,0,,,,,0,69,69,34,imgFunc,1,NA,2.1083069001324475,703.6652281996794,705.8626804994419,2023-05-09 15:01:02.998630,2023-05-09 15:01:05.193384,DD035.jpg,0,10617,70-89+,2023_May_09_1450,Recall,2021.2.3,59.73134032054131,
,SD027.jpg,0,MF027.jpg,0,,,,,0,70,70,76,imgFunc,1,NA,3.320526400115341,705.8690998000093,709.2823244994506,2023-05-09 15:01:05.201335,2023-05-09 15:01:08.612458,SD027.jpg,0,10617,70-89+,2023_May_09_1450,Recall,2021.2.3,59.73134032054131,
,L_DD503.jpg,1,L_FF503.jpg,1,,,,,0,71,71,42,imgFunc,0,NA,2.1437488002702594,709.2858028998598,711.5158645994961,2023-05-09 15:01:08.619434,2023-05-09 15:01:10.846980,L_DD503.jpg,1,10617,70-89+,2023_May_09_1450,Recall,2021.2.3,59.73134032054131,
,SD004.jpg,0,MF004.jpg,0,,,,,0,72,72,53,imgFunc,1,NA,5.1467365003190935,711.514806299936,716.748836599756,2023-05-09 15:01:10.853961,2023-05-09 15:01:16.085036,SD004.jpg,0,10617,70-89+,2023_May_09_1450,Recall,2021.2.3,59.73134032054131,
,L_SD502.jpg,1,L_MF502.jpg,1,,,,,0,73,73,91,imgFunc,2,NA,2.8348707002587616,716.7627486996353,719.6905038994737,2023-05-09 15:01:16.094021,2023-05-09 15:01:19.020175,L_SD502.jpg,1,10617,70-89+,2023_May_09_1450,Recall,2021.2.3,59.73134032054131,
,DD037.jpg,0,FF037.jpg,0,,,,,0,74,74,36,imgFunc,2,NA,1.4230832997709513,719.6944296997972,721.2071280996315,2023-05-09 15:01:19.028127,2023-05-09 15:01:20.538342,DD037.jpg,0,10617,70-89+,2023_May_09_1450,Recall,2021.2.3,59.73134032054131,
,L_DD502.jpg,1,L_FF502.jpg,1,,,,,0,75,75,41,imgFunc,1,NA,2.3828857000917196,721.2067092000507,723.670386900194,2023-05-09 15:01:20.545329,2023-05-09 15:01:23.006319,L_DD502.jpg,1,10617,70-89+,2023_May_09_1450,Recall,2021.2.3,59.73134032054131,
,SD035.jpg,0,MF035.jpg,0,,,,,0,76,76,84,imgFunc,2,NA,1.3835784001275897,723.6779975998215,725.1411154000089,2023-05-09 15:01:23.013268,2023-05-09 15:01:24.474089,SD035.jpg,0,10617,70-89+,2023_May_09_1450,Recall,2021.2.3,59.73134032054131,
,SD016.jpg,0,MF016.jpg,0,,,,,0,77,77,65,imgFunc,9,NA,2.1910263001918793,725.150456899777,727.4309782995842,2023-05-09 15:01:24.481048,2023-05-09 15:01:26.759135,SD016.jpg,0,10617,70-89+,2023_May_09_1450,Recall,2021.2.3,59.73134032054131,
,SD037.jpg,0,MF037.jpg,0,,,,,0,78,78,86,imgFunc,1,NA,2.768082399852574,727.4375160997733,730.3015787997283,2023-05-09 15:01:26.766117,2023-05-09 15:01:29.627695,SD037.jpg,0,10617,70-89+,2023_May_09_1450,Recall,2021.2.3,59.73134032054131,
,DD017.jpg,0,FF017.jpg,0,,,,,0,79,79,16,imgFunc,0,NA,3.153541599866003,730.3002255996689,733.5310406000353,2023-05-09 15:01:29.634647,2023-05-09 15:01:32.863170,DD017.jpg,0,10617,70-89+,2023_May_09_1450,Recall,2021.2.3,59.73134032054131,
,SD021.jpg,0,MF021.jpg,0,,,,,0,80,80,70,imgFunc,9,NA,1.7589259003289044,733.5345421000384,735.381752599962,2023-05-09 15:01:32.870151,2023-05-09 15:01:34.714520,SD021.jpg,0,10617,70-89+,2023_May_09_1450,Recall,2021.2.3,59.73134032054131,
,L_DD504.jpg,1,L_FF504.jpg,1,,,,,0,81,81,43,imgFunc,9,NA,4.223435900174081,735.3900721999817,739.7060611997731,2023-05-09 15:01:34.721480,2023-05-09 15:01:39.034554,L_DD504.jpg,1,10617,70-89+,2023_May_09_1450,Recall,2021.2.3,59.73134032054131,
,SD040.jpg,0,MF040.jpg,0,,,,,0,82,82,89,imgFunc,0,NA,3.0174386999569833,739.7080699997023,742.8045586994849,2023-05-09 15:01:39.042533,2023-05-09 15:01:42.136551,SD040.jpg,0,10617,70-89+,2023_May_09_1450,Recall,2021.2.3,59.73134032054131,
,SD020.jpg,0,MF020.jpg,0,,,,,0,83,83,69,imgFunc,1,NA,2.3815768999047577,742.8159252996556,745.296115399804,2023-05-09 15:01:42.144509,2023-05-09 15:01:44.621451,SD020.jpg,0,10617,70-89+,2023_May_09_1450,Recall,2021.2.3,59.73134032054131,
,DD029.jpg,0,FF029.jpg,0,,,,,0,84,84,28,imgFunc,2,NA,2.559958899859339,745.2934889998287,747.9421632001176,2023-05-09 15:01:44.628439,2023-05-09 15:01:47.273987,DD029.jpg,0,10617,70-89+,2023_May_09_1450,Recall,2021.2.3,59.73134032054131,
,DD010.jpg,0,FF010.jpg,0,,,,,0,85,85,9,imgFunc,2,NA,1.1345238997600973,747.9432967999019,749.1559600997716,2023-05-09 15:01:47.280969,2023-05-09 15:01:48.491740,DD010.jpg,0,10617,70-89+,2023_May_09_1450,Recall,2021.2.3,59.73134032054131,
,SD030.jpg,0,MF030.jpg,0,,,,,0,86,86,79,imgFunc,1,NA,2.826807599980384,749.1708188997582,752.0844314000569,2023-05-09 15:01:48.498720,2023-05-09 15:01:51.410224,SD030.jpg,0,10617,70-89+,2023_May_09_1450,Recall,2021.2.3,59.73134032054131,
,SD009.jpg,0,MF009.jpg,0,,,,,0,87,87,58,imgFunc,1,NA,0.8633081996813416,752.0862941998057,753.0321968994103,2023-05-09 15:01:51.417178,2023-05-09 15:01:52.360689,SD009.jpg,0,10617,70-89+,2023_May_09_1450,Recall,2021.2.3,59.73134032054131,
,SD001.jpg,0,MF001.jpg,0,,,,,0,88,88,50,imgFunc,1,NA,2.0236169998534024,753.0298456996679,755.1266757999547,2023-05-09 15:01:52.368641,2023-05-09 15:01:54.462526,SD001.jpg,0,10617,70-89+,2023_May_09_1450,Recall,2021.2.3,59.73134032054131,
,DD032.jpg,0,FF032.jpg,0,,,,,0,89,89,31,imgFunc,9,NA,1.8668019999749959,755.1307115997188,757.0763892997056,2023-05-09 15:01:54.470505,2023-05-09 15:01:56.413325,DD032.jpg,0,10617,70-89+,2023_May_09_1450,Recall,2021.2.3,59.73134032054131,
,DD018.jpg,0,FF018.jpg,0,,,,,0,90,90,17,imgFunc,2,NA,2.2099834997206926,757.0834641996771,759.3816574993543,2023-05-09 15:01:56.420307,2023-05-09 15:01:58.715445,DD018.jpg,0,10617,70-89+,2023_May_09_1450,Recall,2021.2.3,59.73134032054131,
,L_SD505.jpg,1,L_MF505.jpg,1,,,,,0,91,91,94,imgFunc,2,NA,2.1584509001113474,759.3910209997557,761.6370107000694,2023-05-09 15:01:58.722449,2023-05-09 15:02:00.966465,L_SD505.jpg,1,10617,70-89+,2023_May_09_1450,Recall,2021.2.3,59.73134032054131,
,DD008.jpg,0,FF008.jpg,0,,,,,0,92,92,7,imgFunc,2,NA,0.9390110000967979,761.6345221996307,762.6485078996047,2023-05-09 15:02:00.973425,2023-05-09 15:02:01.983962,DD008.jpg,0,10617,70-89+,2023_May_09_1450,Recall,2021.2.3,59.73134032054131,
,SD015.jpg,0,MF015.jpg,0,,,,,0,93,93,64,imgFunc,2,NA,1.102460800204426,762.6550948000513,763.8359556002542,2023-05-09 15:02:01.990923,2023-05-09 15:02:03.168810,SD015.jpg,0,10617,70-89+,2023_May_09_1450,Recall,2021.2.3,59.73134032054131,
,DD024.jpg,0,FF024.jpg,0,,,,,0,94,94,23,imgFunc,9,NA,4.608653599862009,763.844834599644,768.542663899716,2023-05-09 15:02:03.176762,2023-05-09 15:02:07.872155,DD024.jpg,0,10617,70-89+,2023_May_09_1450,Recall,2021.2.3,59.73134032054131,
,DD003.jpg,0,FF003.jpg,0,,,,,0,95,95,2,imgFunc,0,NA,1.7679085000418127,768.5495925997384,770.4098877995275,2023-05-09 15:02:07.881141,2023-05-09 15:02:09.740021,DD003.jpg,0,10617,70-89+,2023_May_09_1450,Recall,2021.2.3,59.73134032054131,
,DD020.jpg,0,FF020.jpg,0,,,,,0,96,96,19,imgFunc,2,NA,2.5671010999940336,770.4223400996998,773.0863103996962,2023-05-09 15:02:09.747027,2023-05-09 15:02:12.408603,DD020.jpg,0,10617,70-89+,2023_May_09_1450,Recall,2021.2.3,59.73134032054131,
,DD006.jpg,0,FF006.jpg,0,,,,,0,97,97,5,imgFunc,1,NA,2.2348996996879578,773.0826082997955,775.3964947997592,2023-05-09 15:02:12.415557,2023-05-09 15:02:14.727234,DD006.jpg,0,10617,70-89+,2023_May_09_1450,Recall,2021.2.3,59.73134032054131,
,SD038.jpg,0,MF038.jpg,0,,,,,0,98,98,87,imgFunc,1,NA,1.5352027998305857,775.398360399995,777.0105339000002,2023-05-09 15:02:14.735192,2023-05-09 15:02:16.344580,SD038.jpg,0,10617,70-89+,2023_May_09_1450,Recall,2021.2.3,59.73134032054131,
,L_DD509.jpg,1,L_FF509.jpg,1,,,,,0,99,99,48,imgFunc,9,NA,2.5529187000356615,777.0125849000178,779.6433251001872,2023-05-09 15:02:16.351540,2023-05-09 15:02:18.979608,L_DD509.jpg,1,10617,70-89+,2023_May_09_1450,Recall,2021.2.3,59.73134032054131,
