instrText,stimDoor,stimDoorLure,stimFace,stimFaceLure,Instructions.thisRepN,Instructions.thisTrialN,Instructions.thisN,Instructions.thisIndex,Trials.thisRepN,Trials.thisTrialN,Trials.thisN,Trials.thisIndex,Func,Keys,Text,RespTime,Onset,Offset,SystemTime_Start,SystemTime_Stop,Stim,Lure,Participant*,Age,date,expName,psychopyVersion,frameRate,
"In the earlier Feedback Games, you chose which doors contained a prize, and which peers liked you. 

You then saw positive or negative feedback (green check mark or red X) from the door or peer you selected.

You will now see a series of doors and peers, some of which you saw during the earlier Feedback Games, and some that you have never seen before.

Please press the spacebar to continue.",,,,,0,0,0,0,,,,,instrFunc,space,"In the earlier Feedback Games, you chose which doors contained a prize, and which peers liked you. 

You then saw positive or negative feedback (green check mark or red X) from the door or peer you selected.

You will now see a series of doors and peers, some of which you saw during the earlier Feedback Games, and some that you have never seen before.

Please press the spacebar to continue.",19.295743700116873,20.14537849999033,39.49880941864103,2023-09-29 12:37:05.646959,2023-09-29 12:37:24.997897,,,10713,70-89+,2023-09-29_12h37.02.259,Recall,2021.2.3,59.87866182013777,
"For doors/peers that you remember selecting and getting feedback from, your job is to RECALL what feedback you received. 

Press '1' if you recall positive feedback. 

Press '2' if you recall negative feedback

Press the spacebar to continue.",,,,,0,1,1,1,,,,,instrFunc,space,"For doors/peers that you remember selecting and getting feedback from, your job is to RECALL what feedback you received. 

Press '1' if you recall positive feedback. 

Press '2' if you recall negative feedback

Press the spacebar to continue.",16.495754200033844,39.481273600133136,56.023203330114484,2023-09-29 12:37:24.998897,2023-09-29 12:37:41.525505,,,10713,70-89+,2023-09-29_12h37.02.259,Recall,2021.2.3,59.87866182013777,
"For doors/peers that you don't remember getting feedback from, your job is to PREDICT what feedback you WOULD HAVE received.

Press '9' if you predict positive feedback.

Press '0' if you predict negative feedback. 

Please press the spacebar to continue.",,,,,0,2,2,2,,,,,instrFunc,space,"For doors/peers that you don't remember getting feedback from, your job is to PREDICT what feedback you WOULD HAVE received.

Press '9' if you predict positive feedback.

Press '0' if you predict negative feedback. 

Please press the spacebar to continue.",16.39176020002924,56.00928450003266,72.45215192972682,2023-09-29 12:37:41.526478,2023-09-29 12:37:57.953994,,,10713,70-89+,2023-09-29_12h37.02.259,Recall,2021.2.3,59.87866182013777,
"This task is self-paced, and the prompts will always stay on the screen so that you know which buttons to press.

On the next screen we will show you what those prompts look like, so that you know exactly what to expect. 

You will start with either doors or peers, and then switch halfway through. 

Please press the spacebar to continue.",,,,,0,3,3,3,,,,,instrFunc,space,"This task is self-paced, and the prompts will always stay on the screen so that you know which buttons to press.

On the next screen we will show you what those prompts look like, so that you know exactly what to expect. 

You will start with either doors or peers, and then switch halfway through. 

Please press the spacebar to continue.",13.381970099871978,72.43505130009726,85.85941592999734,2023-09-29 12:37:57.954994,2023-09-29 12:38:11.363739,,,10713,70-89+,2023-09-29_12h37.02.259,Recall,2021.2.3,59.87866182013777,
,,,,,,,,,,,,,imgtextFunc,space,"Here is what the screen will look like while you make your ratings.
The green circles remind you to press 1 or 9 for positive feedback.
The red circles remind you to press 2 or 0 for negative feedback.









Please let the experimenter know if you have any questions.

Whenever you're ready, press the spacebar to start the task.",35.20552509999834,85.98762469994836,121.35985703021288,2023-09-29 12:38:11.373712,2023-09-29 12:38:46.739842,,,10713,70-89+,2023-09-29_12h37.02.259,Recall,2021.2.3,59.87866182013777,
,SD030.jpg,0,MF030.jpg,0,,,,,0,0,0,79,imgFunc,2,NA,10.919527099933475,121.3456628001295,132.38403869001195,2023-09-29 12:38:46.782973,2023-09-29 12:38:57.814538,SD030.jpg,0,10713,70-89+,2023-09-29_12h37.02.259,Recall,2021.2.3,59.87866182013777,
,DD006.jpg,0,FF006.jpg,0,,,,,0,1,1,5,imgFunc,1,NA,4.397310700034723,132.3879195000045,136.89927972992882,2023-09-29 12:38:57.826507,2023-09-29 12:39:02.334419,DD006.jpg,0,10713,70-89+,2023-09-29_12h37.02.259,Recall,2021.2.3,59.87866182013777,
,DD035.jpg,0,FF035.jpg,0,,,,,0,2,2,34,imgFunc,1,NA,2.8546589999459684,136.88246520003304,139.83239713008516,2023-09-29 12:39:02.343425,2023-09-29 12:39:05.286365,DD035.jpg,0,10713,70-89+,2023-09-29_12h37.02.259,Recall,2021.2.3,59.87866182013777,
,DD028.jpg,0,FF028.jpg,0,,,,,0,3,3,27,imgFunc,9,NA,4.499883400043473,139.83715340006165,144.43329113023356,2023-09-29 12:39:05.297337,2023-09-29 12:39:09.889424,DD028.jpg,0,10713,70-89+,2023-09-29_12h37.02.259,Recall,2021.2.3,59.87866182013777,
,DD024.jpg,0,FF024.jpg,0,,,,,0,4,4,23,imgFunc,9,NA,3.425207099877298,144.43182480009273,147.94966892991215,2023-09-29 12:39:09.898402,2023-09-29 12:39:13.408899,DD024.jpg,0,10713,70-89+,2023-09-29_12h37.02.259,Recall,2021.2.3,59.87866182013777,
,L_SD501.jpg,1,L_MF501.jpg,1,,,,,0,5,5,90,imgFunc,2,NA,4.827378100017086,147.94971790001728,152.87021762994118,2023-09-29 12:39:13.416879,2023-09-29 12:39:18.329339,L_SD501.jpg,1,10713,70-89+,2023-09-29_12h37.02.259,Recall,2021.2.3,59.87866182013777,
,DD012.jpg,0,FF012.jpg,0,,,,,0,6,6,11,imgFunc,9,NA,4.456641800003126,152.89635680010542,157.48090073023923,2023-09-29 12:39:18.338316,2023-09-29 12:39:22.915848,DD012.jpg,0,10713,70-89+,2023-09-29_12h37.02.259,Recall,2021.2.3,59.87866182013777,
,DD005.jpg,0,FF005.jpg,0,,,,,0,7,7,4,imgFunc,0,NA,5.3587799000088125,157.47450700006448,162.93104753014632,2023-09-29 12:39:22.930810,2023-09-29 12:39:28.386118,DD005.jpg,0,10713,70-89+,2023-09-29_12h37.02.259,Recall,2021.2.3,59.87866182013777,
,DD039.jpg,0,FF039.jpg,0,,,,,0,8,8,38,imgFunc,1,NA,4.808524300111458,162.93683320004493,167.85477133002132,2023-09-29 12:39:28.395099,2023-09-29 12:39:33.306468,DD039.jpg,0,10713,70-89+,2023-09-29_12h37.02.259,Recall,2021.2.3,59.87866182013777,
,DD017.jpg,0,FF017.jpg,0,,,,,0,9,9,16,imgFunc,1,NA,1.4601580000016838,167.86091769998893,169.42653273022734,2023-09-29 12:39:33.315446,2023-09-29 12:39:34.874087,DD017.jpg,0,10713,70-89+,2023-09-29_12h37.02.259,Recall,2021.2.3,59.87866182013777,
,SD013.jpg,0,MF013.jpg,0,,,,,0,10,10,62,imgFunc,1,NA,1.5163726001046598,169.42876080004498,171.0644514299929,2023-09-29 12:39:34.881070,2023-09-29 12:39:36.508710,SD013.jpg,0,10713,70-89+,2023-09-29_12h37.02.259,Recall,2021.2.3,59.87866182013777,
,L_SD510.jpg,1,L_MF510.jpg,1,,,,,0,11,11,99,imgFunc,0,NA,4.540365200024098,171.06863990006968,175.72258123010397,2023-09-29 12:39:36.516691,2023-09-29 12:39:41.161699,L_SD510.jpg,1,10713,70-89+,2023-09-29_12h37.02.259,Recall,2021.2.3,59.87866182013777,
,SD002.jpg,0,MF002.jpg,0,,,,,0,12,12,51,imgFunc,9,NA,2.8230266999453306,175.73022000002675,178.68085165997036,2023-09-29 12:39:41.178624,2023-09-29 12:39:44.114010,SD002.jpg,0,10713,70-89+,2023-09-29_12h37.02.259,Recall,2021.2.3,59.87866182013777,
,SD038.jpg,0,MF038.jpg,0,,,,,0,13,13,87,imgFunc,1,NA,4.117756800027564,178.65121500007808,182.85574053018354,2023-09-29 12:39:44.120993,2023-09-29 12:39:48.316188,SD038.jpg,0,10713,70-89+,2023-09-29_12h37.02.259,Recall,2021.2.3,59.87866182013777,
,SD027.jpg,0,MF027.jpg,0,,,,,0,14,14,76,imgFunc,9,NA,3.8849835000000894,182.86818710016087,186.8511599302292,2023-09-29 12:39:48.327157,2023-09-29 12:39:52.303663,SD027.jpg,0,10713,70-89+,2023-09-29_12h37.02.259,Recall,2021.2.3,59.87866182013777,
,DD016.jpg,0,FF016.jpg,0,,,,,0,15,15,15,imgFunc,1,NA,1.4943017000332475,186.86695159994997,188.48597962968051,2023-09-29 12:39:52.310646,2023-09-29 12:39:53.921135,DD016.jpg,0,10713,70-89+,2023-09-29_12h37.02.259,Recall,2021.2.3,59.87866182013777,
,L_SD504.jpg,1,L_MF504.jpg,1,,,,,0,16,16,93,imgFunc,2,NA,4.6929983999580145,188.46802980010398,193.27297193021514,2023-09-29 12:39:53.928118,2023-09-29 12:39:58.724634,L_SD504.jpg,1,10713,70-89+,2023-09-29_12h37.02.259,Recall,2021.2.3,59.87866182013777,
,SD037.jpg,0,MF037.jpg,0,,,,,0,17,17,86,imgFunc,1,NA,2.590742100030184,193.3063887001481,196.02534693013877,2023-09-29 12:39:58.740593,2023-09-29 12:40:01.459944,SD037.jpg,0,10713,70-89+,2023-09-29_12h37.02.259,Recall,2021.2.3,59.87866182013777,
,SD028.jpg,0,MF028.jpg,0,,,,,0,18,18,77,imgFunc,1,NA,5.305651099886745,195.9996118999552,201.4051841297187,2023-09-29 12:40:01.466927,2023-09-29 12:40:06.863980,SD028.jpg,0,10713,70-89+,2023-09-29_12h37.02.259,Recall,2021.2.3,59.87866182013777,
,L_SD505.jpg,1,L_MF505.jpg,1,,,,,0,19,19,94,imgFunc,0,NA,5.041812699986622,201.41522000008263,206.56685922993347,2023-09-29 12:40:06.872958,2023-09-29 12:40:12.016826,L_SD505.jpg,1,10713,70-89+,2023-09-29_12h37.02.259,Recall,2021.2.3,59.87866182013777,
,DD040.jpg,0,FF040.jpg,0,,,,,0,20,20,39,imgFunc,9,NA,2.5840670000761747,206.56122310017236,209.24594613024965,2023-09-29 12:40:12.025776,2023-09-29 12:40:14.702902,DD040.jpg,0,10713,70-89+,2023-09-29_12h37.02.259,Recall,2021.2.3,59.87866182013777,
,L_SD508.jpg,1,L_MF508.jpg,1,,,,,0,21,21,97,imgFunc,2,NA,3.7585464001167566,209.2588808001019,213.13028943026438,2023-09-29 12:40:14.709885,2023-09-29 12:40:18.572639,L_SD508.jpg,1,10713,70-89+,2023-09-29_12h37.02.259,Recall,2021.2.3,59.87866182013777,
,L_DD505.jpg,1,L_FF505.jpg,1,,,,,0,22,22,44,imgFunc,9,NA,3.9152917000465095,213.11002310016192,217.1133174302522,2023-09-29 12:40:18.580620,2023-09-29 12:40:22.574698,L_DD505.jpg,1,10713,70-89+,2023-09-29_12h37.02.259,Recall,2021.2.3,59.87866182013777,
,SD020.jpg,0,MF020.jpg,0,,,,,0,23,23,69,imgFunc,1,NA,1.3836262999102473,217.12168490001932,218.60687932977453,2023-09-29 12:40:22.582701,2023-09-29 12:40:24.059487,SD020.jpg,0,10713,70-89+,2023-09-29_12h37.02.259,Recall,2021.2.3,59.87866182013777,
,SD017.jpg,0,MF017.jpg,0,,,,,0,24,24,66,imgFunc,1,NA,2.1950244000181556,218.59853680012748,220.88535702996887,2023-09-29 12:40:24.066470,2023-09-29 12:40:26.344667,SD017.jpg,0,10713,70-89+,2023-09-29_12h37.02.259,Recall,2021.2.3,59.87866182013777,
,SD036.jpg,0,MF036.jpg,0,,,,,0,25,25,85,imgFunc,9,NA,3.467869499931112,220.9095819001086,224.49483173014596,2023-09-29 12:40:26.352648,2023-09-29 12:40:29.930457,SD036.jpg,0,10713,70-89+,2023-09-29_12h37.02.259,Recall,2021.2.3,59.87866182013777,
,SD008.jpg,0,MF008.jpg,0,,,,,0,26,26,57,imgFunc,0,NA,3.2342995998915285,224.47905630012974,227.80543253058568,2023-09-29 12:40:29.943424,2023-09-29 12:40:33.266160,SD008.jpg,0,10713,70-89+,2023-09-29_12h37.02.259,Recall,2021.2.3,59.87866182013777,
,SD022.jpg,0,MF022.jpg,0,,,,,0,27,27,71,imgFunc,1,NA,1.608574700076133,227.808719499968,229.51123953028582,2023-09-29 12:40:33.273143,2023-09-29 12:40:34.967421,SD022.jpg,0,10713,70-89+,2023-09-29_12h37.02.259,Recall,2021.2.3,59.87866182013777,
,DD014.jpg,0,FF014.jpg,0,,,,,0,28,28,13,imgFunc,1,NA,1.1354617001488805,229.51371160009876,230.74888382991776,2023-09-29 12:40:34.975208,2023-09-29 12:40:36.201779,DD014.jpg,0,10713,70-89+,2023-09-29_12h37.02.259,Recall,2021.2.3,59.87866182013777,
,DD010.jpg,0,FF010.jpg,0,,,,,0,29,29,9,imgFunc,0,NA,6.454703299794346,230.7466710000299,237.30225672991946,2023-09-29 12:40:36.208762,2023-09-29 12:40:42.756185,DD010.jpg,0,10713,70-89+,2023-09-29_12h37.02.259,Recall,2021.2.3,59.87866182013777,
,DD025.jpg,0,FF025.jpg,0,,,,,0,30,30,24,imgFunc,0,NA,2.781474200077355,237.3239311000798,240.22415233007632,2023-09-29 12:40:42.765164,2023-09-29 12:40:45.658284,DD025.jpg,0,10713,70-89+,2023-09-29_12h37.02.259,Recall,2021.2.3,59.87866182013777,
,DD002.jpg,0,FF002.jpg,0,,,,,0,31,31,1,imgFunc,9,NA,4.683021100005135,240.21417990000919,244.987349830335,2023-09-29 12:40:45.673246,2023-09-29 12:40:50.445506,DD002.jpg,0,10713,70-89+,2023-09-29_12h37.02.259,Recall,2021.2.3,59.87866182013777,
,SD010.jpg,0,MF010.jpg,0,,,,,0,32,32,59,imgFunc,9,NA,2.6638277999591082,244.99347060010768,247.75912653002888,2023-09-29 12:40:50.454484,2023-09-29 12:40:53.213982,SD010.jpg,0,10713,70-89+,2023-09-29_12h37.02.259,Recall,2021.2.3,59.87866182013777,
,DD020.jpg,0,FF020.jpg,0,,,,,0,33,33,19,imgFunc,9,NA,6.370824199868366,247.76639980007894,254.2557468302548,2023-09-29 12:40:53.220965,2023-09-29 12:40:59.701863,DD020.jpg,0,10713,70-89+,2023-09-29_12h37.02.259,Recall,2021.2.3,59.87866182013777,
,L_DD502.jpg,1,L_FF502.jpg,1,,,,,0,34,34,41,imgFunc,0,NA,4.7023541000671685,254.25867550005205,259.0763597297482,2023-09-29 12:40:59.710842,2023-09-29 12:41:04.521493,L_DD502.jpg,1,10713,70-89+,2023-09-29_12h37.02.259,Recall,2021.2.3,59.87866182013777,
,L_DD503.jpg,1,L_FF503.jpg,1,,,,,0,35,35,42,imgFunc,9,NA,4.885396299883723,259.0920474000741,264.0952032301575,2023-09-29 12:41:04.530440,2023-09-29 12:41:09.525188,L_DD503.jpg,1,10713,70-89+,2023-09-29_12h37.02.259,Recall,2021.2.3,59.87866182013777,
,DD034.jpg,0,FF034.jpg,0,,,,,0,36,36,33,imgFunc,1,NA,1.7253428001422435,264.08377320016734,265.9172806600109,2023-09-29 12:41:09.542146,2023-09-29 12:41:11.359809,DD034.jpg,0,10713,70-89+,2023-09-29_12h37.02.259,Recall,2021.2.3,59.87866182013777,
,SD009.jpg,0,MF009.jpg,0,,,,,0,37,37,58,imgFunc,0,NA,4.587065799860284,265.9023568001576,270.5902598302346,2023-09-29 12:41:11.367762,2023-09-29 12:41:16.046774,SD009.jpg,0,10713,70-89+,2023-09-29_12h37.02.259,Recall,2021.2.3,59.87866182013777,
,L_DD507.jpg,1,L_FF507.jpg,1,,,,,0,38,38,46,imgFunc,1,NA,1.544460600009188,270.59284820011817,272.2421668302268,2023-09-29 12:41:16.055752,2023-09-29 12:41:17.697978,L_DD507.jpg,1,10713,70-89+,2023-09-29_12h37.02.259,Recall,2021.2.3,59.87866182013777,
,DD027.jpg,0,FF027.jpg,0,,,,,0,39,39,26,imgFunc,1,NA,1.094259199919179,272.2430416001007,273.4452767302282,2023-09-29 12:41:17.704961,2023-09-29 12:41:18.898877,DD027.jpg,0,10713,70-89+,2023-09-29_12h37.02.259,Recall,2021.2.3,59.87866182013777,
,SD033.jpg,0,MF033.jpg,0,,,,,0,40,40,82,imgFunc,1,NA,2.0713740999344736,273.4500726000406,275.63621453009546,2023-09-29 12:41:18.905861,2023-09-29 12:41:21.083600,SD033.jpg,0,10713,70-89+,2023-09-29_12h37.02.259,Recall,2021.2.3,59.87866182013777,
,SD004.jpg,0,MF004.jpg,0,,,,,0,41,41,53,imgFunc,1,NA,6.160385200055316,275.62474939995445,281.8801800296642,2023-09-29 12:41:21.091581,2023-09-29 12:41:27.338415,SD004.jpg,0,10713,70-89+,2023-09-29_12h37.02.259,Recall,2021.2.3,59.87866182013777,
,L_DD504.jpg,1,L_FF504.jpg,1,,,,,0,42,42,43,imgFunc,9,NA,3.5061908001080155,281.87903780001216,285.47988233016804,2023-09-29 12:41:27.347393,2023-09-29 12:41:30.940875,L_DD504.jpg,1,10713,70-89+,2023-09-29_12h37.02.259,Recall,2021.2.3,59.87866182013777,
,DD023.jpg,0,FF023.jpg,0,,,,,0,43,43,22,imgFunc,0,NA,5.418583899969235,285.4868704001419,291.0078178301919,2023-09-29 12:41:30.948856,2023-09-29 12:41:36.461437,DD023.jpg,0,10713,70-89+,2023-09-29_12h37.02.259,Recall,2021.2.3,59.87866182013777,
,SD018.jpg,0,MF018.jpg,0,,,,,0,44,44,67,imgFunc,0,NA,4.5488579999655485,291.0282108001411,295.6954692299478,2023-09-29 12:41:36.470415,2023-09-29 12:41:41.130643,SD018.jpg,0,10713,70-89+,2023-09-29_12h37.02.259,Recall,2021.2.3,59.87866182013777,
,SD031.jpg,0,MF031.jpg,0,,,,,0,45,45,80,imgFunc,1,NA,5.396588700124994,295.6927839999553,301.20122393011115,2023-09-29 12:41:41.145576,2023-09-29 12:41:46.652050,SD031.jpg,0,10713,70-89+,2023-09-29_12h37.02.259,Recall,2021.2.3,59.87866182013777,
,SD014.jpg,0,MF014.jpg,0,,,,,0,46,46,63,imgFunc,2,NA,2.8952603000216186,301.1939018999692,304.1775463297963,2023-09-29 12:41:46.661030,2023-09-29 12:41:49.637852,SD014.jpg,0,10713,70-89+,2023-09-29_12h37.02.259,Recall,2021.2.3,59.87866182013777,
,DD036.jpg,0,FF036.jpg,0,,,,,0,47,47,35,imgFunc,1,NA,2.2186141998972744,304.1827040000353,306.49953773012385,2023-09-29 12:41:49.646815,2023-09-29 12:41:51.955837,DD036.jpg,0,10713,70-89+,2023-09-29_12h37.02.259,Recall,2021.2.3,59.87866182013777,
,SD016.jpg,0,MF016.jpg,0,,,,,0,48,48,65,imgFunc,2,NA,2.439233500044793,306.5057650001254,309.05893363035284,2023-09-29 12:41:51.962820,2023-09-29 12:41:54.507390,SD016.jpg,0,10713,70-89+,2023-09-29_12h37.02.259,Recall,2021.2.3,59.87866182013777,
,SD006.jpg,0,MF006.jpg,0,,,,,0,49,49,55,imgFunc,1,NA,3.6317652000579983,309.07361009996384,312.82027572975494,2023-09-29 12:41:54.518362,2023-09-29 12:41:58.260468,SD006.jpg,0,10713,70-89+,2023-09-29_12h37.02.259,Recall,2021.2.3,59.87866182013777,
,SD025.jpg,0,MF025.jpg,0,,,,,0,50,50,74,imgFunc,0,NA,3.8357490999624133,312.8133895001374,316.75182472984307,2023-09-29 12:41:58.275430,2023-09-29 12:42:02.213236,SD025.jpg,0,10713,70-89+,2023-09-29_12h37.02.259,Recall,2021.2.3,59.87866182013777,
,DD015.jpg,0,FF015.jpg,0,,,,,0,51,51,14,imgFunc,0,NA,3.062408900121227,316.746682099998,319.90039273002185,2023-09-29 12:42:02.220219,2023-09-29 12:42:05.365137,DD015.jpg,0,10713,70-89+,2023-09-29_12h37.02.259,Recall,2021.2.3,59.87866182013777,
,SD019.jpg,0,MF019.jpg,0,,,,,0,52,52,68,imgFunc,9,NA,6.437564299907535,319.9075103001669,326.44663033029065,2023-09-29 12:42:05.372088,2023-09-29 12:42:11.902789,SD019.jpg,0,10713,70-89+,2023-09-29_12h37.02.259,Recall,2021.2.3,59.87866182013777,
,SD032.jpg,0,MF032.jpg,0,,,,,0,53,53,81,imgFunc,1,NA,4.041628999868408,326.45585860009305,330.608090730384,2023-09-29 12:42:11.911764,2023-09-29 12:42:16.056483,SD032.jpg,0,10713,70-89+,2023-09-29_12h37.02.259,Recall,2021.2.3,59.87866182013777,
,SD021.jpg,0,MF021.jpg,0,,,,,0,54,54,70,imgFunc,9,NA,7.620116800069809,330.6050430999603,338.3288113300223,2023-09-29 12:42:16.063467,2023-09-29 12:42:23.778924,SD021.jpg,0,10713,70-89+,2023-09-29_12h37.02.259,Recall,2021.2.3,59.87866182013777,
,SD039.jpg,0,MF039.jpg,0,,,,,0,55,55,88,imgFunc,9,NA,4.4622295999433845,338.3311125000473,342.89923215983436,2023-09-29 12:42:23.795881,2023-09-29 12:42:28.348528,SD039.jpg,0,10713,70-89+,2023-09-29_12h37.02.259,Recall,2021.2.3,59.87866182013777,
,SD007.jpg,0,MF007.jpg,0,,,,,0,56,56,56,imgFunc,1,NA,3.225091999862343,342.88801460014656,346.204729530029,2023-09-29 12:42:28.357735,2023-09-29 12:42:31.667531,SD007.jpg,0,10713,70-89+,2023-09-29_12h37.02.259,Recall,2021.2.3,59.87866182013777,
,SD003.jpg,0,MF003.jpg,0,,,,,0,57,57,52,imgFunc,1,NA,2.3877920999657363,346.21362060005777,348.7001471298281,2023-09-29 12:42:31.674534,2023-09-29 12:42:34.152972,SD003.jpg,0,10713,70-89+,2023-09-29_12h37.02.259,Recall,2021.2.3,59.87866182013777,
,DD029.jpg,0,FF029.jpg,0,,,,,0,58,58,28,imgFunc,9,NA,4.62328080018051,348.71418650005944,353.45172472973354,2023-09-29 12:42:34.160953,2023-09-29 12:42:38.889717,DD029.jpg,0,10713,70-89+,2023-09-29_12h37.02.259,Recall,2021.2.3,59.87866182013777,
,L_DD508.jpg,1,L_FF508.jpg,1,,,,,0,59,59,47,imgFunc,9,NA,5.632855299860239,353.43248710012995,359.1675149302464,2023-09-29 12:42:38.898695,2023-09-29 12:42:44.627188,L_DD508.jpg,1,10713,70-89+,2023-09-29_12h37.02.259,Recall,2021.2.3,59.87866182013777,
,DD026.jpg,0,FF026.jpg,0,,,,,0,60,60,25,imgFunc,2,NA,4.9760438001248986,359.161495000124,364.2298602301162,2023-09-29 12:42:44.636166,2023-09-29 12:42:49.697362,DD026.jpg,0,10713,70-89+,2023-09-29_12h37.02.259,Recall,2021.2.3,59.87866182013777,
,L_DD501.jpg,1,L_FF501.jpg,1,,,,,0,61,61,40,imgFunc,0,NA,4.32917009992525,364.24795340001583,368.6824511301238,2023-09-29 12:42:49.706366,2023-09-29 12:42:54.133815,L_DD501.jpg,1,10713,70-89+,2023-09-29_12h37.02.259,Recall,2021.2.3,59.87866182013777,
,SD005.jpg,0,MF005.jpg,0,,,,,0,62,62,54,imgFunc,0,NA,2.1416344000026584,368.6757031001616,370.91118132998236,2023-09-29 12:42:54.141795,2023-09-29 12:42:56.368987,SD005.jpg,0,10713,70-89+,2023-09-29_12h37.02.259,Recall,2021.2.3,59.87866182013777,
,SD040.jpg,0,MF040.jpg,0,,,,,0,63,63,89,imgFunc,9,NA,4.711721299914643,370.9135642000474,375.73437923006713,2023-09-29 12:42:56.376995,2023-09-29 12:43:01.188781,SD040.jpg,0,10713,70-89+,2023-09-29_12h37.02.259,Recall,2021.2.3,59.87866182013777,
,DD030.jpg,0,FF030.jpg,0,,,,,0,64,64,29,imgFunc,9,NA,5.011481400113553,375.74201319995336,380.8486423299182,2023-09-29 12:43:01.203774,2023-09-29 12:43:06.309280,DD030.jpg,0,10713,70-89+,2023-09-29_12h37.02.259,Recall,2021.2.3,59.87866182013777,
,L_SD509.jpg,1,L_MF509.jpg,1,,,,,0,65,65,98,imgFunc,1,NA,2.048975700046867,380.8483913000673,382.9977489300072,2023-09-29 12:43:06.318258,2023-09-29 12:43:08.461031,L_SD509.jpg,1,10713,70-89+,2023-09-29_12h37.02.259,Recall,2021.2.3,59.87866182013777,
,DD038.jpg,0,FF038.jpg,0,,,,,0,66,66,37,imgFunc,0,NA,3.070104500046,382.9949972999748,386.1646248297766,2023-09-29 12:43:08.468015,2023-09-29 12:43:11.629703,DD038.jpg,0,10713,70-89+,2023-09-29_12h37.02.259,Recall,2021.2.3,59.87866182013777,
,DD011.jpg,0,FF011.jpg,0,,,,,0,67,67,10,imgFunc,1,NA,5.438986600143835,386.1622508999426,391.68451072997414,2023-09-29 12:43:11.636679,2023-09-29 12:43:17.150601,DD011.jpg,0,10713,70-89+,2023-09-29_12h37.02.259,Recall,2021.2.3,59.87866182013777,
,DD021.jpg,0,FF021.jpg,0,,,,,0,68,68,20,imgFunc,9,NA,4.068584700115025,391.6928730001673,395.8600375300739,2023-09-29 12:43:17.159579,2023-09-29 12:43:21.319920,DD021.jpg,0,10713,70-89+,2023-09-29_12h37.02.259,Recall,2021.2.3,59.87866182013777,
,DD008.jpg,0,FF008.jpg,0,,,,,0,69,69,7,imgFunc,9,NA,5.907734099775553,395.8617199000437,401.8518975302577,2023-09-29 12:43:21.334904,2023-09-29 12:43:27.324170,DD008.jpg,0,10713,70-89+,2023-09-29_12h37.02.259,Recall,2021.2.3,59.87866182013777,
,DD004.jpg,0,FF004.jpg,0,,,,,0,70,70,3,imgFunc,0,NA,4.967450700001791,401.8660179001745,406.9343549301848,2023-09-29 12:43:27.333159,2023-09-29 12:43:32.394659,DD004.jpg,0,10713,70-89+,2023-09-29_12h37.02.259,Recall,2021.2.3,59.87866182013777,
,SD034.jpg,0,MF034.jpg,0,,,,,0,71,71,83,imgFunc,0,NA,3.762580999871716,406.9347751000896,410.7855370300822,2023-09-29 12:43:32.403659,2023-09-29 12:43:36.247425,SD034.jpg,0,10713,70-89+,2023-09-29_12h37.02.259,Recall,2021.2.3,59.87866182013777,
,DD003.jpg,0,FF003.jpg,0,,,,,0,72,72,2,imgFunc,1,NA,3.4780222999397665,410.77944600000046,414.3496235301718,2023-09-29 12:43:36.255407,2023-09-29 12:43:39.816561,DD003.jpg,0,10713,70-89+,2023-09-29_12h37.02.259,Recall,2021.2.3,59.87866182013777,
,L_SD506.jpg,1,L_MF506.jpg,1,,,,,0,73,73,95,imgFunc,1,NA,2.4428320000879467,414.36632120003924,416.91919203009456,2023-09-29 12:43:39.823544,2023-09-29 12:43:42.368165,L_SD506.jpg,1,10713,70-89+,2023-09-29_12h37.02.259,Recall,2021.2.3,59.87866182013777,
,SD035.jpg,0,MF035.jpg,0,,,,,0,74,74,84,imgFunc,2,NA,2.93096649996005,416.9104851000011,419.9332089300733,2023-09-29 12:43:42.383126,2023-09-29 12:43:45.403930,SD035.jpg,0,10713,70-89+,2023-09-29_12h37.02.259,Recall,2021.2.3,59.87866182013777,
,DD013.jpg,0,FF013.jpg,0,,,,,0,75,75,12,imgFunc,1,NA,2.717895400011912,419.9394770001527,422.7580691301264,2023-09-29 12:43:45.411911,2023-09-29 12:43:48.222592,DD013.jpg,0,10713,70-89+,2023-09-29_12h37.02.259,Recall,2021.2.3,59.87866182013777,
,SD011.jpg,0,MF011.jpg,0,,,,,0,76,76,60,imgFunc,2,NA,0.9785955999977887,422.7507927000988,423.81940823001787,2023-09-29 12:43:48.229574,2023-09-29 12:43:49.289953,SD011.jpg,0,10713,70-89+,2023-09-29_12h37.02.259,Recall,2021.2.3,59.87866182013777,
,SD012.jpg,0,MF012.jpg,0,,,,,0,77,77,61,imgFunc,9,NA,5.944541200064123,423.82462149998173,429.86399322981015,2023-09-29 12:43:49.296936,2023-09-29 12:43:55.327732,SD012.jpg,0,10713,70-89+,2023-09-29_12h37.02.259,Recall,2021.2.3,59.87866182013777,
,DD022.jpg,0,FF022.jpg,0,,,,,0,78,78,21,imgFunc,0,NA,1.488451500190422,429.88100180006586,431.4802074304316,2023-09-29 12:43:55.336712,2023-09-29 12:43:56.929117,DD022.jpg,0,10713,70-89+,2023-09-29_12h37.02.259,Recall,2021.2.3,59.87866182013777,
,L_SD502.jpg,1,L_MF502.jpg,1,,,,,0,79,79,91,imgFunc,0,NA,5.294215700123459,431.4590270000044,436.8478580296505,2023-09-29 12:43:56.936101,2023-09-29 12:44:02.316028,L_SD502.jpg,1,10713,70-89+,2023-09-29_12h37.02.259,Recall,2021.2.3,59.87866182013777,
,DD032.jpg,0,FF032.jpg,0,,,,,0,80,80,31,imgFunc,9,NA,4.8527613000478595,436.8525139000267,441.8028660300188,2023-09-29 12:44:02.326003,2023-09-29 12:44:07.269835,DD032.jpg,0,10713,70-89+,2023-09-29_12h37.02.259,Recall,2021.2.3,59.87866182013777,
,SD026.jpg,0,MF026.jpg,0,,,,,0,81,81,75,imgFunc,1,NA,1.4678532001562417,441.8215026999824,443.40400832984596,2023-09-29 12:44:07.278812,2023-09-29 12:44:08.854067,SD026.jpg,0,10713,70-89+,2023-09-29_12h37.02.259,Recall,2021.2.3,59.87866182013777,
,SD001.jpg,0,MF001.jpg,0,,,,,0,82,82,50,imgFunc,2,NA,2.104091600049287,443.4010956999846,445.6037889299914,2023-09-29 12:44:08.861050,2023-09-29 12:44:11.055487,SD001.jpg,0,10713,70-89+,2023-09-29_12h37.02.259,Recall,2021.2.3,59.87866182013777,
,DD019.jpg,0,FF019.jpg,0,,,,,0,83,83,18,imgFunc,0,NA,6.658590199891478,445.60683339997195,452.3681436297484,2023-09-29 12:44:11.068452,2023-09-29 12:44:17.827157,DD019.jpg,0,10713,70-89+,2023-09-29_12h37.02.259,Recall,2021.2.3,59.87866182013777,
,L_SD503.jpg,1,L_MF503.jpg,1,,,,,0,84,84,92,imgFunc,9,NA,5.129462499869987,452.35992700001225,457.5773637301754,2023-09-29 12:44:17.836972,2023-09-29 12:44:23.047464,L_SD503.jpg,1,10713,70-89+,2023-09-29_12h37.02.259,Recall,2021.2.3,59.87866182013777,
,DD037.jpg,0,FF037.jpg,0,,,,,0,85,85,36,imgFunc,2,NA,3.3127129999920726,457.5848670001142,460.98586973012425,2023-09-29 12:44:23.056442,2023-09-29 12:44:26.450192,DD037.jpg,0,10713,70-89+,2023-09-29_12h37.02.259,Recall,2021.2.3,59.87866182013777,
,DD001.jpg,0,FF001.jpg,0,,,,,0,86,86,0,imgFunc,9,NA,7.640936400042847,460.99228650005534,468.731950129848,2023-09-29 12:44:26.457175,2023-09-29 12:44:34.188530,DD001.jpg,0,10713,70-89+,2023-09-29_12h37.02.259,Recall,2021.2.3,59.87866182013777,
,SD024.jpg,0,MF024.jpg,0,,,,,0,87,87,73,imgFunc,9,NA,2.2479751999489963,468.7531914000865,471.1170316301286,2023-09-29 12:44:34.198471,2023-09-29 12:44:36.557150,SD024.jpg,0,10713,70-89+,2023-09-29_12h37.02.259,Recall,2021.2.3,59.87866182013777,
,L_DD506.jpg,1,L_FF506.jpg,1,,,,,0,88,88,45,imgFunc,9,NA,4.682872100034729,471.10224619996734,475.8731253296137,2023-09-29 12:44:36.573109,2023-09-29 12:44:41.343789,L_DD506.jpg,1,10713,70-89+,2023-09-29_12h37.02.259,Recall,2021.2.3,59.87866182013777,
,DD031.jpg,0,FF031.jpg,0,,,,,0,89,89,30,imgFunc,2,NA,4.9587646999862045,475.882754100021,480.935291929869,2023-09-29 12:44:41.352765,2023-09-29 12:44:46.397624,DD031.jpg,0,10713,70-89+,2023-09-29_12h37.02.259,Recall,2021.2.3,59.87866182013777,
,L_DD509.jpg,1,L_FF509.jpg,1,,,,,0,90,90,48,imgFunc,9,NA,3.712122800061479,480.9293862001505,484.7295658304356,2023-09-29 12:44:46.406601,2023-09-29 12:44:50.200215,L_DD509.jpg,1,10713,70-89+,2023-09-29_12h37.02.259,Recall,2021.2.3,59.87866182013777,
,DD033.jpg,0,FF033.jpg,0,,,,,0,91,91,32,imgFunc,2,NA,2.969640800030902,484.74376330012456,487.8140515300911,2023-09-29 12:44:50.207199,2023-09-29 12:44:53.269161,DD033.jpg,0,10713,70-89+,2023-09-29_12h37.02.259,Recall,2021.2.3,59.87866182013777,
,DD018.jpg,0,FF018.jpg,0,,,,,0,92,92,17,imgFunc,1,NA,1.3940300999674946,487.82359739998356,489.3260098302271,2023-09-29 12:44:53.277164,2023-09-29 12:44:54.770580,DD018.jpg,0,10713,70-89+,2023-09-29_12h37.02.259,Recall,2021.2.3,59.87866182013777,
,SD029.jpg,0,MF029.jpg,0,,,,,0,93,93,78,imgFunc,2,NA,3.091658500023186,489.3178171000909,492.50673913024366,2023-09-29 12:44:54.785542,2023-09-29 12:44:57.972404,SD029.jpg,0,10713,70-89+,2023-09-29_12h37.02.259,Recall,2021.2.3,59.87866182013777,
,SD023.jpg,0,MF023.jpg,0,,,,,0,94,94,72,imgFunc,2,NA,2.1283994000405073,492.50469400011934,494.72412983025424,2023-09-29 12:44:57.980366,2023-09-29 12:45:00.190637,SD023.jpg,0,10713,70-89+,2023-09-29_12h37.02.259,Recall,2021.2.3,59.87866182013777,
,DD009.jpg,0,FF009.jpg,0,,,,,0,95,95,8,imgFunc,1,NA,1.6512608998455107,494.72597900009714,496.479209830286,2023-09-29 12:45:00.197621,2023-09-29 12:45:01.942757,DD009.jpg,0,10713,70-89+,2023-09-29_12h37.02.259,Recall,2021.2.3,59.87866182013777,
,L_DD510.jpg,1,L_FF510.jpg,1,,,,,0,96,96,49,imgFunc,1,NA,4.5210281000472605,496.48050560010597,501.10125673003495,2023-09-29 12:45:01.949740,2023-09-29 12:45:06.562040,L_DD510.jpg,1,10713,70-89+,2023-09-29_12h37.02.259,Recall,2021.2.3,59.87866182013777,
,SD015.jpg,0,MF015.jpg,0,,,,,0,97,97,64,imgFunc,9,NA,2.932987199863419,501.1323506999761,504.1997882297728,2023-09-29 12:45:06.571025,2023-09-29 12:45:09.631448,SD015.jpg,0,10713,70-89+,2023-09-29_12h37.02.259,Recall,2021.2.3,59.87866182013777,
,L_SD507.jpg,1,L_MF507.jpg,1,,,,,0,98,98,96,imgFunc,0,NA,4.024823700077832,504.1683655001689,508.28541353018954,2023-09-29 12:45:09.640425,2023-09-29 12:45:13.750570,L_SD507.jpg,1,10713,70-89+,2023-09-29_12h37.02.259,Recall,2021.2.3,59.87866182013777,
,DD007.jpg,0,FF007.jpg,0,,,,,0,99,99,6,imgFunc,9,NA,2.489583200076595,508.2878670000937,510.8746917301323,2023-09-29 12:45:13.757553,2023-09-29 12:45:16.335965,DD007.jpg,0,10713,70-89+,2023-09-29_12h37.02.259,Recall,2021.2.3,59.87866182013777,
,,,,,,,,,,,,,instrFunc,space,"Great work! 

 Now you will switch to the other image type.

 Press the spacebar whenever you are ready to start.",6.005929999984801,510.80334380012937,516.8543789300602,2023-09-29 12:45:16.336965,2023-09-29 12:45:22.372164,,,10713,70-89+,2023-09-29_12h37.02.259,Recall,2021.2.3,59.87866182013777,
,SD023.jpg,0,MF023.jpg,0,,,,,0,0,0,72,imgFunc,2,NA,32.623923500068486,516.9375351001509,549.653755259933,2023-09-29 12:45:22.401088,2023-09-29 12:45:55.113775,MF023.jpg,0,10713,70-89+,2023-09-29_12h37.02.259,Recall,2021.2.3,59.87866182013777,
,SD026.jpg,0,MF026.jpg,0,,,,,0,1,1,75,imgFunc,2,NA,1.8777847001329064,549.6756533000153,551.6717491301242,2023-09-29 12:45:55.124748,2023-09-29 12:45:57.114877,MF026.jpg,0,10713,70-89+,2023-09-29_12h37.02.259,Recall,2021.2.3,59.87866182013777,
,DD001.jpg,0,FF001.jpg,0,,,,,0,2,2,0,imgFunc,1,NA,2.8844998001586646,551.6608148000669,554.6479389299639,2023-09-29 12:45:57.121860,2023-09-29 12:46:00.099643,FF001.jpg,0,10713,70-89+,2023-09-29_12h37.02.259,Recall,2021.2.3,59.87866182013777,
,SD016.jpg,0,MF016.jpg,0,,,,,0,3,3,65,imgFunc,1,NA,1.4922032000031322,554.6532819001004,556.2405799301341,2023-09-29 12:46:00.115574,2023-09-29 12:46:01.701706,MF016.jpg,0,10713,70-89+,2023-09-29_12h37.02.259,Recall,2021.2.3,59.87866182013777,
,DD007.jpg,0,FF007.jpg,0,,,,,0,4,4,6,imgFunc,9,NA,2.911373500013724,556.2502087999601,559.2714990298264,2023-09-29 12:46:01.708689,2023-09-29 12:46:04.721290,FF007.jpg,0,10713,70-89+,2023-09-29_12h37.02.259,Recall,2021.2.3,59.87866182013777,
,SD013.jpg,0,MF013.jpg,0,,,,,0,5,5,62,imgFunc,9,NA,2.6904347999952734,559.2549976999871,562.0407830297481,2023-09-29 12:46:04.729293,2023-09-29 12:46:07.506030,MF013.jpg,0,10713,70-89+,2023-09-29_12h37.02.259,Recall,2021.2.3,59.87866182013777,
,SD012.jpg,0,MF012.jpg,0,,,,,0,6,6,61,imgFunc,2,NA,2.429473599884659,562.0437457000371,564.5634389300831,2023-09-29 12:46:07.513500,2023-09-29 12:46:10.023920,MF012.jpg,0,10713,70-89+,2023-09-29_12h37.02.259,Recall,2021.2.3,59.87866182013777,
,L_SD510.jpg,1,L_MF510.jpg,1,,,,,0,7,7,99,imgFunc,9,NA,2.525892599951476,564.5954039001372,567.2428265300114,2023-09-29 12:46:10.034888,2023-09-29 12:46:12.676202,L_MF510.jpg,1,10713,70-89+,2023-09-29_12h37.02.259,Recall,2021.2.3,59.87866182013777,
,L_DD507.jpg,1,L_FF507.jpg,1,,,,,0,8,8,46,imgFunc,1,NA,2.985240099951625,567.2159653999843,570.3033982301131,2023-09-29 12:46:12.683185,2023-09-29 12:46:15.761751,L_FF507.jpg,1,10713,70-89+,2023-09-29_12h37.02.259,Recall,2021.2.3,59.87866182013777,
,DD025.jpg,0,FF025.jpg,0,,,,,0,9,9,24,imgFunc,1,NA,1.551048900000751,570.3065120000392,571.9587533301674,2023-09-29 12:46:15.768734,2023-09-29 12:46:17.412703,FF025.jpg,0,10713,70-89+,2023-09-29_12h37.02.259,Recall,2021.2.3,59.87866182013777,
,L_DD509.jpg,1,L_FF509.jpg,1,,,,,0,10,10,48,imgFunc,1,NA,2.8662306999322027,571.9670876001474,574.9536568301264,2023-09-29 12:46:17.420711,2023-09-29 12:46:20.397997,L_FF509.jpg,1,10713,70-89+,2023-09-29_12h37.02.259,Recall,2021.2.3,59.87866182013777,
,SD017.jpg,0,MF017.jpg,0,,,,,0,11,11,66,imgFunc,2,NA,3.102105500176549,574.9633448000532,578.1790961297229,2023-09-29 12:46:20.407968,2023-09-29 12:46:23.617744,MF017.jpg,0,10713,70-89+,2023-09-29_12h37.02.259,Recall,2021.2.3,59.87866182013777,
,SD039.jpg,0,MF039.jpg,0,,,,,0,12,12,88,imgFunc,1,NA,2.3285409999080002,578.1687964999583,580.5929714296944,2023-09-29 12:46:23.630711,2023-09-29 12:46:26.052711,MF039.jpg,0,10713,70-89+,2023-09-29_12h37.02.259,Recall,2021.2.3,59.87866182013777,
,DD023.jpg,0,FF023.jpg,0,,,,,0,13,13,22,imgFunc,2,NA,2.472063499968499,580.6093598001171,583.1959946299903,2023-09-29 12:46:26.059694,2023-09-29 12:46:28.637921,FF023.jpg,0,10713,70-89+,2023-09-29_12h37.02.259,Recall,2021.2.3,59.87866182013777,
,L_SD504.jpg,1,L_MF504.jpg,1,,,,,0,14,14,93,imgFunc,1,NA,2.8158623999916017,583.1853744001128,586.1050733302254,2023-09-29 12:46:28.644904,2023-09-29 12:46:31.556409,L_MF504.jpg,1,10713,70-89+,2023-09-29_12h37.02.259,Recall,2021.2.3,59.87866182013777,
,SD006.jpg,0,MF006.jpg,0,,,,,0,15,15,55,imgFunc,2,NA,3.140406700083986,586.092978599947,589.3303648300935,2023-09-29 12:46:31.563392,2023-09-29 12:46:34.792112,MF006.jpg,0,10713,70-89+,2023-09-29_12h37.02.259,Recall,2021.2.3,59.87866182013777,
,SD018.jpg,0,MF018.jpg,0,,,,,0,16,16,67,imgFunc,1,NA,3.370356800034642,589.3348974001128,592.8028673301451,2023-09-29 12:46:34.800093,2023-09-29 12:46:38.260208,MF018.jpg,0,10713,70-89+,2023-09-29_12h37.02.259,Recall,2021.2.3,59.87866182013777,
,DD033.jpg,0,FF033.jpg,0,,,,,0,17,17,32,imgFunc,1,NA,2.303378999931738,592.825838400051,595.2459793300368,2023-09-29 12:46:38.276196,2023-09-29 12:46:40.695926,FF033.jpg,0,10713,70-89+,2023-09-29_12h37.02.259,Recall,2021.2.3,59.87866182013777,
,L_SD509.jpg,1,L_MF509.jpg,1,,,,,0,18,18,98,imgFunc,2,NA,3.124223800143227,595.2374098000582,598.457686729962,2023-09-29 12:46:40.703905,2023-09-29 12:46:43.915440,L_MF509.jpg,1,10713,70-89+,2023-09-29_12h37.02.259,Recall,2021.2.3,59.87866182013777,
,SD020.jpg,0,MF020.jpg,0,,,,,0,19,19,69,imgFunc,2,NA,1.8354054999072105,598.4540697999764,600.3896163296886,2023-09-29 12:46:43.922423,2023-09-29 12:46:45.849803,MF020.jpg,0,10713,70-89+,2023-09-29_12h37.02.259,Recall,2021.2.3,59.87866182013777,
,L_DD503.jpg,1,L_FF503.jpg,1,,,,,0,20,20,42,imgFunc,2,NA,2.916739299893379,600.4044091999531,603.4411640297621,2023-09-29 12:46:45.857804,2023-09-29 12:46:48.885824,L_FF503.jpg,1,10713,70-89+,2023-09-29_12h37.02.259,Recall,2021.2.3,59.87866182013777,
,DD035.jpg,0,FF035.jpg,0,,,,,0,21,21,34,imgFunc,2,NA,4.053431500215083,603.4441582001746,607.6129271301907,2023-09-29 12:46:48.893825,2023-09-29 12:46:53.055412,FF035.jpg,0,10713,70-89+,2023-09-29_12h37.02.259,Recall,2021.2.3,59.87866182013777,
,SD010.jpg,0,MF010.jpg,0,,,,,0,22,22,59,imgFunc,9,NA,3.4652897999621928,607.5922394001391,611.1626327303238,2023-09-29 12:46:53.062396,2023-09-29 12:46:56.624363,MF010.jpg,0,10713,70-89+,2023-09-29_12h37.02.259,Recall,2021.2.3,59.87866182013777,
,L_SD507.jpg,1,L_MF507.jpg,1,,,,,0,23,23,96,imgFunc,0,NA,2.5906760999932885,611.1788129000925,613.8805910302326,2023-09-29 12:46:56.632343,2023-09-29 12:46:59.326262,L_MF507.jpg,1,10713,70-89+,2023-09-29_12h37.02.259,Recall,2021.2.3,59.87866182013777,
,SD038.jpg,0,MF038.jpg,0,,,,,0,24,24,87,imgFunc,0,NA,1.804367900127545,613.8771709001157,615.7964614301454,2023-09-29 12:46:59.333245,2023-09-29 12:47:01.244250,MF038.jpg,0,10713,70-89+,2023-09-29_12h37.02.259,Recall,2021.2.3,59.87866182013777,
,SD011.jpg,0,MF011.jpg,0,,,,,0,25,25,60,imgFunc,9,NA,2.5850651999935508,615.7923753999639,618.479262429988,2023-09-29 12:47:01.251234,2023-09-29 12:47:03.929795,MF011.jpg,0,10713,70-89+,2023-09-29_12h37.02.259,Recall,2021.2.3,59.87866182013777,
,DD010.jpg,0,FF010.jpg,0,,,,,0,26,26,9,imgFunc,1,NA,2.2154280999675393,618.4900520001538,620.8111833299045,2023-09-29 12:47:03.944757,2023-09-29 12:47:06.264556,FF010.jpg,0,10713,70-89+,2023-09-29_12h37.02.259,Recall,2021.2.3,59.87866182013777,
,SD028.jpg,0,MF028.jpg,0,,,,,0,27,27,77,imgFunc,2,NA,3.2653161000926048,620.8080419001635,624.1778632304631,2023-09-29 12:47:06.272561,2023-09-29 12:47:09.633719,MF028.jpg,0,10713,70-89+,2023-09-29_12h37.02.259,Recall,2021.2.3,59.87866182013777,
,DD027.jpg,0,FF027.jpg,0,,,,,0,28,28,26,imgFunc,1,NA,2.308479599887505,624.1807179001626,626.6001853300259,2023-09-29 12:47:09.640702,2023-09-29 12:47:12.052045,FF027.jpg,0,10713,70-89+,2023-09-29_12h37.02.259,Recall,2021.2.3,59.87866182013777,
,L_DD502.jpg,1,L_FF502.jpg,1,,,,,0,29,29,41,imgFunc,9,NA,2.85302700009197,626.5963586000726,629.5498794298619,2023-09-29 12:47:12.059025,2023-09-29 12:47:15.004410,L_FF502.jpg,1,10713,70-89+,2023-09-29_12h37.02.259,Recall,2021.2.3,59.87866182013777,
,SD009.jpg,0,MF009.jpg,0,,,,,0,30,30,58,imgFunc,1,NA,3.1947846999391913,629.5586618001107,632.8608895305078,2023-09-29 12:47:15.012390,2023-09-29 12:47:18.306734,MF009.jpg,0,10713,70-89+,2023-09-29_12h37.02.259,Recall,2021.2.3,59.87866182013777,
,DD029.jpg,0,FF029.jpg,0,,,,,0,31,31,28,imgFunc,2,NA,2.0668969999533147,632.8708043000661,635.0396810304374,2023-09-29 12:47:18.322693,2023-09-29 12:47:20.491684,FF029.jpg,0,10713,70-89+,2023-09-29_12h37.02.259,Recall,2021.2.3,59.87866182013777,
,DD005.jpg,0,FF005.jpg,0,,,,,0,32,32,4,imgFunc,1,NA,3.1414667000062764,635.0357562999707,638.2896055299789,2023-09-29 12:47:20.498668,2023-09-29 12:47:23.743817,FF005.jpg,0,10713,70-89+,2023-09-29_12h37.02.259,Recall,2021.2.3,59.87866182013777,
,SD003.jpg,0,MF003.jpg,0,,,,,0,33,33,52,imgFunc,9,NA,3.911451800027862,638.2819843001198,642.2858151302207,2023-09-29 12:47:23.750800,2023-09-29 12:47:27.746627,MF003.jpg,0,10713,70-89+,2023-09-29_12h37.02.259,Recall,2021.2.3,59.87866182013777,
,DD018.jpg,0,FF018.jpg,0,,,,,0,34,34,17,imgFunc,2,NA,1.861013799905777,642.3003487000242,644.2704162299633,2023-09-29 12:47:27.753610,2023-09-29 12:47:29.715179,FF018.jpg,0,10713,70-89+,2023-09-29_12h37.02.259,Recall,2021.2.3,59.87866182013777,
,SD004.jpg,0,MF004.jpg,0,,,,,0,35,35,53,imgFunc,2,NA,2.920614499831572,644.2729511000216,647.3096436299384,2023-09-29 12:47:29.722162,2023-09-29 12:47:32.750299,MF004.jpg,0,10713,70-89+,2023-09-29_12h37.02.259,Recall,2021.2.3,59.87866182013777,
,SD002.jpg,0,MF002.jpg,0,,,,,0,36,36,51,imgFunc,2,NA,1.3605590001679957,647.3129557999782,648.7945774598047,2023-09-29 12:47:32.768253,2023-09-29 12:47:34.234576,MF002.jpg,0,10713,70-89+,2023-09-29_12h37.02.259,Recall,2021.2.3,59.87866182013777,
,L_SD506.jpg,1,L_MF506.jpg,1,,,,,0,37,37,95,imgFunc,0,NA,3.914842100115493,648.7746260999702,652.7955951301847,2023-09-29 12:47:34.241582,2023-09-29 12:47:38.254376,L_MF506.jpg,1,10713,70-89+,2023-09-29_12h37.02.259,Recall,2021.2.3,59.87866182013777,
,SD014.jpg,0,MF014.jpg,0,,,,,0,38,38,63,imgFunc,1,NA,2.0571447000838816,652.8080714000389,654.9767101299949,2023-09-29 12:47:38.262356,2023-09-29 12:47:40.422399,MF014.jpg,0,10713,70-89+,2023-09-29_12h37.02.259,Recall,2021.2.3,59.87866182013777,
,DD034.jpg,0,FF034.jpg,0,,,,,0,39,39,33,imgFunc,2,NA,3.630428599892184,654.9711506001186,658.7081153304316,2023-09-29 12:47:40.430373,2023-09-29 12:47:44.158408,FF034.jpg,0,10713,70-89+,2023-09-29_12h37.02.259,Recall,2021.2.3,59.87866182013777,
,SD001.jpg,0,MF001.jpg,0,,,,,0,40,40,50,imgFunc,2,NA,2.4071100999135524,658.7063641001005,661.2244481300004,2023-09-29 12:47:44.166394,2023-09-29 12:47:46.677071,MF001.jpg,0,10713,70-89+,2023-09-29_12h37.02.259,Recall,2021.2.3,59.87866182013777,
,DD013.jpg,0,FF013.jpg,0,,,,,0,41,41,12,imgFunc,1,NA,1.9147298000752926,661.2227628000546,663.242498930078,2023-09-29 12:47:46.684054,2023-09-29 12:47:48.695046,FF013.jpg,0,10713,70-89+,2023-09-29_12h37.02.259,Recall,2021.2.3,59.87866182013777,
,DD019.jpg,0,FF019.jpg,0,,,,,0,42,42,18,imgFunc,1,NA,1.8218647001776844,663.2436369999778,665.1793875300791,2023-09-29 12:47:48.703027,2023-09-29 12:47:50.629910,FF019.jpg,0,10713,70-89+,2023-09-29_12h37.02.259,Recall,2021.2.3,59.87866182013777,
,SD033.jpg,0,MF033.jpg,0,,,,,0,43,43,82,imgFunc,1,NA,4.766779900062829,665.1787356999703,670.0504008296411,2023-09-29 12:47:50.637891,2023-09-29 12:47:55.500603,MF033.jpg,0,10713,70-89+,2023-09-29_12h37.02.259,Recall,2021.2.3,59.87866182013777,
,L_SD505.jpg,1,L_MF505.jpg,1,,,,,0,44,44,94,imgFunc,1,NA,1.7371481000445783,670.0641266000457,671.9298119300511,2023-09-29 12:47:55.509581,2023-09-29 12:47:57.368040,L_MF505.jpg,1,10713,70-89+,2023-09-29_12h37.02.259,Recall,2021.2.3,59.87866182013777,
,DD040.jpg,0,FF040.jpg,0,,,,,0,45,45,39,imgFunc,2,NA,3.0687537000048906,671.948591100052,675.1384871299379,2023-09-29 12:47:57.382005,2023-09-29 12:48:00.570441,FF040.jpg,0,10713,70-89+,2023-09-29_12h37.02.259,Recall,2021.2.3,59.87866182013777,
,L_SD501.jpg,1,L_MF501.jpg,1,,,,,0,46,46,90,imgFunc,9,NA,4.451608200091869,675.109737599967,679.6640290301293,2023-09-29 12:48:00.577424,2023-09-29 12:48:05.123653,L_MF501.jpg,1,10713,70-89+,2023-09-29_12h37.02.259,Recall,2021.2.3,59.87866182013777,
,SD027.jpg,0,MF027.jpg,0,,,,,0,47,47,76,imgFunc,9,NA,2.1123699999880046,679.6652506000828,681.8817111300305,2023-09-29 12:48:05.132630,2023-09-29 12:48:07.341695,MF027.jpg,0,10713,70-89+,2023-09-29_12h37.02.259,Recall,2021.2.3,59.87866182013777,
,DD021.jpg,0,FF021.jpg,0,,,,,0,48,48,20,imgFunc,0,NA,2.7027483999263495,681.9067606001627,684.7418258301914,2023-09-29 12:48:07.349700,2023-09-29 12:48:10.176790,FF021.jpg,0,10713,70-89+,2023-09-29_12h37.02.259,Recall,2021.2.3,59.87866182013777,
,SD005.jpg,0,MF005.jpg,0,,,,,0,49,49,54,imgFunc,0,NA,2.605162400053814,684.7164032000583,687.4203584303614,2023-09-29 12:48:10.183801,2023-09-29 12:48:12.879399,MF005.jpg,0,10713,70-89+,2023-09-29_12h37.02.259,Recall,2021.2.3,59.87866182013777,
,SD036.jpg,0,MF036.jpg,0,,,,,0,50,50,85,imgFunc,9,NA,2.487716000061482,687.4338714999612,690.0207954302896,2023-09-29 12:48:12.894361,2023-09-29 12:48:15.480938,MF036.jpg,0,10713,70-89+,2023-09-29_12h37.02.259,Recall,2021.2.3,59.87866182013777,
,L_DD504.jpg,1,L_FF504.jpg,1,,,,,0,51,51,43,imgFunc,2,NA,1.7824357999488711,690.0349012000952,691.9378958300222,2023-09-29 12:48:15.487921,2023-09-29 12:48:17.382207,L_FF504.jpg,1,10713,70-89+,2023-09-29_12h37.02.259,Recall,2021.2.3,59.87866182013777,
,L_SD503.jpg,1,L_MF503.jpg,1,,,,,0,52,52,92,imgFunc,2,NA,2.6619261000305414,691.9235539000947,694.6933852299117,2023-09-29 12:48:17.389213,2023-09-29 12:48:20.150828,L_MF503.jpg,1,10713,70-89+,2023-09-29_12h37.02.259,Recall,2021.2.3,59.87866182013777,
,DD002.jpg,0,FF002.jpg,0,,,,,0,53,53,1,imgFunc,1,NA,1.335891499882564,694.697584999958,696.1334167297464,2023-09-29 12:48:20.158808,2023-09-29 12:48:21.585572,FF002.jpg,0,10713,70-89+,2023-09-29_12h37.02.259,Recall,2021.2.3,59.87866182013777,
,DD032.jpg,0,FF032.jpg,0,,,,,0,54,54,31,imgFunc,1,NA,2.1772461000364274,696.1443064000923,698.4469391300809,2023-09-29 12:48:21.592555,2023-09-29 12:48:23.886997,FF032.jpg,0,10713,70-89+,2023-09-29_12h37.02.259,Recall,2021.2.3,59.87866182013777,
,SD029.jpg,0,MF029.jpg,0,,,,,0,55,55,78,imgFunc,1,NA,1.8416980998590589,698.4318707999773,700.3841075298842,2023-09-29 12:48:23.894977,2023-09-29 12:48:25.838314,MF029.jpg,0,10713,70-89+,2023-09-29_12h37.02.259,Recall,2021.2.3,59.87866182013777,
,SD007.jpg,0,MF007.jpg,0,,,,,0,56,56,56,imgFunc,2,NA,3.090465300017968,700.3830114000011,703.5863118302077,2023-09-29 12:48:25.846294,2023-09-29 12:48:29.040674,MF007.jpg,0,10713,70-89+,2023-09-29_12h37.02.259,Recall,2021.2.3,59.87866182013777,
,DD024.jpg,0,FF024.jpg,0,,,,,0,57,57,23,imgFunc,1,NA,3.8089226000010967,703.5845186000224,707.5048593301326,2023-09-29 12:48:29.048654,2023-09-29 12:48:32.960326,FF024.jpg,0,10713,70-89+,2023-09-29_12h37.02.259,Recall,2021.2.3,59.87866182013777,
,DD037.jpg,0,FF037.jpg,0,,,,,0,58,58,36,imgFunc,9,NA,2.204740999964997,707.5167884000111,709.8357357298955,2023-09-29 12:48:32.968307,2023-09-29 12:48:35.278364,FF037.jpg,0,10713,70-89+,2023-09-29_12h37.02.259,Recall,2021.2.3,59.87866182013777,
,SD015.jpg,0,MF015.jpg,0,,,,,0,59,59,64,imgFunc,0,NA,2.2141485000029206,709.8352880999446,712.1581901300233,2023-09-29 12:48:35.292329,2023-09-29 12:48:37.613503,MF015.jpg,0,10713,70-89+,2023-09-29_12h37.02.259,Recall,2021.2.3,59.87866182013777,
,DD036.jpg,0,FF036.jpg,0,,,,,0,60,60,35,imgFunc,9,NA,2.826417500153184,712.1668754001148,715.1034229302313,2023-09-29 12:48:37.620486,2023-09-29 12:48:40.548495,FF036.jpg,0,10713,70-89+,2023-09-29_12h37.02.259,Recall,2021.2.3,59.87866182013777,
,DD026.jpg,0,FF026.jpg,0,,,,,0,61,61,25,imgFunc,1,NA,2.098964400123805,715.0945982001722,717.2970572302584,2023-09-29 12:48:40.556477,2023-09-29 12:48:42.750505,FF026.jpg,0,10713,70-89+,2023-09-29_12h37.02.259,Recall,2021.2.3,59.87866182013777,
,SD032.jpg,0,MF032.jpg,0,,,,,0,62,62,81,imgFunc,9,NA,4.346510000061244,717.286815200001,721.72338612983,2023-09-29 12:48:42.758507,2023-09-29 12:48:47.186770,MF032.jpg,0,10713,70-89+,2023-09-29_12h37.02.259,Recall,2021.2.3,59.87866182013777,
,DD016.jpg,0,FF016.jpg,0,,,,,0,63,63,15,imgFunc,1,NA,4.228477600030601,721.7651450999547,726.1350029297173,2023-09-29 12:48:47.194750,2023-09-29 12:48:51.556826,FF016.jpg,0,10713,70-89+,2023-09-29_12h37.02.259,Recall,2021.2.3,59.87866182013777,
,SD031.jpg,0,MF031.jpg,0,,,,,0,64,64,80,imgFunc,2,NA,2.5991253999527544,726.1147609001491,728.81948532979,2023-09-29 12:48:51.571788,2023-09-29 12:48:54.275645,MF031.jpg,0,10713,70-89+,2023-09-29_12h37.02.259,Recall,2021.2.3,59.87866182013777,
,SD035.jpg,0,MF035.jpg,0,,,,,0,65,65,84,imgFunc,9,NA,2.6893298998475075,728.8160598999821,731.6024412298575,2023-09-29 12:48:54.282628,2023-09-29 12:48:57.060872,MF035.jpg,0,10713,70-89+,2023-09-29_12h37.02.259,Recall,2021.2.3,59.87866182013777,
,SD022.jpg,0,MF022.jpg,0,,,,,0,66,66,71,imgFunc,0,NA,3.1060037999413908,731.6072709001601,734.8270031299908,2023-09-29 12:48:57.068853,2023-09-29 12:49:00.279721,MF022.jpg,0,10713,70-89+,2023-09-29_12h37.02.259,Recall,2021.2.3,59.87866182013777,
,SD021.jpg,0,MF021.jpg,0,,,,,0,67,67,70,imgFunc,2,NA,3.0329555000644177,734.8247068000492,737.9618032299913,2023-09-29 12:49:00.286704,2023-09-29 12:49:03.415242,MF021.jpg,0,10713,70-89+,2023-09-29_12h37.02.259,Recall,2021.2.3,59.87866182013777,
,SD037.jpg,0,MF037.jpg,0,,,,,0,68,68,86,imgFunc,0,NA,4.216822599992156,737.9767228001729,742.3135513302404,2023-09-29 12:49:03.423036,2023-09-29 12:49:07.751758,MF037.jpg,0,10713,70-89+,2023-09-29_12h37.02.259,Recall,2021.2.3,59.87866182013777,
,SD025.jpg,0,MF025.jpg,0,,,,,0,69,69,74,imgFunc,2,NA,2.582990099908784,742.2983252999838,744.9828022297006,2023-09-29 12:49:07.759767,2023-09-29 12:49:10.436325,MF025.jpg,0,10713,70-89+,2023-09-29_12h37.02.259,Recall,2021.2.3,59.87866182013777,
,SD019.jpg,0,MF019.jpg,0,,,,,0,70,70,68,imgFunc,2,NA,2.3629313001874834,744.9745394000784,747.4437035301235,2023-09-29 12:49:10.444305,2023-09-29 12:49:12.905553,MF019.jpg,0,10713,70-89+,2023-09-29_12h37.02.259,Recall,2021.2.3,59.87866182013777,
,DD014.jpg,0,FF014.jpg,0,,,,,0,71,71,13,imgFunc,1,NA,1.6715788000728935,747.4498340000864,749.2186041299719,2023-09-29 12:49:12.913534,2023-09-29 12:49:14.673534,FF014.jpg,0,10713,70-89+,2023-09-29_12h37.02.259,Recall,2021.2.3,59.87866182013777,
,DD022.jpg,0,FF022.jpg,0,,,,,0,72,72,21,imgFunc,1,NA,1.6231525000184774,749.2343324001413,750.9863777302671,2023-09-29 12:49:14.681514,2023-09-29 12:49:16.424579,FF022.jpg,0,10713,70-89+,2023-09-29_12h37.02.259,Recall,2021.2.3,59.87866182013777,
,L_SD508.jpg,1,L_MF508.jpg,1,,,,,0,73,73,97,imgFunc,9,NA,5.0910602998919785,750.9825391001068,756.1728506302461,2023-09-29 12:49:16.439423,2023-09-29 12:49:21.628638,L_MF508.jpg,1,10713,70-89+,2023-09-29_12h37.02.259,Recall,2021.2.3,59.87866182013777,
,DD015.jpg,0,FF015.jpg,0,,,,,0,74,74,14,imgFunc,1,NA,4.8423993000760674,756.1831339001656,761.1343851301353,2023-09-29 12:49:21.637616,2023-09-29 12:49:26.582031,FF015.jpg,0,10713,70-89+,2023-09-29_12h37.02.259,Recall,2021.2.3,59.87866182013777,
,SD030.jpg,0,MF030.jpg,0,,,,,0,75,75,79,imgFunc,2,NA,2.175745700020343,761.137606299948,763.4200377298985,2023-09-29 12:49:26.592007,2023-09-29 12:49:28.867460,MF030.jpg,0,10713,70-89+,2023-09-29_12h37.02.259,Recall,2021.2.3,59.87866182013777,
,DD004.jpg,0,FF004.jpg,0,,,,,0,76,76,3,imgFunc,9,NA,2.943795299855992,763.433751600096,766.5023165303282,2023-09-29 12:49:28.875440,2023-09-29 12:49:31.935760,FF004.jpg,0,10713,70-89+,2023-09-29_12h37.02.259,Recall,2021.2.3,59.87866182013777,
,SD034.jpg,0,MF034.jpg,0,,,,,0,77,77,83,imgFunc,0,NA,2.191544699948281,766.482284600148,768.7850794300903,2023-09-29 12:49:31.942742,2023-09-29 12:49:34.237350,MF034.jpg,0,10713,70-89+,2023-09-29_12h37.02.259,Recall,2021.2.3,59.87866182013777,
,SD008.jpg,0,MF008.jpg,0,,,,,0,78,78,57,imgFunc,2,NA,2.7498619998805225,768.7875735999551,771.6265587301459,2023-09-29 12:49:34.252312,2023-09-29 12:49:37.089558,MF008.jpg,0,10713,70-89+,2023-09-29_12h37.02.259,Recall,2021.2.3,59.87866182013777,
,DD012.jpg,0,FF012.jpg,0,,,,,0,79,79,11,imgFunc,2,NA,3.2690625998657197,771.6442607999779,775.0285165300593,2023-09-29 12:49:37.098536,2023-09-29 12:49:40.474766,FF012.jpg,0,10713,70-89+,2023-09-29_12h37.02.259,Recall,2021.2.3,59.87866182013777,
,DD017.jpg,0,FF017.jpg,0,,,,,0,80,80,16,imgFunc,2,NA,5.758655200013891,775.0271082001273,780.8988669300452,2023-09-29 12:49:40.482744,2023-09-29 12:49:46.345686,FF017.jpg,0,10713,70-89+,2023-09-29_12h37.02.259,Recall,2021.2.3,59.87866182013777,
,L_SD502.jpg,1,L_MF502.jpg,1,,,,,0,81,81,91,imgFunc,0,NA,2.7649733999278396,780.908719799947,783.7896604298148,2023-09-29 12:49:46.355623,2023-09-29 12:49:49.230777,L_MF502.jpg,1,10713,70-89+,2023-09-29_12h37.02.259,Recall,2021.2.3,59.87866182013777,
,DD020.jpg,0,FF020.jpg,0,,,,,0,82,82,19,imgFunc,2,NA,2.7127707998733968,783.792886100011,786.6287734301295,2023-09-29 12:49:49.238786,2023-09-29 12:49:52.066766,FF020.jpg,0,10713,70-89+,2023-09-29_12h37.02.259,Recall,2021.2.3,59.87866182013777,
,SD024.jpg,0,MF024.jpg,0,,,,,0,83,83,73,imgFunc,0,NA,1.6099936000537127,786.6156695999671,788.3347037301864,2023-09-29 12:49:52.073775,2023-09-29 12:49:53.784628,MF024.jpg,0,10713,70-89+,2023-09-29_12h37.02.259,Recall,2021.2.3,59.87866182013777,
,SD040.jpg,0,MF040.jpg,0,,,,,0,84,84,89,imgFunc,0,NA,4.849712699884549,788.3359850000124,793.2891090298072,2023-09-29 12:49:53.793606,2023-09-29 12:49:58.738270,MF040.jpg,0,10713,70-89+,2023-09-29_12h37.02.259,Recall,2021.2.3,59.87866182013777,
,DD009.jpg,0,FF009.jpg,0,,,,,0,85,85,8,imgFunc,2,NA,3.5894190000835806,793.3003461000044,797.0165127301589,2023-09-29 12:49:58.748247,2023-09-29 12:50:02.457397,FF009.jpg,0,10713,70-89+,2023-09-29_12h37.02.259,Recall,2021.2.3,59.87866182013777,
,L_DD501.jpg,1,L_FF501.jpg,1,,,,,0,86,86,40,imgFunc,1,NA,1.524418099783361,797.013290700037,798.6491228297818,2023-09-29 12:50:02.465376,2023-09-29 12:50:04.092662,L_FF501.jpg,1,10713,70-89+,2023-09-29_12h37.02.259,Recall,2021.2.3,59.87866182013777,
,DD039.jpg,0,FF039.jpg,0,,,,,0,87,87,38,imgFunc,9,NA,2.5771516000386328,798.6646652000491,801.3664115597494,2023-09-29 12:50:04.108621,2023-09-29 12:50:06.793841,FF039.jpg,0,10713,70-89+,2023-09-29_12h37.02.259,Recall,2021.2.3,59.87866182013777,
,DD028.jpg,0,FF028.jpg,0,,,,,0,88,88,27,imgFunc,2,NA,10.939108999911696,801.3506867000833,812.408448030008,2023-09-29 12:50:06.801850,2023-09-29 12:50:17.851229,FF028.jpg,0,10713,70-89+,2023-09-29_12h37.02.259,Recall,2021.2.3,59.87866182013777,
,DD008.jpg,0,FF008.jpg,0,,,,,0,89,89,7,imgFunc,9,NA,10.16399580007419,812.4378454000689,822.7431242296007,2023-09-29 12:50:17.861215,2023-09-29 12:50:28.159493,FF008.jpg,0,10713,70-89+,2023-09-29_12h37.02.259,Recall,2021.2.3,59.87866182013777,
,DD031.jpg,0,FF031.jpg,0,,,,,0,90,90,30,imgFunc,2,NA,1.2776948001701385,822.7317403999623,824.1459992302116,2023-09-29 12:50:28.169482,2023-09-29 12:50:29.577179,FF031.jpg,0,10713,70-89+,2023-09-29_12h37.02.259,Recall,2021.2.3,59.87866182013777,
,L_DD508.jpg,1,L_FF508.jpg,1,,,,,0,91,91,47,imgFunc,1,NA,2.75162380002439,824.1379977001343,827.0071872302797,2023-09-29 12:50:29.585159,2023-09-29 12:50:32.445437,L_FF508.jpg,1,10713,70-89+,2023-09-29_12h37.02.259,Recall,2021.2.3,59.87866182013777,
,DD006.jpg,0,FF006.jpg,0,,,,,0,92,92,5,imgFunc,1,NA,4.530137800145894,827.0155420999508,831.6676589597482,2023-09-29 12:50:32.463406,2023-09-29 12:50:37.099585,FF006.jpg,0,10713,70-89+,2023-09-29_12h37.02.259,Recall,2021.2.3,59.87866182013777,
,L_DD510.jpg,1,L_FF510.jpg,1,,,,,0,93,93,49,imgFunc,2,NA,1.6270395999308676,831.6546500001568,833.3867407301441,2023-09-29 12:50:37.108589,2023-09-29 12:50:38.834009,L_FF510.jpg,1,10713,70-89+,2023-09-29_12h37.02.259,Recall,2021.2.3,59.87866182013777,
,L_DD505.jpg,1,L_FF505.jpg,1,,,,,0,94,94,44,imgFunc,1,NA,3.675869799917564,833.3897224999964,837.1751782302745,2023-09-29 12:50:38.841991,2023-09-29 12:50:42.619362,L_FF505.jpg,1,10713,70-89+,2023-09-29_12h37.02.259,Recall,2021.2.3,59.87866182013777,
,L_DD506.jpg,1,L_FF506.jpg,1,,,,,0,95,95,45,imgFunc,1,NA,2.324227700009942,837.1735573001206,839.6094538301695,2023-09-29 12:50:42.627311,2023-09-29 12:50:45.054943,L_FF506.jpg,1,10713,70-89+,2023-09-29_12h37.02.259,Recall,2021.2.3,59.87866182013777,
,DD030.jpg,0,FF030.jpg,0,,,,,0,96,96,29,imgFunc,0,NA,4.435801000101492,839.6219566999935,844.1903967298567,2023-09-29 12:50:45.063921,2023-09-29 12:50:49.624200,FF030.jpg,0,10713,70-89+,2023-09-29_12h37.02.259,Recall,2021.2.3,59.87866182013777,
,DD011.jpg,0,FF011.jpg,0,,,,,0,97,97,10,imgFunc,9,NA,6.845810899976641,844.1880219001323,851.154919860186,2023-09-29 12:50:49.643141,2023-09-29 12:50:56.596521,FF011.jpg,0,10713,70-89+,2023-09-29_12h37.02.259,Recall,2021.2.3,59.87866182013777,
,DD038.jpg,0,FF038.jpg,0,,,,,0,98,98,37,imgFunc,0,NA,1.3867554999887943,851.1509805000387,852.6510000296403,2023-09-29 12:50:56.604526,2023-09-29 12:50:58.097195,FF038.jpg,0,10713,70-89+,2023-09-29_12h37.02.259,Recall,2021.2.3,59.87866182013777,
,DD003.jpg,0,FF003.jpg,0,,,,,0,99,99,2,imgFunc,9,NA,4.242814299883321,852.6469630999491,857.0008089295588,2023-09-29 12:50:58.105178,2023-09-29 12:51:02.450527,FF003.jpg,0,10713,70-89+,2023-09-29_12h37.02.259,Recall,2021.2.3,59.87866182013777,
