onset	duration	trial_type	response_time	Endowment	Endowment_pmod	Decision	Decision_pmod	Offer_pmod
4.591460	2	cue_social	n/a	16	-7	n/a	n/a	n/a
4.591460	2	cue_social_low	n/a	16	-9	n/a	n/a	n/a
11.426769	2	cue_social	n/a	32	9	n/a	n/a	n/a
11.426769	2	cue_social_high	n/a	32	7	n/a	n/a	n/a
19.003668	2	cue_nonsocial	n/a	32	7	n/a	n/a	n/a
19.003668	2	cue_nonsocial_high	n/a	32	9	n/a	n/a	n/a
25.836788	2	cue_nonsocial	n/a	32	7	n/a	n/a	n/a
25.836788	2	cue_nonsocial_high	n/a	32	9	n/a	n/a	n/a
32.746254	2	cue_social	n/a	16	-7	n/a	n/a	n/a
32.746254	2	cue_social_low	n/a	16	-9	n/a	n/a	n/a
43.536537	2	cue_nonsocial	n/a	16	-9	n/a	n/a	n/a
43.536537	2	cue_nonsocial_low	n/a	16	-7	n/a	n/a	n/a
50.369940	2	cue_nonsocial	n/a	16	-9	n/a	n/a	n/a
50.369940	2	cue_nonsocial_low	n/a	16	-7	n/a	n/a	n/a
58.071740	2	cue_social	n/a	32	9	n/a	n/a	n/a
58.071740	2	cue_social_high	n/a	32	7	n/a	n/a	n/a
64.921290	2	cue_social	n/a	16	-7	n/a	n/a	n/a
64.921290	2	cue_social_low	n/a	16	-9	n/a	n/a	n/a
74.165920	2	cue_social	n/a	16	-7	n/a	n/a	n/a
74.165920	2	cue_social_low	n/a	16	-9	n/a	n/a	n/a
81.031654	2	cue_social	n/a	32	9	n/a	n/a	n/a
81.031654	2	cue_social_high	n/a	32	7	n/a	n/a	n/a
88.586420	2	cue_nonsocial	n/a	32	7	n/a	n/a	n/a
88.586420	2	cue_nonsocial_high	n/a	32	9	n/a	n/a	n/a
95.525450	2	cue_social	n/a	32	9	n/a	n/a	n/a
95.525450	2	cue_social_high	n/a	32	7	n/a	n/a	n/a
102.253390	2	cue_nonsocial	n/a	32	7	n/a	n/a	n/a
102.253390	2	cue_nonsocial_high	n/a	32	9	n/a	n/a	n/a
109.086560	2	cue_nonsocial	n/a	16	-9	n/a	n/a	n/a
109.086560	2	cue_nonsocial_low	n/a	16	-7	n/a	n/a	n/a
116.736900	2	cue_nonsocial	n/a	32	7	n/a	n/a	n/a
116.736900	2	cue_nonsocial_high	n/a	32	9	n/a	n/a	n/a
124.500260	2	cue_social	n/a	32	9	n/a	n/a	n/a
124.500260	2	cue_social_high	n/a	32	7	n/a	n/a	n/a
132.111800	2	cue_social	n/a	32	9	n/a	n/a	n/a
132.111800	2	cue_social_high	n/a	32	7	n/a	n/a	n/a
139.747150	2	cue_social	n/a	16	-7	n/a	n/a	n/a
139.747150	2	cue_social_low	n/a	16	-9	n/a	n/a	n/a
149.008800	2	cue_social	n/a	16	-7	n/a	n/a	n/a
149.008800	2	cue_social_low	n/a	16	-9	n/a	n/a	n/a
159.819810	2	cue_nonsocial	n/a	16	-9	n/a	n/a	n/a
159.819810	2	cue_nonsocial_low	n/a	16	-7	n/a	n/a	n/a
169.159530	2	cue_social	n/a	16	-7	n/a	n/a	n/a
169.159530	2	cue_social_low	n/a	16	-9	n/a	n/a	n/a
176.767960	2	cue_social	n/a	16	-7	n/a	n/a	n/a
176.767960	2	cue_social_low	n/a	16	-9	n/a	n/a	n/a
189.273850	2	cue_social	n/a	16	-7	n/a	n/a	n/a
189.273850	2	cue_social_low	n/a	16	-9	n/a	n/a	n/a
196.852520	2	cue_nonsocial	n/a	16	-9	n/a	n/a	n/a
196.852520	2	cue_nonsocial_low	n/a	16	-7	n/a	n/a	n/a
203.754210	2	cue_social	n/a	16	-7	n/a	n/a	n/a
203.754210	2	cue_social_low	n/a	16	-9	n/a	n/a	n/a
210.519900	2	cue_nonsocial	n/a	32	7	n/a	n/a	n/a
210.519900	2	cue_nonsocial_high	n/a	32	9	n/a	n/a	n/a
219.839250	2	cue_social	n/a	32	9	n/a	n/a	n/a
219.839250	2	cue_social_high	n/a	32	7	n/a	n/a	n/a
227.419620	2	cue_nonsocial	n/a	32	7	n/a	n/a	n/a
227.419620	2	cue_nonsocial_high	n/a	32	9	n/a	n/a	n/a
234.252980	2	cue_nonsocial	n/a	32	7	n/a	n/a	n/a
234.252980	2	cue_nonsocial_high	n/a	32	9	n/a	n/a	n/a
241.086210	2	cue_nonsocial	n/a	16	-9	n/a	n/a	n/a
241.086210	2	cue_nonsocial_low	n/a	16	-7	n/a	n/a	n/a
247.972460	2	cue_social	n/a	16	-7	n/a	n/a	n/a
247.972460	2	cue_social_low	n/a	16	-9	n/a	n/a	n/a
255.553020	2	cue_nonsocial	n/a	32	7	n/a	n/a	n/a
255.553020	2	cue_nonsocial_high	n/a	32	9	n/a	n/a	n/a
264.901430	2	cue_social	n/a	32	9	n/a	n/a	n/a
264.901430	2	cue_social_high	n/a	32	7	n/a	n/a	n/a
272.452550	2	cue_nonsocial	n/a	16	-9	n/a	n/a	n/a
272.452550	2	cue_nonsocial_low	n/a	16	-7	n/a	n/a	n/a
279.285860	2	cue_nonsocial	n/a	16	-9	n/a	n/a	n/a
279.285860	2	cue_nonsocial_low	n/a	16	-7	n/a	n/a	n/a
290.244840	2	cue_social	n/a	32	9	n/a	n/a	n/a
290.244840	2	cue_social_high	n/a	32	7	n/a	n/a	n/a
296.985930	2	cue_nonsocial	n/a	16	-9	n/a	n/a	n/a
296.985930	2	cue_nonsocial_low	n/a	16	-7	n/a	n/a	n/a
303.819060	2	cue_nonsocial	n/a	32	7	n/a	n/a	n/a
303.819060	2	cue_nonsocial_high	n/a	32	9	n/a	n/a	n/a
313.122040	2	cue_social	n/a	32	9	n/a	n/a	n/a
313.122040	2	cue_social_high	n/a	32	7	n/a	n/a	n/a
319.902900	2	cue_nonsocial	n/a	32	7	n/a	n/a	n/a
319.902900	2	cue_nonsocial_high	n/a	32	9	n/a	n/a	n/a
326.736180	2	cue_nonsocial	n/a	32	7	n/a	n/a	n/a
326.736180	2	cue_nonsocial_high	n/a	32	9	n/a	n/a	n/a
336.060200	2	cue_social	n/a	32	9	n/a	n/a	n/a
336.060200	2	cue_social_high	n/a	32	7	n/a	n/a	n/a
342.836100	2	cue_nonsocial	n/a	32	7	n/a	n/a	n/a
342.836100	2	cue_nonsocial_high	n/a	32	9	n/a	n/a	n/a
349.706300	2	cue_social	n/a	16	-7	n/a	n/a	n/a
349.706300	2	cue_social_low	n/a	16	-9	n/a	n/a	n/a
357.367860	2	cue_social	n/a	16	-7	n/a	n/a	n/a
357.367860	2	cue_social_low	n/a	16	-9	n/a	n/a	n/a
364.152530	2	cue_nonsocial	n/a	16	-9	n/a	n/a	n/a
364.152530	2	cue_nonsocial_low	n/a	16	-7	n/a	n/a	n/a
370.985800	2	cue_nonsocial	n/a	16	-9	n/a	n/a	n/a
370.985800	2	cue_nonsocial_low	n/a	16	-7	n/a	n/a	n/a
6.527073	2.649087	dec_social_choice	2.649087	16.000000	n/a	8	2.695312e-01	2.695312e-01
6.527073	2.649087	dec_choice	2.649087	16.000000	n/a	8	2.682292e-01	2.682292e-01
6.527073	2.649087	dec_social_accept	2.649087	16.000000	n/a	8	1.802083e-01	1.802083e-01
6.527073	2.649087	dec_accept	2.649087	16.000000	n/a	8	1.651786e-01	1.651786e-01
6.527073	2.649087	dec_social_accept_high	2.649087	16.000000	n/a	8	2.682292e-01	2.682292e-01
13.359183	1.117216	dec_social_choice	1.117216	32.000000	n/a	16	2.695312e-01	2.695312e-01
13.359183	1.117216	dec_choice	1.117216	32.000000	n/a	16	2.682292e-01	2.682292e-01
13.359183	1.117216	dec_social_accept	1.117216	32.000000	n/a	16	1.802083e-01	1.802083e-01
13.359183	1.117216	dec_accept	1.117216	32.000000	n/a	16	1.651786e-01	1.651786e-01
13.359183	1.117216	dec_social_high	1.117216	32.000000	n/a	16	2.682292e-01	2.682292e-01
13.359183	1.117216	dec_social_accept_high	1.117216	32.000000	n/a	16	2.682292e-01	2.682292e-01
21.009241	1.633652	dec_nonsocial_choice	1.633652	32.000000	n/a	0	0	-2.304688e-01
21.009241	1.633652	dec_choice	1.633652	32.000000	n/a	0	0	-2.291667e-01
21.009241	1.633652	dec_nonsocial_reject	1.633652	32.000000	n/a	0	0	1.215278e-02
21.009241	1.633652	dec_reject	1.633652	32.000000	n/a	0	0	1.953125e-02
21.009241	1.633652	dec_nonsocial_reject_low	1.633652	32.000000	n/a	3	6.250000e-03	-8.750000e-02
27.843000	0.733145	dec_nonsocial_choice	0.733145	32.000000	n/a	8	1.953125e-02	1.953125e-02
27.843000	0.733145	dec_choice	0.733145	32.000000	n/a	8	2.083333e-02	2.083333e-02
27.843000	0.733145	dec_nonsocial_accept	0.733145	32.000000	n/a	8	-6.979167e-02	-6.979167e-02
27.843000	0.733145	dec_accept	0.733145	32.000000	n/a	8	-5.664062e-02	-5.664062e-02
27.843000	0.733145	dec_nonsocial_high	0.733145	32.000000	n/a	8	2.083333e-02	2.083333e-02
27.843000	0.733145	dec_nonsocial_accept_high	0.733145	32.000000	n/a	8	-5.664062e-02	-5.664062e-02
34.675410	1.217429	dec_social_choice	1.217429	16.000000	n/a	0	0	-2.304688e-01
34.675410	1.217429	dec_choice	1.217429	16.000000	n/a	0	0	-2.317708e-01
34.675410	1.217429	dec_social_reject	1.217429	16.000000	n/a	0	0	4.340278e-02
34.675410	1.217429	dec_reject	1.217429	16.000000	n/a	0	0	3.750000e-02
34.675410	1.217429	dec_social_low	1.217429	16.000000	n/a	0	-2.317708e-01	-2.317708e-01
34.675410	1.217429	dec_social_reject_low	1.217429	16.000000	n/a	2	-1.067708e-01	-2.317708e-01
45.542550	1.366807	dec_nonsocial_choice	1.366807	16.000000	n/a	0	0	-2.304688e-01
45.542550	1.366807	dec_choice	1.366807	16.000000	n/a	0	0	-2.291667e-01
45.542550	1.366807	dec_nonsocial_reject	1.366807	16.000000	n/a	0	0	4.340278e-02
45.542550	1.366807	dec_reject	1.366807	16.000000	n/a	0	0	5.078125e-02
45.542550	1.366807	dec_nonsocial_reject_low	1.366807	16.000000	n/a	2	3.750000e-02	-8.750000e-02
52.377020	0.749043	dec_nonsocial_choice	0.749043	16.000000	n/a	2	-1.054688e-01	-1.054688e-01
52.377020	0.749043	dec_choice	0.749043	16.000000	n/a	2	-1.041667e-01	-1.041667e-01
52.377020	0.749043	dec_nonsocial_accept	0.749043	16.000000	n/a	2	-1.947917e-01	-1.947917e-01
52.377020	0.749043	dec_accept	0.749043	16.000000	n/a	2	-1.816406e-01	-1.816406e-01
52.377020	0.749043	dec_nonsocial_accept_low	0.749043	16.000000	n/a	2	-2.098214e-01	-2.098214e-01
60.027010	1.249175	dec_social_choice	1.249175	32.000000	n/a	3	-1.367188e-01	-1.367188e-01
60.027010	1.249175	dec_choice	1.249175	32.000000	n/a	3	-1.380208e-01	-1.380208e-01
60.027010	1.249175	dec_social_accept	1.249175	32.000000	n/a	3	-2.260417e-01	-2.260417e-01
60.027010	1.249175	dec_accept	1.249175	32.000000	n/a	3	-2.410714e-01	-2.410714e-01
60.027010	1.249175	dec_social_accept_low	1.249175	32.000000	n/a	3	-1.380208e-01	-1.380208e-01
66.859030	1.117272	dec_social_choice	1.117272	16.000000	n/a	8	2.695312e-01	2.695312e-01
66.859030	1.117272	dec_choice	1.117272	16.000000	n/a	8	2.682292e-01	2.682292e-01
66.859030	1.117272	dec_social_accept	1.117272	16.000000	n/a	8	1.802083e-01	1.802083e-01
66.859030	1.117272	dec_accept	1.117272	16.000000	n/a	8	1.651786e-01	1.651786e-01
66.859030	1.117272	dec_social_accept_high	1.117272	16.000000	n/a	8	2.682292e-01	2.682292e-01
76.109010	1.600512	dec_social_choice	1.600512	16.000000	n/a	4	1.953125e-02	1.953125e-02
76.109010	1.600512	dec_choice	1.600512	16.000000	n/a	4	1.822917e-02	1.822917e-02
76.109010	1.600512	dec_social_accept	1.600512	16.000000	n/a	4	-6.979167e-02	-6.979167e-02
76.109010	1.600512	dec_accept	1.600512	16.000000	n/a	4	-8.482143e-02	-8.482143e-02
76.109010	1.600512	dec_social_high	1.600512	16.000000	n/a	4	1.822917e-02	1.822917e-02
76.109010	1.600512	dec_social_accept_high	1.600512	16.000000	n/a	4	1.822917e-02	1.822917e-02
82.942090	1.116897	dec_social_choice	1.116897	32.000000	n/a	3	-1.367188e-01	-1.367188e-01
82.942090	1.116897	dec_choice	1.116897	32.000000	n/a	3	-1.380208e-01	-1.380208e-01
82.942090	1.116897	dec_social_accept	1.116897	32.000000	n/a	3	-2.260417e-01	-2.260417e-01
82.942090	1.116897	dec_accept	1.116897	32.000000	n/a	3	-2.410714e-01	-2.410714e-01
82.942090	1.116897	dec_social_low	1.116897	32.000000	n/a	3	-1.380208e-01	-1.380208e-01
82.942090	1.116897	dec_social_accept_low	1.116897	32.000000	n/a	3	-1.380208e-01	-1.380208e-01
90.592060	1.051117	dec_nonsocial_choice	1.051117	32.000000	n/a	16	2.695312e-01	2.695312e-01
90.592060	1.051117	dec_choice	1.051117	32.000000	n/a	16	2.708333e-01	2.708333e-01
90.592060	1.051117	dec_nonsocial_accept	1.051117	32.000000	n/a	16	1.802083e-01	1.802083e-01
90.592060	1.051117	dec_accept	1.051117	32.000000	n/a	16	1.933594e-01	1.933594e-01
90.592060	1.051117	dec_nonsocial_accept_high	1.051117	32.000000	n/a	16	1.651786e-01	1.651786e-01
97.426010	1.249914	dec_social_choice	1.249914	32.000000	n/a	0	0	-2.304688e-01
97.426010	1.249914	dec_choice	1.249914	32.000000	n/a	0	0	-2.317708e-01
97.426010	1.249914	dec_social_reject	1.249914	32.000000	n/a	0	0	-1.909722e-02
97.426010	1.249914	dec_reject	1.249914	32.000000	n/a	0	0	-2.500000e-02
97.426010	1.249914	dec_social_low	1.249914	32.000000	n/a	0	-2.317708e-01	-2.317708e-01
97.426010	1.249914	dec_social_reject_low	1.249914	32.000000	n/a	2	-1.692708e-01	-2.317708e-01
104.259000	1.200246	dec_nonsocial_choice	1.200246	32.000000	n/a	0	0	-2.304688e-01
104.259000	1.200246	dec_choice	1.200246	32.000000	n/a	0	0	-2.291667e-01
104.259000	1.200246	dec_nonsocial_reject	1.200246	32.000000	n/a	0	0	-1.909722e-02
104.259000	1.200246	dec_reject	1.200246	32.000000	n/a	0	0	-1.171875e-02
104.259000	1.200246	dec_nonsocial_reject_low	1.200246	32.000000	n/a	2	-2.500000e-02	-8.750000e-02
111.092995	0.950973	dec_nonsocial_choice	0.950973	16.000000	n/a	4	1.953125e-02	1.953125e-02
111.092995	0.950973	dec_choice	0.950973	16.000000	n/a	4	2.083333e-02	2.083333e-02
111.092995	0.950973	dec_nonsocial_accept	0.950973	16.000000	n/a	4	-6.979167e-02	-6.979167e-02
111.092995	0.950973	dec_accept	0.950973	16.000000	n/a	4	-5.664062e-02	-5.664062e-02
111.092995	0.950973	dec_nonsocial_accept_high	0.950973	16.000000	n/a	4	-8.482143e-02	-8.482143e-02
118.742584	1.033318	dec_nonsocial_choice	1.033318	32.000000	n/a	0	0	-2.304688e-01
118.742584	1.033318	dec_choice	1.033318	32.000000	n/a	0	0	-2.291667e-01
118.742584	1.033318	dec_nonsocial_reject	1.033318	32.000000	n/a	0	0	-1.909722e-02
118.742584	1.033318	dec_reject	1.033318	32.000000	n/a	0	0	-1.171875e-02
118.742584	1.033318	dec_nonsocial_low	1.033318	32.000000	n/a	0	-2.291667e-01	-2.291667e-01
118.742584	1.033318	dec_nonsocial_reject_low	1.033318	32.000000	n/a	2	-1.171875e-02	-7.421875e-02
126.391975	0.934204	dec_social_choice	0.934204	32.000000	n/a	8	1.953125e-02	1.953125e-02
126.391975	0.934204	dec_choice	0.934204	32.000000	n/a	8	1.822917e-02	1.822917e-02
126.391975	0.934204	dec_social_accept	0.934204	32.000000	n/a	8	-6.979167e-02	-6.979167e-02
126.391975	0.934204	dec_accept	0.934204	32.000000	n/a	8	-8.482143e-02	-8.482143e-02
126.391975	0.934204	dec_social_accept_high	0.934204	32.000000	n/a	8	1.822917e-02	1.822917e-02
134.042970	1.066096	dec_social_choice	1.066096	32.000000	n/a	0	0	-2.304688e-01
134.042970	1.066096	dec_choice	1.066096	32.000000	n/a	0	0	-2.317708e-01
134.042970	1.066096	dec_social_reject	1.066096	32.000000	n/a	0	0	-1.909722e-02
134.042970	1.066096	dec_reject	1.066096	32.000000	n/a	0	0	-2.500000e-02
134.042970	1.066096	dec_social_low	1.066096	32.000000	n/a	0	-2.317708e-01	-2.317708e-01
134.042970	1.066096	dec_social_reject_low	1.066096	32.000000	n/a	2	-1.692708e-01	-2.317708e-01
141.692980	1.133192	dec_social_choice	1.133192	16.000000	n/a	0	0	-2.304688e-01
141.692980	1.133192	dec_choice	1.133192	16.000000	n/a	0	0	-2.317708e-01
141.692980	1.133192	dec_social_reject	1.133192	16.000000	n/a	0	0	4.340278e-02
141.692980	1.133192	dec_reject	1.133192	16.000000	n/a	0	0	3.750000e-02
141.692980	1.133192	dec_social_low	1.133192	16.000000	n/a	0	-2.317708e-01	-2.317708e-01
141.692980	1.133192	dec_social_reject_low	1.133192	16.000000	n/a	2	-1.067708e-01	-2.317708e-01
150.958950	0.950434	dec_social_choice	0.950434	16.000000	n/a	0	0	-2.304688e-01
150.958950	0.950434	dec_choice	0.950434	16.000000	n/a	0	0	-2.317708e-01
150.958950	0.950434	dec_social_reject	0.950434	16.000000	n/a	0	0	4.340278e-02
150.958950	0.950434	dec_reject	0.950434	16.000000	n/a	0	0	3.750000e-02
150.958950	0.950434	dec_social_reject_low	0.950434	16.000000	n/a	2	-1.067708e-01	-2.317708e-01
161.825970	1.133345	dec_nonsocial_choice	1.133345	16.000000	n/a	4	1.953125e-02	1.953125e-02
161.825970	1.133345	dec_choice	1.133345	16.000000	n/a	4	2.083333e-02	2.083333e-02
161.825970	1.133345	dec_nonsocial_accept	1.133345	16.000000	n/a	4	-6.979167e-02	-6.979167e-02
161.825970	1.133345	dec_accept	1.133345	16.000000	n/a	4	-5.664062e-02	-5.664062e-02
161.825970	1.133345	dec_nonsocial_accept_high	1.133345	16.000000	n/a	4	-8.482143e-02	-8.482143e-02
171.076950	1.049184	dec_social_choice	1.049184	16.000000	n/a	8	2.695312e-01	2.695312e-01
171.076950	1.049184	dec_choice	1.049184	16.000000	n/a	8	2.682292e-01	2.682292e-01
171.076950	1.049184	dec_social_accept	1.049184	16.000000	n/a	8	1.802083e-01	1.802083e-01
171.076950	1.049184	dec_accept	1.049184	16.000000	n/a	8	1.651786e-01	1.651786e-01
171.076950	1.049184	dec_social_high	1.049184	16.000000	n/a	8	2.682292e-01	2.682292e-01
171.076950	1.049184	dec_social_accept_high	1.049184	16.000000	n/a	8	2.682292e-01	2.682292e-01
178.725950	1.249770	dec_social_choice	1.249770	16.000000	n/a	0	0	-2.304688e-01
178.725950	1.249770	dec_choice	1.249770	16.000000	n/a	0	0	-2.317708e-01
178.725950	1.249770	dec_social_reject	1.249770	16.000000	n/a	0	0	-1.909722e-02
178.725950	1.249770	dec_reject	1.249770	16.000000	n/a	0	0	-2.500000e-02
178.725950	1.249770	dec_social_low	1.249770	16.000000	n/a	0	-2.317708e-01	-2.317708e-01
178.725950	1.249770	dec_social_reject_low	1.249770	16.000000	n/a	1	-1.692708e-01	-2.317708e-01
191.208420	0.933424	dec_social_choice	0.933424	16.000000	n/a	8	2.695312e-01	2.695312e-01
191.208420	0.933424	dec_choice	0.933424	16.000000	n/a	8	2.682292e-01	2.682292e-01
191.208420	0.933424	dec_social_accept	0.933424	16.000000	n/a	8	1.802083e-01	1.802083e-01
191.208420	0.933424	dec_accept	0.933424	16.000000	n/a	8	1.651786e-01	1.651786e-01
191.208420	0.933424	dec_social_accept_high	0.933424	16.000000	n/a	8	2.682292e-01	2.682292e-01
198.858980	0.766462	dec_nonsocial_choice	0.766462	16.000000	n/a	4	1.953125e-02	1.953125e-02
198.858980	0.766462	dec_choice	0.766462	16.000000	n/a	4	2.083333e-02	2.083333e-02
198.858980	0.766462	dec_nonsocial_accept	0.766462	16.000000	n/a	4	-6.979167e-02	-6.979167e-02
198.858980	0.766462	dec_accept	0.766462	16.000000	n/a	4	-5.664062e-02	-5.664062e-02
198.858980	0.766462	dec_nonsocial_accept_high	0.766462	16.000000	n/a	4	-8.482143e-02	-8.482143e-02
205.692630	0.649599	dec_social_choice	0.649599	16.000000	n/a	4	1.953125e-02	1.953125e-02
205.692630	0.649599	dec_choice	0.649599	16.000000	n/a	4	1.822917e-02	1.822917e-02
205.692630	0.649599	dec_social_accept	0.649599	16.000000	n/a	4	-6.979167e-02	-6.979167e-02
205.692630	0.649599	dec_accept	0.649599	16.000000	n/a	4	-8.482143e-02	-8.482143e-02
205.692630	0.649599	dec_social_accept_high	0.649599	16.000000	n/a	4	1.822917e-02	1.822917e-02
212.524980	1.050588	dec_nonsocial_choice	1.050588	32.000000	n/a	3	-1.367188e-01	-1.367188e-01
212.524980	1.050588	dec_choice	1.050588	32.000000	n/a	3	-1.354167e-01	-1.354167e-01
212.524980	1.050588	dec_nonsocial_accept	1.050588	32.000000	n/a	3	-2.260417e-01	-2.260417e-01
212.524980	1.050588	dec_accept	1.050588	32.000000	n/a	3	-2.128906e-01	-2.128906e-01
212.524980	1.050588	dec_nonsocial_low	1.050588	32.000000	n/a	3	-1.354167e-01	-1.354167e-01
212.524980	1.050588	dec_nonsocial_accept_low	1.050588	32.000000	n/a	3	-2.128906e-01	-2.128906e-01
221.774950	1.084288	dec_social_choice	1.084288	32.000000	n/a	0	0	-2.304688e-01
221.774950	1.084288	dec_choice	1.084288	32.000000	n/a	0	0	-2.317708e-01
221.774950	1.084288	dec_social_reject	1.084288	32.000000	n/a	0	0	-1.909722e-02
221.774950	1.084288	dec_reject	1.084288	32.000000	n/a	0	0	-2.500000e-02
221.774950	1.084288	dec_social_low	1.084288	32.000000	n/a	0	-2.317708e-01	-2.317708e-01
221.774950	1.084288	dec_social_reject_low	1.084288	32.000000	n/a	2	-1.692708e-01	-2.317708e-01
229.425540	0.950194	dec_nonsocial_choice	0.950194	32.000000	n/a	8	1.953125e-02	1.953125e-02
229.425540	0.950194	dec_choice	0.950194	32.000000	n/a	8	2.083333e-02	2.083333e-02
229.425540	0.950194	dec_nonsocial_accept	0.950194	32.000000	n/a	8	-6.979167e-02	-6.979167e-02
229.425540	0.950194	dec_accept	0.950194	32.000000	n/a	8	-5.664062e-02	-5.664062e-02
229.425540	0.950194	dec_nonsocial_accept_high	0.950194	32.000000	n/a	8	-8.482143e-02	-8.482143e-02
236.259920	1.132494	dec_nonsocial_choice	1.132494	32.000000	n/a	0	0	-2.304688e-01
236.259920	1.132494	dec_choice	1.132494	32.000000	n/a	0	0	-2.291667e-01
236.259920	1.132494	dec_nonsocial_reject	1.132494	32.000000	n/a	0	0	-1.909722e-02
236.259920	1.132494	dec_reject	1.132494	32.000000	n/a	0	0	-1.171875e-02
236.259920	1.132494	dec_nonsocial_low	1.132494	32.000000	n/a	0	-2.291667e-01	-2.291667e-01
236.259920	1.132494	dec_nonsocial_reject_low	1.132494	32.000000	n/a	2	-1.171875e-02	-7.421875e-02
243.091930	0.933668	dec_nonsocial_choice	0.933668	16.000000	n/a	0	0	-2.304688e-01
243.091930	0.933668	dec_choice	0.933668	16.000000	n/a	0	0	-2.291667e-01
243.091930	0.933668	dec_nonsocial_reject	0.933668	16.000000	n/a	0	0	-1.909722e-02
243.091930	0.933668	dec_reject	0.933668	16.000000	n/a	0	0	-1.171875e-02
243.091930	0.933668	dec_nonsocial_low	0.933668	16.000000	n/a	0	-2.291667e-01	-2.291667e-01
243.091930	0.933668	dec_nonsocial_reject_low	0.933668	16.000000	n/a	1	-1.171875e-02	-7.421875e-02
249.924910	1.101031	dec_social_choice	1.101031	16.000000	n/a	0	0	-2.304688e-01
249.924910	1.101031	dec_choice	1.101031	16.000000	n/a	0	0	-2.317708e-01
249.924910	1.101031	dec_social_reject	1.101031	16.000000	n/a	0	0	4.340278e-02
249.924910	1.101031	dec_reject	1.101031	16.000000	n/a	0	0	3.750000e-02
249.924910	1.101031	dec_social_low	1.101031	16.000000	n/a	0	-2.317708e-01	-2.317708e-01
249.924910	1.101031	dec_social_reject_low	1.101031	16.000000	n/a	2	-1.067708e-01	-2.317708e-01
257.559900	0.899157	dec_nonsocial_choice	0.899157	32.000000	n/a	3	-1.367188e-01	-1.367188e-01
257.559900	0.899157	dec_choice	0.899157	32.000000	n/a	3	-1.354167e-01	-1.354167e-01
257.559900	0.899157	dec_nonsocial_accept	0.899157	32.000000	n/a	3	-2.260417e-01	-2.260417e-01
257.559900	0.899157	dec_accept	0.899157	32.000000	n/a	3	-2.128906e-01	-2.128906e-01
257.559900	0.899157	dec_nonsocial_accept_low	0.899157	32.000000	n/a	3	-2.410714e-01	-2.410714e-01
266.809970	1.182685	dec_social_choice	1.182685	32.000000	n/a	0	0	-2.304688e-01
266.809970	1.182685	dec_choice	1.182685	32.000000	n/a	0	0	-2.317708e-01
266.809970	1.182685	dec_social_reject	1.182685	32.000000	n/a	0	0	-1.909722e-02
266.809970	1.182685	dec_reject	1.182685	32.000000	n/a	0	0	-2.500000e-02
266.809970	1.182685	dec_social_reject_low	1.182685	32.000000	n/a	2	-1.692708e-01	-2.317708e-01
274.459100	1.033184	dec_nonsocial_choice	1.033184	16.000000	n/a	8	2.695312e-01	2.695312e-01
274.459100	1.033184	dec_choice	1.033184	16.000000	n/a	8	2.708333e-01	2.708333e-01
274.459100	1.033184	dec_nonsocial_accept	1.033184	16.000000	n/a	8	1.802083e-01	1.802083e-01
274.459100	1.033184	dec_accept	1.033184	16.000000	n/a	8	1.933594e-01	1.933594e-01
274.459100	1.033184	dec_nonsocial_high	1.033184	16.000000	n/a	8	2.708333e-01	2.708333e-01
274.459100	1.033184	dec_nonsocial_accept_high	1.033184	16.000000	n/a	8	1.933594e-01	1.933594e-01
281.293000	0.915389	dec_nonsocial_choice	0.915389	16.000000	n/a	8	2.695312e-01	2.695312e-01
281.293000	0.915389	dec_choice	0.915389	16.000000	n/a	8	2.708333e-01	2.708333e-01
281.293000	0.915389	dec_nonsocial_accept	0.915389	16.000000	n/a	8	1.802083e-01	1.802083e-01
281.293000	0.915389	dec_accept	0.915389	16.000000	n/a	8	1.933594e-01	1.933594e-01
281.293000	0.915389	dec_nonsocial_high	0.915389	16.000000	n/a	8	2.708333e-01	2.708333e-01
281.293000	0.915389	dec_nonsocial_accept_high	0.915389	16.000000	n/a	8	1.933594e-01	1.933594e-01
292.158020	0.934416	dec_social_choice	0.934416	32.000000	n/a	8	1.953125e-02	1.953125e-02
292.158020	0.934416	dec_choice	0.934416	32.000000	n/a	8	1.822917e-02	1.822917e-02
292.158020	0.934416	dec_social_accept	0.934416	32.000000	n/a	8	-6.979167e-02	-6.979167e-02
292.158020	0.934416	dec_accept	0.934416	32.000000	n/a	8	-8.482143e-02	-8.482143e-02
292.158020	0.934416	dec_social_accept_high	0.934416	32.000000	n/a	8	1.822917e-02	1.822917e-02
298.991900	1.150678	dec_nonsocial_choice	1.150678	16.000000	n/a	8	2.695312e-01	2.695312e-01
298.991900	1.150678	dec_choice	1.150678	16.000000	n/a	8	2.708333e-01	2.708333e-01
298.991900	1.150678	dec_nonsocial_accept	1.150678	16.000000	n/a	8	1.802083e-01	1.802083e-01
298.991900	1.150678	dec_accept	1.150678	16.000000	n/a	8	1.933594e-01	1.933594e-01
298.991900	1.150678	dec_nonsocial_high	1.150678	16.000000	n/a	8	2.708333e-01	2.708333e-01
298.991900	1.150678	dec_nonsocial_accept_high	1.150678	16.000000	n/a	8	1.933594e-01	1.933594e-01
305.824740	1.234366	dec_nonsocial_choice	1.234366	32.000000	n/a	0	0	-2.304688e-01
305.824740	1.234366	dec_choice	1.234366	32.000000	n/a	0	0	-2.291667e-01
305.824740	1.234366	dec_nonsocial_reject	1.234366	32.000000	n/a	0	0	-1.909722e-02
305.824740	1.234366	dec_reject	1.234366	32.000000	n/a	0	0	-1.171875e-02
305.824740	1.234366	dec_nonsocial_low	1.234366	32.000000	n/a	0	-2.291667e-01	-2.291667e-01
305.824740	1.234366	dec_nonsocial_reject_low	1.234366	32.000000	n/a	2	-1.171875e-02	-7.421875e-02
315.075230	0.850146	dec_social_choice	0.850146	32.000000	n/a	16	2.695312e-01	2.695312e-01
315.075230	0.850146	dec_choice	0.850146	32.000000	n/a	16	2.682292e-01	2.682292e-01
315.075230	0.850146	dec_social_accept	0.850146	32.000000	n/a	16	1.802083e-01	1.802083e-01
315.075230	0.850146	dec_accept	0.850146	32.000000	n/a	16	1.651786e-01	1.651786e-01
315.075230	0.850146	dec_social_accept_high	0.850146	32.000000	n/a	16	2.682292e-01	2.682292e-01
321.909900	0.699158	dec_nonsocial_choice	0.699158	32.000000	n/a	16	2.695312e-01	2.695312e-01
321.909900	0.699158	dec_choice	0.699158	32.000000	n/a	16	2.708333e-01	2.708333e-01
321.909900	0.699158	dec_nonsocial_accept	0.699158	32.000000	n/a	16	1.802083e-01	1.802083e-01
321.909900	0.699158	dec_accept	0.699158	32.000000	n/a	16	1.933594e-01	1.933594e-01
321.909900	0.699158	dec_nonsocial_accept_high	0.699158	32.000000	n/a	16	1.651786e-01	1.651786e-01
328.741880	0.683588	dec_nonsocial_choice	0.683588	32.000000	n/a	8	1.953125e-02	1.953125e-02
328.741880	0.683588	dec_choice	0.683588	32.000000	n/a	8	2.083333e-02	2.083333e-02
328.741880	0.683588	dec_nonsocial_accept	0.683588	32.000000	n/a	8	-6.979167e-02	-6.979167e-02
328.741880	0.683588	dec_accept	0.683588	32.000000	n/a	8	-5.664062e-02	-5.664062e-02
328.741880	0.683588	dec_nonsocial_accept_high	0.683588	32.000000	n/a	8	-8.482143e-02	-8.482143e-02
338.009000	0.665988	dec_social_choice	0.665988	32.000000	n/a	8	1.953125e-02	1.953125e-02
338.009000	0.665988	dec_choice	0.665988	32.000000	n/a	8	1.822917e-02	1.822917e-02
338.009000	0.665988	dec_social_accept	0.665988	32.000000	n/a	8	-6.979167e-02	-6.979167e-02
338.009000	0.665988	dec_accept	0.665988	32.000000	n/a	8	-8.482143e-02	-8.482143e-02
338.009000	0.665988	dec_social_accept_high	0.665988	32.000000	n/a	8	1.822917e-02	1.822917e-02
344.842600	1.349516	dec_nonsocial_choice	1.349516	32.000000	n/a	3	-1.367188e-01	-1.367188e-01
344.842600	1.349516	dec_choice	1.349516	32.000000	n/a	3	-1.354167e-01	-1.354167e-01
344.842600	1.349516	dec_nonsocial_accept	1.349516	32.000000	n/a	3	-2.260417e-01	-2.260417e-01
344.842600	1.349516	dec_accept	1.349516	32.000000	n/a	3	-2.128906e-01	-2.128906e-01
344.842600	1.349516	dec_nonsocial_low	1.349516	32.000000	n/a	3	-1.354167e-01	-1.354167e-01
344.842600	1.349516	dec_nonsocial_accept_low	1.349516	32.000000	n/a	3	-2.128906e-01	-2.128906e-01
351.675200	1.000160	dec_social_choice	1.000160	16.000000	n/a	0	0	-2.304688e-01
351.675200	1.000160	dec_choice	1.000160	16.000000	n/a	0	0	-2.317708e-01
351.675200	1.000160	dec_social_reject	1.000160	16.000000	n/a	0	0	-1.909722e-02
351.675200	1.000160	dec_reject	1.000160	16.000000	n/a	0	0	-2.500000e-02
351.675200	1.000160	dec_social_low	1.000160	16.000000	n/a	0	-2.317708e-01	-2.317708e-01
351.675200	1.000160	dec_social_reject_low	1.000160	16.000000	n/a	1	-1.692708e-01	-2.317708e-01
359.325070	1.100621	dec_social_choice	1.100621	16.000000	n/a	4	1.953125e-02	1.953125e-02
359.325070	1.100621	dec_choice	1.100621	16.000000	n/a	4	1.822917e-02	1.822917e-02
359.325070	1.100621	dec_social_accept	1.100621	16.000000	n/a	4	-6.979167e-02	-6.979167e-02
359.325070	1.100621	dec_accept	1.100621	16.000000	n/a	4	-8.482143e-02	-8.482143e-02
359.325070	1.100621	dec_social_high	1.100621	16.000000	n/a	4	1.822917e-02	1.822917e-02
359.325070	1.100621	dec_social_accept_high	1.100621	16.000000	n/a	4	1.822917e-02	1.822917e-02
366.158840	0.949751	dec_nonsocial_choice	0.949751	16.000000	n/a	0	0	-2.304688e-01
366.158840	0.949751	dec_choice	0.949751	16.000000	n/a	0	0	-2.291667e-01
366.158840	0.949751	dec_nonsocial_reject	0.949751	16.000000	n/a	0	0	-1.909722e-02
366.158840	0.949751	dec_reject	0.949751	16.000000	n/a	0	0	-1.171875e-02
366.158840	0.949751	dec_nonsocial_low	0.949751	16.000000	n/a	0	-2.291667e-01	-2.291667e-01
366.158840	0.949751	dec_nonsocial_reject_low	0.949751	16.000000	n/a	1	-1.171875e-02	-7.421875e-02
372.991850	1.300124	dec_nonsocial_choice	1.300124	16.000000	n/a	8	2.695312e-01	2.695312e-01
372.991850	1.300124	dec_choice	1.300124	16.000000	n/a	8	2.708333e-01	2.708333e-01
372.991850	1.300124	dec_nonsocial_accept	1.300124	16.000000	n/a	8	1.802083e-01	1.802083e-01
372.991850	1.300124	dec_accept	1.300124	16.000000	n/a	8	1.933594e-01	1.933594e-01
372.991850	1.300124	dec_nonsocial_high	1.300124	16.000000	n/a	8	2.708333e-01	2.708333e-01
372.991850	1.300124	dec_nonsocial_accept_high	1.300124	16.000000	n/a	8	1.933594e-01	1.933594e-01
