onset	duration	trial_type	rt	resp
0.0004023999790661037	0.598331400018651	fixation_1	999	999
0.5987998999771662	3.0009434000239708	face	2.0330143999890424	2
3.599781900004018	0.598331400018651	fixation_2	999	999
4.148484299948905	1.000197500048671	feedback loss	999	999
5.148683899955358	5.316026500018779	ITI	999	999
10.48094029998174	0.6174775999970734	fixation_1	999	999
11.098465099988971	3.001294699963182	face	2.032602199993562	1
14.099798999959603	0.6174775999970734	fixation_2	999	999
14.648685999971349	1.0166920999763533	feedback win	999	999
15.665380599966738	5.3160193000221625	ITI	999	999
20.98435539996717	0.5976653000107035	fixation_1	999	999
21.582093599950895	3.001661000016611	face	2.28225830005249	1
24.58379059995059	0.5976653000107035	fixation_2	999	999
25.131720799952745	1.0002673999988474	feedback loss	999	999
26.131990399968345	5.31669539998984	ITI	999	999
31.45173779997276	0.5965799000114202	fixation_1	999	999
32.048362399975304	3.0023834999883547	face	2.032879700011108	2
35.050786199979484	0.5965799000114202	fixation_2	999	999
35.59834929998033	1.0001209999900311	feedback loss	999	999
36.59847229998559	1.1178669999935664	ITI	999	999
37.71941499999957	0.5958454999490641	fixation_1	999	999
38.31532439996954	3.000750600011088	face	2.032148500031326	2
41.316113199980464	0.5958454999490641	fixation_2	999	999
41.8652860999573	1.0000435000401922	feedback loss	999	999
42.8653318999568	1.1175065000425093	ITI	999	999
43.985976599971764	0.595794000022579	fixation_1	999	999
44.58184529998107	3.0013378000003286	face	1.7828007999924012	1
47.58322119998047	0.595794000022579	fixation_2	999	999
48.1315304999589	1.000448300037533	feedback win	999	999
49.131980999954976	1.1186060000327416	ITI	999	999
50.25362309999764	0.5947287000017241	fixation_1	999	999
50.84841609996511	3.0012847000034526	face	1.533201200014446	1
53.849739099969156	0.5947287000017241	fixation_2	999	999
54.398297199979424	1.0166891000117175	feedback win	999	999
55.414988399948925	3.2167164999991655	ITI	999	999
58.634803399967495	0.613818200014066	fixation_1	999	999
59.248688099964056	3.0008072000346147	face	1.5321115999831818	1
62.24953489995096	0.613818200014066	fixation_2	999	999
62.798605799966026	1.0166221000254154	feedback loss	999	999
63.815230099949986	3.2163373000221327	ITI	999	999
67.03468529996462	0.5969947000266984	fixation_1	999	999
67.63174709997838	3.000940300000366	face	1.7845560999703594	1
70.63272619998315	0.5969947000266984	fixation_2	999	999
71.18143589998363	1.000078900018707	feedback win	999	999
72.18151679995935	1.1175792000140063	ITI	999	999
73.30226019996917	0.5960247000330128	fixation_1	999	999
73.89834829996107	3.0014047999866307	face	1.782282900006976	1
76.89979070000118	0.5960247000330128	fixation_2	999	999
77.44856639998034	1.0165770999738015	feedback win	999	999
78.46514589997241	3.216613100026734	ITI	999	999
81.68488159996923	0.6133192999986932	fixation_1	999	999
82.29825189994881	3.001619600050617	face	1.283512599999085	2
85.2999095999985	0.6133192999986932	fixation_2	999	999
85.84833949996391	1.016639000037685	feedback loss	999	999
86.86498069996014	5.316652300010901	ITI	999	999
92.18510299996706	0.5963003000360914	fixation_1	999	999
92.78145449998556	3.0011871000169776	face	1.7830184000195004	1
95.78267960000085	0.5963003000360914	fixation_2	999	999
96.33157699997537	1.0168834999785759	feedback loss	999	999
97.34846249996917	3.2168412000173703	ITI	999	999
100.56862759997603	0.5961175999836996	fixation_1	999	999
101.16480119997868	3.001948299992364	face	1.2828272000188008	1
104.1667873999686	0.5961175999836996	fixation_2	999	999
104.71509579999838	1.016785499989055	feedback win	999	999
105.73188330000266	5.316908199980389	ITI	999	999
111.05215399997542	0.5961949999909848	fixation_1	999	999
111.64843649999239	3.0010491999564692	face	1.283505300001707	1
114.64952249999624	0.5961949999909848	fixation_2	999	999
115.19811649998883	1.0165579000022262	feedback win	999	999
116.21467649994884	3.2164633000502363	ITI	999	999
119.43450589996064	0.5968283000402153	fixation_1	999	999
120.03140869998606	3.001233399962075	face	1.2826223999727517	1
123.03268039994873	0.5968283000402153	fixation_2	999	999
123.58130209997762	1.0002953999792226	feedback win	999	999
124.58159959997283	1.1175578000256792	ITI	999	999
125.70248340000398	0.5958806999842636	fixation_1	999	999
126.29843699996127	3.0012095000129193	face	1.282191900012549	2
129.29968229995575	0.5958806999842636	fixation_2	999	999
129.84808329999214	1.0004214000073262	feedback win	999	999
130.8485066999565	1.1183742000139318	ITI	999	999
131.97017439996125	0.6113347000209615	fixation_1	999	999
132.58158279996132	3.0020380000350997	face	1.2829225999885239	1
135.58365819999017	0.6113347000209615	fixation_2	999	999
136.13125759997638	1.0003027999773622	feedback loss	999	999
137.1315625999705	1.1178651999798603	ITI	999	999
138.25277579994872	0.5953006000490859	fixation_1	999	999
138.84815009997692	3.0497866999940015	face	3.049270500021521	2
141.89796410000417	0.5953006000490859	fixation_2	999	999
142.44793709996156	1.0001862000208348	feedback loss	999	999
143.44812529999763	11.616648299968801	ITI	999	999
155.0682827999699	0.6129613000084646	fixation_1	999	999
155.68132269999478	3.0007895999588072	face	1.5331719999667257	1
158.68215269997017	0.6129613000084646	fixation_2	999	999
159.231386200001	1.0001390999532305	feedback loss	999	999
160.23152749997098	3.2164058000198565	ITI	999	999
163.45129409997026	0.5967994999955408	fixation_1	999	999
164.04815379995853	3.000939399993513	face	1.2830938000115566	1
167.049132599961	0.5967994999955408	fixation_2	999	999
167.59846999996807	1.0163132000016049	feedback win	999	999
168.61478539998643	1.1177743999869563	ITI	999	999
169.73629519995302	0.6282381000346504	fixation_1	999	999
170.36459589999868	3.0011713999556378	face	1.533289099985268	1
173.36580599995796	0.6282381000346504	fixation_2	999	999
173.91464529995574	1.00023320002947	feedback loss	999	999
174.91488050000044	5.316700999974273	ITI	999	999
180.23508189996937	0.6130707000265829	fixation_1	999	999
180.84823219996179	3.001766800007317	face	1.5324143000179902	1
183.85003869998036	0.6130707000265829	fixation_2	999	999
184.39871829998447	1.0158316000015475	feedback loss	999	999
185.414552000002	3.2165326999966055	ITI	999	999
188.6345927999937	0.5968971999827772	fixation_1	999	999
189.23158989998046	3.0018451000214554	face	2.282345500017982	1
192.23347169999033	0.5968971999827772	fixation_2	999	999
192.78149699995993	1.0166455000289716	feedback win	999	999
193.79814469994744	1.11849240004085	ITI	999	999
194.92010279995156	0.6280385000281967	fixation_1	999	999
195.5482412999845	3.00134670000989	face	1.7832613000064157	1
198.54962919995887	0.6280385000281967	fixation_2	999	999
199.09785629995167	1.0165675000171177	feedback win	999	999
200.11442589998478	5.3159916999866255	ITI	999	999
205.4340314999572	0.5971618000185117	fixation_1	999	999
206.0312781999819	3.0008927999879234	face	1.7822213000035845	1
209.03220889996737	0.5971618000185117	fixation_2	999	999
209.58120379998581	1.000310699979309	feedback loss	999	999
210.58151679998264	5.316690200008452	ITI	999	999
215.90178079996258	0.5962725999997929	fixation_1	999	999
216.49814719997812	3.001471799972933	face	1.5328137999749742	2
219.49966059997678	0.5962725999997929	fixation_2	999	999
220.04776230000425	1.0000890999799594	feedback loss	999	999
221.04785360000096	3.2176843999768607	ITI	999	999
224.26914379996015	0.5951530000311323	fixation_1	999	999
224.86437729996396	3.0013078000047244	face	1.0335063000093214	1
227.86572609998984	0.5951530000311323	fixation_2	999	999
228.41476769995643	1.016504500003066	feedback loss	999	999
229.43127459997777	1.1176203999784775	ITI	999	999
230.5526916999952	0.6120509000029415	fixation_1	999	999
231.16482479998376	3.0017037999932654	face	1.2837023999891244	1
234.1665671999799	0.6120509000029415	fixation_2	999	999
234.7142949999543	1.016753600037191	feedback loss	999	999
235.73105049994774	5.316493400023319	ITI	999	999
241.05123240000103	0.5967711999546736	fixation_1	999	999
241.6481021999498	3.001078100001905	face	1.782411200052593	1
244.64921849995153	0.5967711999546736	fixation_2	999	999
245.19767789996695	1.0000277000362985	feedback loss	999	999
246.19770769996103	1.1169812000007369	ITI	999	999
247.31843089999165	0.5960065000108443	fixation_1	999	999
247.9145377999521	3.036887900030706	face	n/a	n/a
250.95145529997535	0.5960065000108443	fixation_2	999	999
251.49787459999789	1.0163234999636188	feedback win	999	999
252.5142011999851	1.1183429000084288	ITI	999	999
253.6363924999605	0.5946169000235386	fixation_1	999	999
254.2310804000008	3.001132699951995	face	1.7824851999757811	1
257.2322531999671	0.5946169000235386	fixation_2	999	999
257.7812776999781	1.0166086999815889	feedback loss	999	999
258.7978886999772	1.116603699978441	ITI	999	999
259.91818849998526	0.5963134000194259	fixation_1	999	999
260.51460419996874	3.0016611000173725	face	1.5329855000018142	1
263.51630329998443	0.5963134000194259	fixation_2	999	999
264.0642015999765	1.0002390000154264	feedback win	999	999
265.0644427999505	3.2175431000068784	ITI	999	999
268.2858529999503	0.5954778000013903	fixation_1	999	999
268.881431399961	3.0007893000147305	face	2.2830129000358284	1
271.8822618999984	0.5954778000013903	fixation_2	999	999
272.43123069999274	1.0163798999856226	feedback win	999	999
273.4476125999936	1.1168897000025027	ITI	999	999
274.56837090000045	0.5958716999739408	fixation_1	999	999
275.1643142999965	3.0008640000014566	face	2.282168899953831	2
278.16522019996773	0.5958716999739408	fixation_2	999	999
278.71439109998755	1.0000761999981478	feedback win	999	999
279.714469700004	3.2160504999919794	ITI	999	999
282.9343934999779	0.5971059000003152	fixation_1	999	999
283.531589399965	3.00133790000109	face	2.2818142999894917	2
286.5329652999644	0.5971059000003152	fixation_2	999	999
287.08069039997645	1.0002827999996953	feedback win	999	999
288.08097529999213	5.315949899959378	ITI	999	999
293.4008951999713	0.5966848999960348	fixation_1	999	999
293.9976815999835	3.0352072999812663	face	n/a	n/a
297.0329190999619	0.5966848999960348	fixation_2	999	999
297.5810208999901	1.0001044999808073	feedback win	999	999
298.5811442999984	5.316320999991149	ITI	999	999
303.9012963999994	0.6128400999587029	fixation_1	999	999
304.51423420000356	3.0010058999760076	face	2.0332856999593787	2
307.51527919998625	0.6128400999587029	fixation_2	999	999
308.06406770000467	1.016762999992352	feedback win	999	999
309.08083269995404	1.117625200015027	ITI	999	999
310.2023692999501	0.5950248000444844	fixation_1	999	999
310.7974707999965	3.300407200003974	face	3.2999241999932565	1
314.0979066999862	0.5950248000444844	fixation_2	999	999
314.647877099982	1.0162851000204682	feedback loss	999	999
315.6641653999686	1.117886100022588	ITI	999	999
316.7859776999685	0.594860500015784	fixation_1	999	999
317.38098339998396	3.0013793999678455	face	1.7825787999900058	2
320.3824003999471	0.594860500015784	fixation_2	999	999
320.9306403999799	1.0000991999986582	feedback win	999	999
321.9307415999938	3.2158263999735937	ITI	999	999
325.15065829997184	0.5967367999837734	fixation_1	999	999
325.74751399998786	3.0017940999823622	face	2.032785299990792	2
328.74934989999747	0.5967367999837734	fixation_2	999	999
329.29736490000505	1.0166342999436893	feedback loss	999	999
330.31400119996397	5.317071199999191	ITI	999	999
