onset	duration	trial_type	response_time	Endowment	Decision	Offer
4.503245	2	cue_nonsocial	n/a	32	n/a	n/a
4.503245	2	cue_nonsocial_high	n/a	32	n/a	n/a
6.509660	1.716428	dec_nonsocial_high	1.716428	32	n/a	16
6.509660	1.716428	dec_nonsocial_high_accept	1.716428	32	accept	16
12.229032	2	cue_social	n/a	32	n/a	n/a
12.229032	2	cue_social_high	n/a	32	n/a	n/a
14.158727	1.584075	dec_social_high	1.584075	32	n/a	2
14.158727	1.584075	dec_social_high_reject	1.584075	32	reject	2
19.055862	2	cue_social	n/a	32	n/a	n/a
19.055862	2	cue_social_high	n/a	32	n/a	n/a
20.993057	1.333304	dec_social_high	1.333304	32	n/a	16
20.993057	1.333304	dec_social_high_accept	1.333304	32	accept	16
25.911500	2	cue_social	n/a	32	n/a	n/a
25.911500	2	cue_social_high	n/a	32	n/a	n/a
27.826061	1.799915	dec_social_high	1.799915	32	n/a	3
27.826061	1.799915	dec_social_high_reject	1.799915	32	reject	3
35.160675	2	cue_social	n/a	32	n/a	n/a
35.160675	2	cue_social_high	n/a	32	n/a	n/a
37.076508	1.366041	dec_social_high	1.366041	32	n/a	8
37.076508	1.366041	dec_social_high_accept	1.366041	32	accept	8
41.979973	2	cue_social	n/a	16	n/a	n/a
41.979973	2	cue_social_low	n/a	16	n/a	n/a
43.910210	1.782374	dec_social_low	1.782374	16	n/a	2
43.910210	1.782374	dec_social_low_reject	1.782374	16	reject	2
49.631160	2	cue_social	n/a	32	n/a	n/a
49.631160	2	cue_social_high	n/a	32	n/a	n/a
51.559147	1.383417	dec_social_high	1.383417	32	n/a	3
51.559147	1.383417	dec_social_high_accept	1.383417	32	accept	3
57.203197	2	cue_nonsocial	n/a	32	n/a	n/a
57.203197	2	cue_nonsocial_high	n/a	32	n/a	n/a
59.209534	1.350407	dec_nonsocial_high	1.350407	32	n/a	3
59.209534	1.350407	dec_nonsocial_high_reject	1.350407	32	reject	3
64.912094	2	cue_social	n/a	32	n/a	n/a
64.912094	2	cue_social_high	n/a	32	n/a	n/a
66.842964	1.582967	dec_social_high	1.582967	32	n/a	3
66.842964	1.582967	dec_social_high_reject	1.582967	32	reject	3
74.103200	2	cue_nonsocial	n/a	32	n/a	n/a
74.103200	2	cue_nonsocial_high	n/a	32	n/a	n/a
76.109790	1.349636	dec_nonsocial_high	1.349636	32	n/a	16
76.109790	1.349636	dec_nonsocial_high_accept	1.349636	32	accept	16
81.818770	2	cue_social	n/a	32	n/a	n/a
81.818770	2	cue_social_high	n/a	32	n/a	n/a
83.759980	1.066218	dec_social_high	1.066218	32	n/a	2
83.759980	1.066218	dec_social_high_reject	1.066218	32	reject	2
89.403320	2	cue_nonsocial	n/a	16	n/a	n/a
89.403320	2	cue_nonsocial_low	n/a	16	n/a	n/a
91.409650	1.433164	dec_nonsocial_low	1.433164	16	n/a	2
91.409650	1.433164	dec_nonsocial_low_reject	1.433164	16	reject	2
96.325190	2	cue_social	n/a	16	n/a	n/a
96.325190	2	cue_social_low	n/a	16	n/a	n/a
98.242950	1.199866	dec_social_low	1.199866	16	n/a	8
98.242950	1.199866	dec_social_low_accept	1.199866	16	accept	8
103.886215	2	cue_nonsocial	n/a	32	n/a	n/a
103.886215	2	cue_nonsocial_high	n/a	32	n/a	n/a
105.892960	1.099904	dec_nonsocial_high	1.099904	32	n/a	3
105.892960	1.099904	dec_nonsocial_high_accept	1.099904	32	accept	3
113.248640	2	cue_social	n/a	32	n/a	n/a
113.248640	2	cue_social_high	n/a	32	n/a	n/a
115.143690	1.215291	dec_social_high	1.215291	32	n/a	16
115.143690	1.215291	dec_social_high_accept	1.215291	32	accept	16
122.402910	2	cue_nonsocial	n/a	16	n/a	n/a
122.402910	2	cue_nonsocial_low	n/a	16	n/a	n/a
124.409230	1.266320	dec_nonsocial_low	1.266320	16	n/a	8
124.409230	1.266320	dec_nonsocial_low_accept	1.266320	16	accept	8
129.258270	2	cue_social	n/a	16	n/a	n/a
129.258270	2	cue_social_low	n/a	16	n/a	n/a
131.242810	1.399888	dec_social_low	1.399888	16	n/a	2
131.242810	1.399888	dec_social_low_accept	1.399888	16	accept	2
136.122730	2	cue_social	n/a	16	n/a	n/a
136.122730	2	cue_social_low	n/a	16	n/a	n/a
138.076800	1.032332	dec_social_low	1.032332	16	n/a	1
138.076800	1.032332	dec_social_low_reject	1.032332	16	reject	1
145.400160	2	cue_social	n/a	16	n/a	n/a
145.400160	2	cue_social_low	n/a	16	n/a	n/a
147.325870	1.500199	dec_social_low	1.500199	16	n/a	4
147.325870	1.500199	dec_social_low_accept	1.500199	16	accept	4
152.152880	2	cue_nonsocial	n/a	32	n/a	n/a
152.152880	2	cue_nonsocial_high	n/a	32	n/a	n/a
154.159360	1.033614	dec_nonsocial_high	1.033614	32	n/a	2
154.159360	1.033614	dec_nonsocial_high_accept	1.033614	32	accept	2
164.636050	2	cue_nonsocial	n/a	16	n/a	n/a
164.636050	2	cue_nonsocial_low	n/a	16	n/a	n/a
166.643660	1.464985	dec_nonsocial_low	1.464985	16	n/a	4
166.643660	1.464985	dec_nonsocial_low_accept	1.464985	16	accept	4
171.469560	2	cue_nonsocial	n/a	16	n/a	n/a
171.469560	2	cue_nonsocial_low	n/a	16	n/a	n/a
173.475590	2.050142	dec_nonsocial_low	2.050142	16	n/a	2
173.475590	2.050142	dec_nonsocial_low_reject	2.050142	16	reject	2
178.303910	2	cue_nonsocial	n/a	16	n/a	n/a
178.303910	2	cue_nonsocial_low	n/a	16	n/a	n/a
180.309360	1.583261	dec_nonsocial_low	1.583261	16	n/a	1
180.309360	1.583261	dec_nonsocial_low_reject	1.583261	16	reject	1
185.136100	2	cue_nonsocial	n/a	16	n/a	n/a
185.136100	2	cue_nonsocial_low	n/a	16	n/a	n/a
187.142530	1.333359	dec_nonsocial_low	1.333359	16	n/a	8
187.142530	1.333359	dec_nonsocial_low_accept	1.333359	16	accept	8
192.035610	2	cue_social	n/a	16	n/a	n/a
192.035610	2	cue_social_low	n/a	16	n/a	n/a
193.975970	1.216142	dec_social_low	1.216142	16	n/a	1
193.975970	1.216142	dec_social_low_accept	1.216142	16	accept	1
198.854160	2	cue_social	n/a	32	n/a	n/a
198.854160	2	cue_social_high	n/a	32	n/a	n/a
200.809860	1.832782	dec_social_high	1.832782	32	n/a	8
200.809860	1.832782	dec_social_high_accept	1.832782	32	accept	8
209.731220	2	cue_social	n/a	16	n/a	n/a
209.731220	2	cue_social_low	n/a	16	n/a	n/a
211.692860	1.165905	dec_social_low	1.165905	16	n/a	4
211.692860	1.165905	dec_social_low_accept	1.165905	16	accept	4
216.519580	2	cue_nonsocial	n/a	32	n/a	n/a
216.519580	2	cue_nonsocial_high	n/a	32	n/a	n/a
218.525820	1.433257	dec_nonsocial_high	1.433257	32	n/a	3
218.525820	1.433257	dec_nonsocial_high_reject	1.433257	32	reject	3
225.838460	2	cue_social	n/a	32	n/a	n/a
225.838460	2	cue_social_high	n/a	32	n/a	n/a
227.775960	1.649842	dec_social_high	1.649842	32	n/a	2
227.775960	1.649842	dec_social_high_reject	1.649842	32	reject	2
233.419110	2	cue_nonsocial	n/a	16	n/a	n/a
233.419110	2	cue_nonsocial_low	n/a	16	n/a	n/a
235.425840	1.316234	dec_nonsocial_low	1.316234	16	n/a	4
235.425840	1.316234	dec_nonsocial_low_reject	1.316234	16	reject	4
240.252780	2	cue_nonsocial	n/a	16	n/a	n/a
240.252780	2	cue_nonsocial_low	n/a	16	n/a	n/a
242.259890	1.532570	dec_nonsocial_low	1.532570	16	n/a	4
242.259890	1.532570	dec_nonsocial_low_accept	1.532570	16	accept	4
251.203050	2	cue_social	n/a	16	n/a	n/a
251.203050	2	cue_social_low	n/a	16	n/a	n/a
253.124860	1.617583	dec_social_low	1.617583	16	n/a	4
253.124860	1.617583	dec_social_low_accept	1.617583	16	accept	4
258.011750	2	cue_social	n/a	32	n/a	n/a
258.011750	2	cue_social_high	n/a	32	n/a	n/a
259.959320	0.965719	dec_social_high	0.965719	32	n/a	16
259.959320	0.965719	dec_social_high_accept	0.965719	32	accept	16
264.855740	2	cue_social	n/a	16	n/a	n/a
264.855740	2	cue_social_low	n/a	16	n/a	n/a
266.793500	1.448884	dec_social_low	1.448884	16	n/a	8
266.793500	1.448884	dec_social_low_accept	1.448884	16	accept	8
275.652800	2	cue_nonsocial	n/a	32	n/a	n/a
275.652800	2	cue_nonsocial_high	n/a	32	n/a	n/a
277.658940	1.233379	dec_nonsocial_high	1.233379	32	n/a	16
277.658940	1.233379	dec_nonsocial_high_accept	1.233379	32	accept	16
282.485870	2	cue_nonsocial	n/a	16	n/a	n/a
282.485870	2	cue_nonsocial_low	n/a	16	n/a	n/a
284.492100	1.633493	dec_nonsocial_low	1.633493	16	n/a	1
284.492100	1.633493	dec_nonsocial_low_reject	1.633493	16	reject	1
289.319270	2	cue_nonsocial	n/a	32	n/a	n/a
289.319270	2	cue_nonsocial_high	n/a	32	n/a	n/a
291.325000	1.666708	dec_nonsocial_high	1.666708	32	n/a	8
291.325000	1.666708	dec_nonsocial_high_accept	1.666708	32	accept	8
297.030270	2	cue_social	n/a	32	n/a	n/a
297.030270	2	cue_social_high	n/a	32	n/a	n/a
298.976780	1.682036	dec_social_high	1.682036	32	n/a	2
298.976780	1.682036	dec_social_high_reject	1.682036	32	reject	2
306.235440	2	cue_nonsocial	n/a	32	n/a	n/a
306.235440	2	cue_nonsocial_high	n/a	32	n/a	n/a
308.242920	1.499134	dec_nonsocial_high	1.499134	32	n/a	8
308.242920	1.499134	dec_nonsocial_high_accept	1.499134	32	accept	8
313.885600	2	cue_nonsocial	n/a	16	n/a	n/a
313.885600	2	cue_nonsocial_low	n/a	16	n/a	n/a
315.891480	1.566941	dec_nonsocial_low	1.566941	16	n/a	1
315.891480	1.566941	dec_nonsocial_low_reject	1.566941	16	reject	1
321.535640	2	cue_nonsocial	n/a	16	n/a	n/a
321.535640	2	cue_nonsocial_low	n/a	16	n/a	n/a
323.541700	1.766217	dec_nonsocial_low	1.766217	16	n/a	1
323.541700	1.766217	dec_nonsocial_low_reject	1.766217	16	reject	1
328.432650	2	cue_social	n/a	16	n/a	n/a
328.432650	2	cue_social_low	n/a	16	n/a	n/a
330.376740	1.532236	dec_social_low	1.532236	16	n/a	8
330.376740	1.532236	dec_social_low_accept	1.532236	16	accept	8
336.086300	2	cue_social	n/a	32	n/a	n/a
336.086300	2	cue_social_high	n/a	32	n/a	n/a
338.024800	1.317084	dec_social_high	1.317084	32	n/a	8
338.024800	1.317084	dec_social_high_accept	1.317084	32	accept	8
342.852170	2	cue_nonsocial	n/a	16	n/a	n/a
342.852170	2	cue_nonsocial_low	n/a	16	n/a	n/a
344.857850	1.334255	dec_nonsocial_low	1.334255	16	n/a	1
344.857850	1.334255	dec_nonsocial_low_reject	1.334255	16	reject	1
349.685760	2	cue_nonsocial	n/a	32	n/a	n/a
349.685760	2	cue_nonsocial_high	n/a	32	n/a	n/a
351.692540	1.449528	dec_nonsocial_high	1.449528	32	n/a	3
351.692540	1.449528	dec_nonsocial_high_reject	1.449528	32	reject	3
356.519000	2	cue_nonsocial	n/a	32	n/a	n/a
356.519000	2	cue_nonsocial_high	n/a	32	n/a	n/a
358.526700	1.514689	dec_nonsocial_high	1.514689	32	n/a	16
358.526700	1.514689	dec_nonsocial_high_accept	1.514689	32	accept	16
364.239440	2	cue_social	n/a	32	n/a	n/a
364.239440	2	cue_social_high	n/a	32	n/a	n/a
366.175630	1.665889	dec_social_high	1.665889	32	n/a	3
366.175630	1.665889	dec_social_high_accept	1.665889	32	accept	3
371.002260	2	cue_nonsocial	n/a	16	n/a	n/a
371.002260	2	cue_nonsocial_low	n/a	16	n/a	n/a
373.008700	1.666603	dec_nonsocial_low	1.666603	16	n/a	4
373.008700	1.666603	dec_nonsocial_low_accept	1.666603	16	accept	4
