onset	duration	trial_type	response_time	Endowment	Endowment_pmod	Decision	Decision_pmod	Offer_pmod
4.503434	2	cue_nonsocial	n/a	32	9	n/a	n/a	n/a
4.503434	2	cue_nonsocial_high	n/a	32	7	n/a	n/a	n/a
11.336236	2	cue_nonsocial	n/a	16	-7	n/a	n/a	n/a
11.336236	2	cue_nonsocial_low	n/a	16	-9	n/a	n/a	n/a
18.247396	2	cue_social	n/a	32	7	n/a	n/a	n/a
18.247396	2	cue_social_high	n/a	32	9	n/a	n/a	n/a
25.066652	2	cue_social	n/a	16	-9	n/a	n/a	n/a
25.066652	2	cue_social_low	n/a	16	-7	n/a	n/a	n/a
32.653286	2	cue_nonsocial	n/a	32	9	n/a	n/a	n/a
32.653286	2	cue_nonsocial_high	n/a	32	7	n/a	n/a	n/a
39.573696	2	cue_social	n/a	16	-9	n/a	n/a	n/a
39.573696	2	cue_social_low	n/a	16	-7	n/a	n/a	n/a
50.353943	2	cue_nonsocial	n/a	32	9	n/a	n/a	n/a
50.353943	2	cue_nonsocial_high	n/a	32	7	n/a	n/a	n/a
59.665640	2	cue_social	n/a	16	-9	n/a	n/a	n/a
59.665640	2	cue_social_low	n/a	16	-7	n/a	n/a	n/a
70.574750	2	cue_social	n/a	32	7	n/a	n/a	n/a
70.574750	2	cue_social_high	n/a	32	9	n/a	n/a	n/a
77.302980	2	cue_nonsocial	n/a	16	-7	n/a	n/a	n/a
77.302980	2	cue_nonsocial_low	n/a	16	-9	n/a	n/a	n/a
86.593895	2	cue_social	n/a	32	7	n/a	n/a	n/a
86.593895	2	cue_social_high	n/a	32	9	n/a	n/a	n/a
93.403250	2	cue_nonsocial	n/a	16	-7	n/a	n/a	n/a
93.403250	2	cue_nonsocial_low	n/a	16	-9	n/a	n/a	n/a
100.236565	2	cue_nonsocial	n/a	16	-7	n/a	n/a	n/a
100.236565	2	cue_nonsocial_low	n/a	16	-9	n/a	n/a	n/a
107.886370	2	cue_nonsocial	n/a	32	9	n/a	n/a	n/a
107.886370	2	cue_nonsocial_high	n/a	32	7	n/a	n/a	n/a
118.753044	2	cue_nonsocial	n/a	32	9	n/a	n/a	n/a
118.753044	2	cue_nonsocial_high	n/a	32	7	n/a	n/a	n/a
125.586310	2	cue_nonsocial	n/a	16	-7	n/a	n/a	n/a
125.586310	2	cue_nonsocial_low	n/a	16	-9	n/a	n/a	n/a
132.488340	2	cue_social	n/a	32	7	n/a	n/a	n/a
132.488340	2	cue_social_high	n/a	32	9	n/a	n/a	n/a
139.315920	2	cue_social	n/a	32	7	n/a	n/a	n/a
139.315920	2	cue_social_high	n/a	32	9	n/a	n/a	n/a
146.086530	2	cue_nonsocial	n/a	16	-7	n/a	n/a	n/a
146.086530	2	cue_nonsocial_low	n/a	16	-9	n/a	n/a	n/a
152.979720	2	cue_social	n/a	32	7	n/a	n/a	n/a
152.979720	2	cue_social_high	n/a	32	9	n/a	n/a	n/a
159.815610	2	cue_social	n/a	32	7	n/a	n/a	n/a
159.815610	2	cue_social_high	n/a	32	9	n/a	n/a	n/a
169.028090	2	cue_social	n/a	32	7	n/a	n/a	n/a
169.028090	2	cue_social_high	n/a	32	9	n/a	n/a	n/a
175.946810	2	cue_social	n/a	16	-9	n/a	n/a	n/a
175.946810	2	cue_social_low	n/a	16	-7	n/a	n/a	n/a
183.502900	2	cue_nonsocial	n/a	16	-7	n/a	n/a	n/a
183.502900	2	cue_nonsocial_low	n/a	16	-9	n/a	n/a	n/a
190.335980	2	cue_nonsocial	n/a	32	9	n/a	n/a	n/a
190.335980	2	cue_nonsocial_high	n/a	32	7	n/a	n/a	n/a
198.036130	2	cue_social	n/a	16	-9	n/a	n/a	n/a
198.036130	2	cue_social_low	n/a	16	-7	n/a	n/a	n/a
205.635930	2	cue_nonsocial	n/a	16	-7	n/a	n/a	n/a
205.635930	2	cue_nonsocial_low	n/a	16	-9	n/a	n/a	n/a
213.340760	2	cue_social	n/a	32	7	n/a	n/a	n/a
213.340760	2	cue_social_high	n/a	32	9	n/a	n/a	n/a
222.535960	2	cue_nonsocial	n/a	32	9	n/a	n/a	n/a
222.535960	2	cue_nonsocial_high	n/a	32	7	n/a	n/a	n/a
230.186000	2	cue_nonsocial	n/a	16	-7	n/a	n/a	n/a
230.186000	2	cue_nonsocial_low	n/a	16	-9	n/a	n/a	n/a
237.835820	2	cue_nonsocial	n/a	16	-7	n/a	n/a	n/a
237.835820	2	cue_nonsocial_low	n/a	16	-9	n/a	n/a	n/a
247.176350	2	cue_social	n/a	16	-9	n/a	n/a	n/a
247.176350	2	cue_social_low	n/a	16	-7	n/a	n/a	n/a
253.974760	2	cue_social	n/a	32	7	n/a	n/a	n/a
253.974760	2	cue_social_high	n/a	32	9	n/a	n/a	n/a
261.615700	2	cue_social	n/a	32	7	n/a	n/a	n/a
261.615700	2	cue_social_high	n/a	32	9	n/a	n/a	n/a
269.261960	2	cue_social	n/a	16	-9	n/a	n/a	n/a
269.261960	2	cue_social_low	n/a	16	-7	n/a	n/a	n/a
278.469330	2	cue_nonsocial	n/a	32	9	n/a	n/a	n/a
278.469330	2	cue_nonsocial_high	n/a	32	7	n/a	n/a	n/a
286.163300	2	cue_social	n/a	32	7	n/a	n/a	n/a
286.163300	2	cue_social_high	n/a	32	9	n/a	n/a	n/a
293.012400	2	cue_social	n/a	32	7	n/a	n/a	n/a
293.012400	2	cue_social_high	n/a	32	9	n/a	n/a	n/a
299.785860	2	cue_nonsocial	n/a	32	9	n/a	n/a	n/a
299.785860	2	cue_nonsocial_high	n/a	32	7	n/a	n/a	n/a
306.618960	2	cue_nonsocial	n/a	32	9	n/a	n/a	n/a
306.618960	2	cue_nonsocial_high	n/a	32	7	n/a	n/a	n/a
313.515350	2	cue_social	n/a	16	-9	n/a	n/a	n/a
313.515350	2	cue_social_low	n/a	16	-7	n/a	n/a	n/a
325.935940	2	cue_nonsocial	n/a	16	-7	n/a	n/a	n/a
325.935940	2	cue_nonsocial_low	n/a	16	-9	n/a	n/a	n/a
335.185730	2	cue_nonsocial	n/a	16	-7	n/a	n/a	n/a
335.185730	2	cue_nonsocial_low	n/a	16	-9	n/a	n/a	n/a
342.915160	2	cue_social	n/a	32	7	n/a	n/a	n/a
342.915160	2	cue_social_high	n/a	32	9	n/a	n/a	n/a
350.545440	2	cue_social	n/a	16	-9	n/a	n/a	n/a
350.545440	2	cue_social_low	n/a	16	-7	n/a	n/a	n/a
357.381870	2	cue_social	n/a	16	-9	n/a	n/a	n/a
357.381870	2	cue_social_low	n/a	16	-7	n/a	n/a	n/a
364.151580	2	cue_nonsocial	n/a	16	-7	n/a	n/a	n/a
364.151580	2	cue_nonsocial_low	n/a	16	-9	n/a	n/a	n/a
370.985440	2	cue_nonsocial	n/a	32	9	n/a	n/a	n/a
370.985440	2	cue_nonsocial_high	n/a	32	7	n/a	n/a	n/a
6.510266	1.599496	dec_nonsocial_choice	1.599496	32.000000	n/a	16	2.688802e-01	2.688802e-01
6.510266	1.599496	dec_choice	1.599496	32.000000	n/a	16	2.695312e-01	2.695312e-01
6.510266	1.599496	dec_nonsocial_accept	1.599496	32.000000	n/a	16	1.466346e-01	1.466346e-01
6.510266	1.599496	dec_accept	1.599496	32.000000	n/a	16	1.466346e-01	1.466346e-01
6.510266	1.599496	dec_nonsocial_high	1.599496	32.000000	n/a	16	2.695312e-01	2.695312e-01
6.510266	1.599496	dec_nonsocial_accept_high	1.599496	32.000000	n/a	16	1.466346e-01	1.466346e-01
13.342216	1.450646	dec_nonsocial_choice	1.450646	16.000000	n/a	8	2.688802e-01	2.688802e-01
13.342216	1.450646	dec_choice	1.450646	16.000000	n/a	8	2.695312e-01	2.695312e-01
13.342216	1.450646	dec_nonsocial_accept	1.450646	16.000000	n/a	8	1.466346e-01	1.466346e-01
13.342216	1.450646	dec_accept	1.450646	16.000000	n/a	8	1.466346e-01	1.466346e-01
13.342216	1.450646	dec_nonsocial_accept_high	1.450646	16.000000	n/a	8	1.466346e-01	1.466346e-01
20.175749	1.383214	dec_social_choice	1.383214	32.000000	n/a	8	1.888021e-02	1.888021e-02
20.175749	1.383214	dec_choice	1.383214	32.000000	n/a	8	1.822917e-02	1.822917e-02
20.175749	1.383214	dec_social_accept	1.383214	32.000000	n/a	8	-1.033654e-01	-1.033654e-01
20.175749	1.383214	dec_accept	1.383214	32.000000	n/a	8	-1.033654e-01	-1.033654e-01
20.175749	1.383214	dec_social_accept_high	1.383214	32.000000	n/a	8	1.822917e-02	1.822917e-02
27.009047	1.351065	dec_social_choice	1.351065	16.000000	n/a	0	0	-2.311198e-01
27.009047	1.351065	dec_choice	1.351065	16.000000	n/a	0	0	-2.317708e-01
27.009047	1.351065	dec_social_reject	1.351065	16.000000	n/a	0	0	3.835227e-02
27.009047	1.351065	dec_reject	1.351065	16.000000	n/a	0	0	3.693182e-02
27.009047	1.351065	dec_social_low	1.351065	16.000000	n/a	0	-2.317708e-01	-2.317708e-01
27.009047	1.351065	dec_social_reject_low	1.351065	16.000000	n/a	2	-1.067708e-01	-2.317708e-01
34.660046	1.249555	dec_nonsocial_choice	1.249555	32.000000	n/a	0	0	-2.311198e-01
34.660046	1.249555	dec_choice	1.249555	32.000000	n/a	0	0	-2.304688e-01
34.660046	1.249555	dec_nonsocial_reject	1.249555	32.000000	n/a	0	0	7.102273e-03
34.660046	1.249555	dec_reject	1.249555	32.000000	n/a	0	0	8.522727e-03
34.660046	1.249555	dec_nonsocial_reject_low	1.249555	32.000000	n/a	3	5.681818e-03	-8.806818e-02
41.492140	1.317449	dec_social_choice	1.317449	16.000000	n/a	0	0	-2.311198e-01
41.492140	1.317449	dec_choice	1.317449	16.000000	n/a	0	0	-2.317708e-01
41.492140	1.317449	dec_social_reject	1.317449	16.000000	n/a	0	0	-2.414773e-02
41.492140	1.317449	dec_reject	1.317449	16.000000	n/a	0	0	-2.556818e-02
41.492140	1.317449	dec_social_low	1.317449	16.000000	n/a	0	-2.317708e-01	-2.317708e-01
41.492140	1.317449	dec_social_reject_low	1.317449	16.000000	n/a	1	-1.692708e-01	-2.317708e-01
52.359500	1.366162	dec_nonsocial_choice	1.366162	32.000000	n/a	0	0	-2.311198e-01
52.359500	1.366162	dec_choice	1.366162	32.000000	n/a	0	0	-2.304688e-01
52.359500	1.366162	dec_nonsocial_reject	1.366162	32.000000	n/a	0	0	-2.414773e-02
52.359500	1.366162	dec_reject	1.366162	32.000000	n/a	0	0	-2.272727e-02
52.359500	1.366162	dec_nonsocial_reject_low	1.366162	32.000000	n/a	2	-2.556818e-02	-8.806818e-02
61.609000	1.350595	dec_social_choice	1.350595	16.000000	n/a	0	0	-2.311198e-01
61.609000	1.350595	dec_choice	1.350595	16.000000	n/a	0	0	-2.317708e-01
61.609000	1.350595	dec_social_reject	1.350595	16.000000	n/a	0	0	-2.414773e-02
61.609000	1.350595	dec_reject	1.350595	16.000000	n/a	0	0	-2.556818e-02
61.609000	1.350595	dec_social_low	1.350595	16.000000	n/a	0	-2.317708e-01	-2.317708e-01
61.609000	1.350595	dec_social_reject_low	1.350595	16.000000	n/a	1	-1.692708e-01	-2.317708e-01
72.476190	1.083760	dec_social_choice	1.083760	32.000000	n/a	16	2.688802e-01	2.688802e-01
72.476190	1.083760	dec_choice	1.083760	32.000000	n/a	16	2.682292e-01	2.682292e-01
72.476190	1.083760	dec_social_accept	1.083760	32.000000	n/a	16	1.466346e-01	1.466346e-01
72.476190	1.083760	dec_accept	1.083760	32.000000	n/a	16	1.466346e-01	1.466346e-01
72.476190	1.083760	dec_social_accept_high	1.083760	32.000000	n/a	16	2.682292e-01	2.682292e-01
79.310010	1.565784	dec_nonsocial_choice	1.565784	16.000000	n/a	0	0	-2.311198e-01
79.310010	1.565784	dec_choice	1.565784	16.000000	n/a	0	0	-2.304688e-01
79.310010	1.565784	dec_nonsocial_reject	1.565784	16.000000	n/a	0	0	-2.414773e-02
79.310010	1.565784	dec_reject	1.565784	16.000000	n/a	0	0	-2.272727e-02
79.310010	1.565784	dec_nonsocial_low	1.565784	16.000000	n/a	0	-2.304688e-01	-2.304688e-01
79.310010	1.565784	dec_nonsocial_reject_low	1.565784	16.000000	n/a	1	-2.272727e-02	-8.522727e-02
88.575990	1.250200	dec_social_choice	1.250200	32.000000	n/a	16	2.688802e-01	2.688802e-01
88.575990	1.250200	dec_choice	1.250200	32.000000	n/a	16	2.682292e-01	2.682292e-01
88.575990	1.250200	dec_social_accept	1.250200	32.000000	n/a	16	1.466346e-01	1.466346e-01
88.575990	1.250200	dec_accept	1.250200	32.000000	n/a	16	1.466346e-01	1.466346e-01
88.575990	1.250200	dec_social_high	1.250200	32.000000	n/a	16	2.682292e-01	2.682292e-01
88.575990	1.250200	dec_social_accept_high	1.250200	32.000000	n/a	16	2.682292e-01	2.682292e-01
95.409990	1.882594	dec_nonsocial_choice	1.882594	16.000000	n/a	8	2.688802e-01	2.688802e-01
95.409990	1.882594	dec_choice	1.882594	16.000000	n/a	8	2.695312e-01	2.695312e-01
95.409990	1.882594	dec_nonsocial_accept	1.882594	16.000000	n/a	8	1.466346e-01	1.466346e-01
95.409990	1.882594	dec_accept	1.882594	16.000000	n/a	8	1.466346e-01	1.466346e-01
95.409990	1.882594	dec_nonsocial_high	1.882594	16.000000	n/a	8	2.695312e-01	2.695312e-01
95.409990	1.882594	dec_nonsocial_accept_high	1.882594	16.000000	n/a	8	1.466346e-01	1.466346e-01
102.243030	1.482961	dec_nonsocial_choice	1.482961	16.000000	n/a	8	2.688802e-01	2.688802e-01
102.243030	1.482961	dec_choice	1.482961	16.000000	n/a	8	2.695312e-01	2.695312e-01
102.243030	1.482961	dec_nonsocial_accept	1.482961	16.000000	n/a	8	1.466346e-01	1.466346e-01
102.243030	1.482961	dec_accept	1.482961	16.000000	n/a	8	1.466346e-01	1.466346e-01
102.243030	1.482961	dec_nonsocial_high	1.482961	16.000000	n/a	8	2.695312e-01	2.695312e-01
102.243030	1.482961	dec_nonsocial_accept_high	1.482961	16.000000	n/a	8	1.466346e-01	1.466346e-01
109.893105	1.533017	dec_nonsocial_choice	1.533017	32.000000	n/a	16	2.688802e-01	2.688802e-01
109.893105	1.533017	dec_choice	1.533017	32.000000	n/a	16	2.695312e-01	2.695312e-01
109.893105	1.533017	dec_nonsocial_accept	1.533017	32.000000	n/a	16	1.466346e-01	1.466346e-01
109.893105	1.533017	dec_accept	1.533017	32.000000	n/a	16	1.466346e-01	1.466346e-01
109.893105	1.533017	dec_nonsocial_high	1.533017	32.000000	n/a	16	2.695312e-01	2.695312e-01
109.893105	1.533017	dec_nonsocial_accept_high	1.533017	32.000000	n/a	16	1.466346e-01	1.466346e-01
120.758965	1.733747	dec_nonsocial_choice	1.733747	32.000000	n/a	3	-1.373698e-01	-1.373698e-01
120.758965	1.733747	dec_choice	1.733747	32.000000	n/a	3	-1.367188e-01	-1.367188e-01
120.758965	1.733747	dec_nonsocial_accept	1.733747	32.000000	n/a	3	-2.596154e-01	-2.596154e-01
120.758965	1.733747	dec_accept	1.733747	32.000000	n/a	3	-2.596154e-01	-2.596154e-01
120.758965	1.733747	dec_nonsocial_accept_low	1.733747	32.000000	n/a	3	-2.596154e-01	-2.596154e-01
127.593140	1.133079	dec_nonsocial_choice	1.133079	16.000000	n/a	8	2.688802e-01	2.688802e-01
127.593140	1.133079	dec_choice	1.133079	16.000000	n/a	8	2.695312e-01	2.695312e-01
127.593140	1.133079	dec_nonsocial_accept	1.133079	16.000000	n/a	8	1.466346e-01	1.466346e-01
127.593140	1.133079	dec_accept	1.133079	16.000000	n/a	8	1.466346e-01	1.466346e-01
127.593140	1.133079	dec_nonsocial_high	1.133079	16.000000	n/a	8	2.695312e-01	2.695312e-01
127.593140	1.133079	dec_nonsocial_accept_high	1.133079	16.000000	n/a	8	1.466346e-01	1.466346e-01
134.425920	1.316625	dec_social_choice	1.316625	32.000000	n/a	0	0	-2.311198e-01
134.425920	1.316625	dec_choice	1.316625	32.000000	n/a	0	0	-2.317708e-01
134.425920	1.316625	dec_social_reject	1.316625	32.000000	n/a	0	0	-2.414773e-02
134.425920	1.316625	dec_reject	1.316625	32.000000	n/a	0	0	-2.556818e-02
134.425920	1.316625	dec_social_low	1.316625	32.000000	n/a	0	-2.317708e-01	-2.317708e-01
134.425920	1.316625	dec_social_reject_low	1.316625	32.000000	n/a	2	-1.692708e-01	-2.317708e-01
141.259170	1.516382	dec_social_choice	1.516382	32.000000	n/a	0	0	-2.311198e-01
141.259170	1.516382	dec_choice	1.516382	32.000000	n/a	0	0	-2.317708e-01
141.259170	1.516382	dec_social_reject	1.516382	32.000000	n/a	0	0	-2.414773e-02
141.259170	1.516382	dec_reject	1.516382	32.000000	n/a	0	0	-2.556818e-02
141.259170	1.516382	dec_social_low	1.516382	32.000000	n/a	0	-2.317708e-01	-2.317708e-01
141.259170	1.516382	dec_social_reject_low	1.516382	32.000000	n/a	2	-1.692708e-01	-2.317708e-01
148.093930	1.282100	dec_nonsocial_choice	1.282100	16.000000	n/a	0	0	-2.311198e-01
148.093930	1.282100	dec_choice	1.282100	16.000000	n/a	0	0	-2.304688e-01
148.093930	1.282100	dec_nonsocial_reject	1.282100	16.000000	n/a	0	0	3.835227e-02
148.093930	1.282100	dec_reject	1.282100	16.000000	n/a	0	0	3.977273e-02
148.093930	1.282100	dec_nonsocial_reject_low	1.282100	16.000000	n/a	2	3.693182e-02	-8.806818e-02
154.926100	1.483311	dec_social_choice	1.483311	32.000000	n/a	8	1.888021e-02	1.888021e-02
154.926100	1.483311	dec_choice	1.483311	32.000000	n/a	8	1.822917e-02	1.822917e-02
154.926100	1.483311	dec_social_accept	1.483311	32.000000	n/a	8	-1.033654e-01	-1.033654e-01
154.926100	1.483311	dec_accept	1.483311	32.000000	n/a	8	-1.033654e-01	-1.033654e-01
154.926100	1.483311	dec_social_high	1.483311	32.000000	n/a	8	1.822917e-02	1.822917e-02
154.926100	1.483311	dec_social_accept_high	1.483311	32.000000	n/a	8	1.822917e-02	1.822917e-02
161.759920	2.549641	dec_social_choice	2.549641	32.000000	n/a	8	1.888021e-02	1.888021e-02
161.759920	2.549641	dec_choice	2.549641	32.000000	n/a	8	1.822917e-02	1.822917e-02
161.759920	2.549641	dec_social_accept	2.549641	32.000000	n/a	8	-1.033654e-01	-1.033654e-01
161.759920	2.549641	dec_accept	2.549641	32.000000	n/a	8	-1.033654e-01	-1.033654e-01
161.759920	2.549641	dec_social_accept_high	2.549641	32.000000	n/a	8	1.822917e-02	1.822917e-02
171.025880	1.600128	dec_social_choice	1.600128	32.000000	n/a	0	0	-2.311198e-01
171.025880	1.600128	dec_choice	1.600128	32.000000	n/a	0	0	-2.317708e-01
171.025880	1.600128	dec_social_reject	1.600128	32.000000	n/a	0	0	-2.414773e-02
171.025880	1.600128	dec_reject	1.600128	32.000000	n/a	0	0	-2.556818e-02
171.025880	1.600128	dec_social_low	1.600128	32.000000	n/a	0	-2.317708e-01	-2.317708e-01
171.025880	1.600128	dec_social_reject_low	1.600128	32.000000	n/a	2	-1.692708e-01	-2.317708e-01
177.858490	1.266943	dec_social_choice	1.266943	16.000000	n/a	0	0	-2.311198e-01
177.858490	1.266943	dec_choice	1.266943	16.000000	n/a	0	0	-2.317708e-01
177.858490	1.266943	dec_social_reject	1.266943	16.000000	n/a	0	0	3.835227e-02
177.858490	1.266943	dec_reject	1.266943	16.000000	n/a	0	0	3.693182e-02
177.858490	1.266943	dec_social_reject_low	1.266943	16.000000	n/a	2	-1.067708e-01	-2.317708e-01
185.509980	1.965383	dec_nonsocial_choice	1.965383	16.000000	n/a	4	1.888021e-02	1.888021e-02
185.509980	1.965383	dec_choice	1.965383	16.000000	n/a	4	1.953125e-02	1.953125e-02
185.509980	1.965383	dec_nonsocial_accept	1.965383	16.000000	n/a	4	-1.033654e-01	-1.033654e-01
185.509980	1.965383	dec_accept	1.965383	16.000000	n/a	4	-1.033654e-01	-1.033654e-01
185.509980	1.965383	dec_nonsocial_accept_high	1.965383	16.000000	n/a	4	-1.033654e-01	-1.033654e-01
192.342000	1.333728	dec_nonsocial_choice	1.333728	32.000000	n/a	0	0	-2.311198e-01
192.342000	1.333728	dec_choice	1.333728	32.000000	n/a	0	0	-2.304688e-01
192.342000	1.333728	dec_nonsocial_reject	1.333728	32.000000	n/a	0	0	7.102273e-03
192.342000	1.333728	dec_reject	1.333728	32.000000	n/a	0	0	8.522727e-03
192.342000	1.333728	dec_nonsocial_reject_low	1.333728	32.000000	n/a	3	5.681818e-03	-8.806818e-02
199.991910	1.566563	dec_social_choice	1.566563	16.000000	n/a	0	0	-2.311198e-01
199.991910	1.566563	dec_choice	1.566563	16.000000	n/a	0	0	-2.317708e-01
199.991910	1.566563	dec_social_reject	1.566563	16.000000	n/a	0	0	3.835227e-02
199.991910	1.566563	dec_reject	1.566563	16.000000	n/a	0	0	3.693182e-02
199.991910	1.566563	dec_social_reject_low	1.566563	16.000000	n/a	2	-1.067708e-01	-2.317708e-01
207.641830	1.251076	dec_nonsocial_choice	1.251076	16.000000	n/a	0	0	-2.311198e-01
207.641830	1.251076	dec_choice	1.251076	16.000000	n/a	0	0	-2.304688e-01
207.641830	1.251076	dec_nonsocial_reject	1.251076	16.000000	n/a	0	0	3.835227e-02
207.641830	1.251076	dec_reject	1.251076	16.000000	n/a	0	0	3.977273e-02
207.641830	1.251076	dec_nonsocial_reject_low	1.251076	16.000000	n/a	2	3.693182e-02	-8.806818e-02
215.276250	1.832591	dec_social_choice	1.832591	32.000000	n/a	0	0	-2.311198e-01
215.276250	1.832591	dec_choice	1.832591	32.000000	n/a	0	0	-2.317708e-01
215.276250	1.832591	dec_social_reject	1.832591	32.000000	n/a	0	0	-2.414773e-02
215.276250	1.832591	dec_reject	1.832591	32.000000	n/a	0	0	-2.556818e-02
215.276250	1.832591	dec_social_low	1.832591	32.000000	n/a	0	-2.317708e-01	-2.317708e-01
215.276250	1.832591	dec_social_reject_low	1.832591	32.000000	n/a	2	-1.692708e-01	-2.317708e-01
224.541890	1.500488	dec_nonsocial_choice	1.500488	32.000000	n/a	0	0	-2.311198e-01
224.541890	1.500488	dec_choice	1.500488	32.000000	n/a	0	0	-2.304688e-01
224.541890	1.500488	dec_nonsocial_reject	1.500488	32.000000	n/a	0	0	-2.414773e-02
224.541890	1.500488	dec_reject	1.500488	32.000000	n/a	0	0	-2.272727e-02
224.541890	1.500488	dec_nonsocial_reject_low	1.500488	32.000000	n/a	2	-2.556818e-02	-8.806818e-02
232.192730	1.349801	dec_nonsocial_choice	1.349801	16.000000	n/a	4	1.888021e-02	1.888021e-02
232.192730	1.349801	dec_choice	1.349801	16.000000	n/a	4	1.953125e-02	1.953125e-02
232.192730	1.349801	dec_nonsocial_accept	1.349801	16.000000	n/a	4	-1.033654e-01	-1.033654e-01
232.192730	1.349801	dec_accept	1.349801	16.000000	n/a	4	-1.033654e-01	-1.033654e-01
232.192730	1.349801	dec_nonsocial_high	1.349801	16.000000	n/a	4	1.953125e-02	1.953125e-02
232.192730	1.349801	dec_nonsocial_accept_high	1.349801	16.000000	n/a	4	-1.033654e-01	-1.033654e-01
239.842730	1.466268	dec_nonsocial_choice	1.466268	16.000000	n/a	0	0	-2.311198e-01
239.842730	1.466268	dec_choice	1.466268	16.000000	n/a	0	0	-2.304688e-01
239.842730	1.466268	dec_nonsocial_reject	1.466268	16.000000	n/a	0	0	3.835227e-02
239.842730	1.466268	dec_reject	1.466268	16.000000	n/a	0	0	3.977273e-02
239.842730	1.466268	dec_nonsocial_low	1.466268	16.000000	n/a	0	-2.304688e-01	-2.304688e-01
239.842730	1.466268	dec_nonsocial_reject_low	1.466268	16.000000	n/a	2	3.977273e-02	-8.522727e-02
249.091670	1.600704	dec_social_choice	1.600704	16.000000	n/a	8	2.688802e-01	2.688802e-01
249.091670	1.600704	dec_choice	1.600704	16.000000	n/a	8	2.682292e-01	2.682292e-01
249.091670	1.600704	dec_social_accept	1.600704	16.000000	n/a	8	1.466346e-01	1.466346e-01
249.091670	1.600704	dec_accept	1.600704	16.000000	n/a	8	1.466346e-01	1.466346e-01
249.091670	1.600704	dec_social_high	1.600704	16.000000	n/a	8	2.682292e-01	2.682292e-01
249.091670	1.600704	dec_social_accept_high	1.600704	16.000000	n/a	8	2.682292e-01	2.682292e-01
255.925800	1.216111	dec_social_choice	1.216111	32.000000	n/a	0	0	-2.311198e-01
255.925800	1.216111	dec_choice	1.216111	32.000000	n/a	0	0	-2.317708e-01
255.925800	1.216111	dec_social_reject	1.216111	32.000000	n/a	0	0	7.102273e-03
255.925800	1.216111	dec_reject	1.216111	32.000000	n/a	0	0	5.681818e-03
255.925800	1.216111	dec_social_reject_low	1.216111	32.000000	n/a	3	-1.380208e-01	-2.317708e-01
263.576800	1.232912	dec_social_choice	1.232912	32.000000	n/a	16	2.688802e-01	2.688802e-01
263.576800	1.232912	dec_choice	1.232912	32.000000	n/a	16	2.682292e-01	2.682292e-01
263.576800	1.232912	dec_social_accept	1.232912	32.000000	n/a	16	1.466346e-01	1.466346e-01
263.576800	1.232912	dec_accept	1.232912	32.000000	n/a	16	1.466346e-01	1.466346e-01
263.576800	1.232912	dec_social_accept_high	1.232912	32.000000	n/a	16	2.682292e-01	2.682292e-01
271.224880	1.600721	dec_social_choice	1.600721	16.000000	n/a	8	2.688802e-01	2.688802e-01
271.224880	1.600721	dec_choice	1.600721	16.000000	n/a	8	2.682292e-01	2.682292e-01
271.224880	1.600721	dec_social_accept	1.600721	16.000000	n/a	8	1.466346e-01	1.466346e-01
271.224880	1.600721	dec_accept	1.600721	16.000000	n/a	8	1.466346e-01	1.466346e-01
271.224880	1.600721	dec_social_high	1.600721	16.000000	n/a	8	2.682292e-01	2.682292e-01
271.224880	1.600721	dec_social_accept_high	1.600721	16.000000	n/a	8	2.682292e-01	2.682292e-01
280.476680	1.698858	dec_nonsocial_choice	1.698858	32.000000	n/a	8	1.888021e-02	1.888021e-02
280.476680	1.698858	dec_choice	1.698858	32.000000	n/a	8	1.953125e-02	1.953125e-02
280.476680	1.698858	dec_nonsocial_accept	1.698858	32.000000	n/a	8	-1.033654e-01	-1.033654e-01
280.476680	1.698858	dec_accept	1.698858	32.000000	n/a	8	-1.033654e-01	-1.033654e-01
280.476680	1.698858	dec_nonsocial_accept_high	1.698858	32.000000	n/a	8	-1.033654e-01	-1.033654e-01
288.125800	1.266006	dec_social_choice	1.266006	32.000000	n/a	16	2.688802e-01	2.688802e-01
288.125800	1.266006	dec_choice	1.266006	32.000000	n/a	16	2.682292e-01	2.682292e-01
288.125800	1.266006	dec_social_accept	1.266006	32.000000	n/a	16	1.466346e-01	1.466346e-01
288.125800	1.266006	dec_accept	1.266006	32.000000	n/a	16	1.466346e-01	1.466346e-01
288.125800	1.266006	dec_social_accept_high	1.266006	32.000000	n/a	16	2.682292e-01	2.682292e-01
294.958220	1.716896	dec_social_choice	1.716896	32.000000	n/a	8	1.888021e-02	1.888021e-02
294.958220	1.716896	dec_choice	1.716896	32.000000	n/a	8	1.822917e-02	1.822917e-02
294.958220	1.716896	dec_social_accept	1.716896	32.000000	n/a	8	-1.033654e-01	-1.033654e-01
294.958220	1.716896	dec_accept	1.716896	32.000000	n/a	8	-1.033654e-01	-1.033654e-01
294.958220	1.716896	dec_social_high	1.716896	32.000000	n/a	8	1.822917e-02	1.822917e-02
294.958220	1.716896	dec_social_accept_high	1.716896	32.000000	n/a	8	1.822917e-02	1.822917e-02
301.792800	1.449309	dec_nonsocial_choice	1.449309	32.000000	n/a	8	1.888021e-02	1.888021e-02
301.792800	1.449309	dec_choice	1.449309	32.000000	n/a	8	1.953125e-02	1.953125e-02
301.792800	1.449309	dec_nonsocial_accept	1.449309	32.000000	n/a	8	-1.033654e-01	-1.033654e-01
301.792800	1.449309	dec_accept	1.449309	32.000000	n/a	8	-1.033654e-01	-1.033654e-01
301.792800	1.449309	dec_nonsocial_accept_high	1.449309	32.000000	n/a	8	-1.033654e-01	-1.033654e-01
308.625760	1.349733	dec_nonsocial_choice	1.349733	32.000000	n/a	8	1.888021e-02	1.888021e-02
308.625760	1.349733	dec_choice	1.349733	32.000000	n/a	8	1.953125e-02	1.953125e-02
308.625760	1.349733	dec_nonsocial_accept	1.349733	32.000000	n/a	8	-1.033654e-01	-1.033654e-01
308.625760	1.349733	dec_accept	1.349733	32.000000	n/a	8	-1.033654e-01	-1.033654e-01
308.625760	1.349733	dec_nonsocial_accept_high	1.349733	32.000000	n/a	8	-1.033654e-01	-1.033654e-01
315.458770	1.066445	dec_social_choice	1.066445	16.000000	n/a	4	1.888021e-02	1.888021e-02
315.458770	1.066445	dec_choice	1.066445	16.000000	n/a	4	1.822917e-02	1.822917e-02
315.458770	1.066445	dec_social_accept	1.066445	16.000000	n/a	4	-1.033654e-01	-1.033654e-01
315.458770	1.066445	dec_accept	1.066445	16.000000	n/a	4	-1.033654e-01	-1.033654e-01
315.458770	1.066445	dec_social_accept_high	1.066445	16.000000	n/a	4	1.822917e-02	1.822917e-02
327.942780	1.549535	dec_nonsocial_choice	1.549535	16.000000	n/a	4	1.888021e-02	1.888021e-02
327.942780	1.549535	dec_choice	1.549535	16.000000	n/a	4	1.953125e-02	1.953125e-02
327.942780	1.549535	dec_nonsocial_accept	1.549535	16.000000	n/a	4	-1.033654e-01	-1.033654e-01
327.942780	1.549535	dec_accept	1.549535	16.000000	n/a	4	-1.033654e-01	-1.033654e-01
327.942780	1.549535	dec_nonsocial_accept_high	1.549535	16.000000	n/a	4	-1.033654e-01	-1.033654e-01
337.192750	1.299655	dec_nonsocial_choice	1.299655	16.000000	n/a	0	0	-2.311198e-01
337.192750	1.299655	dec_choice	1.299655	16.000000	n/a	0	0	-2.304688e-01
337.192750	1.299655	dec_nonsocial_reject	1.299655	16.000000	n/a	0	0	-2.414773e-02
337.192750	1.299655	dec_reject	1.299655	16.000000	n/a	0	0	-2.272727e-02
337.192750	1.299655	dec_nonsocial_reject_low	1.299655	16.000000	n/a	1	-2.556818e-02	-8.806818e-02
344.841770	1.716875	dec_social_choice	1.716875	32.000000	n/a	3	-1.373698e-01	-1.373698e-01
344.841770	1.716875	dec_choice	1.716875	32.000000	n/a	3	-1.380208e-01	-1.380208e-01
344.841770	1.716875	dec_social_accept	1.716875	32.000000	n/a	3	-2.596154e-01	-2.596154e-01
344.841770	1.716875	dec_accept	1.716875	32.000000	n/a	3	-2.596154e-01	-2.596154e-01
344.841770	1.716875	dec_social_low	1.716875	32.000000	n/a	3	-1.380208e-01	-1.380208e-01
344.841770	1.716875	dec_social_accept_low	1.716875	32.000000	n/a	3	-1.380208e-01	-1.380208e-01
352.491900	1.016209	dec_social_choice	1.016209	16.000000	n/a	0	0	-2.311198e-01
352.491900	1.016209	dec_choice	1.016209	16.000000	n/a	0	0	-2.317708e-01
352.491900	1.016209	dec_social_reject	1.016209	16.000000	n/a	0	0	3.835227e-02
352.491900	1.016209	dec_reject	1.016209	16.000000	n/a	0	0	3.693182e-02
352.491900	1.016209	dec_social_reject_low	1.016209	16.000000	n/a	2	-1.067708e-01	-2.317708e-01
359.326320	1.799387	dec_social_choice	1.799387	16.000000	n/a	4	1.888021e-02	1.888021e-02
359.326320	1.799387	dec_choice	1.799387	16.000000	n/a	4	1.822917e-02	1.822917e-02
359.326320	1.799387	dec_social_accept	1.799387	16.000000	n/a	4	-1.033654e-01	-1.033654e-01
359.326320	1.799387	dec_accept	1.799387	16.000000	n/a	4	-1.033654e-01	-1.033654e-01
359.326320	1.799387	dec_social_accept_high	1.799387	16.000000	n/a	4	1.822917e-02	1.822917e-02
366.159670	1.232758	dec_nonsocial_choice	1.232758	16.000000	n/a	0	0	-2.311198e-01
366.159670	1.232758	dec_choice	1.232758	16.000000	n/a	0	0	-2.304688e-01
366.159670	1.232758	dec_nonsocial_reject	1.232758	16.000000	n/a	0	0	-2.414773e-02
366.159670	1.232758	dec_reject	1.232758	16.000000	n/a	0	0	-2.272727e-02
366.159670	1.232758	dec_nonsocial_reject_low	1.232758	16.000000	n/a	1	-2.556818e-02	-8.806818e-02
372.991700	1.350254	dec_nonsocial_choice	1.350254	32.000000	n/a	0	0	-2.311198e-01
372.991700	1.350254	dec_choice	1.350254	32.000000	n/a	0	0	-2.304688e-01
372.991700	1.350254	dec_nonsocial_reject	1.350254	32.000000	n/a	0	0	-2.414773e-02
372.991700	1.350254	dec_reject	1.350254	32.000000	n/a	0	0	-2.272727e-02
372.991700	1.350254	dec_nonsocial_reject_low	1.350254	32.000000	n/a	2	-2.556818e-02	-8.806818e-02
