instrText,stimDoor,stimDoorLure,stimFace,stimFaceLure,Instructions.thisRepN,Instructions.thisTrialN,Instructions.thisN,Instructions.thisIndex,Trials.thisRepN,Trials.thisTrialN,Trials.thisN,Trials.thisIndex,Func,Keys,Text,RespTime,Onset,Offset,SystemTime_Start,SystemTime_Stop,Stim,Lure,Participant*,Age,date,expName,psychopyVersion,frameRate,
"In the earlier Feedback Games, you chose which doors contained a prize, and which peers liked you. 

You then saw positive or negative feedback (green check mark or red X) from the door or peer you selected.

You will now see a series of doors and peers, some of which you saw during the earlier Feedback Games, and some that you have never seen before.

Please press the spacebar to continue.",,,,,0,0,0,0,,,,,instrFunc,space,"In the earlier Feedback Games, you chose which doors contained a prize, and which peers liked you. 

You then saw positive or negative feedback (green check mark or red X) from the door or peer you selected.

You will now see a series of doors and peers, some of which you saw during the earlier Feedback Games, and some that you have never seen before.

Please press the spacebar to continue.",20.173022200004198,17.10153819998959,37.32342211995274,2023-12-01 18:51:14.185177,2023-12-01 18:51:34.404190,,,10857,18-29,2023-12-01_18h51.11.086,Recall,2021.2.3,60.00830514630583,
"For doors/peers that you remember selecting and getting feedback from, your job is to RECALL what feedback you received. 

Press '1' if you recall positive feedback. 

Press '2' if you recall negative feedback

Press the spacebar to continue.",,,,,0,1,1,1,,,,,instrFunc,space,"For doors/peers that you remember selecting and getting feedback from, your job is to RECALL what feedback you received. 

Press '1' if you recall positive feedback. 

Press '2' if you recall negative feedback

Press the spacebar to continue.",11.91708870002185,37.309345699992264,49.28167393998592,2023-12-01 18:51:34.405189,2023-12-01 18:51:46.362066,,,10857,18-29,2023-12-01_18h51.11.086,Recall,2021.2.3,60.00830514630583,
"For doors/peers that you don't remember getting feedback from, your job is to PREDICT what feedback you WOULD HAVE received.

Press '9' if you predict positive feedback.

Press '0' if you predict negative feedback. 

Please press the spacebar to continue.",,,,,0,2,2,2,,,,,instrFunc,space,"For doors/peers that you don't remember getting feedback from, your job is to PREDICT what feedback you WOULD HAVE received.

Press '9' if you predict positive feedback.

Press '0' if you predict negative feedback. 

Please press the spacebar to continue.",13.279219699994428,49.26726530000451,62.608112340036314,2023-12-01 18:51:46.363063,2023-12-01 18:51:59.688735,,,10857,18-29,2023-12-01_18h51.11.086,Recall,2021.2.3,60.00830514630583,
"This task is self-paced, and the prompts will always stay on the screen so that you know which buttons to press.

On the next screen we will show you what those prompts look like, so that you know exactly what to expect. 

You will start with either doors or peers, and then switch halfway through. 

Please press the spacebar to continue.",,,,,0,3,3,3,,,,,instrFunc,space,"This task is self-paced, and the prompts will always stay on the screen so that you know which buttons to press.

On the next screen we will show you what those prompts look like, so that you know exactly what to expect. 

You will start with either doors or peers, and then switch halfway through. 

Please press the spacebar to continue.",15.485106499982066,62.589456499990774,78.13192523998441,2023-12-01 18:51:59.689736,2023-12-01 18:52:15.216409,,,10857,18-29,2023-12-01_18h51.11.086,Recall,2021.2.3,60.00830514630583,
,,,,,,,,,,,,,imgtextFunc,space,"Here is what the screen will look like while you make your ratings.
The green circles remind you to press 1 or 9 for positive feedback.
The red circles remind you to press 2 or 0 for negative feedback.









Please let the experimenter know if you have any questions.

Whenever you're ready, press the spacebar to start the task.",11.498651800007792,78.26412589999381,89.93678253999678,2023-12-01 18:52:15.226359,2023-12-01 18:52:26.892408,,,10857,18-29,2023-12-01_18h51.11.086,Recall,2021.2.3,60.00830514630583,
,DD030.jpg,0,FF030.jpg,0,,,,,0,0,0,29,imgFunc,1,NA,4.8176362000231165,89.93679380000685,94.91052211998613,2023-12-01 18:52:26.932270,2023-12-01 18:52:31.895652,FF030.jpg,0,10857,18-29,2023-12-01_18h51.11.086,Recall,2021.2.3,60.00830514630583,
,DD017.jpg,0,FF017.jpg,0,,,,,0,1,1,16,imgFunc,1,NA,5.315759499993874,94.8708670999913,100.28952664000099,2023-12-01 18:52:31.904624,2023-12-01 18:52:37.316223,FF017.jpg,0,10857,18-29,2023-12-01_18h51.11.086,Recall,2021.2.3,60.00830514630583,
,SD017.jpg,0,MF017.jpg,0,,,,,0,2,2,66,imgFunc,0,NA,3.7423913000093307,100.30024509999203,104.16842134000035,2023-12-01 18:52:37.325198,2023-12-01 18:52:41.185522,MF017.jpg,0,10857,18-29,2023-12-01_18h51.11.086,Recall,2021.2.3,60.00830514630583,
,SD022.jpg,0,MF022.jpg,0,,,,,0,3,3,71,imgFunc,2,NA,3.986791600007564,104.15959749999456,108.25516303995391,2023-12-01 18:52:41.197490,2023-12-01 18:52:45.288826,MF022.jpg,0,10857,18-29,2023-12-01_18h51.11.086,Recall,2021.2.3,60.00830514630583,
,SD016.jpg,0,MF016.jpg,0,,,,,0,4,4,65,imgFunc,1,NA,1.5584976999962237,108.25993030000245,109.92964273996768,2023-12-01 18:52:45.295795,2023-12-01 18:52:46.956797,MF016.jpg,0,10857,18-29,2023-12-01_18h51.11.086,Recall,2021.2.3,60.00830514630583,
,L_SD508.jpg,1,L_MF508.jpg,1,,,,,0,5,5,97,imgFunc,2,NA,3.993780799995875,109.92088890000014,114.00772063998738,2023-12-01 18:52:46.963806,2023-12-01 18:52:51.042288,L_MF508.jpg,1,10857,18-29,2023-12-01_18h51.11.086,Recall,2021.2.3,60.00830514630583,
,L_SD506.jpg,1,L_MF506.jpg,1,,,,,0,6,6,95,imgFunc,2,NA,4.762782299978426,114.00763279999956,118.87917563997325,2023-12-01 18:52:51.050240,2023-12-01 18:52:55.913266,L_MF506.jpg,1,10857,18-29,2023-12-01_18h51.11.086,Recall,2021.2.3,60.00830514630583,
,DD038.jpg,0,FF038.jpg,0,,,,,0,7,7,37,imgFunc,2,NA,5.125786799995694,118.90863150000223,124.14916313998401,2023-12-01 18:52:55.927228,2023-12-01 18:53:01.166822,FF038.jpg,0,10857,18-29,2023-12-01_18h51.11.086,Recall,2021.2.3,60.00830514630583,
,SD010.jpg,0,MF010.jpg,0,,,,,0,8,8,59,imgFunc,2,NA,3.5486406999989413,124.13377990000299,127.78581553997356,2023-12-01 18:53:01.174799,2023-12-01 18:53:04.819377,MF010.jpg,0,10857,18-29,2023-12-01_18h51.11.086,Recall,2021.2.3,60.00830514630583,
,DD024.jpg,0,FF024.jpg,0,,,,,0,9,9,23,imgFunc,1,NA,1.5060177999839652,127.78454870000132,129.38707984000212,2023-12-01 18:53:04.826357,2023-12-01 18:53:06.420693,FF024.jpg,0,10857,18-29,2023-12-01_18h51.11.086,Recall,2021.2.3,60.00830514630583,
,DD022.jpg,0,FF022.jpg,0,,,,,0,10,10,21,imgFunc,2,NA,3.0002690000110306,129.38611649998347,132.48932684000465,2023-12-01 18:53:06.427703,2023-12-01 18:53:09.522348,FF022.jpg,0,10857,18-29,2023-12-01_18h51.11.086,Recall,2021.2.3,60.00830514630583,
,SD003.jpg,0,MF003.jpg,0,,,,,0,11,11,52,imgFunc,2,NA,5.6758694000018295,132.49456449999707,138.28336223997758,2023-12-01 18:53:09.530301,2023-12-01 18:53:15.309934,MF003.jpg,0,10857,18-29,2023-12-01_18h51.11.086,Recall,2021.2.3,60.00830514630583,
,L_SD507.jpg,1,L_MF507.jpg,1,,,,,0,12,12,96,imgFunc,9,NA,3.8175594999920577,138.31287520000478,142.26526667998405,2023-12-01 18:53:15.326863,2023-12-01 18:53:19.262433,L_MF507.jpg,1,10857,18-29,2023-12-01_18h51.11.086,Recall,2021.2.3,60.00830514630583,
,DD002.jpg,0,FF002.jpg,0,,,,,0,13,13,1,imgFunc,1,NA,2.4095863999973517,142.2250875000027,144.72873244000948,2023-12-01 18:53:19.270380,2023-12-01 18:53:21.764334,FF002.jpg,0,10857,18-29,2023-12-01_18h51.11.086,Recall,2021.2.3,60.00830514630583,
,L_SD509.jpg,1,L_MF509.jpg,1,,,,,0,14,14,98,imgFunc,1,NA,2.0852433999825735,144.7411906000052,146.94330143998377,2023-12-01 18:53:21.772342,2023-12-01 18:53:23.965951,L_MF509.jpg,1,10857,18-29,2023-12-01_18h51.11.086,Recall,2021.2.3,60.00830514630583,
,L_SD501.jpg,1,L_MF501.jpg,1,,,,,0,15,15,90,imgFunc,1,NA,1.7688682999869343,146.9295087000064,148.7989196399867,2023-12-01 18:53:23.973926,2023-12-01 18:53:25.834728,L_MF501.jpg,1,10857,18-29,2023-12-01_18h51.11.086,Recall,2021.2.3,60.00830514630583,
,L_DD506.jpg,1,L_FF506.jpg,1,,,,,0,16,16,45,imgFunc,0,NA,3.157984800025588,148.8204170000099,152.10659964001388,2023-12-01 18:53:25.841730,2023-12-01 18:53:29.119784,L_FF506.jpg,1,10857,18-29,2023-12-01_18h51.11.086,Recall,2021.2.3,60.00830514630583,
,SD036.jpg,0,MF036.jpg,0,,,,,0,17,17,85,imgFunc,2,NA,4.2264110000105575,152.07998740000767,156.4019406400039,2023-12-01 18:53:29.126795,2023-12-01 18:53:33.440154,MF036.jpg,0,10857,18-29,2023-12-01_18h51.11.086,Recall,2021.2.3,60.00830514630583,
,DD023.jpg,0,FF023.jpg,0,,,,,0,18,18,22,imgFunc,2,NA,2.8723140999791212,156.40208120000898,159.37174574000528,2023-12-01 18:53:33.447164,2023-12-01 18:53:36.408807,FF023.jpg,0,10857,18-29,2023-12-01_18h51.11.086,Recall,2021.2.3,60.00830514630583,
,DD011.jpg,0,FF011.jpg,0,,,,,0,19,19,10,imgFunc,0,NA,3.684471599990502,159.37392280000495,163.16166733999853,2023-12-01 18:53:36.415816,2023-12-01 18:53:40.195286,FF011.jpg,0,10857,18-29,2023-12-01_18h51.11.086,Recall,2021.2.3,60.00830514630583,
,SD035.jpg,0,MF035.jpg,0,,,,,0,20,20,84,imgFunc,1,NA,2.4252621000050567,163.1691378999967,165.69421014000545,2023-12-01 18:53:40.208272,2023-12-01 18:53:42.730087,MF035.jpg,0,10857,18-29,2023-12-01_18h51.11.086,Recall,2021.2.3,60.00830514630583,
,SD005.jpg,0,MF005.jpg,0,,,,,0,21,21,54,imgFunc,2,NA,4.781101400003536,165.70936589999474,170.6026467399788,2023-12-01 18:53:42.743081,2023-12-01 18:53:47.633258,MF005.jpg,0,10857,18-29,2023-12-01_18h51.11.086,Recall,2021.2.3,60.00830514630583,
,DD007.jpg,0,FF007.jpg,0,,,,,0,22,22,6,imgFunc,1,NA,1.2893077000044286,170.60110369999893,171.98492794000776,2023-12-01 18:53:47.641209,2023-12-01 18:53:49.017614,FF007.jpg,0,10857,18-29,2023-12-01_18h51.11.086,Recall,2021.2.3,60.00830514630583,
,SD024.jpg,0,MF024.jpg,0,,,,,0,23,23,73,imgFunc,2,NA,2.124091400008183,171.98234719998436,174.2020807400113,2023-12-01 18:53:49.025574,2023-12-01 18:53:51.235913,MF024.jpg,0,10857,18-29,2023-12-01_18h51.11.086,Recall,2021.2.3,60.00830514630583,
,DD015.jpg,0,FF015.jpg,0,,,,,0,24,24,14,imgFunc,1,NA,2.618464099999983,174.1999203999876,176.91995044000214,2023-12-01 18:53:51.242898,2023-12-01 18:53:53.954880,FF015.jpg,0,10857,18-29,2023-12-01_18h51.11.086,Recall,2021.2.3,60.00830514630583,
,DD028.jpg,0,FF028.jpg,0,,,,,0,25,25,27,imgFunc,1,NA,1.1718145000049844,176.93468949999078,178.22036533997743,2023-12-01 18:53:53.961860,2023-12-01 18:53:55.238461,FF028.jpg,0,10857,18-29,2023-12-01_18h51.11.086,Recall,2021.2.3,60.00830514630583,
,SD032.jpg,0,MF032.jpg,0,,,,,0,26,26,81,imgFunc,2,NA,2.4726344000082463,178.2178265999828,180.78882453995175,2023-12-01 18:53:55.254393,2023-12-01 18:53:57.823580,MF032.jpg,0,10857,18-29,2023-12-01_18h51.11.086,Recall,2021.2.3,60.00830514630583,
,L_DD507.jpg,1,L_FF507.jpg,1,,,,,0,27,27,46,imgFunc,1,NA,2.2629628000140656,180.78742559999228,183.1559806400037,2023-12-01 18:53:57.831560,2023-12-01 18:54:00.191813,L_FF507.jpg,1,10857,18-29,2023-12-01_18h51.11.086,Recall,2021.2.3,60.00830514630583,
,DD021.jpg,0,FF021.jpg,0,,,,,0,28,28,20,imgFunc,1,NA,1.8390836000035051,183.15533370000776,185.09152863998315,2023-12-01 18:54:00.199790,2023-12-01 18:54:02.126694,FF021.jpg,0,10857,18-29,2023-12-01_18h51.11.086,Recall,2021.2.3,60.00830514630583,
,DD001.jpg,0,FF001.jpg,0,,,,,0,29,29,0,imgFunc,0,NA,4.358164700010093,185.09228479999,189.54728803999024,2023-12-01 18:54:02.134647,2023-12-01 18:54:06.580146,FF001.jpg,0,10857,18-29,2023-12-01_18h51.11.086,Recall,2021.2.3,60.00830514630583,
,SD001.jpg,0,MF001.jpg,0,,,,,0,30,30,50,imgFunc,2,NA,2.1384876999945845,189.55986969999503,191.8099450400041,2023-12-01 18:54:06.589097,2023-12-01 18:54:08.831112,MF001.jpg,0,10857,18-29,2023-12-01_18h51.11.086,Recall,2021.2.3,60.00830514630583,
,SD018.jpg,0,MF018.jpg,0,,,,,0,31,31,67,imgFunc,2,NA,4.546435600001132,191.79201060000923,196.43037324000034,2023-12-01 18:54:08.839088,2023-12-01 18:54:13.468299,MF018.jpg,0,10857,18-29,2023-12-01_18h51.11.086,Recall,2021.2.3,60.00830514630583,
,SD007.jpg,0,MF007.jpg,0,,,,,0,32,32,56,imgFunc,2,NA,2.2115122000104748,196.43096589998459,198.7315424400149,2023-12-01 18:54:13.477250,2023-12-01 18:54:15.769849,MF007.jpg,0,10857,18-29,2023-12-01_18h51.11.086,Recall,2021.2.3,60.00830514630583,
,L_SD505.jpg,1,L_MF505.jpg,1,,,,,0,33,33,94,imgFunc,2,NA,4.774130199977662,198.74026150000282,203.62822794003296,2023-12-01 18:54:15.777827,2023-12-01 18:54:20.657478,L_MF505.jpg,1,10857,18-29,2023-12-01_18h51.11.086,Recall,2021.2.3,60.00830514630583,
,SD019.jpg,0,MF019.jpg,0,,,,,0,34,34,68,imgFunc,9,NA,4.688734099996509,203.64967829998932,208.46746993999113,2023-12-01 18:54:20.666476,2023-12-01 18:54:25.476657,MF019.jpg,0,10857,18-29,2023-12-01_18h51.11.086,Recall,2021.2.3,60.00830514630583,
,SD040.jpg,0,MF040.jpg,0,,,,,0,35,35,89,imgFunc,1,NA,0.9614476000133436,208.46493409998948,209.53605623997282,2023-12-01 18:54:25.491617,2023-12-01 18:54:26.561522,MF040.jpg,0,10857,18-29,2023-12-01_18h51.11.086,Recall,2021.2.3,60.00830514630583,
,L_DD508.jpg,1,L_FF508.jpg,1,,,,,0,36,36,47,imgFunc,1,NA,2.48100460000569,209.5293762999936,212.11597703996813,2023-12-01 18:54:26.568530,2023-12-01 18:54:29.146801,L_FF508.jpg,1,10857,18-29,2023-12-01_18h51.11.086,Recall,2021.2.3,60.00830514630583,
,SD004.jpg,0,MF004.jpg,0,,,,,0,37,37,53,imgFunc,2,NA,1.9780422000039835,212.11230909998994,214.19864014000632,2023-12-01 18:54:29.153751,2023-12-01 18:54:31.231564,MF004.jpg,0,10857,18-29,2023-12-01_18h51.11.086,Recall,2021.2.3,60.00830514630583,
,DD004.jpg,0,FF004.jpg,0,,,,,0,38,38,3,imgFunc,1,NA,1.0284088000189513,214.19796669998323,215.3335142400174,2023-12-01 18:54:31.238545,2023-12-01 18:54:32.365739,FF004.jpg,0,10857,18-29,2023-12-01_18h51.11.086,Recall,2021.2.3,60.00830514630583,
,DD032.jpg,0,FF032.jpg,0,,,,,0,39,39,31,imgFunc,1,NA,4.570304199995007,215.33609639998758,220.00750573998084,2023-12-01 18:54:32.372720,2023-12-01 18:54:37.034993,FF032.jpg,0,10857,18-29,2023-12-01_18h51.11.086,Recall,2021.2.3,60.00830514630583,
,DD033.jpg,0,FF033.jpg,0,,,,,0,40,40,32,imgFunc,2,NA,3.195785000018077,220.03066509999917,223.33293193997815,2023-12-01 18:54:37.051923,2023-12-01 18:54:40.354484,FF033.jpg,0,10857,18-29,2023-12-01_18h51.11.086,Recall,2021.2.3,60.00830514630583,
,DD016.jpg,0,FF016.jpg,0,,,,,0,41,41,15,imgFunc,1,NA,2.0799714000022504,223.3224068999989,225.5089262399997,2023-12-01 18:54:40.361465,2023-12-01 18:54:42.538704,FF016.jpg,0,10857,18-29,2023-12-01_18h51.11.086,Recall,2021.2.3,60.00830514630583,
,SD006.jpg,0,MF006.jpg,0,,,,,0,42,42,55,imgFunc,1,NA,1.1458866999892052,225.5044762000034,226.756760439981,2023-12-01 18:54:42.546683,2023-12-01 18:54:43.790161,MF006.jpg,0,10857,18-29,2023-12-01_18h51.11.086,Recall,2021.2.3,60.00830514630583,
,DD003.jpg,0,FF003.jpg,0,,,,,0,43,43,2,imgFunc,1,NA,2.1805685999861453,226.75779599999078,229.04394213997875,2023-12-01 18:54:43.798144,2023-12-01 18:54:46.075337,FF003.jpg,0,10857,18-29,2023-12-01_18h51.11.086,Recall,2021.2.3,60.00830514630583,
,SD038.jpg,0,MF038.jpg,0,,,,,0,44,44,87,imgFunc,0,NA,4.502857100014808,229.05153910000809,233.67255983999348,2023-12-01 18:54:46.082322,2023-12-01 18:54:50.695100,MF038.jpg,0,10857,18-29,2023-12-01_18h51.11.086,Recall,2021.2.3,60.00830514630583,
,L_SD503.jpg,1,L_MF503.jpg,1,,,,,0,45,45,92,imgFunc,0,NA,2.8066335000039544,233.6600814999838,236.56191413998022,2023-12-01 18:54:50.703106,2023-12-01 18:54:53.597684,L_MF503.jpg,1,10857,18-29,2023-12-01_18h51.11.086,Recall,2021.2.3,60.00830514630583,
,DD014.jpg,0,FF014.jpg,0,,,,,0,46,46,13,imgFunc,1,NA,3.300912700011395,236.5575559999852,239.96140423999168,2023-12-01 18:54:53.604697,2023-12-01 18:54:56.999166,FF014.jpg,0,10857,18-29,2023-12-01_18h51.11.086,Recall,2021.2.3,60.00830514630583,
,SD002.jpg,0,MF002.jpg,0,,,,,0,47,47,51,imgFunc,9,NA,3.633967900008429,239.96841199998744,243.70533563997014,2023-12-01 18:54:57.007142,2023-12-01 18:55:00.735369,MF002.jpg,0,10857,18-29,2023-12-01_18h51.11.086,Recall,2021.2.3,60.00830514630583,
,DD009.jpg,0,FF009.jpg,0,,,,,0,48,48,8,imgFunc,2,NA,3.013878500001738,243.71649399999296,246.85366344000795,2023-12-01 18:55:00.743350,2023-12-01 18:55:03.871470,FF009.jpg,0,10857,18-29,2023-12-01_18h51.11.086,Recall,2021.2.3,60.00830514630583,
,L_SD504.jpg,1,L_MF504.jpg,1,,,,,0,49,49,93,imgFunc,2,NA,3.9220752000110224,246.84827319998294,250.87417003998416,2023-12-01 18:55:03.884463,2023-12-01 18:55:07.907650,L_MF504.jpg,1,10857,18-29,2023-12-01_18h51.11.086,Recall,2021.2.3,60.00830514630583,
,DD036.jpg,0,FF036.jpg,0,,,,,0,50,50,35,imgFunc,1,NA,1.0031305000011344,250.87123560000327,251.9720282399794,2023-12-01 18:55:07.915628,2023-12-01 18:55:09.008027,FF036.jpg,0,10857,18-29,2023-12-01_18h51.11.086,Recall,2021.2.3,60.00830514630583,
,DD010.jpg,0,FF010.jpg,0,,,,,0,51,51,9,imgFunc,1,NA,0.8136124000011478,251.97277329998906,252.89126653998392,2023-12-01 18:55:09.016034,2023-12-01 18:55:09.925386,FF010.jpg,0,10857,18-29,2023-12-01_18h51.11.086,Recall,2021.2.3,60.00830514630583,
,SD025.jpg,0,MF025.jpg,0,,,,,0,52,52,74,imgFunc,2,NA,2.9801020000013523,252.89427620000788,255.981483140029,2023-12-01 18:55:09.933358,2023-12-01 18:55:13.010837,MF025.jpg,0,10857,18-29,2023-12-01_18h51.11.086,Recall,2021.2.3,60.00830514630583,
,L_DD503.jpg,1,L_FF503.jpg,1,,,,,0,53,53,42,imgFunc,1,NA,0.6924144999939017,255.98197510000318,256.7837557399762,2023-12-01 18:55:13.018821,2023-12-01 18:55:13.811629,L_FF503.jpg,1,10857,18-29,2023-12-01_18h51.11.086,Recall,2021.2.3,60.00830514630583,
,DD008.jpg,0,FF008.jpg,0,,,,,0,54,54,7,imgFunc,1,NA,1.3609665000112727,256.7854170000064,258.2513832799741,2023-12-01 18:55:13.828583,2023-12-01 18:55:15.279145,FF008.jpg,0,10857,18-29,2023-12-01_18h51.11.086,Recall,2021.2.3,60.00830514630583,
,DD031.jpg,0,FF031.jpg,0,,,,,0,55,55,30,imgFunc,1,NA,2.1582411999988835,258.2441765999829,260.49608963998617,2023-12-01 18:55:15.287098,2023-12-01 18:55:17.530508,FF031.jpg,0,10857,18-29,2023-12-01_18h51.11.086,Recall,2021.2.3,60.00830514630583,
,L_DD502.jpg,1,L_FF502.jpg,1,,,,,0,56,56,41,imgFunc,1,NA,4.418391699990025,260.4959710999974,265.01776314000017,2023-12-01 18:55:17.538485,2023-12-01 18:55:22.050658,L_FF502.jpg,1,10857,18-29,2023-12-01_18h51.11.086,Recall,2021.2.3,60.00830514630583,
,SD037.jpg,0,MF037.jpg,0,,,,,0,57,57,86,imgFunc,2,NA,2.16988939998555,265.01659610000206,267.28379253996536,2023-12-01 18:55:22.059610,2023-12-01 18:55:24.319559,MF037.jpg,0,10857,18-29,2023-12-01_18h51.11.086,Recall,2021.2.3,60.00830514630583,
,SD029.jpg,0,MF029.jpg,0,,,,,0,58,58,78,imgFunc,2,NA,5.528287099994486,267.29013300000224,272.92911344001186,2023-12-01 18:55:24.326544,2023-12-01 18:55:29.956681,MF029.jpg,0,10857,18-29,2023-12-01_18h51.11.086,Recall,2021.2.3,60.00830514630583,
,L_SD510.jpg,1,L_MF510.jpg,1,,,,,0,59,59,99,imgFunc,1,NA,0.803982499986887,272.91838849999476,273.8164701399801,2023-12-01 18:55:29.965648,2023-12-01 18:55:30.857558,L_MF510.jpg,1,10857,18-29,2023-12-01_18h51.11.086,Recall,2021.2.3,60.00830514630583,
,SD012.jpg,0,MF012.jpg,0,,,,,0,60,60,61,imgFunc,2,NA,1.8955959000159055,273.8188309999823,275.82156923998264,2023-12-01 18:55:30.864539,2023-12-01 18:55:32.858968,MF012.jpg,0,10857,18-29,2023-12-01_18h51.11.086,Recall,2021.2.3,60.00830514630583,
,SD034.jpg,0,MF034.jpg,0,,,,,0,61,61,83,imgFunc,0,NA,3.6390652999980375,275.81930050000665,279.55622333998326,2023-12-01 18:55:32.866947,2023-12-01 18:55:36.594394,MF034.jpg,0,10857,18-29,2023-12-01_18h51.11.086,Recall,2021.2.3,60.00830514630583,
,SD013.jpg,0,MF013.jpg,0,,,,,0,62,62,62,imgFunc,0,NA,1.843600799998967,279.5588974999846,281.5082664399524,2023-12-01 18:55:36.604339,2023-12-01 18:55:38.545829,MF013.jpg,0,10857,18-29,2023-12-01_18h51.11.086,Recall,2021.2.3,60.00830514630583,
,DD039.jpg,0,FF039.jpg,0,,,,,0,63,63,38,imgFunc,9,NA,4.007537400000729,281.51483390000067,285.6241375399986,2023-12-01 18:55:38.559789,2023-12-01 18:55:42.666400,FF039.jpg,0,10857,18-29,2023-12-01_18h51.11.086,Recall,2021.2.3,60.00830514630583,
,DD020.jpg,0,FF020.jpg,0,,,,,0,64,64,19,imgFunc,1,NA,2.8802163999935146,285.6341392000031,288.6207081400207,2023-12-01 18:55:42.673380,2023-12-01 18:55:45.651377,FF020.jpg,0,10857,18-29,2023-12-01_18h51.11.086,Recall,2021.2.3,60.00830514630583,
,L_DD509.jpg,1,L_FF509.jpg,1,,,,,0,65,65,48,imgFunc,1,NA,1.6869439000147395,288.6114258999878,290.39762673998484,2023-12-01 18:55:45.658358,2023-12-01 18:55:47.436164,L_FF509.jpg,1,10857,18-29,2023-12-01_18h51.11.086,Recall,2021.2.3,60.00830514630583,
,SD009.jpg,0,MF009.jpg,0,,,,,0,66,66,58,imgFunc,2,NA,1.496889399975771,290.39359890000196,291.97909604001325,2023-12-01 18:55:47.443143,2023-12-01 18:55:49.020474,MF009.jpg,0,10857,18-29,2023-12-01_18h51.11.086,Recall,2021.2.3,60.00830514630583,
,DD026.jpg,0,FF026.jpg,0,,,,,0,67,67,25,imgFunc,1,NA,0.8396667999913916,291.9787212999945,292.9131908399868,2023-12-01 18:55:49.028452,2023-12-01 18:55:49.954661,FF026.jpg,0,10857,18-29,2023-12-01_18h51.11.086,Recall,2021.2.3,60.00830514630583,
,L_DD501.jpg,1,L_FF501.jpg,1,,,,,0,68,68,40,imgFunc,1,NA,0.9213497000164352,292.9210700999829,293.92471923999256,2023-12-01 18:55:49.969621,2023-12-01 18:55:50.971905,L_FF501.jpg,1,10857,18-29,2023-12-01_18h51.11.086,Recall,2021.2.3,60.00830514630583,
,SD015.jpg,0,MF015.jpg,0,,,,,0,69,69,64,imgFunc,1,NA,4.033024600008503,293.9293526999827,298.0497494399897,2023-12-01 18:55:50.979887,2023-12-01 18:55:55.090810,MF015.jpg,0,10857,18-29,2023-12-01_18h51.11.086,Recall,2021.2.3,60.00830514630583,
,DD029.jpg,0,FF029.jpg,0,,,,,0,70,70,28,imgFunc,1,NA,2.914260399993509,298.04825799999526,301.0518339400005,2023-12-01 18:55:55.098819,2023-12-01 18:55:58.093601,FF029.jpg,0,10857,18-29,2023-12-01_18h51.11.086,Recall,2021.2.3,60.00830514630583,
,DD019.jpg,0,FF019.jpg,0,,,,,0,71,71,18,imgFunc,1,NA,1.156441300001461,301.05381859999034,302.30574263999006,2023-12-01 18:55:58.101555,2023-12-01 18:55:59.344163,FF019.jpg,0,10857,18-29,2023-12-01_18h51.11.086,Recall,2021.2.3,60.00830514630583,
,DD034.jpg,0,FF034.jpg,0,,,,,0,72,72,33,imgFunc,9,NA,5.078393799980404,302.3159558000043,307.50444524001796,2023-12-01 18:55:59.352141,2023-12-01 18:56:04.531511,FF034.jpg,0,10857,18-29,2023-12-01_18h51.11.086,Recall,2021.2.3,60.00830514630583,
,L_DD505.jpg,1,L_FF505.jpg,1,,,,,0,73,73,44,imgFunc,0,NA,2.624190800008364,307.4981926000037,310.2323017399758,2023-12-01 18:56:04.540457,2023-12-01 18:56:07.266861,L_FF505.jpg,1,10857,18-29,2023-12-01_18h51.11.086,Recall,2021.2.3,60.00830514630583,
,SD031.jpg,0,MF031.jpg,0,,,,,0,74,74,80,imgFunc,2,NA,1.6409067999920808,310.2254644999921,311.96133733994793,2023-12-01 18:56:07.273817,2023-12-01 18:56:09.001465,MF031.jpg,0,10857,18-29,2023-12-01_18h51.11.086,Recall,2021.2.3,60.00830514630583,
,SD008.jpg,0,MF008.jpg,0,,,,,0,75,75,57,imgFunc,0,NA,5.098351399996318,311.96004969999194,317.1485729399428,2023-12-01 18:56:09.008444,2023-12-01 18:56:14.188765,MF008.jpg,0,10857,18-29,2023-12-01_18h51.11.086,Recall,2021.2.3,60.00830514630583,
,SD028.jpg,0,MF028.jpg,0,,,,,0,76,76,77,imgFunc,0,NA,1.6152002000017092,317.1632152000093,318.89668033999624,2023-12-01 18:56:14.196744,2023-12-01 18:56:15.922769,MF028.jpg,0,10857,18-29,2023-12-01_18h51.11.086,Recall,2021.2.3,60.00830514630583,
,SD033.jpg,0,MF033.jpg,0,,,,,0,77,77,82,imgFunc,2,NA,2.9183631999767385,318.89213920000475,321.9002853400016,2023-12-01 18:56:15.936705,2023-12-01 18:56:18.941963,MF033.jpg,0,10857,18-29,2023-12-01_18h51.11.086,Recall,2021.2.3,60.00830514630583,
,DD013.jpg,0,FF013.jpg,0,,,,,0,78,78,12,imgFunc,1,NA,1.4791704000090249,321.89930049999384,323.46882173995255,2023-12-01 18:56:18.948944,2023-12-01 18:56:20.509721,FF013.jpg,0,10857,18-29,2023-12-01_18h51.11.086,Recall,2021.2.3,60.00830514630583,
,L_DD510.jpg,1,L_FF510.jpg,1,,,,,0,79,79,49,imgFunc,1,NA,2.4717185999907088,323.4666384999873,326.03665743995225,2023-12-01 18:56:20.516706,2023-12-01 18:56:23.078046,L_FF510.jpg,1,10857,18-29,2023-12-01_18h51.11.086,Recall,2021.2.3,60.00830514630583,
,DD027.jpg,0,FF027.jpg,0,,,,,0,80,80,26,imgFunc,1,NA,0.6510860999987926,326.0392700000084,326.7909788400284,2023-12-01 18:56:23.085999,2023-12-01 18:56:23.828866,FF027.jpg,0,10857,18-29,2023-12-01_18h51.11.086,Recall,2021.2.3,60.00830514630583,
,SD011.jpg,0,MF011.jpg,0,,,,,0,81,81,60,imgFunc,2,NA,5.261387899983674,326.7969551999995,332.1684722399805,2023-12-01 18:56:23.835846,2023-12-01 18:56:29.198573,MF011.jpg,0,10857,18-29,2023-12-01_18h51.11.086,Recall,2021.2.3,60.00830514630583,
,SD021.jpg,0,MF021.jpg,0,,,,,0,82,82,70,imgFunc,2,NA,2.0534421000047587,332.18890599999577,334.3582759399724,2023-12-01 18:56:29.214553,2023-12-01 18:56:31.383993,MF021.jpg,0,10857,18-29,2023-12-01_18h51.11.086,Recall,2021.2.3,60.00830514630583,
,DD035.jpg,0,FF035.jpg,0,,,,,0,83,83,34,imgFunc,2,NA,3.021016699989559,334.3413132999849,337.4616355400067,2023-12-01 18:56:31.390944,2023-12-01 18:56:34.502621,FF035.jpg,0,10857,18-29,2023-12-01_18h51.11.086,Recall,2021.2.3,60.00830514630583,
,SD023.jpg,0,MF023.jpg,0,,,,,0,84,84,72,imgFunc,1,NA,0.8117730999947526,337.47057780000614,338.38892423998914,2023-12-01 18:56:34.510596,2023-12-01 18:56:35.419745,MF023.jpg,0,10857,18-29,2023-12-01_18h51.11.086,Recall,2021.2.3,60.00830514630583,
,L_SD502.jpg,1,L_MF502.jpg,1,,,,,0,85,85,91,imgFunc,1,NA,0.4853892999817617,338.3810112999927,338.96586573994136,2023-12-01 18:56:35.427695,2023-12-01 18:56:36.004278,L_MF502.jpg,1,10857,18-29,2023-12-01_18h51.11.086,Recall,2021.2.3,60.00830514630583,
,DD018.jpg,0,FF018.jpg,0,,,,,0,86,86,17,imgFunc,0,NA,3.2141012999927625,338.97223290000693,342.2921558399976,2023-12-01 18:56:36.011259,2023-12-01 18:56:39.323278,FF018.jpg,0,10857,18-29,2023-12-01_18h51.11.086,Recall,2021.2.3,60.00830514630583,
,SD020.jpg,0,MF020.jpg,0,,,,,0,87,87,69,imgFunc,9,NA,4.312428600009298,342.2979350000096,346.70433223998407,2023-12-01 18:56:39.338238,2023-12-01 18:56:43.742894,MF020.jpg,0,10857,18-29,2023-12-01_18h51.11.086,Recall,2021.2.3,60.00830514630583,
,SD026.jpg,0,MF026.jpg,0,,,,,0,88,88,75,imgFunc,0,NA,2.0805000999826007,346.7058496999962,348.89100954000605,2023-12-01 18:56:43.750829,2023-12-01 18:56:45.927876,MF026.jpg,0,10857,18-29,2023-12-01_18h51.11.086,Recall,2021.2.3,60.00830514630583,
,DD006.jpg,0,FF006.jpg,0,,,,,0,89,89,5,imgFunc,2,NA,3.0664678999746684,348.88787020000746,352.05818864001776,2023-12-01 18:56:45.934857,2023-12-01 18:56:49.096284,FF006.jpg,0,10857,18-29,2023-12-01_18h51.11.086,Recall,2021.2.3,60.00830514630583,
,SD039.jpg,0,MF039.jpg,0,,,,,0,90,90,88,imgFunc,1,NA,1.449112200003583,352.05723499998567,353.6100932399859,2023-12-01 18:56:49.104254,2023-12-01 18:56:50.648166,MF039.jpg,0,10857,18-29,2023-12-01_18h51.11.086,Recall,2021.2.3,60.00830514630583,
,L_DD504.jpg,1,L_FF504.jpg,1,,,,,0,91,91,43,imgFunc,1,NA,1.551247900002636,353.61911259999033,355.27177343997755,2023-12-01 18:56:50.655147,2023-12-01 18:56:52.299491,L_FF504.jpg,1,10857,18-29,2023-12-01_18h51.11.086,Recall,2021.2.3,60.00830514630583,
,DD025.jpg,0,FF025.jpg,0,,,,,0,92,92,24,imgFunc,1,NA,5.199648300011177,355.2587334999989,360.5641798400029,2023-12-01 18:56:52.306471,2023-12-01 18:56:57.602725,FF025.jpg,0,10857,18-29,2023-12-01_18h51.11.086,Recall,2021.2.3,60.00830514630583,
,SD027.jpg,0,MF027.jpg,0,,,,,0,93,93,76,imgFunc,1,NA,0.7230611999984831,360.5673075999948,361.38385964001645,2023-12-01 18:56:57.611697,2023-12-01 18:56:58.420262,MF027.jpg,0,10857,18-29,2023-12-01_18h51.11.086,Recall,2021.2.3,60.00830514630583,
,DD037.jpg,0,FF037.jpg,0,,,,,0,94,94,36,imgFunc,1,NA,4.805526100011775,361.3808344999852,366.2855417399842,2023-12-01 18:56:58.427273,2023-12-01 18:57:03.323651,FF037.jpg,0,10857,18-29,2023-12-01_18h51.11.086,Recall,2021.2.3,60.00830514630583,
,SD030.jpg,0,MF030.jpg,0,,,,,0,95,95,79,imgFunc,0,NA,1.5220414999930654,366.2962777999928,367.9296962399676,2023-12-01 18:57:03.331629,2023-12-01 18:57:04.958286,MF030.jpg,0,10857,18-29,2023-12-01_18h51.11.086,Recall,2021.2.3,60.00830514630583,
,DD005.jpg,0,FF005.jpg,0,,,,,0,96,96,4,imgFunc,9,NA,2.583828100003302,367.94655170000624,370.63511683998513,2023-12-01 18:57:04.973261,2023-12-01 18:57:07.660629,FF005.jpg,0,10857,18-29,2023-12-01_18h51.11.086,Recall,2021.2.3,60.00830514630583,
,SD014.jpg,0,MF014.jpg,0,,,,,0,97,97,63,imgFunc,2,NA,4.015950300003169,370.6184202999866,374.72321513996576,2023-12-01 18:57:07.667610,2023-12-01 18:57:11.763370,MF014.jpg,0,10857,18-29,2023-12-01_18h51.11.086,Recall,2021.2.3,60.00830514630583,
,DD040.jpg,0,FF040.jpg,0,,,,,0,98,98,39,imgFunc,9,NA,6.309790500003146,374.73255109999445,381.139148939983,2023-12-01 18:57:11.778351,2023-12-01 18:57:18.183827,FF040.jpg,0,10857,18-29,2023-12-01_18h51.11.086,Recall,2021.2.3,60.00830514630583,
,DD012.jpg,0,FF012.jpg,0,,,,,0,99,99,11,imgFunc,0,NA,3.8302758999925572,381.1640756999841,385.11629493997316,2023-12-01 18:57:18.192776,2023-12-01 18:57:22.136729,FF012.jpg,0,10857,18-29,2023-12-01_18h51.11.086,Recall,2021.2.3,60.00830514630583,
,,,,,,,,,,,,,instrFunc,space,"Great work! 

 Now you will switch to the other image type.

 Press the spacebar whenever you are ready to start.",2.3972309999808203,385.0291997999884,387.4781086399744,2023-12-01 18:57:22.137725,2023-12-01 18:57:24.570905,,,10857,18-29,2023-12-01_18h51.11.086,Recall,2021.2.3,60.00830514630583,
,SD004.jpg,0,MF004.jpg,0,,,,,0,0,0,53,imgFunc,2,NA,7.090129299991531,387.544215300004,394.7242421799747,2023-12-01 18:57:24.600803,2023-12-01 18:57:31.777227,SD004.jpg,0,10857,18-29,2023-12-01_18h51.11.086,Recall,2021.2.3,60.00830514630583,
,SD007.jpg,0,MF007.jpg,0,,,,,0,1,1,56,imgFunc,1,NA,1.6633212000015192,394.7310604999948,396.48145403998205,2023-12-01 18:57:31.786178,2023-12-01 18:57:33.528350,SD007.jpg,0,10857,18-29,2023-12-01_18h51.11.086,Recall,2021.2.3,60.00830514630583,
,SD026.jpg,0,MF026.jpg,0,,,,,0,2,2,75,imgFunc,2,NA,1.799421599978814,396.4909493000014,398.3934988400142,2023-12-01 18:57:33.536302,2023-12-01 18:57:35.430101,SD026.jpg,0,10857,18-29,2023-12-01_18h51.11.086,Recall,2021.2.3,60.00830514630583,
,DD014.jpg,0,FF014.jpg,0,,,,,0,3,3,13,imgFunc,1,NA,1.3159880000166595,398.3903164000076,399.80084084000555,2023-12-01 18:57:35.441071,2023-12-01 18:57:36.847000,DD014.jpg,0,10857,18-29,2023-12-01_18h51.11.086,Recall,2021.2.3,60.00830514630583,
,DD040.jpg,0,FF040.jpg,0,,,,,0,4,4,39,imgFunc,2,NA,3.1324751999927685,399.797845699999,403.0185586400039,2023-12-01 18:57:36.855006,2023-12-01 18:57:40.066538,DD040.jpg,0,10857,18-29,2023-12-01_18h51.11.086,Recall,2021.2.3,60.00830514630583,
,SD022.jpg,0,MF022.jpg,0,,,,,0,5,5,71,imgFunc,2,NA,2.0158771999995224,403.01859009999316,405.12092923998716,2023-12-01 18:57:40.074491,2023-12-01 18:57:42.167879,SD022.jpg,0,10857,18-29,2023-12-01_18h51.11.086,Recall,2021.2.3,60.00830514630583,
,L_SD507.jpg,1,L_MF507.jpg,1,,,,,0,6,6,96,imgFunc,2,NA,2.4197109999950044,405.1186873999832,407.6212730399857,2023-12-01 18:57:42.175824,2023-12-01 18:57:44.669820,L_SD507.jpg,1,10857,18-29,2023-12-01_18h51.11.086,Recall,2021.2.3,60.00830514630583,
,DD011.jpg,0,FF011.jpg,0,,,,,0,7,7,10,imgFunc,1,NA,2.422658900002716,407.62766239998746,410.1479350399459,2023-12-01 18:57:44.676800,2023-12-01 18:57:47.188774,DD011.jpg,0,10857,18-29,2023-12-01_18h51.11.086,Recall,2021.2.3,60.00830514630583,
,L_SD503.jpg,1,L_MF503.jpg,1,,,,,0,8,8,92,imgFunc,0,NA,3.79202609998174,410.1382561000064,414.0260348399752,2023-12-01 18:57:47.195758,2023-12-01 18:57:51.074503,L_SD503.jpg,1,10857,18-29,2023-12-01_18h51.11.086,Recall,2021.2.3,60.00830514630583,
,L_DD510.jpg,1,L_FF510.jpg,1,,,,,0,9,9,49,imgFunc,0,NA,3.8015885000058915,414.024743099988,417.91193714001565,2023-12-01 18:57:51.082479,2023-12-01 18:57:54.960713,L_DD510.jpg,1,10857,18-29,2023-12-01_18h51.11.086,Recall,2021.2.3,60.00830514630583,
,DD008.jpg,0,FF008.jpg,0,,,,,0,10,10,7,imgFunc,1,NA,1.1608858000254259,417.9133833000087,419.16512394003803,2023-12-01 18:57:54.968695,2023-12-01 18:57:56.211156,DD008.jpg,0,10857,18-29,2023-12-01_18h51.11.086,Recall,2021.2.3,60.00830514630583,
,SD033.jpg,0,MF033.jpg,0,,,,,0,11,11,82,imgFunc,2,NA,5.253634100023191,419.1647369999846,424.5034268399759,2023-12-01 18:57:56.219132,2023-12-01 18:58:01.549249,SD033.jpg,0,10857,18-29,2023-12-01_18h51.11.086,Recall,2021.2.3,60.00830514630583,
,SD015.jpg,0,MF015.jpg,0,,,,,0,12,12,64,imgFunc,1,NA,1.25166999999783,424.52669110000716,425.88213313996675,2023-12-01 18:58:01.563211,2023-12-01 18:58:02.916286,SD015.jpg,0,10857,18-29,2023-12-01_18h51.11.086,Recall,2021.2.3,60.00830514630583,
,SD018.jpg,0,MF018.jpg,0,,,,,0,13,13,67,imgFunc,1,NA,2.9186820999893826,425.86777650000295,428.86996814000304,2023-12-01 18:58:02.924268,2023-12-01 18:58:05.917982,SD018.jpg,0,10857,18-29,2023-12-01_18h51.11.086,Recall,2021.2.3,60.00830514630583,
,SD036.jpg,0,MF036.jpg,0,,,,,0,14,14,85,imgFunc,0,NA,4.331191199977184,428.8711364000046,433.2926189400023,2023-12-01 18:58:05.925959,2023-12-01 18:58:10.337894,SD036.jpg,0,10857,18-29,2023-12-01_18h51.11.086,Recall,2021.2.3,60.00830514630583,
,SD029.jpg,0,MF029.jpg,0,,,,,0,15,15,78,imgFunc,2,NA,1.7533494000090286,433.2890146999853,435.12484203997883,2023-12-01 18:58:10.345868,2023-12-01 18:58:12.172766,SD029.jpg,0,10857,18-29,2023-12-01_18h51.11.086,Recall,2021.2.3,60.00830514630583,
,SD021.jpg,0,MF021.jpg,0,,,,,0,16,16,70,imgFunc,2,NA,1.1010881999973208,435.1253800999839,436.31075523997424,2023-12-01 18:58:12.180717,2023-12-01 18:58:13.357088,SD021.jpg,0,10857,18-29,2023-12-01_18h51.11.086,Recall,2021.2.3,60.00830514630583,
,SD017.jpg,0,MF017.jpg,0,,,,,0,17,17,66,imgFunc,2,NA,3.2531525999947917,436.31715119999717,439.65658354002517,2023-12-01 18:58:13.372050,2023-12-01 18:58:16.709752,SD017.jpg,0,10857,18-29,2023-12-01_18h51.11.086,Recall,2021.2.3,60.00830514630583,
,L_SD506.jpg,1,L_MF506.jpg,1,,,,,0,18,18,95,imgFunc,2,NA,0.9407953000045381,439.6615705000004,440.6970960400067,2023-12-01 18:58:16.716732,2023-12-01 18:58:17.743777,L_SD506.jpg,1,10857,18-29,2023-12-01_18h51.11.086,Recall,2021.2.3,60.00830514630583,
,L_DD509.jpg,1,L_FF509.jpg,1,,,,,0,19,19,48,imgFunc,0,NA,2.9201347999915015,440.6982883999881,443.71876793997944,2023-12-01 18:58:17.750758,2023-12-01 18:58:20.762442,L_DD509.jpg,1,10857,18-29,2023-12-01_18h51.11.086,Recall,2021.2.3,60.00830514630583,
,SD010.jpg,0,MF010.jpg,0,,,,,0,20,20,59,imgFunc,2,NA,6.761126900004456,443.71319109998876,450.569127040013,2023-12-01 18:58:20.770377,2023-12-01 18:58:27.617243,SD010.jpg,0,10857,18-29,2023-12-01_18h51.11.086,Recall,2021.2.3,60.00830514630583,
,DD001.jpg,0,FF001.jpg,0,,,,,0,21,21,0,imgFunc,2,NA,4.60187600000063,450.58452209999086,455.28717883999343,2023-12-01 18:58:27.626222,2023-12-01 18:58:32.320829,DD001.jpg,0,10857,18-29,2023-12-01_18h51.11.086,Recall,2021.2.3,60.00830514630583,
,L_DD502.jpg,1,L_FF502.jpg,1,,,,,0,22,22,41,imgFunc,0,NA,2.8806208000169136,455.28170580000733,458.25137494000955,2023-12-01 18:58:32.336780,2023-12-01 18:58:35.305583,L_DD502.jpg,1,10857,18-29,2023-12-01_18h51.11.086,Recall,2021.2.3,60.00830514630583,
,DD036.jpg,0,FF036.jpg,0,,,,,0,23,23,35,imgFunc,2,NA,3.2307721999823116,458.2595132999995,461.58074103997205,2023-12-01 18:58:35.312560,2023-12-01 18:58:38.625431,DD036.jpg,0,10857,18-29,2023-12-01_18h51.11.086,Recall,2021.2.3,60.00830514630583,
,DD030.jpg,0,FF030.jpg,0,,,,,0,24,24,29,imgFunc,1,NA,1.7308626000012737,461.5754792999942,463.39471864001825,2023-12-01 18:58:38.632442,2023-12-01 18:58:40.442722,DD030.jpg,0,10857,18-29,2023-12-01_18h51.11.086,Recall,2021.2.3,60.00830514630583,
,L_SD504.jpg,1,L_MF504.jpg,1,,,,,0,25,25,93,imgFunc,0,NA,2.1350542999862228,463.3953154000046,465.61490943998797,2023-12-01 18:58:40.450704,2023-12-01 18:58:42.661559,L_SD504.jpg,1,10857,18-29,2023-12-01_18h51.11.086,Recall,2021.2.3,60.00830514630583,
,DD020.jpg,0,FF020.jpg,0,,,,,0,26,26,19,imgFunc,2,NA,3.0977115999849048,465.62472459999844,468.8286020399537,2023-12-01 18:58:42.668539,2023-12-01 18:58:45.864116,DD020.jpg,0,10857,18-29,2023-12-01_18h51.11.086,Recall,2021.2.3,60.00830514630583,
,SD037.jpg,0,MF037.jpg,0,,,,,0,27,27,86,imgFunc,0,NA,2.1034673000103794,468.81883040000685,471.0222165400046,2023-12-01 18:58:45.871097,2023-12-01 18:58:48.065121,SD037.jpg,0,10857,18-29,2023-12-01_18h51.11.086,Recall,2021.2.3,60.00830514630583,
,SD014.jpg,0,MF014.jpg,0,,,,,0,28,28,63,imgFunc,1,NA,1.9622091999917757,471.01607199999853,473.0689099399606,2023-12-01 18:58:48.073105,2023-12-01 18:58:50.116595,SD014.jpg,0,10857,18-29,2023-12-01_18h51.11.086,Recall,2021.2.3,60.00830514630583,
,SD001.jpg,0,MF001.jpg,0,,,,,0,29,29,50,imgFunc,2,NA,2.887195099989185,473.0671432999952,476.0371307399764,2023-12-01 18:58:50.124581,2023-12-01 18:58:53.085303,SD001.jpg,0,10857,18-29,2023-12-01_18h51.11.086,Recall,2021.2.3,60.00830514630583,
,DD018.jpg,0,FF018.jpg,0,,,,,0,30,30,17,imgFunc,1,NA,1.9354659000237007,476.050862700009,478.0869275399891,2023-12-01 18:58:53.093280,2023-12-01 18:58:55.120218,DD018.jpg,0,10857,18-29,2023-12-01_18h51.11.086,Recall,2021.2.3,60.00830514630583,
,SD020.jpg,0,MF020.jpg,0,,,,,0,31,31,69,imgFunc,1,NA,1.685625899990555,478.0846678999951,479.85929593999754,2023-12-01 18:58:55.133157,2023-12-01 18:58:56.904663,SD020.jpg,0,10857,18-29,2023-12-01_18h51.11.086,Recall,2021.2.3,60.00830514630583,
,DD010.jpg,0,FF010.jpg,0,,,,,0,32,32,9,imgFunc,2,NA,4.019261200010078,479.8550004999852,483.95936963995337,2023-12-01 18:58:56.912613,2023-12-01 18:59:01.008283,DD010.jpg,0,10857,18-29,2023-12-01_18h51.11.086,Recall,2021.2.3,60.00830514630583,
,SD019.jpg,0,MF019.jpg,0,,,,,0,33,33,68,imgFunc,9,NA,2.4352953000052366,483.9590699999826,486.47859153998434,2023-12-01 18:59:01.015294,2023-12-01 18:59:03.525869,SD019.jpg,0,10857,18-29,2023-12-01_18h51.11.086,Recall,2021.2.3,60.00830514630583,
,L_DD505.jpg,1,L_FF505.jpg,1,,,,,0,34,34,44,imgFunc,1,NA,4.179646500007948,486.4786474999855,490.7496428400045,2023-12-01 18:59:03.533872,2023-12-01 18:59:07.795803,L_DD505.jpg,1,10857,18-29,2023-12-01_18h51.11.086,Recall,2021.2.3,60.00830514630583,
,SD038.jpg,0,MF038.jpg,0,,,,,0,35,35,87,imgFunc,1,NA,3.3208969000261277,490.753372200008,494.1733561399742,2023-12-01 18:59:07.803781,2023-12-01 18:59:11.215077,SD038.jpg,0,10857,18-29,2023-12-01_18h51.11.086,Recall,2021.2.3,60.00830514630583,
,SD032.jpg,0,MF032.jpg,0,,,,,0,36,36,81,imgFunc,9,NA,2.277066599985119,494.18123919999925,496.5539681399532,2023-12-01 18:59:11.230013,2023-12-01 18:59:13.600545,SD032.jpg,0,10857,18-29,2023-12-01_18h51.11.086,Recall,2021.2.3,60.00830514630583,
,DD034.jpg,0,FF034.jpg,0,,,,,0,37,37,33,imgFunc,2,NA,1.9985673000046518,496.55577819998143,498.6344445400173,2023-12-01 18:59:13.611514,2023-12-01 18:59:15.684751,DD034.jpg,0,10857,18-29,2023-12-01_18h51.11.086,Recall,2021.2.3,60.00830514630583,
,SD006.jpg,0,MF006.jpg,0,,,,,0,38,38,55,imgFunc,2,NA,2.151204099995084,498.6350780999928,500.87125133996597,2023-12-01 18:59:15.692739,2023-12-01 18:59:17.920173,SD006.jpg,0,10857,18-29,2023-12-01_18h51.11.086,Recall,2021.2.3,60.00830514630583,
,DD015.jpg,0,FF015.jpg,0,,,,,0,39,39,14,imgFunc,2,NA,2.7396169000130612,500.8706836999918,503.70720234001055,2023-12-01 18:59:17.927176,2023-12-01 18:59:20.755186,DD015.jpg,0,10857,18-29,2023-12-01_18h51.11.086,Recall,2021.2.3,60.00830514630583,
,DD038.jpg,0,FF038.jpg,0,,,,,0,40,40,37,imgFunc,9,NA,4.3742082999960985,503.70808149999357,508.1793387399812,2023-12-01 18:59:20.763192,2023-12-01 18:59:25.225510,DD038.jpg,0,10857,18-29,2023-12-01_18h51.11.086,Recall,2021.2.3,60.00830514630583,
,L_DD504.jpg,1,L_FF504.jpg,1,,,,,0,41,41,43,imgFunc,0,NA,3.870562500000233,508.19591469998704,512.1665298400039,2023-12-01 18:59:25.241467,2023-12-01 18:59:29.211107,L_DD504.jpg,1,10857,18-29,2023-12-01_18h51.11.086,Recall,2021.2.3,60.00830514630583,
,SD002.jpg,0,MF002.jpg,0,,,,,0,42,42,51,imgFunc,0,NA,2.2143419999920297,512.1639694999903,514.4670126399724,2023-12-01 18:59:29.219060,2023-12-01 18:59:31.513013,SD002.jpg,0,10857,18-29,2023-12-01_18h51.11.086,Recall,2021.2.3,60.00830514630583,
,SD031.jpg,0,MF031.jpg,0,,,,,0,43,43,80,imgFunc,1,NA,4.988738700019894,514.4618639999826,519.5336044399592,2023-12-01 18:59:31.520967,2023-12-01 18:59:36.583657,SD031.jpg,0,10857,18-29,2023-12-01_18h51.11.086,Recall,2021.2.3,60.00830514630583,
,DD026.jpg,0,FF026.jpg,0,,,,,0,44,44,25,imgFunc,0,NA,2.918069799983641,519.5401367000013,522.5580851399864,2023-12-01 18:59:36.591639,2023-12-01 18:59:39.602570,DD026.jpg,0,10857,18-29,2023-12-01_18h51.11.086,Recall,2021.2.3,60.00830514630583,
,DD007.jpg,0,FF007.jpg,0,,,,,0,45,45,6,imgFunc,2,NA,4.580215199996019,522.5580917999905,527.2295474399871,2023-12-01 18:59:39.609551,2023-12-01 18:59:44.271934,DD007.jpg,0,10857,18-29,2023-12-01_18h51.11.086,Recall,2021.2.3,60.00830514630583,
,DD004.jpg,0,FF004.jpg,0,,,,,0,46,46,3,imgFunc,2,NA,2.30601959998603,527.2242540000007,529.6255397399946,2023-12-01 18:59:44.280908,2023-12-01 18:59:46.673449,DD004.jpg,0,10857,18-29,2023-12-01_18h51.11.086,Recall,2021.2.3,60.00830514630583,
,DD016.jpg,0,FF016.jpg,0,,,,,0,47,47,15,imgFunc,1,NA,3.7231068999972194,529.631160799996,533.4519356399833,2023-12-01 18:59:46.681427,2023-12-01 18:59:50.492830,DD016.jpg,0,10857,18-29,2023-12-01_18h51.11.086,Recall,2021.2.3,60.00830514630583,
,SD028.jpg,0,MF028.jpg,0,,,,,0,48,48,77,imgFunc,2,NA,3.3739002000074834,533.4523612000048,536.9227047399909,2023-12-01 18:59:50.500808,2023-12-01 18:59:53.962397,SD028.jpg,0,10857,18-29,2023-12-01_18h51.11.086,Recall,2021.2.3,60.00830514630583,
,DD002.jpg,0,FF002.jpg,0,,,,,0,49,49,1,imgFunc,2,NA,2.2242319000069983,536.9140307999915,539.233954639989,2023-12-01 18:59:53.969376,2023-12-01 18:59:56.280943,DD002.jpg,0,10857,18-29,2023-12-01_18h51.11.086,Recall,2021.2.3,60.00830514630583,
,L_DD508.jpg,1,L_FF508.jpg,1,,,,,0,50,50,47,imgFunc,2,NA,1.859135000006063,539.2391847999825,541.1808890399698,2023-12-01 18:59:56.293908,2023-12-01 18:59:58.232574,L_DD508.jpg,1,10857,18-29,2023-12-01_18h51.11.086,Recall,2021.2.3,60.00830514630583,
,SD012.jpg,0,MF012.jpg,0,,,,,0,51,51,61,imgFunc,1,NA,1.2346058999828529,541.1837077999953,542.5033081399743,2023-12-01 18:59:58.239582,2023-12-01 18:59:59.550245,SD012.jpg,0,10857,18-29,2023-12-01_18h51.11.086,Recall,2021.2.3,60.00830514630583,
,L_SD508.jpg,1,L_MF508.jpg,1,,,,,0,52,52,97,imgFunc,0,NA,3.0567417000129353,542.4976587999845,545.6345904399641,2023-12-01 18:59:59.557248,2023-12-01 19:00:02.685805,L_SD508.jpg,1,10857,18-29,2023-12-01_18h51.11.086,Recall,2021.2.3,60.00830514630583,
,SD030.jpg,0,MF030.jpg,0,,,,,0,53,53,79,imgFunc,2,NA,3.8689721999980975,545.6373365999898,549.591793939966,2023-12-01 19:00:02.692814,2023-12-01 19:00:06.638257,SD030.jpg,0,10857,18-29,2023-12-01_18h51.11.086,Recall,2021.2.3,60.00830514630583,
,DD013.jpg,0,FF013.jpg,0,,,,,0,54,54,12,imgFunc,1,NA,1.381941800005734,549.5883659000101,551.0580588399607,2023-12-01 19:00:06.645234,2023-12-01 19:00:08.105904,DD013.jpg,0,10857,18-29,2023-12-01_18h51.11.086,Recall,2021.2.3,60.00830514630583,
,SD039.jpg,0,MF039.jpg,0,,,,,0,55,55,88,imgFunc,2,NA,5.330050099990331,551.0643773000047,556.4721721399983,2023-12-01 19:00:08.120835,2023-12-01 19:00:13.526897,SD039.jpg,0,10857,18-29,2023-12-01_18h51.11.086,Recall,2021.2.3,60.00830514630583,
,SD005.jpg,0,MF005.jpg,0,,,,,0,56,56,54,imgFunc,1,NA,2.701323500019498,556.4850877999852,559.2848707399971,2023-12-01 19:00:13.535873,2023-12-01 19:00:16.328457,SD005.jpg,0,10857,18-29,2023-12-01_18h51.11.086,Recall,2021.2.3,60.00830514630583,
,DD006.jpg,0,FF006.jpg,0,,,,,0,57,57,5,imgFunc,2,NA,2.378346000012243,559.2799332999857,561.7490255400189,2023-12-01 19:00:16.336427,2023-12-01 19:00:18.797356,DD006.jpg,0,10857,18-29,2023-12-01_18h51.11.086,Recall,2021.2.3,60.00830514630583,
,DD003.jpg,0,FF003.jpg,0,,,,,0,58,58,2,imgFunc,0,NA,4.197088199987775,561.7491606999829,566.0370200400066,2023-12-01 19:00:18.804337,2023-12-01 19:00:23.083399,DD003.jpg,0,10857,18-29,2023-12-01_18h51.11.086,Recall,2021.2.3,60.00830514630583,
,DD033.jpg,0,FF033.jpg,0,,,,,0,59,59,32,imgFunc,0,NA,2.471716900006868,566.0345845999836,568.6037904399273,2023-12-01 19:00:23.091384,2023-12-01 19:00:25.651242,DD033.jpg,0,10857,18-29,2023-12-01_18h51.11.086,Recall,2021.2.3,60.00830514630583,
,SD013.jpg,0,MF013.jpg,0,,,,,0,60,60,62,imgFunc,0,NA,1.903707999998005,568.6106244999974,570.5996456399735,2023-12-01 19:00:25.666201,2023-12-01 19:00:27.653554,SD013.jpg,0,10857,18-29,2023-12-01_18h51.11.086,Recall,2021.2.3,60.00830514630583,
,SD034.jpg,0,MF034.jpg,0,,,,,0,61,61,83,imgFunc,0,NA,2.066577399993548,570.59969860001,572.7526796399907,2023-12-01 19:00:27.660534,2023-12-01 19:00:29.804803,SD034.jpg,0,10857,18-29,2023-12-01_18h51.11.086,Recall,2021.2.3,60.00830514630583,
,DD009.jpg,0,FF009.jpg,0,,,,,0,62,62,8,imgFunc,0,NA,3.0570476000139024,572.753367199999,575.8905187399941,2023-12-01 19:00:29.812785,2023-12-01 19:00:32.940851,DD009.jpg,0,10857,18-29,2023-12-01_18h51.11.086,Recall,2021.2.3,60.00830514630583,
,DD024.jpg,0,FF024.jpg,0,,,,,0,63,63,23,imgFunc,2,NA,2.433025100006489,575.8892884000088,578.4092372399755,2023-12-01 19:00:32.947832,2023-12-01 19:00:35.458551,DD024.jpg,0,10857,18-29,2023-12-01_18h51.11.086,Recall,2021.2.3,60.00830514630583,
,SD035.jpg,0,MF035.jpg,0,,,,,0,64,64,84,imgFunc,0,NA,3.5778933000110555,578.4083578999853,582.0792939399835,2023-12-01 19:00:35.466526,2023-12-01 19:00:39.128363,SD035.jpg,0,10857,18-29,2023-12-01_18h51.11.086,Recall,2021.2.3,60.00830514630583,
,DD025.jpg,0,FF025.jpg,0,,,,,0,65,65,24,imgFunc,2,NA,2.4305953000148293,582.0756842999835,584.5957775399438,2023-12-01 19:00:39.136341,2023-12-01 19:00:41.647033,DD025.jpg,0,10857,18-29,2023-12-01_18h51.11.086,Recall,2021.2.3,60.00830514630583,
,SD003.jpg,0,MF003.jpg,0,,,,,0,66,66,52,imgFunc,1,NA,1.87109979998786,584.5952591999958,586.547978639981,2023-12-01 19:00:41.654014,2023-12-01 19:00:43.598282,SD003.jpg,0,10857,18-29,2023-12-01_18h51.11.086,Recall,2021.2.3,60.00830514630583,
,L_SD505.jpg,1,L_MF505.jpg,1,,,,,0,67,67,94,imgFunc,2,NA,3.9635701999941375,586.5507278000005,590.6048267399892,2023-12-01 19:00:43.605232,2023-12-01 19:00:47.650944,L_SD505.jpg,1,10857,18-29,2023-12-01_18h51.11.086,Recall,2021.2.3,60.00830514630583,
,L_DD503.jpg,1,L_FF503.jpg,1,,,,,0,68,68,42,imgFunc,0,NA,3.0237767999933567,590.6105591999949,593.7291899400007,2023-12-01 19:00:47.658891,2023-12-01 19:00:50.769525,L_DD503.jpg,1,10857,18-29,2023-12-01_18h51.11.086,Recall,2021.2.3,60.00830514630583,
,L_DD507.jpg,1,L_FF507.jpg,1,,,,,0,69,69,46,imgFunc,0,NA,5.111399999994319,593.7388607999892,598.9490988400066,2023-12-01 19:00:50.783455,2023-12-01 19:00:55.990239,L_DD507.jpg,1,10857,18-29,2023-12-01_18h51.11.086,Recall,2021.2.3,60.00830514630583,
,SD009.jpg,0,MF009.jpg,0,,,,,0,70,70,58,imgFunc,0,NA,1.1892104000144172,598.9570591000083,600.256826339988,2023-12-01 19:00:55.999215,2023-12-01 19:00:57.291006,SD009.jpg,0,10857,18-29,2023-12-01_18h51.11.086,Recall,2021.2.3,60.00830514630583,
,DD023.jpg,0,FF023.jpg,0,,,,,0,71,71,22,imgFunc,9,NA,3.417682800005423,600.2405964999925,603.7446970400051,2023-12-01 19:00:57.298956,2023-12-01 19:01:00.794305,DD023.jpg,0,10857,18-29,2023-12-01_18h51.11.086,Recall,2021.2.3,60.00830514630583,
,L_SD501.jpg,1,L_MF501.jpg,1,,,,,0,72,72,90,imgFunc,1,NA,2.3676888999762014,603.7466947000066,606.2004011399986,2023-12-01 19:01:00.801286,2023-12-01 19:01:03.246035,L_SD501.jpg,1,10857,18-29,2023-12-01_18h51.11.086,Recall,2021.2.3,60.00830514630583,
,L_SD509.jpg,1,L_MF509.jpg,1,,,,,0,73,73,98,imgFunc,9,NA,5.374810300010722,606.203466899984,611.6754361399508,2023-12-01 19:01:03.253016,2023-12-01 19:01:08.716257,L_SD509.jpg,1,10857,18-29,2023-12-01_18h51.11.086,Recall,2021.2.3,60.00830514630583,
,DD021.jpg,0,FF021.jpg,0,,,,,0,74,74,20,imgFunc,2,NA,2.314264999993611,611.7040137999866,614.1236812399875,2023-12-01 19:01:08.732236,2023-12-01 19:01:11.151420,DD021.jpg,0,10857,18-29,2023-12-01_18h51.11.086,Recall,2021.2.3,60.00830514630583,
,DD012.jpg,0,FF012.jpg,0,,,,,0,75,75,11,imgFunc,0,NA,1.4130316999799106,614.1012610000034,615.604331939976,2023-12-01 19:01:11.158404,2023-12-01 19:01:12.652126,DD012.jpg,0,10857,18-29,2023-12-01_18h51.11.086,Recall,2021.2.3,60.00830514630583,
,SD027.jpg,0,MF027.jpg,0,,,,,0,76,76,76,imgFunc,0,NA,1.212146500009112,615.6061221999989,616.9084621399816,2023-12-01 19:01:12.660079,2023-12-01 19:01:13.952717,SD027.jpg,0,10857,18-29,2023-12-01_18h51.11.086,Recall,2021.2.3,60.00830514630583,
,L_SD510.jpg,1,L_MF510.jpg,1,,,,,0,77,77,99,imgFunc,1,NA,2.8755882999976166,616.9107145000016,619.8815274399822,2023-12-01 19:01:13.960695,2023-12-01 19:01:16.921787,L_SD510.jpg,1,10857,18-29,2023-12-01_18h51.11.086,Recall,2021.2.3,60.00830514630583,
,SD025.jpg,0,MF025.jpg,0,,,,,0,78,78,74,imgFunc,0,NA,3.509391500003403,619.8768550999812,623.4787809399713,2023-12-01 19:01:16.930759,2023-12-01 19:01:20.524112,SD025.jpg,0,10857,18-29,2023-12-01_18h51.11.086,Recall,2021.2.3,60.00830514630583,
,DD028.jpg,0,FF028.jpg,0,,,,,0,79,79,27,imgFunc,2,NA,3.290595700003905,623.4956702000054,626.885908539989,2023-12-01 19:01:20.539070,2023-12-01 19:01:23.927539,DD028.jpg,0,10857,18-29,2023-12-01_18h51.11.086,Recall,2021.2.3,60.00830514630583,
,L_SD502.jpg,1,L_MF502.jpg,1,,,,,0,80,80,91,imgFunc,0,NA,1.6009367000078782,626.8813181000005,628.58423673996,2023-12-01 19:01:23.934520,2023-12-01 19:01:25.627740,L_SD502.jpg,1,10857,18-29,2023-12-01_18h51.11.086,Recall,2021.2.3,60.00830514630583,
,L_DD501.jpg,1,L_FF501.jpg,1,,,,,0,81,81,40,imgFunc,0,NA,4.4209686999965925,628.5812520000036,633.1027398400183,2023-12-01 19:01:25.635716,2023-12-01 19:01:30.148003,L_DD501.jpg,1,10857,18-29,2023-12-01_18h51.11.086,Recall,2021.2.3,60.00830514630583,
,DD035.jpg,0,FF035.jpg,0,,,,,0,82,82,34,imgFunc,1,NA,1.3591214999905787,633.1072190999985,634.5584350399731,2023-12-01 19:01:30.155977,2023-12-01 19:01:31.599193,DD035.jpg,0,10857,18-29,2023-12-01_18h51.11.086,Recall,2021.2.3,60.00830514630583,
,L_DD506.jpg,1,L_FF506.jpg,1,,,,,0,83,83,45,imgFunc,2,NA,3.237098400015384,634.5652847999881,637.9022632399574,2023-12-01 19:01:31.607146,2023-12-01 19:01:34.934934,L_DD506.jpg,1,10857,18-29,2023-12-01_18h51.11.086,Recall,2021.2.3,60.00830514630583,
,DD037.jpg,0,FF037.jpg,0,,,,,0,84,84,36,imgFunc,0,NA,2.1447838000021875,637.8895545999985,640.1258983400185,2023-12-01 19:01:34.942918,2023-12-01 19:01:37.170198,DD037.jpg,0,10857,18-29,2023-12-01_18h51.11.086,Recall,2021.2.3,60.00830514630583,
,SD008.jpg,0,MF008.jpg,0,,,,,0,85,85,57,imgFunc,2,NA,2.4162208999914583,640.1222199999902,642.6257957399939,2023-12-01 19:01:37.177209,2023-12-01 19:01:39.672305,SD008.jpg,0,10857,18-29,2023-12-01_18h51.11.086,Recall,2021.2.3,60.00830514630583,
,DD027.jpg,0,FF027.jpg,0,,,,,0,86,86,26,imgFunc,1,NA,1.2420416999957524,642.6242363000056,643.9596682400152,2023-12-01 19:01:39.679286,2023-12-01 19:01:41.005962,DD027.jpg,0,10857,18-29,2023-12-01_18h51.11.086,Recall,2021.2.3,60.00830514630583,
,DD005.jpg,0,FF005.jpg,0,,,,,0,87,87,4,imgFunc,9,NA,3.680206899996847,643.9700379999995,647.7578454400063,2023-12-01 19:01:41.012942,2023-12-01 19:01:44.791947,DD005.jpg,0,10857,18-29,2023-12-01_18h51.11.086,Recall,2021.2.3,60.00830514630583,
,DD032.jpg,0,FF032.jpg,0,,,,,0,88,88,31,imgFunc,1,NA,2.039783999993233,647.762490299996,649.9039284399769,2023-12-01 19:01:44.804912,2023-12-01 19:01:46.943431,DD032.jpg,0,10857,18-29,2023-12-01_18h51.11.086,Recall,2021.2.3,60.00830514630583,
,SD011.jpg,0,MF011.jpg,0,,,,,0,89,89,60,imgFunc,2,NA,2.4229367000225466,649.8993303999887,652.41936393996,2023-12-01 19:01:46.950412,2023-12-01 19:01:49.461374,SD011.jpg,0,10857,18-29,2023-12-01_18h51.11.086,Recall,2021.2.3,60.00830514630583,
,DD022.jpg,0,FF022.jpg,0,,,,,0,90,90,21,imgFunc,0,NA,3.0612250000122003,652.413017599989,655.56671223999,2023-12-01 19:01:49.469349,2023-12-01 19:01:52.614574,DD022.jpg,0,10857,18-29,2023-12-01_18h51.11.086,Recall,2021.2.3,60.00830514630583,
,SD024.jpg,0,MF024.jpg,0,,,,,0,91,91,73,imgFunc,0,NA,3.0572022999986075,655.5691006999987,658.7226543400029,2023-12-01 19:01:52.621555,2023-12-01 19:01:55.767012,SD024.jpg,0,10857,18-29,2023-12-01_18h51.11.086,Recall,2021.2.3,60.00830514630583,
,DD017.jpg,0,FF017.jpg,0,,,,,0,92,92,16,imgFunc,2,NA,3.4551771999977063,658.7390699999814,662.3093359399936,2023-12-01 19:01:55.773997,2023-12-01 19:01:59.335548,DD017.jpg,0,10857,18-29,2023-12-01_18h51.11.086,Recall,2021.2.3,60.00830514630583,
,DD031.jpg,0,FF031.jpg,0,,,,,0,93,93,30,imgFunc,1,NA,1.5178255000209901,662.3084077999811,663.930007339979,2023-12-01 19:01:59.350530,2023-12-01 19:02:00.970027,DD031.jpg,0,10857,18-29,2023-12-01_18h51.11.086,Recall,2021.2.3,60.00830514630583,
,SD040.jpg,0,MF040.jpg,0,,,,,0,94,94,89,imgFunc,9,NA,3.0895244000130333,663.9207919999899,667.10815713997,2023-12-01 19:02:00.978008,2023-12-01 19:02:04.155915,SD040.jpg,0,10857,18-29,2023-12-01_18h51.11.086,Recall,2021.2.3,60.00830514630583,
,DD029.jpg,0,FF029.jpg,0,,,,,0,95,95,28,imgFunc,1,NA,1.2610622000065632,667.1092387000099,668.4610416399664,2023-12-01 19:02:04.163900,2023-12-01 19:02:05.506628,DD029.jpg,0,10857,18-29,2023-12-01_18h51.11.086,Recall,2021.2.3,60.00830514630583,
,DD039.jpg,0,FF039.jpg,0,,,,,0,96,96,38,imgFunc,0,NA,1.8792083000007551,668.4590428000083,670.4283858400013,2023-12-01 19:02:05.514606,2023-12-01 19:02:07.474951,DD039.jpg,0,10857,18-29,2023-12-01_18h51.11.086,Recall,2021.2.3,60.00830514630583,
,SD016.jpg,0,MF016.jpg,0,,,,,0,97,97,65,imgFunc,2,NA,2.926083099999232,670.4281604999851,673.4482131399855,2023-12-01 19:02:07.482929,2023-12-01 19:02:10.493477,SD016.jpg,0,10857,18-29,2023-12-01_18h51.11.086,Recall,2021.2.3,60.00830514630583,
,DD019.jpg,0,FF019.jpg,0,,,,,0,98,98,18,imgFunc,2,NA,1.5051029000023846,673.465165600006,675.068596039986,2023-12-01 19:02:10.509440,2023-12-01 19:02:12.111613,DD019.jpg,0,10857,18-29,2023-12-01_18h51.11.086,Recall,2021.2.3,60.00830514630583,
,SD023.jpg,0,MF023.jpg,0,,,,,0,99,99,72,imgFunc,2,NA,0.8635404000233393,675.0587352000002,676.0104502400209,2023-12-01 19:02:12.119619,2023-12-01 19:02:13.062188,SD023.jpg,0,10857,18-29,2023-12-01_18h51.11.086,Recall,2021.2.3,60.00830514630583,
