instrText,stimDoor,stimDoorLure,stimFace,stimFaceLure,Instructions.thisRepN,Instructions.thisTrialN,Instructions.thisN,Instructions.thisIndex,Trials.thisRepN,Trials.thisTrialN,Trials.thisN,Trials.thisIndex,Func,Keys,Text,RespTime,Onset,Offset,SystemTime_Start,SystemTime_Stop,Stim,Lure,Participant*,Age,date,expName,psychopyVersion,frameRate,
"In the earlier Feedback Games, you chose which doors contained a prize, and which peers liked you. 

You then saw positive or negative feedback (green check mark or red X) from the door or peer you selected.

You will now see a series of doors and peers, some of which you saw during the earlier Feedback Games, and some that you have never seen before.

Please press the spacebar to continue.",,,,,0,0,0,0,,,,,instrFunc,space,"In the earlier Feedback Games, you chose which doors contained a prize, and which peers liked you. 

You then saw positive or negative feedback (green check mark or red X) from the door or peer you selected.

You will now see a series of doors and peers, some of which you saw during the earlier Feedback Games, and some that you have never seen before.

Please press the spacebar to continue.",16.39167009992525,31.98634500009939,48.441425358643755,2023-03-23 14:24:33.531059,2023-03-23 14:24:49.973284,,,10462,40-69,2023-03-23_14h24.29.834,Recall,2021.2.3,60.053315305847974,
"For doors/peers that you remember selecting and getting feedback from, your job is to RECALL what feedback you received. 

Press '1' if you recall positive feedback. 

Press '2' if you recall negative feedback

Press the spacebar to continue.",,,,,0,1,1,1,,,,,instrFunc,space,"For doors/peers that you remember selecting and getting feedback from, your job is to RECALL what feedback you received. 

Press '1' if you recall positive feedback. 

Press '2' if you recall negative feedback

Press the spacebar to continue.",13.994485300034285,48.41552370018326,62.456513630226254,2023-03-23 14:24:49.974285,2023-03-23 14:25:03.999834,,,10462,40-69,2023-03-23_14h24.29.834,Recall,2021.2.3,60.053315305847974,
"For doors/peers that you don't remember getting feedback from, your job is to PREDICT what feedback you WOULD HAVE received.

Press '9' if you predict positive feedback.

Press '0' if you predict negative feedback. 

Please press the spacebar to continue.",,,,,0,2,2,2,,,,,instrFunc,space,"For doors/peers that you don't remember getting feedback from, your job is to PREDICT what feedback you WOULD HAVE received.

Press '9' if you predict positive feedback.

Press '0' if you predict negative feedback. 

Please press the spacebar to continue.",23.31376040005125,62.4400886001531,85.78789163031615,2023-03-23 14:25:04.000835,2023-03-23 14:25:27.332601,,,10462,40-69,2023-03-23_14h24.29.834,Recall,2021.2.3,60.053315305847974,
"This task is self-paced, and the prompts will always stay on the screen so that you know which buttons to press.

On the next screen we will show you what those prompts look like, so that you know exactly what to expect. 

You will start with either doors or peers, and then switch halfway through. 

Please press the spacebar to continue.",,,,,0,3,3,3,,,,,instrFunc,space,"This task is self-paced, and the prompts will always stay on the screen so that you know which buttons to press.

On the next screen we will show you what those prompts look like, so that you know exactly what to expect. 

You will start with either doors or peers, and then switch halfway through. 

Please press the spacebar to continue.",9.611344299977645,85.77480240003206,95.4295582298655,2023-03-23 14:25:27.334562,2023-03-23 14:25:36.973853,,,10462,40-69,2023-03-23_14h24.29.834,Recall,2021.2.3,60.053315305847974,
,,,,,,,,,,,,,imgtextFunc,space,"Here is what the screen will look like while you make your ratings.
The green circles remind you to press 1 or 9 for positive feedback.
The red circles remind you to press 2 or 0 for positive feedback.









Please let the experimenter know if you have any questions.

Whenever you're ready, press the spacebar to start the task.",38.11978220008314,95.56208620010875,133.85368313011713,2023-03-23 14:25:36.982831,2023-03-23 14:26:15.268076,,,10462,40-69,2023-03-23_14h24.29.834,Recall,2021.2.3,60.053315305847974,
,L_DD510.jpg,1,L_FF510.jpg,1,,,,,0,0,0,49,imgFunc,9,NA,3.305521400179714,133.8566831999924,137.29935959004797,2023-03-23 14:26:15.314912,2023-03-23 14:26:18.754332,L_DD510.jpg,1,10462,40-69,2023-03-23_14h24.29.834,Recall,2021.2.3,60.053315305847974,
,DD009.jpg,0,FF009.jpg,0,,,,,0,1,1,8,imgFunc,1,NA,3.6614755999762565,137.2607874001842,141.0134692301508,2023-03-23 14:26:18.762313,2023-03-23 14:26:22.507013,DD009.jpg,0,10462,40-69,2023-03-23_14h24.29.834,Recall,2021.2.3,60.053315305847974,
,SD025.jpg,0,MF025.jpg,0,,,,,0,2,2,74,imgFunc,2,NA,5.307515899883583,141.01468130014837,146.4133470300585,2023-03-23 14:26:22.517986,2023-03-23 14:26:27.910772,SD025.jpg,0,10462,40-69,2023-03-23_14h24.29.834,Recall,2021.2.3,60.053315305847974,
,DD032.jpg,0,FF032.jpg,0,,,,,0,3,3,31,imgFunc,9,NA,2.1839149999432266,146.4103200000245,148.67613982991315,2023-03-23 14:26:27.919700,2023-03-23 14:26:30.179235,DD032.jpg,0,10462,40-69,2023-03-23_14h24.29.834,Recall,2021.2.3,60.053315305847974,
,DD030.jpg,0,FF030.jpg,0,,,,,0,4,4,29,imgFunc,2,NA,3.525555199943483,148.67666670004837,152.29750973009504,2023-03-23 14:26:30.186218,2023-03-23 14:26:33.798495,DD030.jpg,0,10462,40-69,2023-03-23_14h24.29.834,Recall,2021.2.3,60.053315305847974,
,SD035.jpg,0,MF035.jpg,0,,,,,0,5,5,84,imgFunc,9,NA,1.9913496999070048,152.29878070019186,154.38461523037404,2023-03-23 14:26:33.805478,2023-03-23 14:26:35.883259,SD035.jpg,0,10462,40-69,2023-03-23_14h24.29.834,Recall,2021.2.3,60.053315305847974,
,DD027.jpg,0,FF027.jpg,0,,,,,0,6,6,26,imgFunc,1,NA,2.31460090004839,154.3834500000812,156.78667073021643,2023-03-23 14:26:35.890242,2023-03-23 14:26:38.285056,DD027.jpg,0,10462,40-69,2023-03-23_14h24.29.834,Recall,2021.2.3,60.053315305847974,
,SD029.jpg,0,MF029.jpg,0,,,,,0,7,7,78,imgFunc,2,NA,2.588683499954641,156.78946520015597,159.46258103009313,2023-03-23 14:26:38.299021,2023-03-23 14:26:40.970355,SD029.jpg,0,10462,40-69,2023-03-23_14h24.29.834,Recall,2021.2.3,60.053315305847974,
,SD012.jpg,0,MF012.jpg,0,,,,,0,8,8,61,imgFunc,1,NA,4.317572799976915,159.46874390006997,163.8732505303342,2023-03-23 14:26:40.977338,2023-03-23 14:26:45.373624,SD012.jpg,0,10462,40-69,2023-03-23_14h24.29.834,Recall,2021.2.3,60.053315305847974,
,SD006.jpg,0,MF006.jpg,0,,,,,0,9,9,55,imgFunc,2,NA,1.4756203999277204,163.87056110007688,165.43889273004606,2023-03-23 14:26:45.381604,2023-03-23 14:26:46.941317,SD006.jpg,0,10462,40-69,2023-03-23_14h24.29.834,Recall,2021.2.3,60.053315305847974,
,L_DD509.jpg,1,L_FF509.jpg,1,,,,,0,10,10,48,imgFunc,9,NA,2.24682980007492,165.43545470014215,167.77173873013817,2023-03-23 14:26:46.948300,2023-03-23 14:26:49.276412,L_DD509.jpg,1,10462,40-69,2023-03-23_14h24.29.834,Recall,2021.2.3,60.053315305847974,
,DD040.jpg,0,FF040.jpg,0,,,,,0,11,11,39,imgFunc,1,NA,2.5816606001462787,167.78027240000665,170.45056183007546,2023-03-23 14:26:49.283395,2023-03-23 14:26:51.944163,DD040.jpg,0,10462,40-69,2023-03-23_14h24.29.834,Recall,2021.2.3,60.053315305847974,
,DD031.jpg,0,FF031.jpg,0,,,,,0,12,12,30,imgFunc,2,NA,2.6384139000438154,170.44362100004219,173.16337952995673,2023-03-23 14:26:51.952140,2023-03-23 14:26:54.662964,DD031.jpg,0,10462,40-69,2023-03-23_14h24.29.834,Recall,2021.2.3,60.053315305847974,
,DD005.jpg,0,FF005.jpg,0,,,,,0,13,13,4,imgFunc,9,NA,1.6538247000426054,173.16403029998764,174.91603903006762,2023-03-23 14:26:54.670936,2023-03-23 14:26:56.414302,DD005.jpg,0,10462,40-69,2023-03-23_14h24.29.834,Recall,2021.2.3,60.053315305847974,
,DD025.jpg,0,FF025.jpg,0,,,,,0,14,14,24,imgFunc,9,NA,2.4625450000166893,174.9153621001169,177.4681531302631,2023-03-23 14:26:56.422270,2023-03-23 14:26:58.966499,DD025.jpg,0,10462,40-69,2023-03-23_14h24.29.834,Recall,2021.2.3,60.053315305847974,
,SD019.jpg,0,MF019.jpg,0,,,,,0,15,15,68,imgFunc,1,NA,2.2608644000720233,177.46918380004354,179.82267973013222,2023-03-23 14:26:58.973489,2023-03-23 14:27:01.318491,SD019.jpg,0,10462,40-69,2023-03-23_14h24.29.834,Recall,2021.2.3,60.053315305847974,
,SD023.jpg,0,MF023.jpg,0,,,,,0,16,16,72,imgFunc,2,NA,1.911925399908796,179.82603490003385,181.8168271300383,2023-03-23 14:27:01.331457,2023-03-23 14:27:03.319948,SD023.jpg,0,10462,40-69,2023-03-23_14h24.29.834,Recall,2021.2.3,60.053315305847974,
,DD017.jpg,0,FF017.jpg,0,,,,,0,17,17,16,imgFunc,9,NA,1.5646792000625283,181.82145310007036,183.47359003010206,2023-03-23 14:27:03.327929,2023-03-23 14:27:04.971219,DD017.jpg,0,10462,40-69,2023-03-23_14h24.29.834,Recall,2021.2.3,60.053315305847974,
,L_SD507.jpg,1,L_MF507.jpg,1,,,,,0,18,18,96,imgFunc,9,NA,3.7627894000615925,183.46338360011578,187.30136293033138,2023-03-23 14:27:04.978201,2023-03-23 14:27:08.807183,L_SD507.jpg,1,10462,40-69,2023-03-23_14h24.29.834,Recall,2021.2.3,60.053315305847974,
,DD036.jpg,0,FF036.jpg,0,,,,,0,19,19,35,imgFunc,1,NA,1.3868555000517517,187.30345720006153,188.7726918302942,2023-03-23 14:27:08.814166,2023-03-23 14:27:10.274857,DD036.jpg,0,10462,40-69,2023-03-23_14h24.29.834,Recall,2021.2.3,60.053315305847974,
,SD016.jpg,0,MF016.jpg,0,,,,,0,20,20,65,imgFunc,2,NA,1.5844250000081956,188.7695890001487,190.43872583005577,2023-03-23 14:27:10.281841,2023-03-23 14:27:11.942667,SD016.jpg,0,10462,40-69,2023-03-23_14h24.29.834,Recall,2021.2.3,60.053315305847974,
,DD022.jpg,0,FF022.jpg,0,,,,,0,21,21,21,imgFunc,9,NA,1.5701346001587808,190.44808100000955,192.10178613010794,2023-03-23 14:27:11.957650,2023-03-23 14:27:13.610406,DD022.jpg,0,10462,40-69,2023-03-23_14h24.29.834,Recall,2021.2.3,60.053315305847974,
,SD031.jpg,0,MF031.jpg,0,,,,,0,22,22,80,imgFunc,1,NA,2.9124209999572486,192.1058910000138,195.1100282301195,2023-03-23 14:27:13.617389,2023-03-23 14:27:16.612742,SD031.jpg,0,10462,40-69,2023-03-23_14h24.29.834,Recall,2021.2.3,60.053315305847974,
,L_SD501.jpg,1,L_MF501.jpg,1,,,,,0,23,23,90,imgFunc,0,NA,5.416860300116241,195.105481200153,200.61087643029168,2023-03-23 14:27:16.619747,2023-03-23 14:27:22.116782,L_SD501.jpg,1,10462,40-69,2023-03-23_14h24.29.834,Recall,2021.2.3,60.053315305847974,
,DD023.jpg,0,FF023.jpg,0,,,,,0,24,24,22,imgFunc,9,NA,1.4431334999389946,200.6151048000902,202.14779633004218,2023-03-23 14:27:22.125760,2023-03-23 14:27:23.651261,DD023.jpg,0,10462,40-69,2023-03-23_14h24.29.834,Recall,2021.2.3,60.053315305847974,
,SD026.jpg,0,MF026.jpg,0,,,,,0,25,25,75,imgFunc,2,NA,2.8309641999658197,202.14742070017383,205.06763893016614,2023-03-23 14:27:23.658245,2023-03-23 14:27:26.569820,SD026.jpg,0,10462,40-69,2023-03-23_14h24.29.834,Recall,2021.2.3,60.053315305847974,
,SD015.jpg,0,MF015.jpg,0,,,,,0,26,26,64,imgFunc,1,NA,1.9437462000641972,205.07465000008233,207.09780173026957,2023-03-23 14:27:26.583785,2023-03-23 14:27:28.604806,SD015.jpg,0,10462,40-69,2023-03-23_14h24.29.834,Recall,2021.2.3,60.053315305847974,
,DD004.jpg,0,FF004.jpg,0,,,,,0,27,27,3,imgFunc,1,NA,2.0410231999121606,207.09720600000583,209.2170868301764,2023-03-23 14:27:28.611789,2023-03-23 14:27:30.722996,DD004.jpg,0,10462,40-69,2023-03-23_14h24.29.834,Recall,2021.2.3,60.053315305847974,
,SD011.jpg,0,MF011.jpg,0,,,,,0,28,28,60,imgFunc,2,NA,1.986754999961704,209.21553400019184,211.28550213039853,2023-03-23 14:27:30.729979,2023-03-23 14:27:32.791176,SD011.jpg,0,10462,40-69,2023-03-23_14h24.29.834,Recall,2021.2.3,60.053315305847974,
,SD021.jpg,0,MF021.jpg,0,,,,,0,29,29,70,imgFunc,9,NA,1.2542695000302047,211.28407010016963,212.6199577304069,2023-03-23 14:27:32.798159,2023-03-23 14:27:34.125433,SD021.jpg,0,10462,40-69,2023-03-23_14h24.29.834,Recall,2021.2.3,60.053315305847974,
,SD013.jpg,0,MF013.jpg,0,,,,,0,30,30,62,imgFunc,1,NA,1.377722900127992,212.62450410006568,214.09429572988302,2023-03-23 14:27:34.132416,2023-03-23 14:27:35.593546,SD013.jpg,0,10462,40-69,2023-03-23_14h24.29.834,Recall,2021.2.3,60.053315305847974,
,SD033.jpg,0,MF033.jpg,0,,,,,0,31,31,82,imgFunc,2,NA,2.066742000170052,214.08724680007435,216.24022283009253,2023-03-23 14:27:35.600529,2023-03-23 14:27:37.743956,SD033.jpg,0,10462,40-69,2023-03-23_14h24.29.834,Recall,2021.2.3,60.053315305847974,
,SD032.jpg,0,MF032.jpg,0,,,,,0,32,32,81,imgFunc,9,NA,1.4107359000481665,216.2392451001797,217.74174583004788,2023-03-23 14:27:37.751934,2023-03-23 14:27:39.245961,SD032.jpg,0,10462,40-69,2023-03-23_14h24.29.834,Recall,2021.2.3,60.053315305847974,
,L_DD503.jpg,1,L_FF503.jpg,1,,,,,0,33,33,42,imgFunc,0,NA,1.7953441999852657,217.74266840005293,219.62803033017553,2023-03-23 14:27:39.252970,2023-03-23 14:27:41.129980,L_DD503.jpg,1,10462,40-69,2023-03-23_14h24.29.834,Recall,2021.2.3,60.053315305847974,
,L_DD508.jpg,1,L_FF508.jpg,1,,,,,0,34,34,47,imgFunc,1,NA,1.6110535999760032,219.63097180007026,221.33312973030843,2023-03-23 14:27:41.137955,2023-03-23 14:27:42.831467,L_DD508.jpg,1,10462,40-69,2023-03-23_14h24.29.834,Recall,2021.2.3,60.053315305847974,
,DD010.jpg,0,FF010.jpg,0,,,,,0,35,35,9,imgFunc,2,NA,2.5860194000415504,221.34399780002423,224.01890933024697,2023-03-23 14:27:42.844387,2023-03-23 14:27:45.516318,DD010.jpg,0,10462,40-69,2023-03-23_14h24.29.834,Recall,2021.2.3,60.053315305847974,
,DD014.jpg,0,FF014.jpg,0,,,,,0,36,36,13,imgFunc,9,NA,1.9548617999535054,224.01537680020556,226.05205593048595,2023-03-23 14:27:45.524287,2023-03-23 14:27:47.551871,DD014.jpg,0,10462,40-69,2023-03-23_14h24.29.834,Recall,2021.2.3,60.053315305847974,
,L_DD507.jpg,1,L_FF507.jpg,1,,,,,0,37,37,46,imgFunc,1,NA,1.1772841999772936,226.0486866000574,227.3175481299404,2023-03-23 14:27:47.558854,2023-03-23 14:27:48.818510,L_DD507.jpg,1,10462,40-69,2023-03-23_14h24.29.834,Recall,2021.2.3,60.053315305847974,
,DD001.jpg,0,FF001.jpg,0,,,,,0,38,38,0,imgFunc,2,NA,1.3706678999587893,227.3193353000097,228.78866393002681,2023-03-23 14:27:48.826449,2023-03-23 14:27:50.287292,DD001.jpg,0,10462,40-69,2023-03-23_14h24.29.834,Recall,2021.2.3,60.053315305847974,
,DD038.jpg,0,FF038.jpg,0,,,,,0,39,39,37,imgFunc,9,NA,1.2295045000500977,228.7807683001738,230.09999973024242,2023-03-23 14:27:50.294275,2023-03-23 14:27:51.604775,DD038.jpg,0,10462,40-69,2023-03-23_14h24.29.834,Recall,2021.2.3,60.053315305847974,
,L_SD503.jpg,1,L_MF503.jpg,1,,,,,0,40,40,92,imgFunc,2,NA,4.2941870000213385,230.1081048999913,234.48275043000467,2023-03-23 14:27:51.618739,2023-03-23 14:27:55.991212,L_SD503.jpg,1,10462,40-69,2023-03-23_14h24.29.834,Recall,2021.2.3,60.053315305847974,
,L_SD502.jpg,1,L_MF502.jpg,1,,,,,0,41,41,91,imgFunc,1,NA,0.8433141999412328,234.48706439998932,235.41763753001578,2023-03-23 14:27:56.001209,2023-03-23 14:27:56.925328,L_SD502.jpg,1,10462,40-69,2023-03-23_14h24.29.834,Recall,2021.2.3,60.053315305847974,
,SD010.jpg,0,MF010.jpg,0,,,,,0,42,42,59,imgFunc,1,NA,1.8330536999274045,235.42542380001396,237.34457153035328,2023-03-23 14:27:56.932310,2023-03-23 14:27:58.843288,SD010.jpg,0,10462,40-69,2023-03-23_14h24.29.834,Recall,2021.2.3,60.053315305847974,
,L_SD504.jpg,1,L_MF504.jpg,1,,,,,0,43,43,93,imgFunc,9,NA,1.5518092000856996,237.33855550014414,238.9735514302738,2023-03-23 14:27:58.851268,2023-03-23 14:28:00.477960,L_SD504.jpg,1,10462,40-69,2023-03-23_14h24.29.834,Recall,2021.2.3,60.053315305847974,
,DD003.jpg,0,FF003.jpg,0,,,,,0,44,44,2,imgFunc,0,NA,2.2529620002023876,238.97337980009615,241.31006203009747,2023-03-23 14:28:00.484943,2023-03-23 14:28:02.812890,DD003.jpg,0,10462,40-69,2023-03-23_14h24.29.834,Recall,2021.2.3,60.053315305847974,
,DD029.jpg,0,FF029.jpg,0,,,,,0,45,45,28,imgFunc,1,NA,1.120387699920684,241.32197120017372,242.52723333006725,2023-03-23 14:28:02.826854,2023-03-23 14:28:04.030413,DD029.jpg,0,10462,40-69,2023-03-23_14h24.29.834,Recall,2021.2.3,60.053315305847974,
,DD024.jpg,0,FF024.jpg,0,,,,,0,46,46,23,imgFunc,1,NA,2.408769799862057,242.52125740004703,245.00753523013555,2023-03-23 14:28:04.037299,2023-03-23 14:28:06.515234,DD024.jpg,0,10462,40-69,2023-03-23_14h24.29.834,Recall,2021.2.3,60.053315305847974,
,SD030.jpg,0,MF030.jpg,0,,,,,0,47,47,79,imgFunc,2,NA,2.0713579000439495,245.0110569000244,247.16408903012052,2023-03-23 14:28:06.522215,2023-03-23 14:28:08.666909,SD030.jpg,0,10462,40-69,2023-03-23_14h24.29.834,Recall,2021.2.3,60.053315305847974,
,SD039.jpg,0,MF039.jpg,0,,,,,0,48,48,88,imgFunc,9,NA,1.7460090001113713,247.16032969998196,248.99715953017585,2023-03-23 14:28:08.673892,2023-03-23 14:28:10.501867,SD039.jpg,0,10462,40-69,2023-03-23_14h24.29.834,Recall,2021.2.3,60.053315305847974,
,DD015.jpg,0,FF015.jpg,0,,,,,0,49,49,14,imgFunc,1,NA,4.855966000119224,249.002269100165,253.9572811301332,2023-03-23 14:28:10.508850,2023-03-23 14:28:15.455456,DD015.jpg,0,10462,40-69,2023-03-23_14h24.29.834,Recall,2021.2.3,60.053315305847974,
,DD033.jpg,0,FF033.jpg,0,,,,,0,50,50,32,imgFunc,9,NA,1.435691200196743,253.95076630008407,255.4667831303086,2023-03-23 14:28:15.464445,2023-03-23 14:28:16.973198,DD033.jpg,0,10462,40-69,2023-03-23_14h24.29.834,Recall,2021.2.3,60.053315305847974,
,L_SD508.jpg,1,L_MF508.jpg,1,,,,,0,51,51,97,imgFunc,1,NA,1.4307659999467432,255.46747390017845,256.9866119301878,2023-03-23 14:28:16.980204,2023-03-23 14:28:18.490958,L_SD508.jpg,1,10462,40-69,2023-03-23_14h24.29.834,Recall,2021.2.3,60.053315305847974,
,SD037.jpg,0,MF037.jpg,0,,,,,0,52,52,86,imgFunc,1,NA,1.571589699946344,256.9907293000724,258.6567940299865,2023-03-23 14:28:18.499959,2023-03-23 14:28:20.158774,SD037.jpg,0,10462,40-69,2023-03-23_14h24.29.834,Recall,2021.2.3,60.053315305847974,
,SD024.jpg,0,MF024.jpg,0,,,,,0,53,53,73,imgFunc,9,NA,6.949008099967614,258.6531239000615,265.69251763029024,2023-03-23 14:28:20.165757,2023-03-23 14:28:27.196569,SD024.jpg,0,10462,40-69,2023-03-23_14h24.29.834,Recall,2021.2.3,60.053315305847974,
,SD028.jpg,0,MF028.jpg,0,,,,,0,54,54,77,imgFunc,1,NA,1.391758899902925,265.73030100017786,267.2341290304903,2023-03-23 14:28:27.211499,2023-03-23 14:28:28.714504,SD028.jpg,0,10462,40-69,2023-03-23_14h24.29.834,Recall,2021.2.3,60.053315305847974,
,DD035.jpg,0,FF035.jpg,0,,,,,0,55,55,34,imgFunc,2,NA,1.2897515001241118,267.2163454000838,268.60137563035823,2023-03-23 14:28:28.722480,2023-03-23 14:28:30.098860,DD035.jpg,0,10462,40-69,2023-03-23_14h24.29.834,Recall,2021.2.3,60.053315305847974,
,SD022.jpg,0,MF022.jpg,0,,,,,0,56,56,71,imgFunc,1,NA,0.5715521001257002,268.59883949998766,269.26733963005245,2023-03-23 14:28:30.106797,2023-03-23 14:28:30.766332,SD022.jpg,0,10462,40-69,2023-03-23_14h24.29.834,Recall,2021.2.3,60.053315305847974,
,SD004.jpg,0,MF004.jpg,0,,,,,0,57,57,53,imgFunc,9,NA,1.5173464000690728,269.26085040019825,270.8632515303325,2023-03-23 14:28:30.773284,2023-03-23 14:28:32.367528,SD004.jpg,0,10462,40-69,2023-03-23_14h24.29.834,Recall,2021.2.3,60.053315305847974,
,SD040.jpg,0,MF040.jpg,0,,,,,0,58,58,89,imgFunc,1,NA,0.7919014000799507,270.86625050008297,271.7519039299805,2023-03-23 14:28:32.374511,2023-03-23 14:28:33.251602,SD040.jpg,0,10462,40-69,2023-03-23_14h24.29.834,Recall,2021.2.3,60.053315305847974,
,L_DD501.jpg,1,L_FF501.jpg,1,,,,,0,59,59,40,imgFunc,1,NA,1.2163597999606282,271.76980690006167,273.07224602997303,2023-03-23 14:28:33.267562,2023-03-23 14:28:34.569265,L_DD501.jpg,1,10462,40-69,2023-03-23_14h24.29.834,Recall,2021.2.3,60.053315305847974,
,DD016.jpg,0,FF016.jpg,0,,,,,0,60,60,15,imgFunc,2,NA,1.735292699886486,273.06705170008354,274.88687993003987,2023-03-23 14:28:34.576248,2023-03-23 14:28:36.387118,DD016.jpg,0,10462,40-69,2023-03-23_14h24.29.834,Recall,2021.2.3,60.053315305847974,
,L_SD505.jpg,1,L_MF505.jpg,1,,,,,0,61,61,94,imgFunc,2,NA,1.2041587000712752,274.8783029001206,276.1643577301875,2023-03-23 14:28:36.394101,2023-03-23 14:28:37.671451,L_SD505.jpg,1,10462,40-69,2023-03-23_14h24.29.834,Recall,2021.2.3,60.053315305847974,
,DD002.jpg,0,FF002.jpg,0,,,,,0,62,62,1,imgFunc,2,NA,1.3828095998615026,276.1636534000281,277.63319623004645,2023-03-23 14:28:37.678434,2023-03-23 14:28:39.139154,DD002.jpg,0,10462,40-69,2023-03-23_14h24.29.834,Recall,2021.2.3,60.053315305847974,
,SD020.jpg,0,MF020.jpg,0,,,,,0,63,63,69,imgFunc,1,NA,1.6484753999393433,277.6417321001645,279.3778539299965,2023-03-23 14:28:39.146137,2023-03-23 14:28:40.873795,SD020.jpg,0,10462,40-69,2023-03-23_14h24.29.834,Recall,2021.2.3,60.053315305847974,
,DD028.jpg,0,FF028.jpg,0,,,,,0,64,64,27,imgFunc,2,NA,0.9121831001248211,279.37834520009346,280.3664395301603,2023-03-23 14:28:40.887760,2023-03-23 14:28:41.874119,DD028.jpg,0,10462,40-69,2023-03-23_14h24.29.834,Recall,2021.2.3,60.053315305847974,
,SD001.jpg,0,MF001.jpg,0,,,,,0,65,65,50,imgFunc,9,NA,0.9339597998186946,280.3645177001599,281.38384083029814,2023-03-23 14:28:41.881007,2023-03-23 14:28:42.891892,SD001.jpg,0,10462,40-69,2023-03-23_14h24.29.834,Recall,2021.2.3,60.053315305847974,
,DD020.jpg,0,FF020.jpg,0,,,,,0,66,66,19,imgFunc,9,NA,1.1427943999879062,281.3876181000378,282.6237775301561,2023-03-23 14:28:42.898875,2023-03-23 14:28:44.126051,DD020.jpg,0,10462,40-69,2023-03-23_14h24.29.834,Recall,2021.2.3,60.053315305847974,
,L_SD506.jpg,1,L_MF506.jpg,1,,,,,0,67,67,95,imgFunc,1,NA,1.1419104998931289,282.62048200005665,283.85678163007833,2023-03-23 14:28:44.133034,2023-03-23 14:28:45.360361,L_SD506.jpg,1,10462,40-69,2023-03-23_14h24.29.834,Recall,2021.2.3,60.053315305847974,
,DD013.jpg,0,FF013.jpg,0,,,,,0,68,68,12,imgFunc,2,NA,1.0381447998806834,283.8523395000957,284.9710950299632,2023-03-23 14:28:45.367344,2023-03-23 14:28:46.477984,DD013.jpg,0,10462,40-69,2023-03-23_14h24.29.834,Recall,2021.2.3,60.053315305847974,
,SD014.jpg,0,MF014.jpg,0,,,,,0,69,69,63,imgFunc,9,NA,1.7214820999652147,284.9688018001616,286.7718077301979,2023-03-23 14:28:46.484967,2023-03-23 14:28:48.279130,SD014.jpg,0,10462,40-69,2023-03-23_14h24.29.834,Recall,2021.2.3,60.053315305847974,
,DD037.jpg,0,FF037.jpg,0,,,,,0,70,70,36,imgFunc,1,NA,1.142203499795869,286.77216130006127,287.9907745302189,2023-03-23 14:28:48.287111,2023-03-23 14:28:49.496832,DD037.jpg,0,10462,40-69,2023-03-23_14h24.29.834,Recall,2021.2.3,60.053315305847974,
,SD003.jpg,0,MF003.jpg,0,,,,,0,71,71,52,imgFunc,2,NA,2.285607799887657,287.98885189997964,290.3585467301309,2023-03-23 14:28:49.503815,2023-03-23 14:28:51.864973,SD003.jpg,0,10462,40-69,2023-03-23_14h24.29.834,Recall,2021.2.3,60.053315305847974,
,SD008.jpg,0,MF008.jpg,0,,,,,0,72,72,57,imgFunc,1,NA,0.8604551998432726,290.35771210002713,291.3104058301542,2023-03-23 14:28:51.871956,2023-03-23 14:28:52.815705,SD008.jpg,0,10462,40-69,2023-03-23_14h24.29.834,Recall,2021.2.3,60.053315305847974,
,DD018.jpg,0,FF018.jpg,0,,,,,0,73,73,17,imgFunc,9,NA,0.8405852001160383,291.31374410004355,292.2387125301175,2023-03-23 14:28:52.828672,2023-03-23 14:28:53.749756,DD018.jpg,0,10462,40-69,2023-03-23_14h24.29.834,Recall,2021.2.3,60.053315305847974,
,SD009.jpg,0,MF009.jpg,0,,,,,0,74,74,58,imgFunc,9,NA,5.8237135000526905,292.24272920005023,298.14895993005484,2023-03-23 14:28:53.756739,2023-03-23 14:28:59.654025,SD009.jpg,0,10462,40-69,2023-03-23_14h24.29.834,Recall,2021.2.3,60.053315305847974,
,L_SD510.jpg,1,L_MF510.jpg,1,,,,,0,75,75,99,imgFunc,0,NA,3.857474299846217,298.1529262000695,302.1035768301226,2023-03-23 14:28:59.662941,2023-03-23 14:29:03.606783,L_SD510.jpg,1,10462,40-69,2023-03-23_14h24.29.834,Recall,2021.2.3,60.053315305847974,
,L_DD502.jpg,1,L_FF502.jpg,1,,,,,0,76,76,41,imgFunc,9,NA,4.293677200097591,302.1004808000289,306.4713578298688,2023-03-23 14:29:03.614669,2023-03-23 14:29:07.976394,L_DD502.jpg,1,10462,40-69,2023-03-23_14h24.29.834,Recall,2021.2.3,60.053315305847974,
,DD039.jpg,0,FF039.jpg,0,,,,,0,77,77,38,imgFunc,1,NA,2.729764200048521,306.4883692001458,309.3237437303178,2023-03-23 14:29:07.984325,2023-03-23 14:29:10.811803,DD039.jpg,0,10462,40-69,2023-03-23_14h24.29.834,Recall,2021.2.3,60.053315305847974,
,L_DD504.jpg,1,L_FF504.jpg,1,,,,,0,78,78,43,imgFunc,9,NA,9.009467100026086,309.3210070000496,318.4145679301582,2023-03-23 14:29:10.826763,2023-03-23 14:29:19.918684,L_DD504.jpg,1,10462,40-69,2023-03-23_14h24.29.834,Recall,2021.2.3,60.053315305847974,
,DD026.jpg,0,FF026.jpg,0,,,,,0,79,79,25,imgFunc,1,NA,4.2332792999222875,318.4172078000847,322.73352753021754,2023-03-23 14:29:19.928660,2023-03-23 14:29:24.238412,DD026.jpg,0,10462,40-69,2023-03-23_14h24.29.834,Recall,2021.2.3,60.053315305847974,
,SD027.jpg,0,MF027.jpg,0,,,,,0,80,80,76,imgFunc,2,NA,2.896332199918106,322.745901199989,325.74859123001806,2023-03-23 14:29:24.246415,2023-03-23 14:29:27.240614,SD027.jpg,0,10462,40-69,2023-03-23_14h24.29.834,Recall,2021.2.3,60.053315305847974,
,L_DD506.jpg,1,L_FF506.jpg,1,,,,,0,81,81,45,imgFunc,1,NA,2.9676616999786347,325.73884280002676,328.79275303008035,2023-03-23 14:29:27.247597,2023-03-23 14:29:30.292754,L_DD506.jpg,1,10462,40-69,2023-03-23_14h24.29.834,Recall,2021.2.3,60.053315305847974,
,DD034.jpg,0,FF034.jpg,0,,,,,0,82,82,33,imgFunc,2,NA,0.8597664998378605,328.7905468000099,329.7423466301989,2023-03-23 14:29:30.300657,2023-03-23 14:29:31.243536,DD034.jpg,0,10462,40-69,2023-03-23_14h24.29.834,Recall,2021.2.3,60.053315305847974,
,SD036.jpg,0,MF036.jpg,0,,,,,0,83,83,85,imgFunc,0,NA,0.49488469981588423,329.7478360000532,330.319389230106,2023-03-23 14:29:31.257500,2023-03-23 14:29:31.827059,SD036.jpg,0,10462,40-69,2023-03-23_14h24.29.834,Recall,2021.2.3,60.053315305847974,
,SD007.jpg,0,MF007.jpg,0,,,,,0,84,84,56,imgFunc,1,NA,1.429041099967435,330.317282400094,331.83728113025427,2023-03-23 14:29:31.834042,2023-03-23 14:29:33.345045,SD007.jpg,0,10462,40-69,2023-03-23_14h24.29.834,Recall,2021.2.3,60.053315305847974,
,SD005.jpg,0,MF005.jpg,0,,,,,0,85,85,54,imgFunc,9,NA,0.23138310015201569,331.83511149999686,332.1534311301075,2023-03-23 14:29:33.352028,2023-03-23 14:29:33.661744,SD005.jpg,0,10462,40-69,2023-03-23_14h24.29.834,Recall,2021.2.3,60.053315305847974,
,L_SD509.jpg,1,L_MF509.jpg,1,,,,,0,86,86,98,imgFunc,1,NA,1.2643659999594092,332.15402380004525,333.5062600299716,2023-03-23 14:29:33.669748,2023-03-23 14:29:35.012909,L_SD509.jpg,1,10462,40-69,2023-03-23_14h24.29.834,Recall,2021.2.3,60.053315305847974,
,DD021.jpg,0,FF021.jpg,0,,,,,0,87,87,20,imgFunc,9,NA,0.28163919993676245,333.51278770016506,333.8813146301545,2023-03-23 14:29:35.019894,2023-03-23 14:29:35.379785,DD021.jpg,0,10462,40-69,2023-03-23_14h24.29.834,Recall,2021.2.3,60.053315305847974,
,SD038.jpg,0,MF038.jpg,0,,,,,0,88,88,87,imgFunc,1,NA,0.8370236000046134,333.869495900115,334.7880070300307,2023-03-23 14:29:35.386791,2023-03-23 14:29:36.297179,SD038.jpg,0,10462,40-69,2023-03-23_14h24.29.834,Recall,2021.2.3,60.053315305847974,
,DD019.jpg,0,FF019.jpg,0,,,,,0,89,89,18,imgFunc,2,NA,0.13819309999234974,334.7920853001997,335.0105035305023,2023-03-23 14:29:36.304163,2023-03-23 14:29:36.514105,DD019.jpg,0,10462,40-69,2023-03-23_14h24.29.834,Recall,2021.2.3,60.053315305847974,
,L_DD505.jpg,1,L_FF505.jpg,1,,,,,0,90,90,44,imgFunc,9,NA,1.8855586999561638,335.00495920004323,336.9745547301136,2023-03-23 14:29:36.521088,2023-03-23 14:29:38.482069,L_DD505.jpg,1,10462,40-69,2023-03-23_14h24.29.834,Recall,2021.2.3,60.053315305847974,
,SD002.jpg,0,MF002.jpg,0,,,,,0,91,91,51,imgFunc,0,NA,1.3512037999462336,336.97124040010385,338.40744123002514,2023-03-23 14:29:38.489052,2023-03-23 14:29:39.916437,SD002.jpg,0,10462,40-69,2023-03-23_14h24.29.834,Recall,2021.2.3,60.053315305847974,
,SD018.jpg,0,MF018.jpg,0,,,,,0,92,92,67,imgFunc,2,NA,2.384711200138554,338.417716300115,340.8768729302101,2023-03-23 14:29:39.929404,2023-03-23 14:29:42.385142,SD018.jpg,0,10462,40-69,2023-03-23_14h24.29.834,Recall,2021.2.3,60.053315305847974,
,SD034.jpg,0,MF034.jpg,0,,,,,0,93,93,83,imgFunc,1,NA,1.539904500124976,340.87876930017956,342.49851553025655,2023-03-23 14:29:42.392125,2023-03-23 14:29:44.002824,SD034.jpg,0,10462,40-69,2023-03-23_14h24.29.834,Recall,2021.2.3,60.053315305847974,
,SD017.jpg,0,MF017.jpg,0,,,,,0,94,94,66,imgFunc,0,NA,2.4131953001488,342.49328569998033,344.99669173010625,2023-03-23 14:29:44.009807,2023-03-23 14:29:46.504500,SD017.jpg,0,10462,40-69,2023-03-23_14h24.29.834,Recall,2021.2.3,60.053315305847974,
,DD007.jpg,0,FF007.jpg,0,,,,,0,95,95,6,imgFunc,1,NA,3.4431960000656545,344.9990125000477,348.5366008300334,2023-03-23 14:29:46.511484,2023-03-23 14:29:50.040354,DD007.jpg,0,10462,40-69,2023-03-23_14h24.29.834,Recall,2021.2.3,60.053315305847974,
,DD011.jpg,0,FF011.jpg,0,,,,,0,96,96,10,imgFunc,2,NA,6.526411400176585,348.53979529999197,355.1626326299738,2023-03-23 14:29:50.047335,2023-03-23 14:29:56.661741,DD011.jpg,0,10462,40-69,2023-03-23_14h24.29.834,Recall,2021.2.3,60.053315305847974,
,DD012.jpg,0,FF012.jpg,0,,,,,0,97,97,11,imgFunc,1,NA,6.7424490000121295,355.1881085000932,362.0427171601914,2023-03-23 14:29:56.678695,2023-03-23 14:30:03.516865,DD012.jpg,0,10462,40-69,2023-03-23_14h24.29.834,Recall,2021.2.3,60.053315305847974,
,DD008.jpg,0,FF008.jpg,0,,,,,0,98,98,7,imgFunc,0,NA,3.503501000115648,362.01110030012205,365.59523393027484,2023-03-23 14:30:03.525843,2023-03-23 14:30:07.102774,DD008.jpg,0,10462,40-69,2023-03-23_14h24.29.834,Recall,2021.2.3,60.053315305847974,
,DD006.jpg,0,FF006.jpg,0,,,,,0,99,99,5,imgFunc,9,NA,1.7549079000018537,365.59948020009324,367.4358919302467,2023-03-23 14:30:07.109757,2023-03-23 14:30:08.937268,DD006.jpg,0,10462,40-69,2023-03-23_14h24.29.834,Recall,2021.2.3,60.053315305847974,
,,,,,,,,,,,,,instrFunc,space,"Great work! 

 Now you will switch to the other image type.

 Press the spacebar whenever you are ready to start.",3.5675562999676913,367.3710464001633,370.97101553017274,2023-03-23 14:30:08.938289,2023-03-23 14:30:12.522631,,,10462,40-69,2023-03-23_14h24.29.834,Recall,2021.2.3,60.053315305847974,
,DD002.jpg,0,FF002.jpg,0,,,,,0,0,0,1,imgFunc,1,NA,9.45285760005936,371.05364469997585,380.60362185980193,2023-03-23 14:30:12.551556,2023-03-23 14:30:22.097027,FF002.jpg,0,10462,40-69,2023-03-23_14h24.29.834,Recall,2021.2.3,60.053315305847974,
,SD015.jpg,0,MF015.jpg,0,,,,,0,1,1,64,imgFunc,1,NA,2.9485583000350744,380.5979365000967,383.631691130111,2023-03-23 14:30:22.106005,2023-03-23 14:30:25.132520,MF015.jpg,0,10462,40-69,2023-03-23_14h24.29.834,Recall,2021.2.3,60.053315305847974,
,DD001.jpg,0,FF001.jpg,0,,,,,0,2,2,0,imgFunc,2,NA,1.7770487999077886,383.6336006000638,385.502759530209,2023-03-23 14:30:25.139508,2023-03-23 14:30:27.000504,FF001.jpg,0,10462,40-69,2023-03-23_14h24.29.834,Recall,2021.2.3,60.053315305847974,
,DD034.jpg,0,FF034.jpg,0,,,,,0,3,3,33,imgFunc,2,NA,1.2348568001762033,385.5036191002,386.83116463036276,2023-03-23 14:30:27.011476,2023-03-23 14:30:28.334837,FF034.jpg,0,10462,40-69,2023-03-23_14h24.29.834,Recall,2021.2.3,60.053315305847974,
,DD025.jpg,0,FF025.jpg,0,,,,,0,4,4,24,imgFunc,2,NA,1.0934180000331253,386.82915360014886,388.0150197301991,2023-03-23 14:30:28.341820,2023-03-23 14:30:29.518999,FF025.jpg,0,10462,40-69,2023-03-23_14h24.29.834,Recall,2021.2.3,60.053315305847974,
,DD005.jpg,0,FF005.jpg,0,,,,,0,5,5,4,imgFunc,1,NA,0.8055695998482406,388.012663600035,388.8983491300605,2023-03-23 14:30:29.525982,2023-03-23 14:30:30.403021,FF005.jpg,0,10462,40-69,2023-03-23_14h24.29.834,Recall,2021.2.3,60.053315305847974,
,SD002.jpg,0,MF002.jpg,0,,,,,0,6,6,51,imgFunc,2,NA,0.35924110002815723,388.8994396000635,389.3515409301035,2023-03-23 14:30:30.410004,2023-03-23 14:30:30.853190,MF002.jpg,0,10462,40-69,2023-03-23_14h24.29.834,Recall,2021.2.3,60.053315305847974,
,DD040.jpg,0,FF040.jpg,0,,,,,0,7,7,39,imgFunc,1,NA,3.272223399952054,389.3539958000183,392.7246858300641,2023-03-23 14:30:30.860173,2023-03-23 14:30:34.221862,FF040.jpg,0,10462,40-69,2023-03-23_14h24.29.834,Recall,2021.2.3,60.053315305847974,
,L_DD501.jpg,1,L_FF501.jpg,1,,,,,0,8,8,40,imgFunc,9,NA,1.8860096000134945,392.732247200096,394.702162430156,2023-03-23 14:30:34.237820,2023-03-23 14:30:36.206584,L_FF501.jpg,1,10462,40-69,2023-03-23_14h24.29.834,Recall,2021.2.3,60.053315305847974,
,DD026.jpg,0,FF026.jpg,0,,,,,0,9,9,25,imgFunc,2,NA,1.7701688001397997,394.70425339997746,396.55652683018707,2023-03-23 14:30:36.214552,2023-03-23 14:30:38.058618,FF026.jpg,0,10462,40-69,2023-03-23_14h24.29.834,Recall,2021.2.3,60.053315305847974,
,L_DD502.jpg,1,L_FF502.jpg,1,,,,,0,10,10,41,imgFunc,0,NA,1.493587400065735,396.55668140016496,398.14231393043883,2023-03-23 14:30:38.065627,2023-03-23 14:30:39.642406,L_FF502.jpg,1,10462,40-69,2023-03-23_14h24.29.834,Recall,2021.2.3,60.053315305847974,
,SD034.jpg,0,MF034.jpg,0,,,,,0,11,11,83,imgFunc,2,NA,5.405534100020304,398.14090150012635,403.6298291301355,2023-03-23 14:30:39.650382,2023-03-23 14:30:45.130226,MF034.jpg,0,10462,40-69,2023-03-23_14h24.29.834,Recall,2021.2.3,60.053315305847974,
,SD012.jpg,0,MF012.jpg,0,,,,,0,12,12,61,imgFunc,2,NA,1.1920507000759244,403.658506100066,404.97194273001514,2023-03-23 14:30:45.140231,2023-03-23 14:30:46.447926,MF012.jpg,0,10462,40-69,2023-03-23_14h24.29.834,Recall,2021.2.3,60.053315305847974,
,DD013.jpg,0,FF013.jpg,0,,,,,0,13,13,12,imgFunc,1,NA,1.8086701999418437,404.9459747001529,406.84907453041524,2023-03-23 14:30:46.454909,2023-03-23 14:30:48.349265,FF013.jpg,0,10462,40-69,2023-03-23_14h24.29.834,Recall,2021.2.3,60.053315305847974,
,DD023.jpg,0,FF023.jpg,0,,,,,0,14,14,22,imgFunc,9,NA,2.059100699843839,406.8475087999832,409.00067503005266,2023-03-23 14:30:48.356248,2023-03-23 14:30:50.500759,FF023.jpg,0,10462,40-69,2023-03-23_14h24.29.834,Recall,2021.2.3,60.053315305847974,
,DD012.jpg,0,FF012.jpg,0,,,,,0,15,15,11,imgFunc,9,NA,4.230980500113219,408.9957557001617,413.317270930158,2023-03-23 14:30:50.507741,2023-03-23 14:30:54.820640,FF012.jpg,0,10462,40-69,2023-03-23_14h24.29.834,Recall,2021.2.3,60.053315305847974,
,L_SD509.jpg,1,L_MF509.jpg,1,,,,,0,16,16,98,imgFunc,1,NA,1.161557100014761,413.3208290999755,414.57186723011546,2023-03-23 14:30:54.828620,2023-03-23 14:30:56.071566,L_MF509.jpg,1,10462,40-69,2023-03-23_14h24.29.834,Recall,2021.2.3,60.053315305847974,
,SD027.jpg,0,MF027.jpg,0,,,,,0,17,17,76,imgFunc,2,NA,3.0077891999389976,414.57855570013635,417.669863630319,2023-03-23 14:30:56.084555,2023-03-23 14:30:59.173785,MF027.jpg,0,10462,40-69,2023-03-23_14h24.29.834,Recall,2021.2.3,60.053315305847974,
,DD038.jpg,0,FF038.jpg,0,,,,,0,18,18,37,imgFunc,2,NA,1.1993243999313563,417.6669619001914,418.95339643000625,2023-03-23 14:30:59.180769,2023-03-23 14:31:00.458046,FF038.jpg,0,10462,40-69,2023-03-23_14h24.29.834,Recall,2021.2.3,60.053315305847974,
,DD030.jpg,0,FF030.jpg,0,,,,,0,19,19,29,imgFunc,1,NA,1.2805471001192927,418.95412260014564,420.3233211301267,2023-03-23 14:31:00.465029,2023-03-23 14:31:01.825865,FF030.jpg,0,10462,40-69,2023-03-23_14h24.29.834,Recall,2021.2.3,60.053315305847974,
,DD031.jpg,0,FF031.jpg,0,,,,,0,20,20,30,imgFunc,2,NA,1.8467296999879181,420.323972000042,422.26023173029535,2023-03-23 14:31:01.832872,2023-03-23 14:31:03.760309,FF031.jpg,0,10462,40-69,2023-03-23_14h24.29.834,Recall,2021.2.3,60.053315305847974,
,L_SD506.jpg,1,L_MF506.jpg,1,,,,,0,21,21,95,imgFunc,9,NA,1.9968308999668807,422.2617504000664,424.34797652997077,2023-03-23 14:31:03.767315,2023-03-23 14:31:05.845199,L_MF506.jpg,1,10462,40-69,2023-03-23_14h24.29.834,Recall,2021.2.3,60.053315305847974,
,SD006.jpg,0,MF006.jpg,0,,,,,0,22,22,55,imgFunc,9,NA,1.9001472000963986,424.35042420006357,426.33940113009885,2023-03-23 14:31:05.859163,2023-03-23 14:31:07.846729,MF006.jpg,0,10462,40-69,2023-03-23_14h24.29.834,Recall,2021.2.3,60.053315305847974,
,SD032.jpg,0,MF032.jpg,0,,,,,0,23,23,81,imgFunc,0,NA,4.078512599924579,426.34010420017876,430.51184743014164,2023-03-23 14:31:07.853712,2023-03-23 14:31:12.016367,MF032.jpg,0,10462,40-69,2023-03-23_14h24.29.834,Recall,2021.2.3,60.053315305847974,
,L_DD503.jpg,1,L_FF503.jpg,1,,,,,0,24,24,42,imgFunc,2,NA,1.163031600182876,430.51160220010206,431.76369163021445,2023-03-23 14:31:12.023350,2023-03-23 14:31:13.267278,L_FF503.jpg,1,10462,40-69,2023-03-23_14h24.29.834,Recall,2021.2.3,60.053315305847974,
,SD031.jpg,0,MF031.jpg,0,,,,,0,25,25,80,imgFunc,1,NA,2.8000256000086665,431.76262190006673,434.6498852299992,2023-03-23 14:31:13.274261,2023-03-23 14:31:16.152664,MF031.jpg,0,10462,40-69,2023-03-23_14h24.29.834,Recall,2021.2.3,60.053315305847974,
,DD006.jpg,0,FF006.jpg,0,,,,,0,26,26,5,imgFunc,9,NA,1.735670399852097,434.6589635000564,436.49504423025064,2023-03-23 14:31:16.159567,2023-03-23 14:31:17.987406,FF006.jpg,0,10462,40-69,2023-03-23_14h24.29.834,Recall,2021.2.3,60.053315305847974,
,SD021.jpg,0,MF021.jpg,0,,,,,0,27,27,70,imgFunc,9,NA,0.9596347999759018,436.4826817000285,437.5347518301569,2023-03-23 14:31:17.994389,2023-03-23 14:31:19.037385,MF021.jpg,0,10462,40-69,2023-03-23_14h24.29.834,Recall,2021.2.3,60.053315305847974,
,SD011.jpg,0,MF011.jpg,0,,,,,0,28,28,60,imgFunc,1,NA,0.9550026999786496,437.5353308999911,438.58677173010074,2023-03-23 14:31:19.045335,2023-03-23 14:31:20.088562,MF011.jpg,0,10462,40-69,2023-03-23_14h24.29.834,Recall,2021.2.3,60.053315305847974,
,L_SD501.jpg,1,L_MF501.jpg,1,,,,,0,29,29,90,imgFunc,0,NA,1.312156500061974,438.58617180003785,439.9884293298237,2023-03-23 14:31:20.095542,2023-03-23 14:31:21.489833,L_MF501.jpg,1,10462,40-69,2023-03-23_14h24.29.834,Recall,2021.2.3,60.053315305847974,
,SD017.jpg,0,MF017.jpg,0,,,,,0,30,30,66,imgFunc,1,NA,1.9083613001275808,439.9899697001092,441.9919475300703,2023-03-23 14:31:21.496814,2023-03-23 14:31:23.490549,MF017.jpg,0,10462,40-69,2023-03-23_14h24.29.834,Recall,2021.2.3,60.053315305847974,
,SD010.jpg,0,MF010.jpg,0,,,,,0,31,31,59,imgFunc,1,NA,1.5558271000627428,441.99851609999314,443.6388688299339,2023-03-23 14:31:23.504471,2023-03-23 14:31:25.142155,MF010.jpg,0,10462,40-69,2023-03-23_14h24.29.834,Recall,2021.2.3,60.053315305847974,
,SD029.jpg,0,MF029.jpg,0,,,,,0,32,32,78,imgFunc,9,NA,1.4963692999444902,443.64197550015524,445.22747543035075,2023-03-23 14:31:25.150094,2023-03-23 14:31:26.726900,MF029.jpg,0,10462,40-69,2023-03-23_14h24.29.834,Recall,2021.2.3,60.053315305847974,
,L_SD508.jpg,1,L_MF508.jpg,1,,,,,0,33,33,97,imgFunc,0,NA,1.3210652999114245,445.24129330017604,446.6773243302014,2023-03-23 14:31:26.733881,2023-03-23 14:31:28.161469,L_MF508.jpg,1,10462,40-69,2023-03-23_14h24.29.834,Recall,2021.2.3,60.053315305847974,
,SD040.jpg,0,MF040.jpg,0,,,,,0,34,34,89,imgFunc,1,NA,2.803033399861306,446.6635474001523,449.56754943029955,2023-03-23 14:31:28.168452,2023-03-23 14:31:31.063510,MF040.jpg,0,10462,40-69,2023-03-23_14h24.29.834,Recall,2021.2.3,60.053315305847974,
,DD028.jpg,0,FF028.jpg,0,,,,,0,35,35,27,imgFunc,0,NA,1.6734515000134706,449.56130559998564,451.3287546299398,2023-03-23 14:31:31.071491,2023-03-23 14:31:32.831313,FF028.jpg,0,10462,40-69,2023-03-23_14h24.29.834,Recall,2021.2.3,60.053315305847974,
,DD003.jpg,0,FF003.jpg,0,,,,,0,36,36,2,imgFunc,1,NA,2.449611200019717,451.33707060012966,453.87621563021094,2023-03-23 14:31:32.845278,2023-03-23 14:31:35.383275,FF003.jpg,0,10462,40-69,2023-03-23_14h24.29.834,Recall,2021.2.3,60.053315305847974,
,DD035.jpg,0,FF035.jpg,0,,,,,0,37,37,34,imgFunc,9,NA,3.445486899930984,453.8851894000545,457.4227363301907,2023-03-23 14:31:35.390258,2023-03-23 14:31:38.919114,FF035.jpg,0,10462,40-69,2023-03-23_14h24.29.834,Recall,2021.2.3,60.053315305847974,
,L_DD508.jpg,1,L_FF508.jpg,1,,,,,0,38,38,47,imgFunc,0,NA,4.538251999998465,457.4164051001426,462.03763083019294,2023-03-23 14:31:38.926999,2023-03-23 14:31:43.539394,L_FF508.jpg,1,10462,40-69,2023-03-23_14h24.29.834,Recall,2021.2.3,60.053315305847974,
,SD038.jpg,0,MF038.jpg,0,,,,,0,39,39,87,imgFunc,1,NA,1.1223106000106782,462.0403932000045,463.2561392302159,2023-03-23 14:31:43.548372,2023-03-23 14:31:44.756692,MF038.jpg,0,10462,40-69,2023-03-23_14h24.29.834,Recall,2021.2.3,60.053315305847974,
,SD039.jpg,0,MF039.jpg,0,,,,,0,40,40,88,imgFunc,1,NA,1.0613212999887764,463.261104100151,464.41365173016675,2023-03-23 14:31:44.763675,2023-03-23 14:31:45.907684,MF039.jpg,0,10462,40-69,2023-03-23_14h24.29.834,Recall,2021.2.3,60.053315305847974,
,L_DD505.jpg,1,L_FF505.jpg,1,,,,,0,41,41,44,imgFunc,2,NA,2.8237303998321295,464.4026327000465,467.32332863030024,2023-03-23 14:31:45.914667,2023-03-23 14:31:48.826365,L_FF505.jpg,1,10462,40-69,2023-03-23_14h24.29.834,Recall,2021.2.3,60.053315305847974,
,DD018.jpg,0,FF018.jpg,0,,,,,0,42,42,17,imgFunc,9,NA,1.3624287000857294,467.3201796000358,468.77302183024585,2023-03-23 14:31:48.833348,2023-03-23 14:31:50.277466,FF018.jpg,0,10462,40-69,2023-03-23_14h24.29.834,Recall,2021.2.3,60.053315305847974,
,SD026.jpg,0,MF026.jpg,0,,,,,0,43,43,75,imgFunc,2,NA,2.148174799978733,468.7745487000793,471.01134803006425,2023-03-23 14:31:50.284449,2023-03-23 14:31:52.512436,MF026.jpg,0,10462,40-69,2023-03-23_14h24.29.834,Recall,2021.2.3,60.053315305847974,
,DD037.jpg,0,FF037.jpg,0,,,,,0,44,44,36,imgFunc,9,NA,1.752147999824956,471.0104071001988,472.8465360302944,2023-03-23 14:31:52.519419,2023-03-23 14:31:54.347052,FF037.jpg,0,10462,40-69,2023-03-23_14h24.29.834,Recall,2021.2.3,60.053315305847974,
,SD025.jpg,0,MF025.jpg,0,,,,,0,45,45,74,imgFunc,1,NA,1.2288923000451177,472.85353810014203,474.17721593007445,2023-03-23 14:31:54.360020,2023-03-23 14:31:55.680330,MF025.jpg,0,10462,40-69,2023-03-23_14h24.29.834,Recall,2021.2.3,60.053315305847974,
,DD017.jpg,0,FF017.jpg,0,,,,,0,46,46,16,imgFunc,2,NA,1.4481763001531363,474.1786368000321,475.71284483000636,2023-03-23 14:31:55.689304,2023-03-23 14:31:57.216007,FF017.jpg,0,10462,40-69,2023-03-23_14h24.29.834,Recall,2021.2.3,60.053315305847974,
,DD014.jpg,0,FF014.jpg,0,,,,,0,47,47,13,imgFunc,1,NA,2.469232500065118,475.709416200174,478.2627489301376,2023-03-23 14:31:57.223012,2023-03-23 14:31:59.767605,FF014.jpg,0,10462,40-69,2023-03-23_14h24.29.834,Recall,2021.2.3,60.053315305847974,
,DD016.jpg,0,FF016.jpg,0,,,,,0,48,48,15,imgFunc,2,NA,1.8760806999634951,478.2626440001186,480.2325612301938,2023-03-23 14:31:59.774588,2023-03-23 14:32:01.735675,FF016.jpg,0,10462,40-69,2023-03-23_14h24.29.834,Recall,2021.2.3,60.053315305847974,
,SD003.jpg,0,MF003.jpg,0,,,,,0,49,49,52,imgFunc,9,NA,1.0894583000335842,480.23293410008773,481.41868603019975,2023-03-23 14:32:01.742658,2023-03-23 14:32:02.919126,MF003.jpg,0,10462,40-69,2023-03-23_14h24.29.834,Recall,2021.2.3,60.053315305847974,
,L_DD510.jpg,1,L_FF510.jpg,1,,,,,0,50,50,49,imgFunc,9,NA,0.9867895999923348,481.43959400011227,482.52472522994503,2023-03-23 14:32:02.935084,2023-03-23 14:32:04.020496,L_FF510.jpg,1,10462,40-69,2023-03-23_14h24.29.834,Recall,2021.2.3,60.053315305847974,
,L_DD504.jpg,1,L_FF504.jpg,1,,,,,0,51,51,43,imgFunc,0,NA,0.7405634999740869,482.51783000002615,483.3530211301986,2023-03-23 14:32:04.027501,2023-03-23 14:32:04.854325,L_FF504.jpg,1,10462,40-69,2023-03-23_14h24.29.834,Recall,2021.2.3,60.053315305847974,
,SD037.jpg,0,MF037.jpg,0,,,,,0,52,52,86,imgFunc,1,NA,1.0596851999871433,483.35069540003315,484.50221282988787,2023-03-23 14:32:04.862290,2023-03-23 14:32:06.005216,MF037.jpg,0,10462,40-69,2023-03-23_14h24.29.834,Recall,2021.2.3,60.053315305847974,
,SD004.jpg,0,MF004.jpg,0,,,,,0,53,53,53,imgFunc,1,NA,0.9813982998020947,484.50113980006427,485.5698595303111,2023-03-23 14:32:06.012225,2023-03-23 14:32:07.072404,MF004.jpg,0,10462,40-69,2023-03-23_14h24.29.834,Recall,2021.2.3,60.053315305847974,
,L_SD502.jpg,1,L_MF502.jpg,1,,,,,0,54,54,91,imgFunc,0,NA,1.6165173999033868,485.57790730008855,487.29703752999194,2023-03-23 14:32:07.080383,2023-03-23 14:32:08.790805,L_MF502.jpg,1,10462,40-69,2023-03-23_14h24.29.834,Recall,2021.2.3,60.053315305847974,
,SD030.jpg,0,MF030.jpg,0,,,,,0,55,55,79,imgFunc,1,NA,1.154320599976927,487.28807310014963,488.5403995299712,2023-03-23 14:32:08.797814,2023-03-23 14:32:10.041479,MF030.jpg,0,10462,40-69,2023-03-23_14h24.29.834,Recall,2021.2.3,60.053315305847974,
,SD036.jpg,0,MF036.jpg,0,,,,,0,56,56,85,imgFunc,0,NA,3.5490602999925613,488.5416791001335,492.17952213040553,2023-03-23 14:32:10.048459,2023-03-23 14:32:13.677555,MF036.jpg,0,10462,40-69,2023-03-23_14h24.29.834,Recall,2021.2.3,60.053315305847974,
,DD019.jpg,0,FF019.jpg,0,,,,,0,57,57,18,imgFunc,1,NA,2.070308600086719,492.1802656999789,494.350246429909,2023-03-23 14:32:13.684538,2023-03-23 14:32:15.845881,FF019.jpg,0,10462,40-69,2023-03-23_14h24.29.834,Recall,2021.2.3,60.053315305847974,
,L_SD505.jpg,1,L_MF505.jpg,1,,,,,0,58,58,94,imgFunc,2,NA,1.5774168998468667,494.34535090019926,496.0149443303235,2023-03-23 14:32:15.852864,2023-03-23 14:32:17.513754,L_MF505.jpg,1,10462,40-69,2023-03-23_14h24.29.834,Recall,2021.2.3,60.053315305847974,
,DD004.jpg,0,FF004.jpg,0,,,,,0,59,59,3,imgFunc,1,NA,6.495163999963552,496.03551890002564,502.6296607302502,2023-03-23 14:32:17.526720,2023-03-23 14:32:24.118447,FF004.jpg,0,10462,40-69,2023-03-23_14h24.29.834,Recall,2021.2.3,60.053315305847974,
,SD001.jpg,0,MF001.jpg,0,,,,,0,60,60,50,imgFunc,9,NA,3.762798900017515,502.6158835000824,506.46707073017024,2023-03-23 14:32:24.127424,2023-03-23 14:32:27.971292,MF001.jpg,0,10462,40-69,2023-03-23_14h24.29.834,Recall,2021.2.3,60.053315305847974,
,DD033.jpg,0,FF033.jpg,0,,,,,0,61,61,32,imgFunc,0,NA,2.1962273998651654,506.47067640000023,508.7576202300843,2023-03-23 14:32:27.978275,2023-03-23 14:32:30.256375,FF033.jpg,0,10462,40-69,2023-03-23_14h24.29.834,Recall,2021.2.3,60.053315305847974,
,DD015.jpg,0,FF015.jpg,0,,,,,0,62,62,14,imgFunc,1,NA,2.913908699993044,508.7527453000657,511.755862130085,2023-03-23 14:32:30.264356,2023-03-23 14:32:33.258477,FF015.jpg,0,10462,40-69,2023-03-23_14h24.29.834,Recall,2021.2.3,60.053315305847974,
,L_SD510.jpg,1,L_MF510.jpg,1,,,,,0,63,63,99,imgFunc,2,NA,3.911490000085905,511.75530150020495,515.7598031300586,2023-03-23 14:32:33.265462,2023-03-23 14:32:37.261382,L_MF510.jpg,1,10462,40-69,2023-03-23_14h24.29.834,Recall,2021.2.3,60.053315305847974,
,SD028.jpg,0,MF028.jpg,0,,,,,0,64,64,77,imgFunc,9,NA,1.8119248000439256,515.7667594000231,517.6716706301086,2023-03-23 14:32:37.276344,2023-03-23 14:32:39.179376,MF028.jpg,0,10462,40-69,2023-03-23_14h24.29.834,Recall,2021.2.3,60.053315305847974,
,SD035.jpg,0,MF035.jpg,0,,,,,0,65,65,84,imgFunc,1,NA,0.9792804999742657,517.6715090000071,518.7410842298996,2023-03-23 14:32:39.186359,2023-03-23 14:32:40.246845,MF035.jpg,0,10462,40-69,2023-03-23_14h24.29.834,Recall,2021.2.3,60.053315305847974,
,DD011.jpg,0,FF011.jpg,0,,,,,0,66,66,10,imgFunc,2,NA,1.2716788998804986,518.7388599000406,520.0916673298925,2023-03-23 14:32:40.253828,2023-03-23 14:32:41.597783,FF011.jpg,0,10462,40-69,2023-03-23_14h24.29.834,Recall,2021.2.3,60.053315305847974,
,DD021.jpg,0,FF021.jpg,0,,,,,0,67,67,20,imgFunc,0,NA,1.9025980001315475,520.0920663999859,522.0789898301009,2023-03-23 14:32:41.604766,2023-03-23 14:32:43.582422,FF021.jpg,0,10462,40-69,2023-03-23_14h24.29.834,Recall,2021.2.3,60.053315305847974,
,SD024.jpg,0,MF024.jpg,0,,,,,0,68,68,73,imgFunc,1,NA,1.148645899957046,522.0781418001279,523.3135729301721,2023-03-23 14:32:43.590425,2023-03-23 14:32:44.816855,MF024.jpg,0,10462,40-69,2023-03-23_14h24.29.834,Recall,2021.2.3,60.053315305847974,
,L_SD507.jpg,1,L_MF507.jpg,1,,,,,0,69,69,96,imgFunc,1,NA,2.838135899975896,523.3243945001159,526.2464536302723,2023-03-23 14:32:44.831817,2023-03-23 14:32:47.752452,L_MF507.jpg,1,10462,40-69,2023-03-23_14h24.29.834,Recall,2021.2.3,60.053315305847974,
,SD013.jpg,0,MF013.jpg,0,,,,,0,70,70,62,imgFunc,0,NA,1.238991599995643,526.2514747001696,527.5864493299741,2023-03-23 14:32:47.759433,2023-03-23 14:32:49.086731,MF013.jpg,0,10462,40-69,2023-03-23_14h24.29.834,Recall,2021.2.3,60.053315305847974,
,SD033.jpg,0,MF033.jpg,0,,,,,0,71,71,82,imgFunc,1,NA,2.7134984999429435,527.5849632001482,530.3870364304166,2023-03-23 14:32:49.094709,2023-03-23 14:32:51.888276,MF033.jpg,0,10462,40-69,2023-03-23_14h24.29.834,Recall,2021.2.3,60.053315305847974,
,DD010.jpg,0,FF010.jpg,0,,,,,0,72,72,9,imgFunc,1,NA,1.189593099988997,530.3888883001637,531.6745493300259,2023-03-23 14:32:51.895289,2023-03-23 14:32:53.172865,FF010.jpg,0,10462,40-69,2023-03-23_14h24.29.834,Recall,2021.2.3,60.053315305847974,
,SD007.jpg,0,MF007.jpg,0,,,,,0,73,73,56,imgFunc,1,NA,2.9492396998684853,531.6772209000774,534.7300442303531,2023-03-23 14:32:53.180866,2023-03-23 14:32:56.224740,MF007.jpg,0,10462,40-69,2023-03-23_14h24.29.834,Recall,2021.2.3,60.053315305847974,
,SD008.jpg,0,MF008.jpg,0,,,,,0,74,74,57,imgFunc,1,NA,3.3753045999910682,534.7313692001626,538.2024458302185,2023-03-23 14:32:56.231753,2023-03-23 14:32:59.694189,MF008.jpg,0,10462,40-69,2023-03-23_14h24.29.834,Recall,2021.2.3,60.053315305847974,
,DD007.jpg,0,FF007.jpg,0,,,,,0,75,75,6,imgFunc,9,NA,1.5775174000300467,538.1933278001379,539.8631514301524,2023-03-23 14:32:59.701172,2023-03-23 14:33:01.362174,FF007.jpg,0,10462,40-69,2023-03-23_14h24.29.834,Recall,2021.2.3,60.053315305847974,
,SD009.jpg,0,MF009.jpg,0,,,,,0,76,76,58,imgFunc,2,NA,1.6106912998948246,539.8641076001804,541.5670240300242,2023-03-23 14:33:01.369157,2023-03-23 14:33:03.063373,MF009.jpg,0,10462,40-69,2023-03-23_14h24.29.834,Recall,2021.2.3,60.053315305847974,
,L_SD504.jpg,1,L_MF504.jpg,1,,,,,0,77,77,93,imgFunc,1,NA,5.236660999944434,541.5660847001709,546.9046823303215,2023-03-23 14:33:03.070356,2023-03-23 14:33:08.400503,L_MF504.jpg,1,10462,40-69,2023-03-23_14h24.29.834,Recall,2021.2.3,60.053315305847974,
,SD005.jpg,0,MF005.jpg,0,,,,,0,78,78,54,imgFunc,2,NA,2.224542499985546,546.9222584001254,549.2434992301278,2023-03-23 14:33:08.415464,2023-03-23 14:33:10.735557,MF005.jpg,0,10462,40-69,2023-03-23_14h24.29.834,Recall,2021.2.3,60.053315305847974,
,DD009.jpg,0,FF009.jpg,0,,,,,0,79,79,8,imgFunc,0,NA,1.591264700051397,549.2280552000739,550.9146249301266,2023-03-23 14:33:10.742540,2023-03-23 14:33:12.420105,FF009.jpg,0,10462,40-69,2023-03-23_14h24.29.834,Recall,2021.2.3,60.053315305847974,
,L_DD507.jpg,1,L_FF507.jpg,1,,,,,0,80,80,46,imgFunc,9,NA,3.618764700135216,550.9120859000832,554.6166819301434,2023-03-23 14:33:12.427088,2023-03-23 14:33:16.122894,L_FF507.jpg,1,10462,40-69,2023-03-23_14h24.29.834,Recall,2021.2.3,60.053315305847974,
,SD019.jpg,0,MF019.jpg,0,,,,,0,81,81,68,imgFunc,1,NA,4.409554600017145,554.6172583000734,559.1222806302831,2023-03-23 14:33:16.129875,2023-03-23 14:33:20.626036,MF019.jpg,0,10462,40-69,2023-03-23_14h24.29.834,Recall,2021.2.3,60.053315305847974,
,L_DD509.jpg,1,L_FF509.jpg,1,,,,,0,82,82,48,imgFunc,1,NA,5.013289300026372,559.1416142000817,564.2609549299814,2023-03-23 14:33:20.635042,2023-03-23 14:33:25.746448,L_FF509.jpg,1,10462,40-69,2023-03-23_14h24.29.834,Recall,2021.2.3,60.053315305847974,
,DD020.jpg,0,FF020.jpg,0,,,,,0,83,83,19,imgFunc,0,NA,1.9310022999998182,564.2558995001018,566.2747390300501,2023-03-23 14:33:25.762407,2023-03-23 14:33:27.781245,FF020.jpg,0,10462,40-69,2023-03-23_14h24.29.834,Recall,2021.2.3,60.053315305847974,
,L_SD503.jpg,1,L_MF503.jpg,1,,,,,0,84,84,92,imgFunc,0,NA,6.272807199973613,566.2737506001722,572.6297687301412,2023-03-23 14:33:27.788228,2023-03-23 14:33:34.135460,L_MF503.jpg,1,10462,40-69,2023-03-23_14h24.29.834,Recall,2021.2.3,60.053315305847974,
,DD036.jpg,0,FF036.jpg,0,,,,,0,85,85,35,imgFunc,2,NA,2.7659934000112116,572.6365764001384,575.4875808302313,2023-03-23 14:33:34.144405,2023-03-23 14:33:36.987842,FF036.jpg,0,10462,40-69,2023-03-23_14h24.29.834,Recall,2021.2.3,60.053315305847974,
,L_DD506.jpg,1,L_FF506.jpg,1,,,,,0,86,86,45,imgFunc,1,NA,1.4412750999908894,575.4892403001431,577.0247520299163,2023-03-23 14:33:36.994823,2023-03-23 14:33:38.521797,L_FF506.jpg,1,10462,40-69,2023-03-23_14h24.29.834,Recall,2021.2.3,60.053315305847974,
,SD018.jpg,0,MF018.jpg,0,,,,,0,87,87,67,imgFunc,9,NA,3.4314519001636654,577.0353418001905,580.5728643301409,2023-03-23 14:33:38.529738,2023-03-23 14:33:42.058029,MF018.jpg,0,10462,40-69,2023-03-23_14h24.29.834,Recall,2021.2.3,60.053315305847974,
,DD032.jpg,0,FF032.jpg,0,,,,,0,88,88,31,imgFunc,1,NA,2.2499462000560015,580.5608563001733,582.913264430128,2023-03-23 14:33:42.066031,2023-03-23 14:33:44.409919,FF032.jpg,0,10462,40-69,2023-03-23_14h24.29.834,Recall,2021.2.3,60.053315305847974,
,DD024.jpg,0,FF024.jpg,0,,,,,0,89,89,23,imgFunc,1,NA,1.5710010000038892,582.9037598001305,584.5571639302652,2023-03-23 14:33:44.416902,2023-03-23 14:33:46.061326,FF024.jpg,0,10462,40-69,2023-03-23_14h24.29.834,Recall,2021.2.3,60.053315305847974,
,SD014.jpg,0,MF014.jpg,0,,,,,0,90,90,63,imgFunc,1,NA,0.8688310999423265,584.5579536000732,585.5104945299681,2023-03-23 14:33:46.068308,2023-03-23 14:33:47.011585,MF014.jpg,0,10462,40-69,2023-03-23_14h24.29.834,Recall,2021.2.3,60.053315305847974,
,SD020.jpg,0,MF020.jpg,0,,,,,0,91,91,69,imgFunc,0,NA,1.637885499978438,585.5090206000023,587.2450997298583,2023-03-23 14:33:47.019587,2023-03-23 14:33:48.746442,MF020.jpg,0,10462,40-69,2023-03-23_14h24.29.834,Recall,2021.2.3,60.053315305847974,
,DD039.jpg,0,FF039.jpg,0,,,,,0,92,92,38,imgFunc,9,NA,2.7302179001271725,587.2485913999844,590.0579246301204,2023-03-23 14:33:48.759409,2023-03-23 14:33:51.565417,FF039.jpg,0,10462,40-69,2023-03-23_14h24.29.834,Recall,2021.2.3,60.053315305847974,
,DD027.jpg,0,FF027.jpg,0,,,,,0,93,93,26,imgFunc,1,NA,0.984940400114283,590.0575326001272,591.1266388301738,2023-03-23 14:33:51.572400,2023-03-23 14:33:52.631912,FF027.jpg,0,10462,40-69,2023-03-23_14h24.29.834,Recall,2021.2.3,60.053315305847974,
,SD022.jpg,0,MF022.jpg,0,,,,,0,94,94,71,imgFunc,1,NA,0.8287747001741081,591.1339734999929,592.0501384302042,2023-03-23 14:33:52.640859,2023-03-23 14:33:53.550031,MF022.jpg,0,10462,40-69,2023-03-23_14h24.29.834,Recall,2021.2.3,60.053315305847974,
,DD008.jpg,0,FF008.jpg,0,,,,,0,95,95,7,imgFunc,2,NA,4.543240300146863,592.0436248001643,596.6820446301717,2023-03-23 14:33:53.557014,2023-03-23 14:33:58.186272,FF008.jpg,0,10462,40-69,2023-03-23_14h24.29.834,Recall,2021.2.3,60.053315305847974,
,SD023.jpg,0,MF023.jpg,0,,,,,0,96,96,72,imgFunc,1,NA,2.3880421000067145,596.6868792001624,599.1700538301375,2023-03-23 14:33:58.195154,2023-03-23 14:34:00.671669,MF023.jpg,0,10462,40-69,2023-03-23_14h24.29.834,Recall,2021.2.3,60.053315305847974,
,DD029.jpg,0,FF029.jpg,0,,,,,0,97,97,28,imgFunc,0,NA,0.8014678999315947,599.1772422001231,600.0654835302848,2023-03-23 14:34:00.685634,2023-03-23 14:34:01.572455,FF029.jpg,0,10462,40-69,2023-03-23_14h24.29.834,Recall,2021.2.3,60.053315305847974,
,SD016.jpg,0,MF016.jpg,0,,,,,0,98,98,65,imgFunc,9,NA,1.8423550999723375,600.0644754001405,602.0008783300873,2023-03-23 14:34:01.579438,2023-03-23 14:34:03.506991,MF016.jpg,0,10462,40-69,2023-03-23_14h24.29.834,Recall,2021.2.3,60.053315305847974,
,DD022.jpg,0,FF022.jpg,0,,,,,0,99,99,21,imgFunc,2,NA,7.322385999839753,602.0004442001227,609.4079974303022,2023-03-23 14:34:03.513974,2023-03-23 14:34:10.912413,FF022.jpg,0,10462,40-69,2023-03-23_14h24.29.834,Recall,2021.2.3,60.053315305847974,
