onset	duration	trial_type	response_time	Endowment	Endowment_pmod	Decision	Decision_pmod	Offer_pmod
4.578324	2	cue_social	n/a	32	8	n/a	n/a	n/a
4.578324	2	cue_social_high	n/a	32	7	n/a	n/a	n/a
13.871501	2	cue_social	n/a	32	8	n/a	n/a	n/a
13.871501	2	cue_social_high	n/a	32	7	n/a	n/a	n/a
20.615902	2	cue_nonsocial	n/a	16	-9	n/a	n/a	n/a
20.615902	2	cue_nonsocial_low	n/a	16	-8	n/a	n/a	n/a
27.531618	2	cue_social	n/a	16	-8	n/a	n/a	n/a
27.531618	2	cue_social_low	n/a	16	-9	n/a	n/a	n/a
34.356403	2	cue_social	n/a	32	8	n/a	n/a	n/a
34.356403	2	cue_social_high	n/a	32	7	n/a	n/a	n/a
41.932693	2	cue_nonsocial	n/a	32	7	n/a	n/a	n/a
41.932693	2	cue_nonsocial_high	n/a	32	8	n/a	n/a	n/a
52.883034	2	cue_social	n/a	32	8	n/a	n/a	n/a
52.883034	2	cue_social_high	n/a	32	7	n/a	n/a	n/a
59.632660	2	cue_nonsocial	n/a	16	-9	n/a	n/a	n/a
59.632660	2	cue_nonsocial_low	n/a	16	-8	n/a	n/a	n/a
68.882744	2	cue_nonsocial	n/a	32	7	n/a	n/a	n/a
68.882744	2	cue_nonsocial_high	n/a	32	8	n/a	n/a	n/a
75.778850	2	cue_social	n/a	32	8	n/a	n/a	n/a
75.778850	2	cue_social_high	n/a	32	7	n/a	n/a	n/a
84.965860	2	cue_nonsocial	n/a	16	-9	n/a	n/a	n/a
84.965860	2	cue_nonsocial_low	n/a	16	-8	n/a	n/a	n/a
91.799390	2	cue_nonsocial	n/a	16	-9	n/a	n/a	n/a
91.799390	2	cue_nonsocial_low	n/a	16	-8	n/a	n/a	n/a
98.711710	2	cue_social	n/a	32	8	n/a	n/a	n/a
98.711710	2	cue_social_high	n/a	32	7	n/a	n/a	n/a
107.882520	2	cue_nonsocial	n/a	32	7	n/a	n/a	n/a
107.882520	2	cue_nonsocial_high	n/a	32	8	n/a	n/a	n/a
115.516000	2	cue_nonsocial	n/a	32	7	n/a	n/a	n/a
115.516000	2	cue_nonsocial_high	n/a	32	8	n/a	n/a	n/a
122.432810	2	cue_social	n/a	32	8	n/a	n/a	n/a
122.432810	2	cue_social_high	n/a	32	7	n/a	n/a	n/a
130.057620	2	cue_social	n/a	16	-8	n/a	n/a	n/a
130.057620	2	cue_social_low	n/a	16	-9	n/a	n/a	n/a
137.714170	2	cue_social	n/a	32	8	n/a	n/a	n/a
137.714170	2	cue_social_high	n/a	32	7	n/a	n/a	n/a
144.482590	2	cue_nonsocial	n/a	32	7	n/a	n/a	n/a
144.482590	2	cue_nonsocial_high	n/a	32	8	n/a	n/a	n/a
151.315890	2	cue_nonsocial	n/a	32	7	n/a	n/a	n/a
151.315890	2	cue_nonsocial_high	n/a	32	8	n/a	n/a	n/a
158.149350	2	cue_nonsocial	n/a	32	7	n/a	n/a	n/a
158.149350	2	cue_nonsocial_high	n/a	32	8	n/a	n/a	n/a
169.109360	2	cue_social	n/a	16	-8	n/a	n/a	n/a
169.109360	2	cue_social_low	n/a	16	-9	n/a	n/a	n/a
176.729280	2	cue_social	n/a	16	-8	n/a	n/a	n/a
176.729280	2	cue_social_low	n/a	16	-9	n/a	n/a	n/a
183.574110	2	cue_social	n/a	32	8	n/a	n/a	n/a
183.574110	2	cue_social_high	n/a	32	7	n/a	n/a	n/a
191.149030	2	cue_nonsocial	n/a	16	-9	n/a	n/a	n/a
191.149030	2	cue_nonsocial_low	n/a	16	-8	n/a	n/a	n/a
198.054300	2	cue_social	n/a	16	-8	n/a	n/a	n/a
198.054300	2	cue_social_low	n/a	16	-9	n/a	n/a	n/a
205.631910	2	cue_nonsocial	n/a	32	7	n/a	n/a	n/a
205.631910	2	cue_nonsocial_high	n/a	32	8	n/a	n/a	n/a
212.534800	2	cue_social	n/a	16	-8	n/a	n/a	n/a
212.534800	2	cue_social_low	n/a	16	-9	n/a	n/a	n/a
219.298920	2	cue_nonsocial	n/a	16	-9	n/a	n/a	n/a
219.298920	2	cue_nonsocial_low	n/a	16	-8	n/a	n/a	n/a
231.782200	2	cue_nonsocial	n/a	16	-9	n/a	n/a	n/a
231.782200	2	cue_nonsocial_low	n/a	16	-8	n/a	n/a	n/a
241.032270	2	cue_nonsocial	n/a	32	7	n/a	n/a	n/a
241.032270	2	cue_nonsocial_high	n/a	32	8	n/a	n/a	n/a
248.682130	2	cue_nonsocial	n/a	16	-9	n/a	n/a	n/a
248.682130	2	cue_nonsocial_low	n/a	16	-8	n/a	n/a	n/a
255.515380	2	cue_nonsocial	n/a	32	7	n/a	n/a	n/a
255.515380	2	cue_nonsocial_high	n/a	32	8	n/a	n/a	n/a
262.348700	2	cue_nonsocial	n/a	32	7	n/a	n/a	n/a
262.348700	2	cue_nonsocial_high	n/a	32	8	n/a	n/a	n/a
270.049530	2	cue_social	n/a	32	8	n/a	n/a	n/a
270.049530	2	cue_social_high	n/a	32	7	n/a	n/a	n/a
276.832180	2	cue_nonsocial	n/a	16	-9	n/a	n/a	n/a
276.832180	2	cue_nonsocial_low	n/a	16	-8	n/a	n/a	n/a
283.751370	2	cue_social	n/a	16	-8	n/a	n/a	n/a
283.751370	2	cue_social_low	n/a	16	-9	n/a	n/a	n/a
292.976930	2	cue_social	n/a	16	-8	n/a	n/a	n/a
292.976930	2	cue_social_low	n/a	16	-9	n/a	n/a	n/a
299.748780	2	cue_nonsocial	n/a	16	-9	n/a	n/a	n/a
299.748780	2	cue_nonsocial_low	n/a	16	-8	n/a	n/a	n/a
310.680360	2	cue_social	n/a	16	-8	n/a	n/a	n/a
310.680360	2	cue_social_low	n/a	16	-9	n/a	n/a	n/a
317.448970	2	cue_nonsocial	n/a	32	7	n/a	n/a	n/a
317.448970	2	cue_nonsocial_high	n/a	32	8	n/a	n/a	n/a
326.778800	2	cue_social	n/a	32	8	n/a	n/a	n/a
326.778800	2	cue_social_high	n/a	32	7	n/a	n/a	n/a
334.348750	2	cue_nonsocial	n/a	32	7	n/a	n/a	n/a
334.348750	2	cue_nonsocial_high	n/a	32	8	n/a	n/a	n/a
342.052280	2	cue_social	n/a	32	8	n/a	n/a	n/a
342.052280	2	cue_social_high	n/a	32	7	n/a	n/a	n/a
348.893340	2	cue_social	n/a	16	-8	n/a	n/a	n/a
348.893340	2	cue_social_low	n/a	16	-9	n/a	n/a	n/a
355.665100	2	cue_nonsocial	n/a	32	7	n/a	n/a	n/a
355.665100	2	cue_nonsocial_high	n/a	32	8	n/a	n/a	n/a
363.330800	2	cue_social	n/a	16	-8	n/a	n/a	n/a
363.330800	2	cue_social_low	n/a	16	-9	n/a	n/a	n/a
370.204300	2	cue_social	n/a	16	-8	n/a	n/a	n/a
370.204300	2	cue_social_low	n/a	16	-9	n/a	n/a	n/a
6.522934	1.349686	dec_social_choice	1.349686	32.000000	n/a	16	2.682292e-01	2.682292e-01
6.522934	1.349686	dec_choice	1.349686	32.000000	n/a	16	2.682292e-01	2.682292e-01
6.522934	1.349686	dec_social_accept	1.349686	32.000000	n/a	16	2.615489e-01	2.615489e-01
6.522934	1.349686	dec_accept	1.349686	32.000000	n/a	16	2.622283e-01	2.622283e-01
6.522934	1.349686	dec_social_high	1.349686	32.000000	n/a	16	2.682292e-01	2.682292e-01
6.522934	1.349686	dec_social_accept_high	1.349686	32.000000	n/a	16	2.682292e-01	2.682292e-01
15.788775	1.400304	dec_social_choice	1.400304	32.000000	n/a	3	-1.380208e-01	-1.380208e-01
15.788775	1.400304	dec_choice	1.400304	32.000000	n/a	3	-1.380208e-01	-1.380208e-01
15.788775	1.400304	dec_social_accept	1.400304	32.000000	n/a	3	-1.447011e-01	-1.447011e-01
15.788775	1.400304	dec_accept	1.400304	32.000000	n/a	3	-1.440217e-01	-1.440217e-01
15.788775	1.400304	dec_social_low	1.400304	32.000000	n/a	3	-1.380208e-01	-1.380208e-01
15.788775	1.400304	dec_social_accept_low	1.400304	32.000000	n/a	3	-1.380208e-01	-1.380208e-01
22.621700	1.100634	dec_nonsocial_choice	1.100634	16.000000	n/a	8	2.682292e-01	2.682292e-01
22.621700	1.100634	dec_choice	1.100634	16.000000	n/a	8	2.682292e-01	2.682292e-01
22.621700	1.100634	dec_nonsocial_accept	1.100634	16.000000	n/a	8	2.615489e-01	2.615489e-01
22.621700	1.100634	dec_accept	1.100634	16.000000	n/a	8	2.608696e-01	2.608696e-01
22.621700	1.100634	dec_nonsocial_high	1.100634	16.000000	n/a	8	2.682292e-01	2.682292e-01
22.621700	1.100634	dec_nonsocial_accept_high	1.100634	16.000000	n/a	8	2.608696e-01	2.608696e-01
29.455889	1.233084	dec_social_choice	1.233084	16.000000	n/a	2	-1.067708e-01	-1.067708e-01
29.455889	1.233084	dec_choice	1.233084	16.000000	n/a	2	-1.067708e-01	-1.067708e-01
29.455889	1.233084	dec_social_accept	1.233084	16.000000	n/a	2	-1.134511e-01	-1.134511e-01
29.455889	1.233084	dec_accept	1.233084	16.000000	n/a	2	-1.127717e-01	-1.127717e-01
29.455889	1.233084	dec_social_low	1.233084	16.000000	n/a	2	-1.067708e-01	-1.067708e-01
29.455889	1.233084	dec_social_accept_low	1.233084	16.000000	n/a	2	-1.067708e-01	-1.067708e-01
36.289402	1.416125	dec_social_choice	1.416125	32.000000	n/a	16	2.682292e-01	2.682292e-01
36.289402	1.416125	dec_choice	1.416125	32.000000	n/a	16	2.682292e-01	2.682292e-01
36.289402	1.416125	dec_social_accept	1.416125	32.000000	n/a	16	2.615489e-01	2.615489e-01
36.289402	1.416125	dec_accept	1.416125	32.000000	n/a	16	2.622283e-01	2.622283e-01
36.289402	1.416125	dec_social_high	1.416125	32.000000	n/a	16	2.682292e-01	2.682292e-01
36.289402	1.416125	dec_social_accept_high	1.416125	32.000000	n/a	16	2.682292e-01	2.682292e-01
43.938800	0.983648	dec_nonsocial_choice	0.983648	32.000000	n/a	8	1.822917e-02	1.822917e-02
43.938800	0.983648	dec_choice	0.983648	32.000000	n/a	8	1.822917e-02	1.822917e-02
43.938800	0.983648	dec_nonsocial_accept	0.983648	32.000000	n/a	8	1.154891e-02	1.154891e-02
43.938800	0.983648	dec_accept	0.983648	32.000000	n/a	8	1.086957e-02	1.086957e-02
43.938800	0.983648	dec_nonsocial_high	0.983648	32.000000	n/a	8	1.822917e-02	1.822917e-02
43.938800	0.983648	dec_nonsocial_accept_high	0.983648	32.000000	n/a	8	1.086957e-02	1.086957e-02
54.804860	0.983494	dec_social_choice	0.983494	32.000000	n/a	16	2.682292e-01	2.682292e-01
54.804860	0.983494	dec_choice	0.983494	32.000000	n/a	16	2.682292e-01	2.682292e-01
54.804860	0.983494	dec_social_accept	0.983494	32.000000	n/a	16	2.615489e-01	2.615489e-01
54.804860	0.983494	dec_accept	0.983494	32.000000	n/a	16	2.622283e-01	2.622283e-01
54.804860	0.983494	dec_social_high	0.983494	32.000000	n/a	16	2.682292e-01	2.682292e-01
54.804860	0.983494	dec_social_accept_high	0.983494	32.000000	n/a	16	2.682292e-01	2.682292e-01
61.639046	0.716248	dec_nonsocial_choice	0.716248	16.000000	n/a	2	-1.067708e-01	-1.067708e-01
61.639046	0.716248	dec_choice	0.716248	16.000000	n/a	2	-1.067708e-01	-1.067708e-01
61.639046	0.716248	dec_nonsocial_accept	0.716248	16.000000	n/a	2	-1.134511e-01	-1.134511e-01
61.639046	0.716248	dec_accept	0.716248	16.000000	n/a	2	-1.141304e-01	-1.141304e-01
61.639046	0.716248	dec_nonsocial_low	0.716248	16.000000	n/a	2	-1.067708e-01	-1.067708e-01
61.639046	0.716248	dec_nonsocial_accept_low	0.716248	16.000000	n/a	2	-1.141304e-01	-1.141304e-01
70.889850	1.032546	dec_nonsocial_choice	1.032546	32.000000	n/a	2	-1.692708e-01	-1.692708e-01
70.889850	1.032546	dec_choice	1.032546	32.000000	n/a	2	-1.692708e-01	-1.692708e-01
70.889850	1.032546	dec_nonsocial_accept	1.032546	32.000000	n/a	2	-1.759511e-01	-1.759511e-01
70.889850	1.032546	dec_accept	1.032546	32.000000	n/a	2	-1.766304e-01	-1.766304e-01
70.889850	1.032546	dec_nonsocial_low	1.032546	32.000000	n/a	2	-1.692708e-01	-1.692708e-01
70.889850	1.032546	dec_nonsocial_accept_low	1.032546	32.000000	n/a	2	-1.766304e-01	-1.766304e-01
77.721860	1.066706	dec_social_choice	1.066706	32.000000	n/a	0	0	-2.317708e-01
77.721860	1.066706	dec_choice	1.066706	32.000000	n/a	0	0	-2.317708e-01
77.721860	1.066706	dec_social_reject	1.066706	32.000000	n/a	0	0	1.562500e-02
77.721860	1.066706	dec_reject	1.066706	32.000000	n/a	0	0	0
77.721860	1.066706	dec_social_low	1.066706	32.000000	n/a	0	-2.317708e-01	-2.317708e-01
77.721860	1.066706	dec_social_reject_low	1.066706	32.000000	n/a	3	-1.380208e-01	-2.317708e-01
86.971670	1.800841	dec_nonsocial_choice	1.800841	16.000000	n/a	2	-1.067708e-01	-1.067708e-01
86.971670	1.800841	dec_choice	1.800841	16.000000	n/a	2	-1.067708e-01	-1.067708e-01
86.971670	1.800841	dec_nonsocial_accept	1.800841	16.000000	n/a	2	-1.134511e-01	-1.134511e-01
86.971670	1.800841	dec_accept	1.800841	16.000000	n/a	2	-1.141304e-01	-1.141304e-01
86.971670	1.800841	dec_nonsocial_accept_low	1.800841	16.000000	n/a	2	-1.127717e-01	-1.127717e-01
93.806496	1.182438	dec_nonsocial_choice	1.182438	16.000000	n/a	8	2.682292e-01	2.682292e-01
93.806496	1.182438	dec_choice	1.182438	16.000000	n/a	8	2.682292e-01	2.682292e-01
93.806496	1.182438	dec_nonsocial_accept	1.182438	16.000000	n/a	8	2.615489e-01	2.615489e-01
93.806496	1.182438	dec_accept	1.182438	16.000000	n/a	8	2.608696e-01	2.608696e-01
93.806496	1.182438	dec_nonsocial_accept_high	1.182438	16.000000	n/a	8	2.622283e-01	2.622283e-01
100.638930	1.200120	dec_social_choice	1.200120	32.000000	n/a	2	-1.692708e-01	-1.692708e-01
100.638930	1.200120	dec_choice	1.200120	32.000000	n/a	2	-1.692708e-01	-1.692708e-01
100.638930	1.200120	dec_social_accept	1.200120	32.000000	n/a	2	-1.759511e-01	-1.759511e-01
100.638930	1.200120	dec_accept	1.200120	32.000000	n/a	2	-1.752717e-01	-1.752717e-01
100.638930	1.200120	dec_social_accept_low	1.200120	32.000000	n/a	2	-1.692708e-01	-1.692708e-01
109.888780	1.066370	dec_nonsocial_choice	1.066370	32.000000	n/a	2	-1.692708e-01	-1.692708e-01
109.888780	1.066370	dec_choice	1.066370	32.000000	n/a	2	-1.692708e-01	-1.692708e-01
109.888780	1.066370	dec_nonsocial_accept	1.066370	32.000000	n/a	2	-1.759511e-01	-1.759511e-01
109.888780	1.066370	dec_accept	1.066370	32.000000	n/a	2	-1.766304e-01	-1.766304e-01
109.888780	1.066370	dec_nonsocial_low	1.066370	32.000000	n/a	2	-1.692708e-01	-1.692708e-01
109.888780	1.066370	dec_nonsocial_accept_low	1.066370	32.000000	n/a	2	-1.766304e-01	-1.766304e-01
117.522700	1.315776	dec_nonsocial_choice	1.315776	32.000000	n/a	16	2.682292e-01	2.682292e-01
117.522700	1.315776	dec_choice	1.315776	32.000000	n/a	16	2.682292e-01	2.682292e-01
117.522700	1.315776	dec_nonsocial_accept	1.315776	32.000000	n/a	16	2.615489e-01	2.615489e-01
117.522700	1.315776	dec_accept	1.315776	32.000000	n/a	16	2.608696e-01	2.608696e-01
117.522700	1.315776	dec_nonsocial_high	1.315776	32.000000	n/a	16	2.682292e-01	2.682292e-01
117.522700	1.315776	dec_nonsocial_accept_high	1.315776	32.000000	n/a	16	2.608696e-01	2.608696e-01
124.355850	1.666408	dec_social_choice	1.666408	32.000000	n/a	8	1.822917e-02	1.822917e-02
124.355850	1.666408	dec_choice	1.666408	32.000000	n/a	8	1.822917e-02	1.822917e-02
124.355850	1.666408	dec_social_accept	1.666408	32.000000	n/a	8	1.154891e-02	1.154891e-02
124.355850	1.666408	dec_accept	1.666408	32.000000	n/a	8	1.222826e-02	1.222826e-02
124.355850	1.666408	dec_social_accept_high	1.666408	32.000000	n/a	8	1.822917e-02	1.822917e-02
132.005900	1.365611	dec_social_choice	1.365611	16.000000	n/a	4	1.822917e-02	1.822917e-02
132.005900	1.365611	dec_choice	1.365611	16.000000	n/a	4	1.822917e-02	1.822917e-02
132.005900	1.365611	dec_social_accept	1.365611	16.000000	n/a	4	1.154891e-02	1.154891e-02
132.005900	1.365611	dec_accept	1.365611	16.000000	n/a	4	1.222826e-02	1.222826e-02
132.005900	1.365611	dec_social_high	1.365611	16.000000	n/a	4	1.822917e-02	1.822917e-02
132.005900	1.365611	dec_social_accept_high	1.365611	16.000000	n/a	4	1.822917e-02	1.822917e-02
139.654740	1.217017	dec_social_choice	1.217017	32.000000	n/a	16	2.682292e-01	2.682292e-01
139.654740	1.217017	dec_choice	1.217017	32.000000	n/a	16	2.682292e-01	2.682292e-01
139.654740	1.217017	dec_social_accept	1.217017	32.000000	n/a	16	2.615489e-01	2.615489e-01
139.654740	1.217017	dec_accept	1.217017	32.000000	n/a	16	2.622283e-01	2.622283e-01
139.654740	1.217017	dec_social_high	1.217017	32.000000	n/a	16	2.682292e-01	2.682292e-01
139.654740	1.217017	dec_social_accept_high	1.217017	32.000000	n/a	16	2.682292e-01	2.682292e-01
146.489490	1.215410	dec_nonsocial_choice	1.215410	32.000000	n/a	0	0	-2.317708e-01
146.489490	1.215410	dec_choice	1.215410	32.000000	n/a	0	0	-2.317708e-01
146.489490	1.215410	dec_nonsocial_reject	1.215410	32.000000	n/a	0	0	-1.562500e-02
146.489490	1.215410	dec_reject	1.215410	32.000000	n/a	0	0	0
146.489490	1.215410	dec_nonsocial_low	1.215410	32.000000	n/a	0	-2.317708e-01	-2.317708e-01
146.489490	1.215410	dec_nonsocial_reject_low	1.215410	32.000000	n/a	2	0	-6.250000e-02
153.322560	1.249470	dec_nonsocial_choice	1.249470	32.000000	n/a	8	1.822917e-02	1.822917e-02
153.322560	1.249470	dec_choice	1.249470	32.000000	n/a	8	1.822917e-02	1.822917e-02
153.322560	1.249470	dec_nonsocial_accept	1.249470	32.000000	n/a	8	1.154891e-02	1.154891e-02
153.322560	1.249470	dec_accept	1.249470	32.000000	n/a	8	1.086957e-02	1.086957e-02
153.322560	1.249470	dec_nonsocial_high	1.249470	32.000000	n/a	8	1.822917e-02	1.822917e-02
153.322560	1.249470	dec_nonsocial_accept_high	1.249470	32.000000	n/a	8	1.086957e-02	1.086957e-02
160.155120	0.916684	dec_nonsocial_choice	0.916684	32.000000	n/a	3	-1.380208e-01	-1.380208e-01
160.155120	0.916684	dec_choice	0.916684	32.000000	n/a	3	-1.380208e-01	-1.380208e-01
160.155120	0.916684	dec_nonsocial_accept	0.916684	32.000000	n/a	3	-1.447011e-01	-1.447011e-01
160.155120	0.916684	dec_accept	0.916684	32.000000	n/a	3	-1.453804e-01	-1.453804e-01
160.155120	0.916684	dec_nonsocial_accept_low	0.916684	32.000000	n/a	3	-1.440217e-01	-1.440217e-01
171.021450	0.966870	dec_social_choice	0.966870	16.000000	n/a	2	-1.067708e-01	-1.067708e-01
171.021450	0.966870	dec_choice	0.966870	16.000000	n/a	2	-1.067708e-01	-1.067708e-01
171.021450	0.966870	dec_social_accept	0.966870	16.000000	n/a	2	-1.134511e-01	-1.134511e-01
171.021450	0.966870	dec_accept	0.966870	16.000000	n/a	2	-1.127717e-01	-1.127717e-01
171.021450	0.966870	dec_social_low	0.966870	16.000000	n/a	2	-1.067708e-01	-1.067708e-01
171.021450	0.966870	dec_social_accept_low	0.966870	16.000000	n/a	2	-1.067708e-01	-1.067708e-01
178.671660	1.383565	dec_social_choice	1.383565	16.000000	n/a	8	2.682292e-01	2.682292e-01
178.671660	1.383565	dec_choice	1.383565	16.000000	n/a	8	2.682292e-01	2.682292e-01
178.671660	1.383565	dec_social_accept	1.383565	16.000000	n/a	8	2.615489e-01	2.615489e-01
178.671660	1.383565	dec_accept	1.383565	16.000000	n/a	8	2.622283e-01	2.622283e-01
178.671660	1.383565	dec_social_accept_high	1.383565	16.000000	n/a	8	2.682292e-01	2.682292e-01
185.504640	1.133512	dec_social_choice	1.133512	32.000000	n/a	2	-1.692708e-01	-1.692708e-01
185.504640	1.133512	dec_choice	1.133512	32.000000	n/a	2	-1.692708e-01	-1.692708e-01
185.504640	1.133512	dec_social_accept	1.133512	32.000000	n/a	2	-1.759511e-01	-1.759511e-01
185.504640	1.133512	dec_accept	1.133512	32.000000	n/a	2	-1.752717e-01	-1.752717e-01
185.504640	1.133512	dec_social_low	1.133512	32.000000	n/a	2	-1.692708e-01	-1.692708e-01
185.504640	1.133512	dec_social_accept_low	1.133512	32.000000	n/a	2	-1.692708e-01	-1.692708e-01
193.155120	1.816499	dec_nonsocial_choice	1.816499	16.000000	n/a	4	1.822917e-02	1.822917e-02
193.155120	1.816499	dec_choice	1.816499	16.000000	n/a	4	1.822917e-02	1.822917e-02
193.155120	1.816499	dec_nonsocial_accept	1.816499	16.000000	n/a	4	1.154891e-02	1.154891e-02
193.155120	1.816499	dec_accept	1.816499	16.000000	n/a	4	1.086957e-02	1.086957e-02
193.155120	1.816499	dec_nonsocial_accept_high	1.816499	16.000000	n/a	4	1.222826e-02	1.222826e-02
199.987960	1.133565	dec_social_choice	1.133565	16.000000	n/a	1	-1.692708e-01	-1.692708e-01
199.987960	1.133565	dec_choice	1.133565	16.000000	n/a	1	-1.692708e-01	-1.692708e-01
199.987960	1.133565	dec_social_accept	1.133565	16.000000	n/a	1	-1.759511e-01	-1.759511e-01
199.987960	1.133565	dec_accept	1.133565	16.000000	n/a	1	-1.752717e-01	-1.752717e-01
199.987960	1.133565	dec_social_low	1.133565	16.000000	n/a	1	-1.692708e-01	-1.692708e-01
199.987960	1.133565	dec_social_accept_low	1.133565	16.000000	n/a	1	-1.692708e-01	-1.692708e-01
207.638290	1.366651	dec_nonsocial_choice	1.366651	32.000000	n/a	16	2.682292e-01	2.682292e-01
207.638290	1.366651	dec_choice	1.366651	32.000000	n/a	16	2.682292e-01	2.682292e-01
207.638290	1.366651	dec_nonsocial_accept	1.366651	32.000000	n/a	16	2.615489e-01	2.615489e-01
207.638290	1.366651	dec_accept	1.366651	32.000000	n/a	16	2.608696e-01	2.608696e-01
207.638290	1.366651	dec_nonsocial_high	1.366651	32.000000	n/a	16	2.682292e-01	2.682292e-01
207.638290	1.366651	dec_nonsocial_accept_high	1.366651	32.000000	n/a	16	2.608696e-01	2.608696e-01
214.472720	1.099325	dec_social_choice	1.099325	16.000000	n/a	2	-1.067708e-01	-1.067708e-01
214.472720	1.099325	dec_choice	1.099325	16.000000	n/a	2	-1.067708e-01	-1.067708e-01
214.472720	1.099325	dec_social_accept	1.099325	16.000000	n/a	2	-1.134511e-01	-1.134511e-01
214.472720	1.099325	dec_accept	1.099325	16.000000	n/a	2	-1.127717e-01	-1.127717e-01
214.472720	1.099325	dec_social_accept_low	1.099325	16.000000	n/a	2	-1.067708e-01	-1.067708e-01
221.305110	1.316423	dec_nonsocial_choice	1.316423	16.000000	n/a	2	-1.067708e-01	-1.067708e-01
221.305110	1.316423	dec_choice	1.316423	16.000000	n/a	2	-1.067708e-01	-1.067708e-01
221.305110	1.316423	dec_nonsocial_accept	1.316423	16.000000	n/a	2	-1.134511e-01	-1.134511e-01
221.305110	1.316423	dec_accept	1.316423	16.000000	n/a	2	-1.141304e-01	-1.141304e-01
221.305110	1.316423	dec_nonsocial_low	1.316423	16.000000	n/a	2	-1.067708e-01	-1.067708e-01
221.305110	1.316423	dec_nonsocial_accept_low	1.316423	16.000000	n/a	2	-1.141304e-01	-1.141304e-01
233.788380	1.084026	dec_nonsocial_choice	1.084026	16.000000	n/a	1	-1.692708e-01	-1.692708e-01
233.788380	1.084026	dec_choice	1.084026	16.000000	n/a	1	-1.692708e-01	-1.692708e-01
233.788380	1.084026	dec_nonsocial_accept	1.084026	16.000000	n/a	1	-1.759511e-01	-1.759511e-01
233.788380	1.084026	dec_accept	1.084026	16.000000	n/a	1	-1.766304e-01	-1.766304e-01
233.788380	1.084026	dec_nonsocial_accept_low	1.084026	16.000000	n/a	1	-1.752717e-01	-1.752717e-01
243.038820	1.433184	dec_nonsocial_choice	1.433184	32.000000	n/a	2	-1.692708e-01	-1.692708e-01
243.038820	1.433184	dec_choice	1.433184	32.000000	n/a	2	-1.692708e-01	-1.692708e-01
243.038820	1.433184	dec_nonsocial_accept	1.433184	32.000000	n/a	2	-1.759511e-01	-1.759511e-01
243.038820	1.433184	dec_accept	1.433184	32.000000	n/a	2	-1.766304e-01	-1.766304e-01
243.038820	1.433184	dec_nonsocial_accept_low	1.433184	32.000000	n/a	2	-1.752717e-01	-1.752717e-01
250.688700	0.750322	dec_nonsocial_choice	0.750322	16.000000	n/a	2	-1.067708e-01	-1.067708e-01
250.688700	0.750322	dec_choice	0.750322	16.000000	n/a	2	-1.067708e-01	-1.067708e-01
250.688700	0.750322	dec_nonsocial_accept	0.750322	16.000000	n/a	2	-1.134511e-01	-1.134511e-01
250.688700	0.750322	dec_accept	0.750322	16.000000	n/a	2	-1.141304e-01	-1.141304e-01
250.688700	0.750322	dec_nonsocial_accept_low	0.750322	16.000000	n/a	2	-1.127717e-01	-1.127717e-01
257.521700	0.950198	dec_nonsocial_choice	0.950198	32.000000	n/a	3	-1.380208e-01	-1.380208e-01
257.521700	0.950198	dec_choice	0.950198	32.000000	n/a	3	-1.380208e-01	-1.380208e-01
257.521700	0.950198	dec_nonsocial_accept	0.950198	32.000000	n/a	3	-1.447011e-01	-1.447011e-01
257.521700	0.950198	dec_accept	0.950198	32.000000	n/a	3	-1.453804e-01	-1.453804e-01
257.521700	0.950198	dec_nonsocial_low	0.950198	32.000000	n/a	3	-1.380208e-01	-1.380208e-01
257.521700	0.950198	dec_nonsocial_accept_low	0.950198	32.000000	n/a	3	-1.453804e-01	-1.453804e-01
264.355260	1.116179	dec_nonsocial_choice	1.116179	32.000000	n/a	2	-1.692708e-01	-1.692708e-01
264.355260	1.116179	dec_choice	1.116179	32.000000	n/a	2	-1.692708e-01	-1.692708e-01
264.355260	1.116179	dec_nonsocial_accept	1.116179	32.000000	n/a	2	-1.759511e-01	-1.759511e-01
264.355260	1.116179	dec_accept	1.116179	32.000000	n/a	2	-1.766304e-01	-1.766304e-01
264.355260	1.116179	dec_nonsocial_accept_low	1.116179	32.000000	n/a	2	-1.752717e-01	-1.752717e-01
272.004400	0.950795	dec_social_choice	0.950795	32.000000	n/a	2	-1.692708e-01	-1.692708e-01
272.004400	0.950795	dec_choice	0.950795	32.000000	n/a	2	-1.692708e-01	-1.692708e-01
272.004400	0.950795	dec_social_accept	0.950795	32.000000	n/a	2	-1.759511e-01	-1.759511e-01
272.004400	0.950795	dec_accept	0.950795	32.000000	n/a	2	-1.752717e-01	-1.752717e-01
272.004400	0.950795	dec_social_low	0.950795	32.000000	n/a	2	-1.692708e-01	-1.692708e-01
272.004400	0.950795	dec_social_accept_low	0.950795	32.000000	n/a	2	-1.692708e-01	-1.692708e-01
278.837860	1.316852	dec_nonsocial_choice	1.316852	16.000000	n/a	4	1.822917e-02	1.822917e-02
278.837860	1.316852	dec_choice	1.316852	16.000000	n/a	4	1.822917e-02	1.822917e-02
278.837860	1.316852	dec_nonsocial_accept	1.316852	16.000000	n/a	4	1.154891e-02	1.154891e-02
278.837860	1.316852	dec_accept	1.316852	16.000000	n/a	4	1.086957e-02	1.086957e-02
278.837860	1.316852	dec_nonsocial_accept_high	1.316852	16.000000	n/a	4	1.222826e-02	1.222826e-02
285.671750	1.032709	dec_social_choice	1.032709	16.000000	n/a	4	1.822917e-02	1.822917e-02
285.671750	1.032709	dec_choice	1.032709	16.000000	n/a	4	1.822917e-02	1.822917e-02
285.671750	1.032709	dec_social_accept	1.032709	16.000000	n/a	4	1.154891e-02	1.154891e-02
285.671750	1.032709	dec_accept	1.032709	16.000000	n/a	4	1.222826e-02	1.222826e-02
285.671750	1.032709	dec_social_accept_high	1.032709	16.000000	n/a	4	1.822917e-02	1.822917e-02
294.922760	1.048811	dec_social_choice	1.048811	16.000000	n/a	4	1.822917e-02	1.822917e-02
294.922760	1.048811	dec_choice	1.048811	16.000000	n/a	4	1.822917e-02	1.822917e-02
294.922760	1.048811	dec_social_accept	1.048811	16.000000	n/a	4	1.154891e-02	1.154891e-02
294.922760	1.048811	dec_accept	1.048811	16.000000	n/a	4	1.222826e-02	1.222826e-02
294.922760	1.048811	dec_social_accept_high	1.048811	16.000000	n/a	4	1.822917e-02	1.822917e-02
301.755100	0.983493	dec_nonsocial_choice	0.983493	16.000000	n/a	4	1.822917e-02	1.822917e-02
301.755100	0.983493	dec_choice	0.983493	16.000000	n/a	4	1.822917e-02	1.822917e-02
301.755100	0.983493	dec_nonsocial_accept	0.983493	16.000000	n/a	4	1.154891e-02	1.154891e-02
301.755100	0.983493	dec_accept	0.983493	16.000000	n/a	4	1.086957e-02	1.086957e-02
301.755100	0.983493	dec_nonsocial_high	0.983493	16.000000	n/a	4	1.822917e-02	1.822917e-02
301.755100	0.983493	dec_nonsocial_accept_high	0.983493	16.000000	n/a	4	1.086957e-02	1.086957e-02
312.621800	1.366087	dec_social_choice	1.366087	16.000000	n/a	1	-1.692708e-01	-1.692708e-01
312.621800	1.366087	dec_choice	1.366087	16.000000	n/a	1	-1.692708e-01	-1.692708e-01
312.621800	1.366087	dec_social_accept	1.366087	16.000000	n/a	1	-1.759511e-01	-1.759511e-01
312.621800	1.366087	dec_accept	1.366087	16.000000	n/a	1	-1.752717e-01	-1.752717e-01
312.621800	1.366087	dec_social_accept_low	1.366087	16.000000	n/a	1	-1.692708e-01	-1.692708e-01
319.454930	0.984084	dec_nonsocial_choice	0.984084	32.000000	n/a	8	1.822917e-02	1.822917e-02
319.454930	0.984084	dec_choice	0.984084	32.000000	n/a	8	1.822917e-02	1.822917e-02
319.454930	0.984084	dec_nonsocial_accept	0.984084	32.000000	n/a	8	1.154891e-02	1.154891e-02
319.454930	0.984084	dec_accept	0.984084	32.000000	n/a	8	1.086957e-02	1.086957e-02
319.454930	0.984084	dec_nonsocial_accept_high	0.984084	32.000000	n/a	8	1.222826e-02	1.222826e-02
328.705230	1.116599	dec_social_choice	1.116599	32.000000	n/a	8	1.822917e-02	1.822917e-02
328.705230	1.116599	dec_choice	1.116599	32.000000	n/a	8	1.822917e-02	1.822917e-02
328.705230	1.116599	dec_social_accept	1.116599	32.000000	n/a	8	1.154891e-02	1.154891e-02
328.705230	1.116599	dec_accept	1.116599	32.000000	n/a	8	1.222826e-02	1.222826e-02
328.705230	1.116599	dec_social_accept_high	1.116599	32.000000	n/a	8	1.822917e-02	1.822917e-02
336.355560	1.349253	dec_nonsocial_choice	1.349253	32.000000	n/a	16	2.682292e-01	2.682292e-01
336.355560	1.349253	dec_choice	1.349253	32.000000	n/a	16	2.682292e-01	2.682292e-01
336.355560	1.349253	dec_nonsocial_accept	1.349253	32.000000	n/a	16	2.615489e-01	2.615489e-01
336.355560	1.349253	dec_accept	1.349253	32.000000	n/a	16	2.608696e-01	2.608696e-01
336.355560	1.349253	dec_nonsocial_accept_high	1.349253	32.000000	n/a	16	2.622283e-01	2.622283e-01
344.004400	1.250683	dec_social_choice	1.250683	32.000000	n/a	2	-1.692708e-01	-1.692708e-01
344.004400	1.250683	dec_choice	1.250683	32.000000	n/a	2	-1.692708e-01	-1.692708e-01
344.004400	1.250683	dec_social_accept	1.250683	32.000000	n/a	2	-1.759511e-01	-1.759511e-01
344.004400	1.250683	dec_accept	1.250683	32.000000	n/a	2	-1.752717e-01	-1.752717e-01
344.004400	1.250683	dec_social_accept_low	1.250683	32.000000	n/a	2	-1.692708e-01	-1.692708e-01
350.838870	1.915313	dec_social_choice	1.915313	16.000000	n/a	4	1.822917e-02	1.822917e-02
350.838870	1.915313	dec_choice	1.915313	16.000000	n/a	4	1.822917e-02	1.822917e-02
350.838870	1.915313	dec_social_accept	1.915313	16.000000	n/a	4	1.154891e-02	1.154891e-02
350.838870	1.915313	dec_accept	1.915313	16.000000	n/a	4	1.222826e-02	1.222826e-02
350.838870	1.915313	dec_social_high	1.915313	16.000000	n/a	4	1.822917e-02	1.822917e-02
350.838870	1.915313	dec_social_accept_high	1.915313	16.000000	n/a	4	1.822917e-02	1.822917e-02
357.671480	1.000178	dec_nonsocial_choice	1.000178	32.000000	n/a	16	2.682292e-01	2.682292e-01
357.671480	1.000178	dec_choice	1.000178	32.000000	n/a	16	2.682292e-01	2.682292e-01
357.671480	1.000178	dec_nonsocial_accept	1.000178	32.000000	n/a	16	2.615489e-01	2.615489e-01
357.671480	1.000178	dec_accept	1.000178	32.000000	n/a	16	2.608696e-01	2.608696e-01
357.671480	1.000178	dec_nonsocial_high	1.000178	32.000000	n/a	16	2.682292e-01	2.682292e-01
357.671480	1.000178	dec_nonsocial_accept_high	1.000178	32.000000	n/a	16	2.608696e-01	2.608696e-01
365.321470	1.099975	dec_social_choice	1.099975	16.000000	n/a	2	-1.067708e-01	-1.067708e-01
365.321470	1.099975	dec_choice	1.099975	16.000000	n/a	2	-1.067708e-01	-1.067708e-01
365.321470	1.099975	dec_social_accept	1.099975	16.000000	n/a	2	-1.134511e-01	-1.134511e-01
365.321470	1.099975	dec_accept	1.099975	16.000000	n/a	2	-1.127717e-01	-1.127717e-01
365.321470	1.099975	dec_social_accept_low	1.099975	16.000000	n/a	2	-1.067708e-01	-1.067708e-01
372.155360	0.949592	dec_social_choice	0.949592	16.000000	n/a	8	2.682292e-01	2.682292e-01
372.155360	0.949592	dec_choice	0.949592	16.000000	n/a	8	2.682292e-01	2.682292e-01
372.155360	0.949592	dec_social_accept	0.949592	16.000000	n/a	8	2.615489e-01	2.615489e-01
372.155360	0.949592	dec_accept	0.949592	16.000000	n/a	8	2.622283e-01	2.622283e-01
372.155360	0.949592	dec_social_accept_high	0.949592	16.000000	n/a	8	2.682292e-01	2.682292e-01
