onset	duration	trial_type	response_time	Endowment	Endowment_pmod	Decision	Decision_pmod	Offer_pmod
4.509717	2	cue_nonsocial	n/a	16	-7	n/a	n/a	n/a
4.509717	2	cue_nonsocial_low	n/a	16	-7	n/a	n/a	n/a
12.160149	2	cue_nonsocial	n/a	16	-7	n/a	n/a	n/a
12.160149	2	cue_nonsocial_low	n/a	16	-7	n/a	n/a	n/a
18.993357	2	cue_nonsocial	n/a	16	-7	n/a	n/a	n/a
18.993357	2	cue_nonsocial_low	n/a	16	-7	n/a	n/a	n/a
25.826403	2	cue_nonsocial	n/a	32	9	n/a	n/a	n/a
25.826403	2	cue_nonsocial_high	n/a	32	9	n/a	n/a	n/a
33.559770	2	cue_social	n/a	16	-7	n/a	n/a	n/a
33.559770	2	cue_social_low	n/a	16	-7	n/a	n/a	n/a
40.310257	2	cue_nonsocial	n/a	16	-7	n/a	n/a	n/a
40.310257	2	cue_nonsocial_low	n/a	16	-7	n/a	n/a	n/a
48.012547	2	cue_social	n/a	32	9	n/a	n/a	n/a
48.012547	2	cue_social_high	n/a	32	9	n/a	n/a	n/a
57.322220	2	cue_social	n/a	16	-7	n/a	n/a	n/a
57.322220	2	cue_social_low	n/a	16	-7	n/a	n/a	n/a
66.554600	2	cue_social	n/a	32	9	n/a	n/a	n/a
66.554600	2	cue_social_high	n/a	32	9	n/a	n/a	n/a
74.184470	2	cue_social	n/a	16	-7	n/a	n/a	n/a
74.184470	2	cue_social_low	n/a	16	-7	n/a	n/a	n/a
81.759880	2	cue_nonsocial	n/a	16	-7	n/a	n/a	n/a
81.759880	2	cue_nonsocial_low	n/a	16	-7	n/a	n/a	n/a
91.080910	2	cue_social	n/a	32	9	n/a	n/a	n/a
91.080910	2	cue_social_high	n/a	32	9	n/a	n/a	n/a
103.491820	2	cue_social	n/a	32	9	n/a	n/a	n/a
103.491820	2	cue_social_high	n/a	32	9	n/a	n/a	n/a
110.326600	2	cue_nonsocial	n/a	32	9	n/a	n/a	n/a
110.326600	2	cue_nonsocial_high	n/a	32	9	n/a	n/a	n/a
117.959930	2	cue_nonsocial	n/a	32	9	n/a	n/a	n/a
117.959930	2	cue_nonsocial_high	n/a	32	9	n/a	n/a	n/a
128.842850	2	cue_nonsocial	n/a	32	9	n/a	n/a	n/a
128.842850	2	cue_nonsocial_high	n/a	32	9	n/a	n/a	n/a
135.747180	2	cue_social	n/a	16	-7	n/a	n/a	n/a
135.747180	2	cue_social_low	n/a	16	-7	n/a	n/a	n/a
146.630420	2	cue_social	n/a	16	-7	n/a	n/a	n/a
146.630420	2	cue_social_low	n/a	16	-7	n/a	n/a	n/a
154.192800	2	cue_nonsocial	n/a	16	-7	n/a	n/a	n/a
154.192800	2	cue_nonsocial_low	n/a	16	-7	n/a	n/a	n/a
161.088070	2	cue_social	n/a	16	-7	n/a	n/a	n/a
161.088070	2	cue_social_low	n/a	16	-7	n/a	n/a	n/a
167.859440	2	cue_nonsocial	n/a	32	9	n/a	n/a	n/a
167.859440	2	cue_nonsocial_high	n/a	32	9	n/a	n/a	n/a
174.756120	2	cue_social	n/a	16	-7	n/a	n/a	n/a
174.756120	2	cue_social_low	n/a	16	-7	n/a	n/a	n/a
181.597440	2	cue_social	n/a	16	-7	n/a	n/a	n/a
181.597440	2	cue_social_low	n/a	16	-7	n/a	n/a	n/a
189.274600	2	cue_social	n/a	16	-7	n/a	n/a	n/a
189.274600	2	cue_social_low	n/a	16	-7	n/a	n/a	n/a
196.009260	2	cue_nonsocial	n/a	16	-7	n/a	n/a	n/a
196.009260	2	cue_nonsocial_low	n/a	16	-7	n/a	n/a	n/a
202.842740	2	cue_nonsocial	n/a	16	-7	n/a	n/a	n/a
202.842740	2	cue_nonsocial_low	n/a	16	-7	n/a	n/a	n/a
213.780690	2	cue_social	n/a	32	9	n/a	n/a	n/a
213.780690	2	cue_social_high	n/a	32	9	n/a	n/a	n/a
221.411790	2	cue_social	n/a	16	-7	n/a	n/a	n/a
221.411790	2	cue_social_low	n/a	16	-7	n/a	n/a	n/a
228.192440	2	cue_nonsocial	n/a	32	9	n/a	n/a	n/a
228.192440	2	cue_nonsocial_high	n/a	32	9	n/a	n/a	n/a
235.079540	2	cue_social	n/a	32	9	n/a	n/a	n/a
235.079540	2	cue_social_high	n/a	32	9	n/a	n/a	n/a
244.292400	2	cue_nonsocial	n/a	16	-7	n/a	n/a	n/a
244.292400	2	cue_nonsocial_low	n/a	16	-7	n/a	n/a	n/a
251.125800	2	cue_nonsocial	n/a	32	9	n/a	n/a	n/a
251.125800	2	cue_nonsocial_high	n/a	32	9	n/a	n/a	n/a
257.959080	2	cue_nonsocial	n/a	16	-7	n/a	n/a	n/a
257.959080	2	cue_nonsocial_low	n/a	16	-7	n/a	n/a	n/a
264.845370	2	cue_social	n/a	16	-7	n/a	n/a	n/a
264.845370	2	cue_social_low	n/a	16	-7	n/a	n/a	n/a
272.442540	2	cue_nonsocial	n/a	16	-7	n/a	n/a	n/a
272.442540	2	cue_nonsocial_low	n/a	16	-7	n/a	n/a	n/a
280.132350	2	cue_social	n/a	32	9	n/a	n/a	n/a
280.132350	2	cue_social_high	n/a	32	9	n/a	n/a	n/a
286.925870	2	cue_nonsocial	n/a	32	9	n/a	n/a	n/a
286.925870	2	cue_nonsocial_high	n/a	32	9	n/a	n/a	n/a
296.176000	2	cue_nonsocial	n/a	16	-7	n/a	n/a	n/a
296.176000	2	cue_nonsocial_low	n/a	16	-7	n/a	n/a	n/a
303.061100	2	cue_social	n/a	16	-7	n/a	n/a	n/a
303.061100	2	cue_social_low	n/a	16	-7	n/a	n/a	n/a
310.722660	2	cue_social	n/a	16	-7	n/a	n/a	n/a
310.722660	2	cue_social_low	n/a	16	-7	n/a	n/a	n/a
317.567720	2	cue_social	n/a	32	9	n/a	n/a	n/a
317.567720	2	cue_social_high	n/a	32	9	n/a	n/a	n/a
326.758760	2	cue_nonsocial	n/a	32	9	n/a	n/a	n/a
326.758760	2	cue_nonsocial_high	n/a	32	9	n/a	n/a	n/a
333.662100	2	cue_social	n/a	32	9	n/a	n/a	n/a
333.662100	2	cue_social_high	n/a	32	9	n/a	n/a	n/a
340.425540	2	cue_nonsocial	n/a	16	-7	n/a	n/a	n/a
340.425540	2	cue_nonsocial_low	n/a	16	-7	n/a	n/a	n/a
349.740750	2	cue_social	n/a	32	9	n/a	n/a	n/a
349.740750	2	cue_social_high	n/a	32	9	n/a	n/a	n/a
356.509160	2	cue_nonsocial	n/a	16	-7	n/a	n/a	n/a
356.509160	2	cue_nonsocial_low	n/a	16	-7	n/a	n/a	n/a
363.399230	2	cue_social	n/a	32	9	n/a	n/a	n/a
363.399230	2	cue_social_high	n/a	32	9	n/a	n/a	n/a
370.992130	2	cue_nonsocial	n/a	32	9	n/a	n/a	n/a
370.992130	2	cue_nonsocial_high	n/a	32	9	n/a	n/a	n/a
6.516264	1.216234	dec_nonsocial_choice	1.216234	16.000000	n/a	0	0	-2.324219e-01
6.516264	1.216234	dec_choice	1.216234	16.000000	n/a	0	0	-2.317708e-01
6.516264	1.216234	dec_nonsocial_reject	1.216234	16.000000	n/a	0	0	-5.649038e-02
6.516264	1.216234	dec_reject	1.216234	16.000000	n/a	0	0	-3.846154e-02
6.516264	1.216234	dec_nonsocial_reject_low	1.216234	16.000000	n/a	1	-7.451923e-02	-1.370192e-01
14.166643	1.099889	dec_nonsocial_choice	1.099889	16.000000	n/a	4	1.757812e-02	1.757812e-02
14.166643	1.099889	dec_choice	1.099889	16.000000	n/a	4	1.822917e-02	1.822917e-02
14.166643	1.099889	dec_nonsocial_accept	1.099889	16.000000	n/a	4	-1.164773e-01	-1.164773e-01
14.166643	1.099889	dec_accept	1.099889	16.000000	n/a	4	-1.363636e-01	-1.363636e-01
14.166643	1.099889	dec_nonsocial_accept_high	1.099889	16.000000	n/a	4	-9.659091e-02	-9.659091e-02
20.998903	1.300790	dec_nonsocial_choice	1.300790	16.000000	n/a	0	0	-2.324219e-01
20.998903	1.300790	dec_choice	1.300790	16.000000	n/a	0	0	-2.317708e-01
20.998903	1.300790	dec_nonsocial_reject	1.300790	16.000000	n/a	0	0	6.009615e-03
20.998903	1.300790	dec_reject	1.300790	16.000000	n/a	0	0	2.403846e-02
20.998903	1.300790	dec_nonsocial_reject_low	1.300790	16.000000	n/a	2	-1.201923e-02	-1.370192e-01
27.834373	0.832037	dec_nonsocial_choice	0.832037	32.000000	n/a	16	2.675781e-01	2.675781e-01
27.834373	0.832037	dec_choice	0.832037	32.000000	n/a	16	2.682292e-01	2.682292e-01
27.834373	0.832037	dec_nonsocial_accept	0.832037	32.000000	n/a	16	1.335227e-01	1.335227e-01
27.834373	0.832037	dec_accept	0.832037	32.000000	n/a	16	1.136364e-01	1.136364e-01
27.834373	0.832037	dec_nonsocial_high	0.832037	32.000000	n/a	16	2.682292e-01	2.682292e-01
27.834373	0.832037	dec_nonsocial_accept_high	0.832037	32.000000	n/a	16	1.136364e-01	1.136364e-01
35.482224	0.933639	dec_social_choice	0.933639	16.000000	n/a	8	2.675781e-01	2.675781e-01
35.482224	0.933639	dec_choice	0.933639	16.000000	n/a	8	2.669271e-01	2.669271e-01
35.482224	0.933639	dec_social_accept	0.933639	16.000000	n/a	8	1.335227e-01	1.335227e-01
35.482224	0.933639	dec_accept	0.933639	16.000000	n/a	8	1.534091e-01	1.534091e-01
35.482224	0.933639	dec_social_accept_high	0.933639	16.000000	n/a	8	2.669271e-01	2.669271e-01
42.316100	0.966755	dec_nonsocial_choice	0.966755	16.000000	n/a	4	1.757812e-02	1.757812e-02
42.316100	0.966755	dec_choice	0.966755	16.000000	n/a	4	1.822917e-02	1.822917e-02
42.316100	0.966755	dec_nonsocial_accept	0.966755	16.000000	n/a	4	-1.164773e-01	-1.164773e-01
42.316100	0.966755	dec_accept	0.966755	16.000000	n/a	4	-1.363636e-01	-1.363636e-01
42.316100	0.966755	dec_nonsocial_accept_high	0.966755	16.000000	n/a	4	-9.659091e-02	-9.659091e-02
49.965620	1.384280	dec_social_choice	1.384280	32.000000	n/a	0	0	-2.324219e-01
49.965620	1.384280	dec_choice	1.384280	32.000000	n/a	0	0	-2.330729e-01
49.965620	1.384280	dec_social_reject	1.384280	32.000000	n/a	0	0	-5.649038e-02
49.965620	1.384280	dec_reject	1.384280	32.000000	n/a	0	0	-7.451923e-02
49.965620	1.384280	dec_social_reject_low	1.384280	32.000000	n/a	2	-1.705729e-01	-2.330729e-01
59.216156	1.033605	dec_social_choice	1.033605	16.000000	n/a	0	0	-2.324219e-01
59.216156	1.033605	dec_choice	1.033605	16.000000	n/a	0	0	-2.330729e-01
59.216156	1.033605	dec_social_reject	1.033605	16.000000	n/a	0	0	6.009615e-03
59.216156	1.033605	dec_reject	1.033605	16.000000	n/a	0	0	-1.201923e-02
59.216156	1.033605	dec_social_low	1.033605	16.000000	n/a	0	-2.330729e-01	-2.330729e-01
59.216156	1.033605	dec_social_reject_low	1.033605	16.000000	n/a	2	-1.080729e-01	-2.330729e-01
68.482300	0.984021	dec_social_choice	0.984021	32.000000	n/a	8	1.757812e-02	1.757812e-02
68.482300	0.984021	dec_choice	0.984021	32.000000	n/a	8	1.692708e-02	1.692708e-02
68.482300	0.984021	dec_social_accept	0.984021	32.000000	n/a	8	-1.164773e-01	-1.164773e-01
68.482300	0.984021	dec_accept	0.984021	32.000000	n/a	8	-9.659091e-02	-9.659091e-02
68.482300	0.984021	dec_social_high	0.984021	32.000000	n/a	8	1.692708e-02	1.692708e-02
68.482300	0.984021	dec_social_accept_high	0.984021	32.000000	n/a	8	1.692708e-02	1.692708e-02
76.116140	1.000128	dec_social_choice	1.000128	16.000000	n/a	0	0	-2.324219e-01
76.116140	1.000128	dec_choice	1.000128	16.000000	n/a	0	0	-2.330729e-01
76.116140	1.000128	dec_social_reject	1.000128	16.000000	n/a	0	0	-5.649038e-02
76.116140	1.000128	dec_reject	1.000128	16.000000	n/a	0	0	-7.451923e-02
76.116140	1.000128	dec_social_low	1.000128	16.000000	n/a	0	-2.330729e-01	-2.330729e-01
76.116140	1.000128	dec_social_reject_low	1.000128	16.000000	n/a	1	-1.705729e-01	-2.330729e-01
83.766190	1.100113	dec_nonsocial_choice	1.100113	16.000000	n/a	0	0	-2.324219e-01
83.766190	1.100113	dec_choice	1.100113	16.000000	n/a	0	0	-2.317708e-01
83.766190	1.100113	dec_nonsocial_reject	1.100113	16.000000	n/a	0	0	-5.649038e-02
83.766190	1.100113	dec_reject	1.100113	16.000000	n/a	0	0	-3.846154e-02
83.766190	1.100113	dec_nonsocial_low	1.100113	16.000000	n/a	0	-2.317708e-01	-2.317708e-01
83.766190	1.100113	dec_nonsocial_reject_low	1.100113	16.000000	n/a	1	-3.846154e-02	-1.009615e-01
93.015560	1.418077	dec_social_choice	1.418077	32.000000	n/a	0	0	-2.324219e-01
93.015560	1.418077	dec_choice	1.418077	32.000000	n/a	0	0	-2.330729e-01
93.015560	1.418077	dec_social_reject	1.418077	32.000000	n/a	0	0	-2.524038e-02
93.015560	1.418077	dec_reject	1.418077	32.000000	n/a	0	0	-4.326923e-02
93.015560	1.418077	dec_social_reject_low	1.418077	32.000000	n/a	3	-1.393229e-01	-2.330729e-01
105.500070	1.015833	dec_social_choice	1.015833	32.000000	n/a	0	0	-2.324219e-01
105.500070	1.015833	dec_choice	1.015833	32.000000	n/a	0	0	-2.330729e-01
105.500070	1.015833	dec_social_reject	1.015833	32.000000	n/a	0	0	-5.649038e-02
105.500070	1.015833	dec_reject	1.015833	32.000000	n/a	0	0	-7.451923e-02
105.500070	1.015833	dec_social_reject_low	1.015833	32.000000	n/a	2	-1.705729e-01	-2.330729e-01
112.332660	0.800198	dec_nonsocial_choice	0.800198	32.000000	n/a	0	0	-2.324219e-01
112.332660	0.800198	dec_choice	0.800198	32.000000	n/a	0	0	-2.317708e-01
112.332660	0.800198	dec_nonsocial_reject	0.800198	32.000000	n/a	0	0	-5.649038e-02
112.332660	0.800198	dec_reject	0.800198	32.000000	n/a	0	0	-3.846154e-02
112.332660	0.800198	dec_nonsocial_reject_low	0.800198	32.000000	n/a	2	-7.451923e-02	-1.370192e-01
119.983690	1.115382	dec_nonsocial_choice	1.115382	32.000000	n/a	0	0	-2.324219e-01
119.983690	1.115382	dec_choice	1.115382	32.000000	n/a	0	0	-2.317708e-01
119.983690	1.115382	dec_nonsocial_reject	1.115382	32.000000	n/a	0	0	-2.524038e-02
119.983690	1.115382	dec_reject	1.115382	32.000000	n/a	0	0	-7.211538e-03
119.983690	1.115382	dec_nonsocial_low	1.115382	32.000000	n/a	0	-2.317708e-01	-2.317708e-01
119.983690	1.115382	dec_nonsocial_reject_low	1.115382	32.000000	n/a	3	-7.211538e-03	-1.009615e-01
130.848750	0.750800	dec_nonsocial_choice	0.750800	32.000000	n/a	8	1.757812e-02	1.757812e-02
130.848750	0.750800	dec_choice	0.750800	32.000000	n/a	8	1.822917e-02	1.822917e-02
130.848750	0.750800	dec_nonsocial_accept	0.750800	32.000000	n/a	8	-1.164773e-01	-1.164773e-01
130.848750	0.750800	dec_accept	0.750800	32.000000	n/a	8	-1.363636e-01	-1.363636e-01
130.848750	0.750800	dec_nonsocial_accept_high	0.750800	32.000000	n/a	8	-9.659091e-02	-9.659091e-02
137.682020	0.934145	dec_social_choice	0.934145	16.000000	n/a	4	1.757812e-02	1.757812e-02
137.682020	0.934145	dec_choice	0.934145	16.000000	n/a	4	1.692708e-02	1.692708e-02
137.682020	0.934145	dec_social_accept	0.934145	16.000000	n/a	4	-1.164773e-01	-1.164773e-01
137.682020	0.934145	dec_accept	0.934145	16.000000	n/a	4	-9.659091e-02	-9.659091e-02
137.682020	0.934145	dec_social_accept_high	0.934145	16.000000	n/a	4	1.692708e-02	1.692708e-02
148.549120	1.150291	dec_social_choice	1.150291	16.000000	n/a	0	0	-2.324219e-01
148.549120	1.150291	dec_choice	1.150291	16.000000	n/a	0	0	-2.330729e-01
148.549120	1.150291	dec_social_reject	1.150291	16.000000	n/a	0	0	6.009615e-03
148.549120	1.150291	dec_reject	1.150291	16.000000	n/a	0	0	-1.201923e-02
148.549120	1.150291	dec_social_reject_low	1.150291	16.000000	n/a	2	-1.080729e-01	-2.330729e-01
156.199750	1.033041	dec_nonsocial_choice	1.033041	16.000000	n/a	0	0	-2.324219e-01
156.199750	1.033041	dec_choice	1.033041	16.000000	n/a	0	0	-2.317708e-01
156.199750	1.033041	dec_nonsocial_reject	1.033041	16.000000	n/a	0	0	-5.649038e-02
156.199750	1.033041	dec_reject	1.033041	16.000000	n/a	0	0	-3.846154e-02
156.199750	1.033041	dec_nonsocial_low	1.033041	16.000000	n/a	0	-2.317708e-01	-2.317708e-01
156.199750	1.033041	dec_nonsocial_reject_low	1.033041	16.000000	n/a	1	-3.846154e-02	-1.009615e-01
163.032350	1.033604	dec_social_choice	1.033604	16.000000	n/a	0	0	-2.324219e-01
163.032350	1.033604	dec_choice	1.033604	16.000000	n/a	0	0	-2.330729e-01
163.032350	1.033604	dec_social_reject	1.033604	16.000000	n/a	0	0	6.009615e-03
163.032350	1.033604	dec_reject	1.033604	16.000000	n/a	0	0	-1.201923e-02
163.032350	1.033604	dec_social_reject_low	1.033604	16.000000	n/a	2	-1.080729e-01	-2.330729e-01
169.865550	1.133852	dec_nonsocial_choice	1.133852	32.000000	n/a	16	2.675781e-01	2.675781e-01
169.865550	1.133852	dec_choice	1.133852	32.000000	n/a	16	2.682292e-01	2.682292e-01
169.865550	1.133852	dec_nonsocial_accept	1.133852	32.000000	n/a	16	1.335227e-01	1.335227e-01
169.865550	1.133852	dec_accept	1.133852	32.000000	n/a	16	1.136364e-01	1.136364e-01
169.865550	1.133852	dec_nonsocial_accept_high	1.133852	32.000000	n/a	16	1.534091e-01	1.534091e-01
176.698550	0.916982	dec_social_choice	0.916982	16.000000	n/a	0	0	-2.324219e-01
176.698550	0.916982	dec_choice	0.916982	16.000000	n/a	0	0	-2.330729e-01
176.698550	0.916982	dec_social_reject	0.916982	16.000000	n/a	0	0	-5.649038e-02
176.698550	0.916982	dec_reject	0.916982	16.000000	n/a	0	0	-7.451923e-02
176.698550	0.916982	dec_social_reject_low	0.916982	16.000000	n/a	1	-1.705729e-01	-2.330729e-01
183.532090	0.600886	dec_social_choice	0.600886	16.000000	n/a	1	-1.699219e-01	-1.699219e-01
183.532090	0.600886	dec_choice	0.600886	16.000000	n/a	1	-1.705729e-01	-1.705729e-01
183.532090	0.600886	dec_social_accept	0.600886	16.000000	n/a	1	-3.039773e-01	-3.039773e-01
183.532090	0.600886	dec_accept	0.600886	16.000000	n/a	1	-2.840909e-01	-2.840909e-01
183.532090	0.600886	dec_social_accept_low	0.600886	16.000000	n/a	1	-1.705729e-01	-1.705729e-01
191.182510	0.833597	dec_social_choice	0.833597	16.000000	n/a	4	1.757812e-02	1.757812e-02
191.182510	0.833597	dec_choice	0.833597	16.000000	n/a	4	1.692708e-02	1.692708e-02
191.182510	0.833597	dec_social_accept	0.833597	16.000000	n/a	4	-1.164773e-01	-1.164773e-01
191.182510	0.833597	dec_accept	0.833597	16.000000	n/a	4	-9.659091e-02	-9.659091e-02
191.182510	0.833597	dec_social_accept_high	0.833597	16.000000	n/a	4	1.692708e-02	1.692708e-02
198.016280	0.615974	dec_nonsocial_choice	0.615974	16.000000	n/a	8	2.675781e-01	2.675781e-01
198.016280	0.615974	dec_choice	0.615974	16.000000	n/a	8	2.682292e-01	2.682292e-01
198.016280	0.615974	dec_nonsocial_accept	0.615974	16.000000	n/a	8	1.335227e-01	1.335227e-01
198.016280	0.615974	dec_accept	0.615974	16.000000	n/a	8	1.136364e-01	1.136364e-01
198.016280	0.615974	dec_nonsocial_accept_high	0.615974	16.000000	n/a	8	1.534091e-01	1.534091e-01
204.849470	0.866048	dec_nonsocial_choice	0.866048	16.000000	n/a	0	0	-2.324219e-01
204.849470	0.866048	dec_choice	0.866048	16.000000	n/a	0	0	-2.317708e-01
204.849470	0.866048	dec_nonsocial_reject	0.866048	16.000000	n/a	0	0	6.009615e-03
204.849470	0.866048	dec_reject	0.866048	16.000000	n/a	0	0	2.403846e-02
204.849470	0.866048	dec_nonsocial_low	0.866048	16.000000	n/a	0	-2.317708e-01	-2.317708e-01
204.849470	0.866048	dec_nonsocial_reject_low	0.866048	16.000000	n/a	2	2.403846e-02	-1.009615e-01
215.715160	0.700765	dec_social_choice	0.700765	32.000000	n/a	16	2.675781e-01	2.675781e-01
215.715160	0.700765	dec_choice	0.700765	32.000000	n/a	16	2.669271e-01	2.669271e-01
215.715160	0.700765	dec_social_accept	0.700765	32.000000	n/a	16	1.335227e-01	1.335227e-01
215.715160	0.700765	dec_accept	0.700765	32.000000	n/a	16	1.534091e-01	1.534091e-01
215.715160	0.700765	dec_social_accept_high	0.700765	32.000000	n/a	16	2.669271e-01	2.669271e-01
223.365160	1.401010	dec_social_choice	1.401010	16.000000	n/a	4	1.757812e-02	1.757812e-02
223.365160	1.401010	dec_choice	1.401010	16.000000	n/a	4	1.692708e-02	1.692708e-02
223.365160	1.401010	dec_social_accept	1.401010	16.000000	n/a	4	-1.164773e-01	-1.164773e-01
223.365160	1.401010	dec_accept	1.401010	16.000000	n/a	4	-9.659091e-02	-9.659091e-02
223.365160	1.401010	dec_social_accept_high	1.401010	16.000000	n/a	4	1.692708e-02	1.692708e-02
230.199100	0.666327	dec_nonsocial_choice	0.666327	32.000000	n/a	16	2.675781e-01	2.675781e-01
230.199100	0.666327	dec_choice	0.666327	32.000000	n/a	16	2.682292e-01	2.682292e-01
230.199100	0.666327	dec_nonsocial_accept	0.666327	32.000000	n/a	16	1.335227e-01	1.335227e-01
230.199100	0.666327	dec_accept	0.666327	32.000000	n/a	16	1.136364e-01	1.136364e-01
230.199100	0.666327	dec_nonsocial_accept_high	0.666327	32.000000	n/a	16	1.534091e-01	1.534091e-01
237.033020	1.215742	dec_social_choice	1.215742	32.000000	n/a	0	0	-2.324219e-01
237.033020	1.215742	dec_choice	1.215742	32.000000	n/a	0	0	-2.330729e-01
237.033020	1.215742	dec_social_reject	1.215742	32.000000	n/a	0	0	-5.649038e-02
237.033020	1.215742	dec_reject	1.215742	32.000000	n/a	0	0	-7.451923e-02
237.033020	1.215742	dec_social_reject_low	1.215742	32.000000	n/a	2	-1.705729e-01	-2.330729e-01
246.299200	1.249989	dec_nonsocial_choice	1.249989	16.000000	n/a	4	1.757812e-02	1.757812e-02
246.299200	1.249989	dec_choice	1.249989	16.000000	n/a	4	1.822917e-02	1.822917e-02
246.299200	1.249989	dec_nonsocial_accept	1.249989	16.000000	n/a	4	-1.164773e-01	-1.164773e-01
246.299200	1.249989	dec_accept	1.249989	16.000000	n/a	4	-1.363636e-01	-1.363636e-01
246.299200	1.249989	dec_nonsocial_accept_high	1.249989	16.000000	n/a	4	-9.659091e-02	-9.659091e-02
253.132200	0.716393	dec_nonsocial_choice	0.716393	32.000000	n/a	0	0	-2.324219e-01
253.132200	0.716393	dec_choice	0.716393	32.000000	n/a	0	0	-2.317708e-01
253.132200	0.716393	dec_nonsocial_reject	0.716393	32.000000	n/a	0	0	1.310096e-01
253.132200	0.716393	dec_reject	0.716393	32.000000	n/a	0	0	1.490385e-01
253.132200	0.716393	dec_nonsocial_reject_low	0.716393	32.000000	n/a	8	1.129808e-01	-1.370192e-01
259.966460	0.899461	dec_nonsocial_choice	0.899461	16.000000	n/a	8	2.675781e-01	2.675781e-01
259.966460	0.899461	dec_choice	0.899461	16.000000	n/a	8	2.682292e-01	2.682292e-01
259.966460	0.899461	dec_nonsocial_accept	0.899461	16.000000	n/a	8	1.335227e-01	1.335227e-01
259.966460	0.899461	dec_accept	0.899461	16.000000	n/a	8	1.136364e-01	1.136364e-01
259.966460	0.899461	dec_nonsocial_accept_high	0.899461	16.000000	n/a	8	1.534091e-01	1.534091e-01
266.799100	0.933181	dec_social_choice	0.933181	16.000000	n/a	0	0	-2.324219e-01
266.799100	0.933181	dec_choice	0.933181	16.000000	n/a	0	0	-2.330729e-01
266.799100	0.933181	dec_social_reject	0.933181	16.000000	n/a	0	0	6.009615e-03
266.799100	0.933181	dec_reject	0.933181	16.000000	n/a	0	0	-1.201923e-02
266.799100	0.933181	dec_social_low	0.933181	16.000000	n/a	0	-2.330729e-01	-2.330729e-01
266.799100	0.933181	dec_social_reject_low	0.933181	16.000000	n/a	2	-1.080729e-01	-2.330729e-01
274.449220	0.900612	dec_nonsocial_choice	0.900612	16.000000	n/a	0	0	-2.324219e-01
274.449220	0.900612	dec_choice	0.900612	16.000000	n/a	0	0	-2.317708e-01
274.449220	0.900612	dec_nonsocial_reject	0.900612	16.000000	n/a	0	0	-5.649038e-02
274.449220	0.900612	dec_reject	0.900612	16.000000	n/a	0	0	-3.846154e-02
274.449220	0.900612	dec_nonsocial_reject_low	0.900612	16.000000	n/a	1	-7.451923e-02	-1.370192e-01
282.099000	0.966198	dec_social_choice	0.966198	32.000000	n/a	16	2.675781e-01	2.675781e-01
282.099000	0.966198	dec_choice	0.966198	32.000000	n/a	16	2.669271e-01	2.669271e-01
282.099000	0.966198	dec_social_accept	0.966198	32.000000	n/a	16	1.335227e-01	1.335227e-01
282.099000	0.966198	dec_accept	0.966198	32.000000	n/a	16	1.534091e-01	1.534091e-01
282.099000	0.966198	dec_social_high	0.966198	32.000000	n/a	16	2.669271e-01	2.669271e-01
282.099000	0.966198	dec_social_accept_high	0.966198	32.000000	n/a	16	2.669271e-01	2.669271e-01
288.932160	1.000265	dec_nonsocial_choice	1.000265	32.000000	n/a	16	2.675781e-01	2.675781e-01
288.932160	1.000265	dec_choice	1.000265	32.000000	n/a	16	2.682292e-01	2.682292e-01
288.932160	1.000265	dec_nonsocial_accept	1.000265	32.000000	n/a	16	1.335227e-01	1.335227e-01
288.932160	1.000265	dec_accept	1.000265	32.000000	n/a	16	1.136364e-01	1.136364e-01
288.932160	1.000265	dec_nonsocial_accept_high	1.000265	32.000000	n/a	16	1.534091e-01	1.534091e-01
298.181600	0.900853	dec_nonsocial_choice	0.900853	16.000000	n/a	0	0	-2.324219e-01
298.181600	0.900853	dec_choice	0.900853	16.000000	n/a	0	0	-2.317708e-01
298.181600	0.900853	dec_nonsocial_reject	0.900853	16.000000	n/a	0	0	6.009615e-03
298.181600	0.900853	dec_reject	0.900853	16.000000	n/a	0	0	2.403846e-02
298.181600	0.900853	dec_nonsocial_low	0.900853	16.000000	n/a	0	-2.317708e-01	-2.317708e-01
298.181600	0.900853	dec_nonsocial_reject_low	0.900853	16.000000	n/a	2	2.403846e-02	-1.009615e-01
305.016880	1.232128	dec_social_choice	1.232128	16.000000	n/a	0	0	-2.324219e-01
305.016880	1.232128	dec_choice	1.232128	16.000000	n/a	0	0	-2.330729e-01
305.016880	1.232128	dec_social_reject	1.232128	16.000000	n/a	0	0	1.310096e-01
305.016880	1.232128	dec_reject	1.232128	16.000000	n/a	0	0	1.129808e-01
305.016880	1.232128	dec_social_reject_low	1.232128	16.000000	n/a	4	1.692708e-02	-2.330729e-01
312.666020	0.982894	dec_social_choice	0.982894	16.000000	n/a	0	0	-2.324219e-01
312.666020	0.982894	dec_choice	0.982894	16.000000	n/a	0	0	-2.330729e-01
312.666020	0.982894	dec_social_reject	0.982894	16.000000	n/a	0	0	6.009615e-03
312.666020	0.982894	dec_reject	0.982894	16.000000	n/a	0	0	-1.201923e-02
312.666020	0.982894	dec_social_low	0.982894	16.000000	n/a	0	-2.330729e-01	-2.330729e-01
312.666020	0.982894	dec_social_reject_low	0.982894	16.000000	n/a	2	-1.080729e-01	-2.330729e-01
319.498100	0.733808	dec_social_choice	0.733808	32.000000	n/a	0	0	-2.324219e-01
319.498100	0.733808	dec_choice	0.733808	32.000000	n/a	0	0	-2.330729e-01
319.498100	0.733808	dec_social_reject	0.733808	32.000000	n/a	0	0	3.810096e-01
319.498100	0.733808	dec_reject	0.733808	32.000000	n/a	0	0	3.629808e-01
319.498100	0.733808	dec_social_reject_low	0.733808	32.000000	n/a	16	2.669271e-01	-2.330729e-01
328.765900	1.132848	dec_nonsocial_choice	1.132848	32.000000	n/a	0	0	-2.324219e-01
328.765900	1.132848	dec_choice	1.132848	32.000000	n/a	0	0	-2.317708e-01
328.765900	1.132848	dec_nonsocial_reject	1.132848	32.000000	n/a	0	0	-2.524038e-02
328.765900	1.132848	dec_reject	1.132848	32.000000	n/a	0	0	-7.211538e-03
328.765900	1.132848	dec_nonsocial_low	1.132848	32.000000	n/a	0	-2.317708e-01	-2.317708e-01
328.765900	1.132848	dec_nonsocial_reject_low	1.132848	32.000000	n/a	3	-7.211538e-03	-1.009615e-01
335.598240	0.900679	dec_social_choice	0.900679	32.000000	n/a	8	1.757812e-02	1.757812e-02
335.598240	0.900679	dec_choice	0.900679	32.000000	n/a	8	1.692708e-02	1.692708e-02
335.598240	0.900679	dec_social_accept	0.900679	32.000000	n/a	8	-1.164773e-01	-1.164773e-01
335.598240	0.900679	dec_accept	0.900679	32.000000	n/a	8	-9.659091e-02	-9.659091e-02
335.598240	0.900679	dec_social_accept_high	0.900679	32.000000	n/a	8	1.692708e-02	1.692708e-02
342.432620	1.033092	dec_nonsocial_choice	1.033092	16.000000	n/a	0	0	-2.324219e-01
342.432620	1.033092	dec_choice	1.033092	16.000000	n/a	0	0	-2.317708e-01
342.432620	1.033092	dec_nonsocial_reject	1.033092	16.000000	n/a	0	0	6.009615e-03
342.432620	1.033092	dec_reject	1.033092	16.000000	n/a	0	0	2.403846e-02
342.432620	1.033092	dec_nonsocial_reject_low	1.033092	16.000000	n/a	2	-1.201923e-02	-1.370192e-01
351.682220	0.916164	dec_social_choice	0.916164	32.000000	n/a	16	2.675781e-01	2.675781e-01
351.682220	0.916164	dec_choice	0.916164	32.000000	n/a	16	2.669271e-01	2.669271e-01
351.682220	0.916164	dec_social_accept	0.916164	32.000000	n/a	16	1.335227e-01	1.335227e-01
351.682220	0.916164	dec_accept	0.916164	32.000000	n/a	16	1.534091e-01	1.534091e-01
351.682220	0.916164	dec_social_high	0.916164	32.000000	n/a	16	2.669271e-01	2.669271e-01
351.682220	0.916164	dec_social_accept_high	0.916164	32.000000	n/a	16	2.669271e-01	2.669271e-01
358.515750	1.216041	dec_nonsocial_choice	1.216041	16.000000	n/a	0	0	-2.324219e-01
358.515750	1.216041	dec_choice	1.216041	16.000000	n/a	0	0	-2.317708e-01
358.515750	1.216041	dec_nonsocial_reject	1.216041	16.000000	n/a	0	0	-5.649038e-02
358.515750	1.216041	dec_reject	1.216041	16.000000	n/a	0	0	-3.846154e-02
358.515750	1.216041	dec_nonsocial_low	1.216041	16.000000	n/a	0	-2.317708e-01	-2.317708e-01
358.515750	1.216041	dec_nonsocial_reject_low	1.216041	16.000000	n/a	1	-3.846154e-02	-1.009615e-01
365.348750	0.966299	dec_social_choice	0.966299	32.000000	n/a	16	2.675781e-01	2.675781e-01
365.348750	0.966299	dec_choice	0.966299	32.000000	n/a	16	2.669271e-01	2.669271e-01
365.348750	0.966299	dec_social_accept	0.966299	32.000000	n/a	16	1.335227e-01	1.335227e-01
365.348750	0.966299	dec_accept	0.966299	32.000000	n/a	16	1.534091e-01	1.534091e-01
365.348750	0.966299	dec_social_accept_high	0.966299	32.000000	n/a	16	2.669271e-01	2.669271e-01
372.998100	1.134011	dec_nonsocial_choice	1.134011	32.000000	n/a	8	1.757812e-02	1.757812e-02
372.998100	1.134011	dec_choice	1.134011	32.000000	n/a	8	1.822917e-02	1.822917e-02
372.998100	1.134011	dec_nonsocial_accept	1.134011	32.000000	n/a	8	-1.164773e-01	-1.164773e-01
372.998100	1.134011	dec_accept	1.134011	32.000000	n/a	8	-1.363636e-01	-1.363636e-01
372.998100	1.134011	dec_nonsocial_high	1.134011	32.000000	n/a	8	1.822917e-02	1.822917e-02
372.998100	1.134011	dec_nonsocial_accept_high	1.134011	32.000000	n/a	8	-1.363636e-01	-1.363636e-01
