onset	duration	trial_type	response_time	Endowment	Endowment_pmod	Decision	Decision_pmod	Offer_pmod
4.504163	2	cue_nonsocial	n/a	16	-9	n/a	n/a	n/a
4.504163	2	cue_nonsocial_low	n/a	16	-9	n/a	n/a	n/a
11.422274	2	cue_social	n/a	32	7	n/a	n/a	n/a
11.422274	2	cue_social_high	n/a	32	7	n/a	n/a	n/a
18.170828	2	cue_nonsocial	n/a	16	-9	n/a	n/a	n/a
18.170828	2	cue_nonsocial_low	n/a	16	-9	n/a	n/a	n/a
25.887400	2	cue_social	n/a	16	-9	n/a	n/a	n/a
25.887400	2	cue_social_low	n/a	16	-9	n/a	n/a	n/a
33.552150	2	cue_social	n/a	32	7	n/a	n/a	n/a
33.552150	2	cue_social_high	n/a	32	7	n/a	n/a	n/a
40.304230	2	cue_nonsocial	n/a	32	7	n/a	n/a	n/a
40.304230	2	cue_nonsocial_high	n/a	32	7	n/a	n/a	n/a
47.137360	2	cue_nonsocial	n/a	32	7	n/a	n/a	n/a
47.137360	2	cue_nonsocial_high	n/a	32	7	n/a	n/a	n/a
56.476192	2	cue_social	n/a	32	7	n/a	n/a	n/a
56.476192	2	cue_social_high	n/a	32	7	n/a	n/a	n/a
65.709980	2	cue_social	n/a	32	7	n/a	n/a	n/a
65.709980	2	cue_social_high	n/a	32	7	n/a	n/a	n/a
72.487420	2	cue_nonsocial	n/a	16	-9	n/a	n/a	n/a
72.487420	2	cue_nonsocial_low	n/a	16	-9	n/a	n/a	n/a
80.137350	2	cue_nonsocial	n/a	16	-9	n/a	n/a	n/a
80.137350	2	cue_nonsocial_low	n/a	16	-9	n/a	n/a	n/a
91.081410	2	cue_social	n/a	32	7	n/a	n/a	n/a
91.081410	2	cue_social_high	n/a	32	7	n/a	n/a	n/a
97.837170	2	cue_nonsocial	n/a	32	7	n/a	n/a	n/a
97.837170	2	cue_nonsocial_high	n/a	32	7	n/a	n/a	n/a
104.739820	2	cue_social	n/a	16	-9	n/a	n/a	n/a
104.739820	2	cue_social_low	n/a	16	-9	n/a	n/a	n/a
111.508450	2	cue_social	n/a	16	-9	n/a	n/a	n/a
111.508450	2	cue_social_low	n/a	16	-9	n/a	n/a	n/a
118.433900	2	cue_social	n/a	32	7	n/a	n/a	n/a
118.433900	2	cue_social_high	n/a	32	7	n/a	n/a	n/a
125.987170	2	cue_nonsocial	n/a	32	7	n/a	n/a	n/a
125.987170	2	cue_nonsocial_high	n/a	32	7	n/a	n/a	n/a
133.637160	2	cue_nonsocial	n/a	32	7	n/a	n/a	n/a
133.637160	2	cue_nonsocial_high	n/a	32	7	n/a	n/a	n/a
144.503900	2	cue_nonsocial	n/a	16	-9	n/a	n/a	n/a
144.503900	2	cue_nonsocial_low	n/a	16	-9	n/a	n/a	n/a
152.153260	2	cue_nonsocial	n/a	16	-9	n/a	n/a	n/a
152.153260	2	cue_nonsocial_low	n/a	16	-9	n/a	n/a	n/a
158.986710	2	cue_nonsocial	n/a	32	7	n/a	n/a	n/a
158.986710	2	cue_nonsocial_high	n/a	32	7	n/a	n/a	n/a
171.571200	2	cue_social	n/a	32	7	n/a	n/a	n/a
171.571200	2	cue_social_high	n/a	32	7	n/a	n/a	n/a
178.303860	2	cue_nonsocial	n/a	32	7	n/a	n/a	n/a
178.303860	2	cue_nonsocial_high	n/a	32	7	n/a	n/a	n/a
187.636490	2	cue_social	n/a	32	7	n/a	n/a	n/a
187.636490	2	cue_social_high	n/a	32	7	n/a	n/a	n/a
196.924200	2	cue_social	n/a	32	7	n/a	n/a	n/a
196.924200	2	cue_social_high	n/a	32	7	n/a	n/a	n/a
203.670700	2	cue_nonsocial	n/a	16	-9	n/a	n/a	n/a
203.670700	2	cue_nonsocial_low	n/a	16	-9	n/a	n/a	n/a
210.621250	2	cue_social	n/a	16	-9	n/a	n/a	n/a
210.621250	2	cue_social_low	n/a	16	-9	n/a	n/a	n/a
219.753850	2	cue_nonsocial	n/a	32	7	n/a	n/a	n/a
219.753850	2	cue_nonsocial_high	n/a	32	7	n/a	n/a	n/a
226.678310	2	cue_social	n/a	16	-9	n/a	n/a	n/a
226.678310	2	cue_social_low	n/a	16	-9	n/a	n/a	n/a
234.302870	2	cue_social	n/a	16	-9	n/a	n/a	n/a
234.302870	2	cue_social_low	n/a	16	-9	n/a	n/a	n/a
241.173720	2	cue_social	n/a	16	-9	n/a	n/a	n/a
241.173720	2	cue_social_low	n/a	16	-9	n/a	n/a	n/a
250.388820	2	cue_social	n/a	16	-9	n/a	n/a	n/a
250.388820	2	cue_social_low	n/a	16	-9	n/a	n/a	n/a
257.221440	2	cue_social	n/a	32	7	n/a	n/a	n/a
257.221440	2	cue_social_high	n/a	32	7	n/a	n/a	n/a
264.070530	2	cue_social	n/a	16	-9	n/a	n/a	n/a
264.070530	2	cue_social_low	n/a	16	-9	n/a	n/a	n/a
270.836940	2	cue_nonsocial	n/a	16	-9	n/a	n/a	n/a
270.836940	2	cue_nonsocial_low	n/a	16	-9	n/a	n/a	n/a
278.487000	2	cue_nonsocial	n/a	16	-9	n/a	n/a	n/a
278.487000	2	cue_nonsocial_low	n/a	16	-9	n/a	n/a	n/a
286.120100	2	cue_nonsocial	n/a	32	7	n/a	n/a	n/a
286.120100	2	cue_nonsocial_high	n/a	32	7	n/a	n/a	n/a
293.003900	2	cue_social	n/a	32	7	n/a	n/a	n/a
293.003900	2	cue_social_high	n/a	32	7	n/a	n/a	n/a
302.220100	2	cue_nonsocial	n/a	32	7	n/a	n/a	n/a
302.220100	2	cue_nonsocial_high	n/a	32	7	n/a	n/a	n/a
309.127040	2	cue_social	n/a	32	7	n/a	n/a	n/a
309.127040	2	cue_social_high	n/a	32	7	n/a	n/a	n/a
315.887020	2	cue_nonsocial	n/a	32	7	n/a	n/a	n/a
315.887020	2	cue_nonsocial_high	n/a	32	7	n/a	n/a	n/a
323.603880	2	cue_social	n/a	16	-9	n/a	n/a	n/a
323.603880	2	cue_social_low	n/a	16	-9	n/a	n/a	n/a
331.186500	2	cue_nonsocial	n/a	16	-9	n/a	n/a	n/a
331.186500	2	cue_nonsocial_low	n/a	16	-9	n/a	n/a	n/a
338.836760	2	cue_nonsocial	n/a	16	-9	n/a	n/a	n/a
338.836760	2	cue_nonsocial_low	n/a	16	-9	n/a	n/a	n/a
346.526370	2	cue_social	n/a	16	-9	n/a	n/a	n/a
346.526370	2	cue_social_low	n/a	16	-9	n/a	n/a	n/a
353.366060	2	cue_social	n/a	32	7	n/a	n/a	n/a
353.366060	2	cue_social_high	n/a	32	7	n/a	n/a	n/a
364.186950	2	cue_nonsocial	n/a	32	7	n/a	n/a	n/a
364.186950	2	cue_nonsocial_high	n/a	32	7	n/a	n/a	n/a
371.019840	2	cue_nonsocial	n/a	32	7	n/a	n/a	n/a
371.019840	2	cue_nonsocial_high	n/a	32	7	n/a	n/a	n/a
6.511249	0.633101	dec_nonsocial_choice	0.633101	16.000000	n/a	4	2.083333e-02	2.083333e-02
6.511249	0.633101	dec_choice	0.633101	16.000000	n/a	4	1.822917e-02	1.822917e-02
6.511249	0.633101	dec_nonsocial_accept	0.633101	16.000000	n/a	4	2.127660e-02	2.127660e-02
6.511249	0.633101	dec_accept	0.633101	16.000000	n/a	4	1.822917e-02	1.822917e-02
6.511249	0.633101	dec_nonsocial_high	0.633101	16.000000	n/a	4	1.822917e-02	1.822917e-02
6.511249	0.633101	dec_nonsocial_accept_high	0.633101	16.000000	n/a	4	1.822917e-02	1.822917e-02
13.344205	0.900031	dec_social_choice	0.900031	32.000000	n/a	2	-1.666667e-01	-1.666667e-01
13.344205	0.900031	dec_choice	0.900031	32.000000	n/a	2	-1.640625e-01	-1.640625e-01
13.344205	0.900031	dec_social_accept	0.900031	32.000000	n/a	2	-1.662234e-01	-1.662234e-01
13.344205	0.900031	dec_accept	0.900031	32.000000	n/a	2	-1.630435e-01	-1.630435e-01
13.344205	0.900031	dec_social_accept_low	0.900031	32.000000	n/a	2	-1.640625e-01	-1.640625e-01
20.177294	0.866297	dec_nonsocial_choice	0.866297	16.000000	n/a	2	-1.041667e-01	-1.041667e-01
20.177294	0.866297	dec_choice	0.866297	16.000000	n/a	2	-1.067708e-01	-1.067708e-01
20.177294	0.866297	dec_nonsocial_accept	0.866297	16.000000	n/a	2	-1.037234e-01	-1.037234e-01
20.177294	0.866297	dec_accept	0.866297	16.000000	n/a	2	-1.067708e-01	-1.067708e-01
20.177294	0.866297	dec_nonsocial_low	0.866297	16.000000	n/a	2	-1.067708e-01	-1.067708e-01
20.177294	0.866297	dec_nonsocial_accept_low	0.866297	16.000000	n/a	2	-1.067708e-01	-1.067708e-01
27.827168	0.966251	dec_social_choice	0.966251	16.000000	n/a	4	2.083333e-02	2.083333e-02
27.827168	0.966251	dec_choice	0.966251	16.000000	n/a	4	2.343750e-02	2.343750e-02
27.827168	0.966251	dec_social_accept	0.966251	16.000000	n/a	4	2.127660e-02	2.127660e-02
27.827168	0.966251	dec_accept	0.966251	16.000000	n/a	4	2.445652e-02	2.445652e-02
27.827168	0.966251	dec_social_high	0.966251	16.000000	n/a	4	2.343750e-02	2.343750e-02
27.827168	0.966251	dec_social_accept_high	0.966251	16.000000	n/a	4	2.343750e-02	2.343750e-02
35.478176	0.849487	dec_social_choice	0.849487	32.000000	n/a	2	-1.666667e-01	-1.666667e-01
35.478176	0.849487	dec_choice	0.849487	32.000000	n/a	2	-1.640625e-01	-1.640625e-01
35.478176	0.849487	dec_social_accept	0.849487	32.000000	n/a	2	-1.662234e-01	-1.662234e-01
35.478176	0.849487	dec_accept	0.849487	32.000000	n/a	2	-1.630435e-01	-1.630435e-01
35.478176	0.849487	dec_social_low	0.849487	32.000000	n/a	2	-1.640625e-01	-1.640625e-01
35.478176	0.849487	dec_social_accept_low	0.849487	32.000000	n/a	2	-1.640625e-01	-1.640625e-01
42.310913	1.016069	dec_nonsocial_choice	1.016069	32.000000	n/a	3	-1.354167e-01	-1.354167e-01
42.310913	1.016069	dec_choice	1.016069	32.000000	n/a	3	-1.380208e-01	-1.380208e-01
42.310913	1.016069	dec_nonsocial_accept	1.016069	32.000000	n/a	3	-1.349734e-01	-1.349734e-01
42.310913	1.016069	dec_accept	1.016069	32.000000	n/a	3	-1.380208e-01	-1.380208e-01
42.310913	1.016069	dec_nonsocial_accept_low	1.016069	32.000000	n/a	3	-1.317935e-01	-1.317935e-01
49.144290	0.750000	dec_nonsocial_choice	0.750000	32.000000	n/a	16	2.708333e-01	2.708333e-01
49.144290	0.750000	dec_choice	0.750000	32.000000	n/a	16	2.682292e-01	2.682292e-01
49.144290	0.750000	dec_nonsocial_accept	0.750000	32.000000	n/a	16	2.712766e-01	2.712766e-01
49.144290	0.750000	dec_accept	0.750000	32.000000	n/a	16	2.682292e-01	2.682292e-01
49.144290	0.750000	dec_nonsocial_high	0.750000	32.000000	n/a	16	2.682292e-01	2.682292e-01
49.144290	0.750000	dec_nonsocial_accept_high	0.750000	32.000000	n/a	16	2.682292e-01	2.682292e-01
58.409676	0.851257	dec_social_choice	0.851257	32.000000	n/a	3	-1.354167e-01	-1.354167e-01
58.409676	0.851257	dec_choice	0.851257	32.000000	n/a	3	-1.328125e-01	-1.328125e-01
58.409676	0.851257	dec_social_accept	0.851257	32.000000	n/a	3	-1.349734e-01	-1.349734e-01
58.409676	0.851257	dec_accept	0.851257	32.000000	n/a	3	-1.317935e-01	-1.317935e-01
58.409676	0.851257	dec_social_low	0.851257	32.000000	n/a	3	-1.328125e-01	-1.328125e-01
58.409676	0.851257	dec_social_accept_low	0.851257	32.000000	n/a	3	-1.328125e-01	-1.328125e-01
67.660180	0.766354	dec_social_choice	0.766354	32.000000	n/a	8	2.083333e-02	2.083333e-02
67.660180	0.766354	dec_choice	0.766354	32.000000	n/a	8	2.343750e-02	2.343750e-02
67.660180	0.766354	dec_social_accept	0.766354	32.000000	n/a	8	2.127660e-02	2.127660e-02
67.660180	0.766354	dec_accept	0.766354	32.000000	n/a	8	2.445652e-02	2.445652e-02
67.660180	0.766354	dec_social_accept_high	0.766354	32.000000	n/a	8	2.343750e-02	2.343750e-02
74.494095	0.850453	dec_nonsocial_choice	0.850453	16.000000	n/a	2	-1.041667e-01	-1.041667e-01
74.494095	0.850453	dec_choice	0.850453	16.000000	n/a	2	-1.067708e-01	-1.067708e-01
74.494095	0.850453	dec_nonsocial_accept	0.850453	16.000000	n/a	2	-1.037234e-01	-1.037234e-01
74.494095	0.850453	dec_accept	0.850453	16.000000	n/a	2	-1.067708e-01	-1.067708e-01
74.494095	0.850453	dec_nonsocial_low	0.850453	16.000000	n/a	2	-1.067708e-01	-1.067708e-01
74.494095	0.850453	dec_nonsocial_accept_low	0.850453	16.000000	n/a	2	-1.067708e-01	-1.067708e-01
82.144165	0.950200	dec_nonsocial_choice	0.950200	16.000000	n/a	4	2.083333e-02	2.083333e-02
82.144165	0.950200	dec_choice	0.950200	16.000000	n/a	4	1.822917e-02	1.822917e-02
82.144165	0.950200	dec_nonsocial_accept	0.950200	16.000000	n/a	4	2.127660e-02	2.127660e-02
82.144165	0.950200	dec_accept	0.950200	16.000000	n/a	4	1.822917e-02	1.822917e-02
82.144165	0.950200	dec_nonsocial_accept_high	0.950200	16.000000	n/a	4	2.445652e-02	2.445652e-02
93.010210	0.717276	dec_social_choice	0.717276	32.000000	n/a	8	2.083333e-02	2.083333e-02
93.010210	0.717276	dec_choice	0.717276	32.000000	n/a	8	2.343750e-02	2.343750e-02
93.010210	0.717276	dec_social_accept	0.717276	32.000000	n/a	8	2.127660e-02	2.127660e-02
93.010210	0.717276	dec_accept	0.717276	32.000000	n/a	8	2.445652e-02	2.445652e-02
93.010210	0.717276	dec_social_high	0.717276	32.000000	n/a	8	2.343750e-02	2.343750e-02
93.010210	0.717276	dec_social_accept_high	0.717276	32.000000	n/a	8	2.343750e-02	2.343750e-02
99.844160	0.899992	dec_nonsocial_choice	0.899992	32.000000	n/a	3	-1.354167e-01	-1.354167e-01
99.844160	0.899992	dec_choice	0.899992	32.000000	n/a	3	-1.380208e-01	-1.380208e-01
99.844160	0.899992	dec_nonsocial_accept	0.899992	32.000000	n/a	3	-1.349734e-01	-1.349734e-01
99.844160	0.899992	dec_accept	0.899992	32.000000	n/a	3	-1.380208e-01	-1.380208e-01
99.844160	0.899992	dec_nonsocial_low	0.899992	32.000000	n/a	3	-1.380208e-01	-1.380208e-01
99.844160	0.899992	dec_nonsocial_accept_low	0.899992	32.000000	n/a	3	-1.380208e-01	-1.380208e-01
106.678220	0.849028	dec_social_choice	0.849028	16.000000	n/a	8	2.708333e-01	2.708333e-01
106.678220	0.849028	dec_choice	0.849028	16.000000	n/a	8	2.734375e-01	2.734375e-01
106.678220	0.849028	dec_social_accept	0.849028	16.000000	n/a	8	2.712766e-01	2.712766e-01
106.678220	0.849028	dec_accept	0.849028	16.000000	n/a	8	2.744565e-01	2.744565e-01
106.678220	0.849028	dec_social_high	0.849028	16.000000	n/a	8	2.734375e-01	2.734375e-01
106.678220	0.849028	dec_social_accept_high	0.849028	16.000000	n/a	8	2.734375e-01	2.734375e-01
113.510086	1.634000	dec_social_choice	1.634000	16.000000	n/a	0	0	-2.291667e-01
113.510086	1.634000	dec_choice	1.634000	16.000000	n/a	0	0	-2.265625e-01
113.510086	1.634000	dec_social_reject	1.634000	16.000000	n/a	0	0	1.250000e-01
113.510086	1.634000	dec_reject	1.634000	16.000000	n/a	0	0	0
113.510086	1.634000	dec_social_low	1.634000	16.000000	n/a	0	-2.265625e-01	-2.265625e-01
113.510086	1.634000	dec_social_reject_low	1.634000	16.000000	n/a	4	2.343750e-02	-2.265625e-01
120.344130	0.816142	dec_social_choice	0.816142	32.000000	n/a	2	-1.666667e-01	-1.666667e-01
120.344130	0.816142	dec_choice	0.816142	32.000000	n/a	2	-1.640625e-01	-1.640625e-01
120.344130	0.816142	dec_social_accept	0.816142	32.000000	n/a	2	-1.662234e-01	-1.662234e-01
120.344130	0.816142	dec_accept	0.816142	32.000000	n/a	2	-1.630435e-01	-1.630435e-01
120.344130	0.816142	dec_social_accept_low	0.816142	32.000000	n/a	2	-1.640625e-01	-1.640625e-01
127.994300	0.799878	dec_nonsocial_choice	0.799878	32.000000	n/a	2	-1.666667e-01	-1.666667e-01
127.994300	0.799878	dec_choice	0.799878	32.000000	n/a	2	-1.692708e-01	-1.692708e-01
127.994300	0.799878	dec_nonsocial_accept	0.799878	32.000000	n/a	2	-1.662234e-01	-1.662234e-01
127.994300	0.799878	dec_accept	0.799878	32.000000	n/a	2	-1.692708e-01	-1.692708e-01
127.994300	0.799878	dec_nonsocial_accept_low	0.799878	32.000000	n/a	2	-1.630435e-01	-1.630435e-01
135.644870	0.899186	dec_nonsocial_choice	0.899186	32.000000	n/a	2	-1.666667e-01	-1.666667e-01
135.644870	0.899186	dec_choice	0.899186	32.000000	n/a	2	-1.692708e-01	-1.692708e-01
135.644870	0.899186	dec_nonsocial_accept	0.899186	32.000000	n/a	2	-1.662234e-01	-1.662234e-01
135.644870	0.899186	dec_accept	0.899186	32.000000	n/a	2	-1.692708e-01	-1.692708e-01
135.644870	0.899186	dec_nonsocial_low	0.899186	32.000000	n/a	2	-1.692708e-01	-1.692708e-01
135.644870	0.899186	dec_nonsocial_accept_low	0.899186	32.000000	n/a	2	-1.692708e-01	-1.692708e-01
146.510100	0.816708	dec_nonsocial_choice	0.816708	16.000000	n/a	2	-1.041667e-01	-1.041667e-01
146.510100	0.816708	dec_choice	0.816708	16.000000	n/a	2	-1.067708e-01	-1.067708e-01
146.510100	0.816708	dec_nonsocial_accept	0.816708	16.000000	n/a	2	-1.037234e-01	-1.037234e-01
146.510100	0.816708	dec_accept	0.816708	16.000000	n/a	2	-1.067708e-01	-1.067708e-01
146.510100	0.816708	dec_nonsocial_accept_low	0.816708	16.000000	n/a	2	-1.005435e-01	-1.005435e-01
154.161090	0.999649	dec_nonsocial_choice	0.999649	16.000000	n/a	4	2.083333e-02	2.083333e-02
154.161090	0.999649	dec_choice	0.999649	16.000000	n/a	4	1.822917e-02	1.822917e-02
154.161090	0.999649	dec_nonsocial_accept	0.999649	16.000000	n/a	4	2.127660e-02	2.127660e-02
154.161090	0.999649	dec_accept	0.999649	16.000000	n/a	4	1.822917e-02	1.822917e-02
154.161090	0.999649	dec_nonsocial_high	0.999649	16.000000	n/a	4	1.822917e-02	1.822917e-02
154.161090	0.999649	dec_nonsocial_accept_high	0.999649	16.000000	n/a	4	1.822917e-02	1.822917e-02
160.994350	0.965681	dec_nonsocial_choice	0.965681	32.000000	n/a	16	2.708333e-01	2.708333e-01
160.994350	0.965681	dec_choice	0.965681	32.000000	n/a	16	2.682292e-01	2.682292e-01
160.994350	0.965681	dec_nonsocial_accept	0.965681	32.000000	n/a	16	2.712766e-01	2.712766e-01
160.994350	0.965681	dec_accept	0.965681	32.000000	n/a	16	2.682292e-01	2.682292e-01
160.994350	0.965681	dec_nonsocial_accept_high	0.965681	32.000000	n/a	16	2.744565e-01	2.744565e-01
173.477080	0.700209	dec_social_choice	0.700209	32.000000	n/a	3	-1.354167e-01	-1.354167e-01
173.477080	0.700209	dec_choice	0.700209	32.000000	n/a	3	-1.328125e-01	-1.328125e-01
173.477080	0.700209	dec_social_accept	0.700209	32.000000	n/a	3	-1.349734e-01	-1.349734e-01
173.477080	0.700209	dec_accept	0.700209	32.000000	n/a	3	-1.317935e-01	-1.317935e-01
173.477080	0.700209	dec_social_low	0.700209	32.000000	n/a	3	-1.328125e-01	-1.328125e-01
173.477080	0.700209	dec_social_accept_low	0.700209	32.000000	n/a	3	-1.328125e-01	-1.328125e-01
180.310100	0.866664	dec_nonsocial_choice	0.866664	32.000000	n/a	2	-1.666667e-01	-1.666667e-01
180.310100	0.866664	dec_choice	0.866664	32.000000	n/a	2	-1.692708e-01	-1.692708e-01
180.310100	0.866664	dec_nonsocial_accept	0.866664	32.000000	n/a	2	-1.662234e-01	-1.662234e-01
180.310100	0.866664	dec_accept	0.866664	32.000000	n/a	2	-1.692708e-01	-1.692708e-01
180.310100	0.866664	dec_nonsocial_accept_low	0.866664	32.000000	n/a	2	-1.630435e-01	-1.630435e-01
189.577180	1.116270	dec_social_choice	1.116270	32.000000	n/a	3	-1.354167e-01	-1.354167e-01
189.577180	1.116270	dec_choice	1.116270	32.000000	n/a	3	-1.328125e-01	-1.328125e-01
189.577180	1.116270	dec_social_accept	1.116270	32.000000	n/a	3	-1.349734e-01	-1.349734e-01
189.577180	1.116270	dec_accept	1.116270	32.000000	n/a	3	-1.317935e-01	-1.317935e-01
189.577180	1.116270	dec_social_accept_low	1.116270	32.000000	n/a	3	-1.328125e-01	-1.328125e-01
198.842960	0.933430	dec_social_choice	0.933430	32.000000	n/a	8	2.083333e-02	2.083333e-02
198.842960	0.933430	dec_choice	0.933430	32.000000	n/a	8	2.343750e-02	2.343750e-02
198.842960	0.933430	dec_social_accept	0.933430	32.000000	n/a	8	2.127660e-02	2.127660e-02
198.842960	0.933430	dec_accept	0.933430	32.000000	n/a	8	2.445652e-02	2.445652e-02
198.842960	0.933430	dec_social_high	0.933430	32.000000	n/a	8	2.343750e-02	2.343750e-02
198.842960	0.933430	dec_social_accept_high	0.933430	32.000000	n/a	8	2.343750e-02	2.343750e-02
205.677290	1.216146	dec_nonsocial_choice	1.216146	16.000000	n/a	2	-1.041667e-01	-1.041667e-01
205.677290	1.216146	dec_choice	1.216146	16.000000	n/a	2	-1.067708e-01	-1.067708e-01
205.677290	1.216146	dec_nonsocial_accept	1.216146	16.000000	n/a	2	-1.037234e-01	-1.037234e-01
205.677290	1.216146	dec_accept	1.216146	16.000000	n/a	2	-1.067708e-01	-1.067708e-01
205.677290	1.216146	dec_nonsocial_accept_low	1.216146	16.000000	n/a	2	-1.005435e-01	-1.005435e-01
212.510070	0.966489	dec_social_choice	0.966489	16.000000	n/a	8	2.708333e-01	2.708333e-01
212.510070	0.966489	dec_choice	0.966489	16.000000	n/a	8	2.734375e-01	2.734375e-01
212.510070	0.966489	dec_social_accept	0.966489	16.000000	n/a	8	2.712766e-01	2.712766e-01
212.510070	0.966489	dec_accept	0.966489	16.000000	n/a	8	2.744565e-01	2.744565e-01
212.510070	0.966489	dec_social_accept_high	0.966489	16.000000	n/a	8	2.734375e-01	2.734375e-01
221.760930	0.765534	dec_nonsocial_choice	0.765534	32.000000	n/a	2	-1.666667e-01	-1.666667e-01
221.760930	0.765534	dec_choice	0.765534	32.000000	n/a	2	-1.692708e-01	-1.692708e-01
221.760930	0.765534	dec_nonsocial_accept	0.765534	32.000000	n/a	2	-1.662234e-01	-1.662234e-01
221.760930	0.765534	dec_accept	0.765534	32.000000	n/a	2	-1.692708e-01	-1.692708e-01
221.760930	0.765534	dec_nonsocial_low	0.765534	32.000000	n/a	2	-1.692708e-01	-1.692708e-01
221.760930	0.765534	dec_nonsocial_accept_low	0.765534	32.000000	n/a	2	-1.692708e-01	-1.692708e-01
228.593960	0.815749	dec_social_choice	0.815749	16.000000	n/a	1	-1.666667e-01	-1.666667e-01
228.593960	0.815749	dec_choice	0.815749	16.000000	n/a	1	-1.640625e-01	-1.640625e-01
228.593960	0.815749	dec_social_accept	0.815749	16.000000	n/a	1	-1.662234e-01	-1.662234e-01
228.593960	0.815749	dec_accept	0.815749	16.000000	n/a	1	-1.630435e-01	-1.630435e-01
228.593960	0.815749	dec_social_low	0.815749	16.000000	n/a	1	-1.640625e-01	-1.640625e-01
228.593960	0.815749	dec_social_accept_low	0.815749	16.000000	n/a	1	-1.640625e-01	-1.640625e-01
236.244100	0.799957	dec_social_choice	0.799957	16.000000	n/a	1	-1.666667e-01	-1.666667e-01
236.244100	0.799957	dec_choice	0.799957	16.000000	n/a	1	-1.640625e-01	-1.640625e-01
236.244100	0.799957	dec_social_accept	0.799957	16.000000	n/a	1	-1.662234e-01	-1.662234e-01
236.244100	0.799957	dec_accept	0.799957	16.000000	n/a	1	-1.630435e-01	-1.630435e-01
236.244100	0.799957	dec_social_accept_low	0.799957	16.000000	n/a	1	-1.640625e-01	-1.640625e-01
243.077120	0.849885	dec_social_choice	0.849885	16.000000	n/a	4	2.083333e-02	2.083333e-02
243.077120	0.849885	dec_choice	0.849885	16.000000	n/a	4	2.343750e-02	2.343750e-02
243.077120	0.849885	dec_social_accept	0.849885	16.000000	n/a	4	2.127660e-02	2.127660e-02
243.077120	0.849885	dec_accept	0.849885	16.000000	n/a	4	2.445652e-02	2.445652e-02
243.077120	0.849885	dec_social_high	0.849885	16.000000	n/a	4	2.343750e-02	2.343750e-02
243.077120	0.849885	dec_social_accept_high	0.849885	16.000000	n/a	4	2.343750e-02	2.343750e-02
252.343920	0.865761	dec_social_choice	0.865761	16.000000	n/a	8	2.708333e-01	2.708333e-01
252.343920	0.865761	dec_choice	0.865761	16.000000	n/a	8	2.734375e-01	2.734375e-01
252.343920	0.865761	dec_social_accept	0.865761	16.000000	n/a	8	2.712766e-01	2.712766e-01
252.343920	0.865761	dec_accept	0.865761	16.000000	n/a	8	2.744565e-01	2.744565e-01
252.343920	0.865761	dec_social_accept_high	0.865761	16.000000	n/a	8	2.734375e-01	2.734375e-01
259.177100	0.883151	dec_social_choice	0.883151	32.000000	n/a	16	2.708333e-01	2.708333e-01
259.177100	0.883151	dec_choice	0.883151	32.000000	n/a	16	2.734375e-01	2.734375e-01
259.177100	0.883151	dec_social_accept	0.883151	32.000000	n/a	16	2.712766e-01	2.712766e-01
259.177100	0.883151	dec_accept	0.883151	32.000000	n/a	16	2.744565e-01	2.744565e-01
259.177100	0.883151	dec_social_accept_high	0.883151	32.000000	n/a	16	2.734375e-01	2.734375e-01
266.011020	0.915627	dec_social_choice	0.915627	16.000000	n/a	1	-1.666667e-01	-1.666667e-01
266.011020	0.915627	dec_choice	0.915627	16.000000	n/a	1	-1.640625e-01	-1.640625e-01
266.011020	0.915627	dec_social_accept	0.915627	16.000000	n/a	1	-1.662234e-01	-1.662234e-01
266.011020	0.915627	dec_accept	0.915627	16.000000	n/a	1	-1.630435e-01	-1.630435e-01
266.011020	0.915627	dec_social_accept_low	0.915627	16.000000	n/a	1	-1.640625e-01	-1.640625e-01
272.843050	0.850655	dec_nonsocial_choice	0.850655	16.000000	n/a	4	2.083333e-02	2.083333e-02
272.843050	0.850655	dec_choice	0.850655	16.000000	n/a	4	1.822917e-02	1.822917e-02
272.843050	0.850655	dec_nonsocial_accept	0.850655	16.000000	n/a	4	2.127660e-02	2.127660e-02
272.843050	0.850655	dec_accept	0.850655	16.000000	n/a	4	1.822917e-02	1.822917e-02
272.843050	0.850655	dec_nonsocial_high	0.850655	16.000000	n/a	4	1.822917e-02	1.822917e-02
272.843050	0.850655	dec_nonsocial_accept_high	0.850655	16.000000	n/a	4	1.822917e-02	1.822917e-02
280.493070	0.850240	dec_nonsocial_choice	0.850240	16.000000	n/a	8	2.708333e-01	2.708333e-01
280.493070	0.850240	dec_choice	0.850240	16.000000	n/a	8	2.682292e-01	2.682292e-01
280.493070	0.850240	dec_nonsocial_accept	0.850240	16.000000	n/a	8	2.712766e-01	2.712766e-01
280.493070	0.850240	dec_accept	0.850240	16.000000	n/a	8	2.682292e-01	2.682292e-01
280.493070	0.850240	dec_nonsocial_accept_high	0.850240	16.000000	n/a	8	2.744565e-01	2.744565e-01
288.126980	1.200069	dec_nonsocial_choice	1.200069	32.000000	n/a	2	-1.666667e-01	-1.666667e-01
288.126980	1.200069	dec_choice	1.200069	32.000000	n/a	2	-1.692708e-01	-1.692708e-01
288.126980	1.200069	dec_nonsocial_accept	1.200069	32.000000	n/a	2	-1.662234e-01	-1.662234e-01
288.126980	1.200069	dec_accept	1.200069	32.000000	n/a	2	-1.692708e-01	-1.692708e-01
288.126980	1.200069	dec_nonsocial_low	1.200069	32.000000	n/a	2	-1.692708e-01	-1.692708e-01
288.126980	1.200069	dec_nonsocial_accept_low	1.200069	32.000000	n/a	2	-1.692708e-01	-1.692708e-01
294.960140	1.266508	dec_social_choice	1.266508	32.000000	n/a	3	-1.354167e-01	-1.354167e-01
294.960140	1.266508	dec_choice	1.266508	32.000000	n/a	3	-1.328125e-01	-1.328125e-01
294.960140	1.266508	dec_social_accept	1.266508	32.000000	n/a	3	-1.349734e-01	-1.349734e-01
294.960140	1.266508	dec_accept	1.266508	32.000000	n/a	3	-1.317935e-01	-1.317935e-01
294.960140	1.266508	dec_social_low	1.266508	32.000000	n/a	3	-1.328125e-01	-1.328125e-01
294.960140	1.266508	dec_social_accept_low	1.266508	32.000000	n/a	3	-1.328125e-01	-1.328125e-01
304.228030	0.632086	dec_nonsocial_choice	0.632086	32.000000	n/a	16	2.708333e-01	2.708333e-01
304.228030	0.632086	dec_choice	0.632086	32.000000	n/a	16	2.682292e-01	2.682292e-01
304.228030	0.632086	dec_nonsocial_accept	0.632086	32.000000	n/a	16	2.712766e-01	2.712766e-01
304.228030	0.632086	dec_accept	0.632086	32.000000	n/a	16	2.682292e-01	2.682292e-01
304.228030	0.632086	dec_nonsocial_high	0.632086	32.000000	n/a	16	2.682292e-01	2.682292e-01
304.228030	0.632086	dec_nonsocial_accept_high	0.632086	32.000000	n/a	16	2.682292e-01	2.682292e-01
311.059080	0.901332	dec_social_choice	0.901332	32.000000	n/a	3	-1.354167e-01	-1.354167e-01
311.059080	0.901332	dec_choice	0.901332	32.000000	n/a	3	-1.328125e-01	-1.328125e-01
311.059080	0.901332	dec_social_accept	0.901332	32.000000	n/a	3	-1.349734e-01	-1.349734e-01
311.059080	0.901332	dec_accept	0.901332	32.000000	n/a	3	-1.317935e-01	-1.317935e-01
311.059080	0.901332	dec_social_low	0.901332	32.000000	n/a	3	-1.328125e-01	-1.328125e-01
311.059080	0.901332	dec_social_accept_low	0.901332	32.000000	n/a	3	-1.328125e-01	-1.328125e-01
317.893770	1.283133	dec_nonsocial_choice	1.283133	32.000000	n/a	16	2.708333e-01	2.708333e-01
317.893770	1.283133	dec_choice	1.283133	32.000000	n/a	16	2.682292e-01	2.682292e-01
317.893770	1.283133	dec_nonsocial_accept	1.283133	32.000000	n/a	16	2.712766e-01	2.712766e-01
317.893770	1.283133	dec_accept	1.283133	32.000000	n/a	16	2.682292e-01	2.682292e-01
317.893770	1.283133	dec_nonsocial_accept_high	1.283133	32.000000	n/a	16	2.744565e-01	2.744565e-01
325.543180	1.033457	dec_social_choice	1.033457	16.000000	n/a	8	2.708333e-01	2.708333e-01
325.543180	1.033457	dec_choice	1.033457	16.000000	n/a	8	2.734375e-01	2.734375e-01
325.543180	1.033457	dec_social_accept	1.033457	16.000000	n/a	8	2.712766e-01	2.712766e-01
325.543180	1.033457	dec_accept	1.033457	16.000000	n/a	8	2.744565e-01	2.744565e-01
325.543180	1.033457	dec_social_accept_high	1.033457	16.000000	n/a	8	2.734375e-01	2.734375e-01
333.193000	1.900410	dec_nonsocial_choice	1.900410	16.000000	n/a	1	-1.666667e-01	-1.666667e-01
333.193000	1.900410	dec_choice	1.900410	16.000000	n/a	1	-1.692708e-01	-1.692708e-01
333.193000	1.900410	dec_nonsocial_accept	1.900410	16.000000	n/a	1	-1.662234e-01	-1.662234e-01
333.193000	1.900410	dec_accept	1.900410	16.000000	n/a	1	-1.692708e-01	-1.692708e-01
333.193000	1.900410	dec_nonsocial_low	1.900410	16.000000	n/a	1	-1.692708e-01	-1.692708e-01
333.193000	1.900410	dec_nonsocial_accept_low	1.900410	16.000000	n/a	1	-1.692708e-01	-1.692708e-01
340.843080	0.800842	dec_nonsocial_choice	0.800842	16.000000	n/a	8	2.708333e-01	2.708333e-01
340.843080	0.800842	dec_choice	0.800842	16.000000	n/a	8	2.682292e-01	2.682292e-01
340.843080	0.800842	dec_nonsocial_accept	0.800842	16.000000	n/a	8	2.712766e-01	2.712766e-01
340.843080	0.800842	dec_accept	0.800842	16.000000	n/a	8	2.682292e-01	2.682292e-01
340.843080	0.800842	dec_nonsocial_high	0.800842	16.000000	n/a	8	2.682292e-01	2.682292e-01
340.843080	0.800842	dec_nonsocial_accept_high	0.800842	16.000000	n/a	8	2.682292e-01	2.682292e-01
348.492980	0.750628	dec_social_choice	0.750628	16.000000	n/a	8	2.708333e-01	2.708333e-01
348.492980	0.750628	dec_choice	0.750628	16.000000	n/a	8	2.734375e-01	2.734375e-01
348.492980	0.750628	dec_social_accept	0.750628	16.000000	n/a	8	2.712766e-01	2.712766e-01
348.492980	0.750628	dec_accept	0.750628	16.000000	n/a	8	2.744565e-01	2.744565e-01
348.492980	0.750628	dec_social_high	0.750628	16.000000	n/a	8	2.734375e-01	2.734375e-01
348.492980	0.750628	dec_social_accept_high	0.750628	16.000000	n/a	8	2.734375e-01	2.734375e-01
355.327000	0.816071	dec_social_choice	0.816071	32.000000	n/a	3	-1.354167e-01	-1.354167e-01
355.327000	0.816071	dec_choice	0.816071	32.000000	n/a	3	-1.328125e-01	-1.328125e-01
355.327000	0.816071	dec_social_accept	0.816071	32.000000	n/a	3	-1.349734e-01	-1.349734e-01
355.327000	0.816071	dec_accept	0.816071	32.000000	n/a	3	-1.317935e-01	-1.317935e-01
355.327000	0.816071	dec_social_low	0.816071	32.000000	n/a	3	-1.328125e-01	-1.328125e-01
355.327000	0.816071	dec_social_accept_low	0.816071	32.000000	n/a	3	-1.328125e-01	-1.328125e-01
366.193970	0.982714	dec_nonsocial_choice	0.982714	32.000000	n/a	8	2.083333e-02	2.083333e-02
366.193970	0.982714	dec_choice	0.982714	32.000000	n/a	8	1.822917e-02	1.822917e-02
366.193970	0.982714	dec_nonsocial_accept	0.982714	32.000000	n/a	8	2.127660e-02	2.127660e-02
366.193970	0.982714	dec_accept	0.982714	32.000000	n/a	8	1.822917e-02	1.822917e-02
366.193970	0.982714	dec_nonsocial_accept_high	0.982714	32.000000	n/a	8	2.445652e-02	2.445652e-02
373.026920	0.965786	dec_nonsocial_choice	0.965786	32.000000	n/a	8	2.083333e-02	2.083333e-02
373.026920	0.965786	dec_choice	0.965786	32.000000	n/a	8	1.822917e-02	1.822917e-02
373.026920	0.965786	dec_nonsocial_accept	0.965786	32.000000	n/a	8	2.127660e-02	2.127660e-02
373.026920	0.965786	dec_accept	0.965786	32.000000	n/a	8	1.822917e-02	1.822917e-02
373.026920	0.965786	dec_nonsocial_accept_high	0.965786	32.000000	n/a	8	2.445652e-02	2.445652e-02
