instrText,stimDoor,stimDoorLure,stimFace,stimFaceLure,Instructions.thisRepN,Instructions.thisTrialN,Instructions.thisN,Instructions.thisIndex,Trials.thisRepN,Trials.thisTrialN,Trials.thisN,Trials.thisIndex,Func,Keys,Text,RespTime,Onset,Offset,SystemTime_Start,SystemTime_Stop,Stim,Lure,Participant*,Age,date,expName,psychopyVersion,frameRate,
"In the earlier Feedback Games, you chose which doors contained a prize, and which peers liked you. 

You then saw positive or negative feedback (green check mark or red X) from the door or peer you selected.

You will now see a series of doors and peers, some of which you saw during the earlier Feedback Games, and some that you have never seen before.

Please press the spacebar to continue.",,,,,0,0,0,0,,,,,instrFunc,space,"In the earlier Feedback Games, you chose which doors contained a prize, and which peers liked you. 

You then saw positive or negative feedback (green check mark or red X) from the door or peer you selected.

You will now see a series of doors and peers, some of which you saw during the earlier Feedback Games, and some that you have never seen before.

Please press the spacebar to continue.",12.405726099968888,39.67253650003113,52.15320802037604,2023-12-22 14:50:29.160699,2023-12-22 14:50:41.631450,,,10866,70-89+,2023-12-22_14h50.25.563,Recall,2021.2.3,59.88038294244016,
"For doors/peers that you remember selecting and getting feedback from, your job is to RECALL what feedback you received. 

Press '1' if you recall positive feedback. 

Press '2' if you recall negative feedback

Press the spacebar to continue.",,,,,0,1,1,1,,,,,instrFunc,space,"For doors/peers that you remember selecting and getting feedback from, your job is to RECALL what feedback you received. 

Press '1' if you recall positive feedback. 

Press '2' if you recall negative feedback

Press the spacebar to continue.",19.823300499934703,52.11877290008124,71.99660972016864,2023-12-22 14:50:41.632450,2023-12-22 14:51:01.495213,,,10866,70-89+,2023-12-22_14h50.25.563,Recall,2021.2.3,59.88038294244016,
"For doors/peers that you don't remember getting feedback from, your job is to PREDICT what feedback you WOULD HAVE received.

Press '9' if you predict positive feedback.

Press '0' if you predict negative feedback. 

Please press the spacebar to continue.",,,,,0,2,2,2,,,,,instrFunc,space,"For doors/peers that you don't remember getting feedback from, your job is to PREDICT what feedback you WOULD HAVE received.

Press '9' if you predict positive feedback.

Press '0' if you predict negative feedback. 

Please press the spacebar to continue.",56.586344200070016,71.98775530001149,128.62592732009944,2023-12-22 14:51:01.496214,2023-12-22 14:51:58.120004,,,10866,70-89+,2023-12-22_14h50.25.563,Recall,2021.2.3,59.88038294244016,
"This task is self-paced, and the prompts will always stay on the screen so that you know which buttons to press.

On the next screen we will show you what those prompts look like, so that you know exactly what to expect. 

You will start with either doors or peers, and then switch halfway through. 

Please press the spacebar to continue.",,,,,0,3,3,3,,,,,instrFunc,space,"This task is self-paced, and the prompts will always stay on the screen so that you know which buttons to press.

On the next screen we will show you what those prompts look like, so that you know exactly what to expect. 

You will start with either doors or peers, and then switch halfway through. 

Please press the spacebar to continue.",15.08112629991956,128.6052918001078,143.7309633201221,2023-12-22 14:51:58.121030,2023-12-22 14:52:13.231885,,,10866,70-89+,2023-12-22_14h50.25.563,Recall,2021.2.3,59.88038294244016,
,,,,,,,,,,,,,imgtextFunc,space,"Here is what the screen will look like while you make your ratings.
The green circles remind you to press 1 or 9 for positive feedback.
The red circles remind you to press 2 or 0 for negative feedback.









Please let the experimenter know if you have any questions.

Whenever you're ready, press the spacebar to start the task.",32.178876199992374,143.87550160009414,176.24482552008703,2023-12-22 14:52:13.241860,2023-12-22 14:52:45.606062,,,10866,70-89+,2023-12-22_14h50.25.563,Recall,2021.2.3,59.88038294244016,
,SD002.jpg,0,MF002.jpg,0,,,,,0,0,0,51,imgFunc,2,NA,6.749334400054067,176.24111719999928,183.14305295993108,2023-12-22 14:52:45.648323,2023-12-22 14:52:52.543799,MF002.jpg,0,10866,70-89+,2023-12-22_14h50.25.563,Recall,2021.2.3,59.88038294244016,
,L_SD508.jpg,1,L_MF508.jpg,1,,,,,0,1,1,97,imgFunc,1,NA,2.989744700025767,183.1205587000586,186.2346918201074,2023-12-22 14:52:52.554800,2023-12-22 14:52:55.663067,L_MF508.jpg,1,10866,70-89+,2023-12-22_14h50.25.563,Recall,2021.2.3,59.88038294244016,
,SD006.jpg,0,MF006.jpg,0,,,,,0,2,2,55,imgFunc,0,NA,10.495767500018701,186.2145967000397,196.80710872006603,2023-12-22 14:52:55.670050,2023-12-22 14:53:06.254088,MF006.jpg,0,10866,70-89+,2023-12-22_14h50.25.563,Recall,2021.2.3,59.88038294244016,
,SD035.jpg,0,MF035.jpg,0,,,,,0,3,3,84,imgFunc,1,NA,5.04808590002358,196.83823670004494,202.00995742005762,2023-12-22 14:53:06.270047,2023-12-22 14:53:11.441250,MF035.jpg,0,10866,70-89+,2023-12-22_14h50.25.563,Recall,2021.2.3,59.88038294244016,
,SD025.jpg,0,MF025.jpg,0,,,,,0,4,4,74,imgFunc,1,NA,2.8074655999662355,201.99893360002898,204.9155459200265,2023-12-22 14:53:11.450229,2023-12-22 14:53:14.359869,MF025.jpg,0,10866,70-89+,2023-12-22_14h50.25.563,Recall,2021.2.3,59.88038294244016,
,DD020.jpg,0,FF020.jpg,0,,,,,0,5,5,19,imgFunc,1,NA,7.131016399944201,204.90728710009716,212.14719012007117,2023-12-22 14:53:14.366852,2023-12-22 14:53:21.598585,FF020.jpg,0,10866,70-89+,2023-12-22_14h50.25.563,Recall,2021.2.3,59.88038294244016,
,DD031.jpg,0,FF031.jpg,0,,,,,0,6,6,30,imgFunc,2,NA,3.3731337999925017,212.16134140000213,215.6453373200493,2023-12-22 14:53:21.607563,2023-12-22 14:53:25.084303,FF031.jpg,0,10866,70-89+,2023-12-22_14h50.25.563,Recall,2021.2.3,59.88038294244016,
,SD013.jpg,0,MF013.jpg,0,,,,,0,7,7,62,imgFunc,1,NA,1.8428258000640199,215.643589500105,217.58452512009535,2023-12-22 14:53:25.097272,2023-12-22 14:53:27.035853,MF013.jpg,0,10866,70-89+,2023-12-22_14h50.25.563,Recall,2021.2.3,59.88038294244016,
,DD032.jpg,0,FF032.jpg,0,,,,,0,8,8,31,imgFunc,2,NA,1.2003818999510258,217.58177440008149,218.88441762002185,2023-12-22 14:53:27.042836,2023-12-22 14:53:28.336778,FF032.jpg,0,10866,70-89+,2023-12-22_14h50.25.563,Recall,2021.2.3,59.88038294244016,
,L_DD510.jpg,1,L_FF510.jpg,1,,,,,0,9,9,49,imgFunc,2,NA,1.705139100085944,218.89326840010472,220.71097432007082,2023-12-22 14:53:28.344760,2023-12-22 14:53:30.154758,L_FF510.jpg,1,10866,70-89+,2023-12-22_14h50.25.563,Recall,2021.2.3,59.88038294244016,
,SD034.jpg,0,MF034.jpg,0,,,,,0,10,10,83,imgFunc,1,NA,1.4807843999005854,220.70168540009763,222.28660882019904,2023-12-22 14:53:30.162740,2023-12-22 14:53:31.739252,MF034.jpg,0,10866,70-89+,2023-12-22_14h50.25.563,Recall,2021.2.3,59.88038294244016,
,L_SD503.jpg,1,L_MF503.jpg,1,,,,,0,11,11,92,imgFunc,2,NA,3.7531284999568015,222.29301180003677,226.1477080200566,2023-12-22 14:53:31.746235,2023-12-22 14:53:35.592324,L_MF503.jpg,1,10866,70-89+,2023-12-22_14h50.25.563,Recall,2021.2.3,59.88038294244016,
,DD016.jpg,0,FF016.jpg,0,,,,,0,12,12,15,imgFunc,1,NA,1.7959715999895707,226.16234260005876,228.06420632009394,2023-12-22 14:53:35.608256,2023-12-22 14:53:37.510136,FF016.jpg,0,10866,70-89+,2023-12-22_14h50.25.563,Recall,2021.2.3,59.88038294244016,
,DD018.jpg,0,FF018.jpg,0,,,,,0,13,13,17,imgFunc,2,NA,1.5546846999786794,228.05176100006793,229.70498892012984,2023-12-22 14:53:37.517119,2023-12-22 14:53:39.161694,FF018.jpg,0,10866,70-89+,2023-12-22_14h50.25.563,Recall,2021.2.3,59.88038294244016,
,SD027.jpg,0,MF027.jpg,0,,,,,0,14,14,76,imgFunc,1,NA,1.2617961999494582,229.71255240007304,231.08213082002476,2023-12-22 14:53:39.168677,2023-12-22 14:53:40.528910,MF027.jpg,0,10866,70-89+,2023-12-22_14h50.25.563,Recall,2021.2.3,59.88038294244016,
,L_DD506.jpg,1,L_FF506.jpg,1,,,,,0,15,15,45,imgFunc,2,NA,1.8233970999717712,231.08702150010504,233.0235189201776,2023-12-22 14:53:40.535893,2023-12-22 14:53:42.463825,L_FF506.jpg,1,10866,70-89+,2023-12-22_14h50.25.563,Recall,2021.2.3,59.88038294244016,
,L_SD509.jpg,1,L_MF509.jpg,1,,,,,0,16,16,98,imgFunc,1,NA,2.430684700026177,233.0155707000522,235.5526253200369,2023-12-22 14:53:42.470808,2023-12-22 14:53:44.998976,L_MF509.jpg,1,10866,70-89+,2023-12-22_14h50.25.563,Recall,2021.2.3,59.88038294244016,
,SD001.jpg,0,MF001.jpg,0,,,,,0,17,17,50,imgFunc,0,NA,4.665946300025098,235.55621780001093,240.31230872008018,2023-12-22 14:53:45.013938,2023-12-22 14:53:49.768468,MF001.jpg,0,10866,70-89+,2023-12-22_14h50.25.563,Recall,2021.2.3,59.88038294244016,
,DD002.jpg,0,FF002.jpg,0,,,,,0,18,18,1,imgFunc,1,NA,3.846378799993545,240.31998280005064,244.2686975200195,2023-12-22 14:53:49.779468,2023-12-22 14:53:53.721787,FF002.jpg,0,10866,70-89+,2023-12-22_14h50.25.563,Recall,2021.2.3,59.88038294244016,
,SD029.jpg,0,MF029.jpg,0,,,,,0,19,19,78,imgFunc,0,NA,5.214777400018647,244.27159610006493,249.5932554199826,2023-12-22 14:53:53.729791,2023-12-22 14:53:59.042499,MF029.jpg,0,10866,70-89+,2023-12-22_14h50.25.563,Recall,2021.2.3,59.88038294244016,
,L_SD501.jpg,1,L_MF501.jpg,1,,,,,0,20,20,90,imgFunc,9,NA,4.394149600062519,249.61208320001606,254.13007362000644,2023-12-22 14:53:59.051355,2023-12-22 14:54:03.562471,L_MF501.jpg,1,10866,70-89+,2023-12-22_14h50.25.563,Recall,2021.2.3,59.88038294244016,
,DD038.jpg,0,FF038.jpg,0,,,,,0,21,21,37,imgFunc,0,NA,7.292236000066623,254.13828500011005,261.55960542010143,2023-12-22 14:54:03.570455,2023-12-22 14:54:10.984584,FF038.jpg,0,10866,70-89+,2023-12-22_14h50.25.563,Recall,2021.2.3,59.88038294244016,
,SD019.jpg,0,MF019.jpg,0,,,,,0,22,22,68,imgFunc,1,NA,2.7842067000456154,261.534218100016,264.4176623200765,2023-12-22 14:54:10.993562,2023-12-22 14:54:13.870058,MF019.jpg,0,10866,70-89+,2023-12-22_14h50.25.563,Recall,2021.2.3,59.88038294244016,
,SD017.jpg,0,MF017.jpg,0,,,,,0,23,23,66,imgFunc,1,NA,1.5532840999076143,264.4209837000817,266.0728013202315,2023-12-22 14:54:13.878038,2023-12-22 14:54:15.521370,MF017.jpg,0,10866,70-89+,2023-12-22_14h50.25.563,Recall,2021.2.3,59.88038294244016,
,L_SD504.jpg,1,L_MF504.jpg,1,,,,,0,24,24,93,imgFunc,1,NA,5.133228000020608,266.08923930011224,271.34284812025726,2023-12-22 14:54:15.529350,2023-12-22 14:54:20.775269,L_MF504.jpg,1,10866,70-89+,2023-12-22_14h50.25.563,Recall,2021.2.3,59.88038294244016,
,DD037.jpg,0,FF037.jpg,0,,,,,0,25,25,36,imgFunc,0,NA,2.395751800038852,271.3546889000572,273.88501192012336,2023-12-22 14:54:20.785244,2023-12-22 14:54:23.310127,FF037.jpg,0,10866,70-89+,2023-12-22_14h50.25.563,Recall,2021.2.3,59.88038294244016,
,DD024.jpg,0,FF024.jpg,0,,,,,0,26,26,23,imgFunc,0,NA,0.8405388999963179,273.8698658000212,274.80768102011643,2023-12-22 14:54:23.325089,2023-12-22 14:54:24.261021,FF024.jpg,0,10866,70-89+,2023-12-22_14h50.25.563,Recall,2021.2.3,59.88038294244016,
,DD023.jpg,0,FF023.jpg,0,,,,,0,27,27,22,imgFunc,0,NA,1.569323500036262,274.80516260000877,276.4749800200807,2023-12-22 14:54:24.268004,2023-12-22 14:54:25.928808,FF023.jpg,0,10866,70-89+,2023-12-22_14h50.25.563,Recall,2021.2.3,59.88038294244016,
,DD040.jpg,0,FF040.jpg,0,,,,,0,28,28,39,imgFunc,2,NA,5.445366199943237,276.47302480007056,282.01261532027274,2023-12-22 14:54:25.935791,2023-12-22 14:54:31.466477,FF040.jpg,0,10866,70-89+,2023-12-22_14h50.25.563,Recall,2021.2.3,59.88038294244016,
,SD032.jpg,0,MF032.jpg,0,,,,,0,29,29,81,imgFunc,1,NA,1.4344832000788301,282.0199524000054,283.55208421999123,2023-12-22 14:54:31.475455,2023-12-22 14:54:33.001110,MF032.jpg,0,10866,70-89+,2023-12-22_14h50.25.563,Recall,2021.2.3,59.88038294244016,
,SD020.jpg,0,MF020.jpg,0,,,,,0,30,30,69,imgFunc,1,NA,1.8561165999853984,283.55015840008855,285.5025101201609,2023-12-22 14:54:33.008094,2023-12-22 14:54:34.951681,MF020.jpg,0,10866,70-89+,2023-12-22_14h50.25.563,Recall,2021.2.3,59.88038294244016,
,SD031.jpg,0,MF031.jpg,0,,,,,0,31,31,80,imgFunc,9,NA,3.272599400021136,285.5176814000588,288.8871259201551,2023-12-22 14:54:34.968661,2023-12-22 14:54:38.338066,MF031.jpg,0,10866,70-89+,2023-12-22_14h50.25.563,Recall,2021.2.3,59.88038294244016,
,L_SD502.jpg,1,L_MF502.jpg,1,,,,,0,32,32,91,imgFunc,0,NA,2.2226067000301555,288.88783320004586,291.20677902013995,2023-12-22 14:54:38.346046,2023-12-22 14:54:40.655802,L_MF502.jpg,1,10866,70-89+,2023-12-22_14h50.25.563,Recall,2021.2.3,59.88038294244016,
,L_SD510.jpg,1,L_MF510.jpg,1,,,,,0,33,33,99,imgFunc,0,NA,6.28415209997911,291.2023268000921,297.59165792015847,2023-12-22 14:54:40.663806,2023-12-22 14:54:47.044355,L_MF510.jpg,1,10866,70-89+,2023-12-22_14h50.25.563,Recall,2021.2.3,59.88038294244016,
,DD036.jpg,0,FF036.jpg,0,,,,,0,34,34,35,imgFunc,1,NA,2.424097300041467,297.6144041001098,300.1644342201762,2023-12-22 14:54:47.053333,2023-12-22 14:54:49.596507,FF036.jpg,0,10866,70-89+,2023-12-22_14h50.25.563,Recall,2021.2.3,59.88038294244016,
,DD010.jpg,0,FF010.jpg,0,,,,,0,35,35,9,imgFunc,2,NA,1.958449799916707,300.1598385000834,302.22966492001433,2023-12-22 14:54:49.603490,2023-12-22 14:54:51.664771,FF010.jpg,0,10866,70-89+,2023-12-22_14h50.25.563,Recall,2021.2.3,59.88038294244016,
,DD028.jpg,0,FF028.jpg,0,,,,,0,36,36,27,imgFunc,2,NA,3.5784795000217855,302.212014400051,305.89830242004246,2023-12-22 14:54:51.672752,2023-12-22 14:54:55.350329,FF028.jpg,0,10866,70-89+,2023-12-22_14h50.25.563,Recall,2021.2.3,59.88038294244016,
,DD030.jpg,0,FF030.jpg,0,,,,,0,37,37,29,imgFunc,0,NA,2.9012532000197098,305.89687260007486,308.9003545200685,2023-12-22 14:54:55.357313,2023-12-22 14:54:58.352623,FF030.jpg,0,10866,70-89+,2023-12-22_14h50.25.563,Recall,2021.2.3,59.88038294244016,
,DD027.jpg,0,FF027.jpg,0,,,,,0,38,38,26,imgFunc,9,NA,3.541228099958971,308.9053240000503,312.557782519958,2023-12-22 14:54:58.360604,2023-12-22 14:55:02.005448,FF027.jpg,0,10866,70-89+,2023-12-22_14h50.25.563,Recall,2021.2.3,59.88038294244016,
,L_DD508.jpg,1,L_FF508.jpg,1,,,,,0,39,39,47,imgFunc,0,NA,2.9455339000560343,312.5647202000255,315.6181307199877,2023-12-22 14:55:02.012431,2023-12-22 14:55:05.057150,L_FF508.jpg,1,10866,70-89+,2023-12-22_14h50.25.563,Recall,2021.2.3,59.88038294244016,
,DD006.jpg,0,FF006.jpg,0,,,,,0,40,40,5,imgFunc,2,NA,7.6548680000705644,315.6156008000253,323.37603611999657,2023-12-22 14:55:05.071113,2023-12-22 14:55:12.829805,FF006.jpg,0,10866,70-89+,2023-12-22_14h50.25.563,Recall,2021.2.3,59.88038294244016,
,SD039.jpg,0,MF039.jpg,0,,,,,0,41,41,88,imgFunc,1,NA,1.6911806999705732,323.3793821000727,325.1788118201075,2023-12-22 14:55:12.838789,2023-12-22 14:55:14.631201,MF039.jpg,0,10866,70-89+,2023-12-22_14h50.25.563,Recall,2021.2.3,59.88038294244016,
,DD026.jpg,0,FF026.jpg,0,,,,,0,42,42,25,imgFunc,1,NA,1.8425302999094129,325.1796063000802,327.132534320117,2023-12-22 14:55:14.638184,2023-12-22 14:55:16.582680,FF026.jpg,0,10866,70-89+,2023-12-22_14h50.25.563,Recall,2021.2.3,59.88038294244016,
,DD009.jpg,0,FF009.jpg,0,,,,,0,43,43,8,imgFunc,0,NA,4.678159900009632,327.14429670001846,331.93271742004436,2023-12-22 14:55:16.589663,2023-12-22 14:55:21.369594,FF009.jpg,0,10866,70-89+,2023-12-22_14h50.25.563,Recall,2021.2.3,59.88038294244016,
,SD028.jpg,0,MF028.jpg,0,,,,,0,44,44,77,imgFunc,1,NA,4.289913700078614,331.9327187000308,336.33266711991746,2023-12-22 14:55:21.379570,2023-12-22 14:55:25.773013,MF028.jpg,0,10866,70-89+,2023-12-22_14h50.25.563,Recall,2021.2.3,59.88038294244016,
,SD038.jpg,0,MF038.jpg,0,,,,,0,45,45,87,imgFunc,9,NA,3.109268100000918,336.3449653000571,339.5662488201633,2023-12-22 14:55:25.787975,2023-12-22 14:55:29.008192,MF038.jpg,0,10866,70-89+,2023-12-22_14h50.25.563,Recall,2021.2.3,59.88038294244016,
,SD018.jpg,0,MF018.jpg,0,,,,,0,46,46,67,imgFunc,0,NA,3.3727988000027835,339.55348820006475,343.0237970201997,2023-12-22 14:55:29.016172,2023-12-22 14:55:32.477730,MF018.jpg,0,10866,70-89+,2023-12-22_14h50.25.563,Recall,2021.2.3,59.88038294244016,
,L_DD507.jpg,1,L_FF507.jpg,1,,,,,0,47,47,46,imgFunc,0,NA,2.4794769999571145,343.0310787000926,345.6172034201445,2023-12-22 14:55:32.484713,2023-12-22 14:55:35.062683,L_FF507.jpg,1,10866,70-89+,2023-12-22_14h50.25.563,Recall,2021.2.3,59.88038294244016,
,L_DD505.jpg,1,L_FF505.jpg,1,,,,,0,48,48,44,imgFunc,2,NA,5.23712990002241,345.61724890000187,350.97188652004115,2023-12-22 14:55:35.070685,2023-12-22 14:55:40.416582,L_FF505.jpg,1,10866,70-89+,2023-12-22_14h50.25.563,Recall,2021.2.3,59.88038294244016,
,L_SD505.jpg,1,L_MF505.jpg,1,,,,,0,49,49,94,imgFunc,1,NA,1.2636279000435024,350.99092250003014,352.3900534200948,2023-12-22 14:55:40.425561,2023-12-22 14:55:41.817835,L_MF505.jpg,1,10866,70-89+,2023-12-22_14h50.25.563,Recall,2021.2.3,59.88038294244016,
,DD005.jpg,0,FF005.jpg,0,,,,,0,50,50,4,imgFunc,9,NA,3.0482933999737725,352.3660479000537,355.5187285201391,2023-12-22 14:55:41.825816,2023-12-22 14:55:44.970124,FF005.jpg,0,10866,70-89+,2023-12-22_14h50.25.563,Recall,2021.2.3,59.88038294244016,
,SD007.jpg,0,MF007.jpg,0,,,,,0,51,51,56,imgFunc,1,NA,4.606540099950507,355.51202870009,360.21684392006136,2023-12-22 14:55:44.977136,2023-12-22 14:55:49.673630,MF007.jpg,0,10866,70-89+,2023-12-22_14h50.25.563,Recall,2021.2.3,59.88038294244016,
,DD012.jpg,0,FF012.jpg,0,,,,,0,52,52,11,imgFunc,0,NA,2.3720414999406785,360.22648090007715,362.70813182007987,2023-12-22 14:55:49.683624,2023-12-22 14:55:52.158675,FF012.jpg,0,10866,70-89+,2023-12-22_14h50.25.563,Recall,2021.2.3,59.88038294244016,
,L_DD501.jpg,1,L_FF501.jpg,1,,,,,0,53,53,40,imgFunc,0,NA,1.1116275999229401,362.71886890009046,363.950774920173,2023-12-22 14:55:52.167684,2023-12-22 14:55:53.392807,L_FF501.jpg,1,10866,70-89+,2023-12-22_14h50.25.563,Recall,2021.2.3,59.88038294244016,
,SD011.jpg,0,MF011.jpg,0,,,,,0,54,54,60,imgFunc,9,NA,1.6995388999348506,363.9549232000718,365.7579774202313,2023-12-22 14:55:53.408277,2023-12-22 14:55:55.210904,MF011.jpg,0,10866,70-89+,2023-12-22_14h50.25.563,Recall,2021.2.3,59.88038294244016,
,L_SD506.jpg,1,L_MF506.jpg,1,,,,,0,55,55,95,imgFunc,0,NA,2.077642400050536,365.75282700010575,367.9229610201437,2023-12-22 14:55:55.217887,2023-12-22 14:55:57.379432,L_MF506.jpg,1,10866,70-89+,2023-12-22_14h50.25.563,Recall,2021.2.3,59.88038294244016,
,SD036.jpg,0,MF036.jpg,0,,,,,0,56,56,85,imgFunc,2,NA,7.675037999986671,367.92351390002295,375.6973208200652,2023-12-22 14:55:57.386416,2023-12-22 14:56:05.151230,MF036.jpg,0,10866,70-89+,2023-12-22_14h50.25.563,Recall,2021.2.3,59.88038294244016,
,L_DD503.jpg,1,L_FF503.jpg,1,,,,,0,57,57,42,imgFunc,2,NA,1.6777911999961361,375.72070670011453,377.5193912201794,2023-12-22 14:56:05.160811,2023-12-22 14:56:06.952890,L_FF503.jpg,1,10866,70-89+,2023-12-22_14h50.25.563,Recall,2021.2.3,59.88038294244016,
,L_DD509.jpg,1,L_FF509.jpg,1,,,,,0,58,58,48,imgFunc,0,NA,4.600957199931145,377.50161540007684,382.2067708201939,2023-12-22 14:56:06.959873,2023-12-22 14:56:11.656273,L_FF509.jpg,1,10866,70-89+,2023-12-22_14h50.25.563,Recall,2021.2.3,59.88038294244016,
,DD013.jpg,0,FF013.jpg,0,,,,,0,59,59,12,imgFunc,0,NA,1.5923700999701396,382.2300815000199,383.9464733400382,2023-12-22 14:56:11.673246,2023-12-22 14:56:13.374197,FF013.jpg,0,10866,70-89+,2023-12-22_14h50.25.563,Recall,2021.2.3,59.88038294244016,
,DD039.jpg,0,FF039.jpg,0,,,,,0,60,60,38,imgFunc,9,NA,1.8493829000508413,383.92525590001605,385.8779465201078,2023-12-22 14:56:13.381180,2023-12-22 14:56:15.325663,FF039.jpg,0,10866,70-89+,2023-12-22_14h50.25.563,Recall,2021.2.3,59.88038294244016,
,SD016.jpg,0,MF016.jpg,0,,,,,0,61,61,65,imgFunc,1,NA,1.8549769999226555,385.87129620008636,387.82343462016433,2023-12-22 14:56:15.332669,2023-12-22 14:56:17.276147,MF016.jpg,0,10866,70-89+,2023-12-22_14h50.25.563,Recall,2021.2.3,59.88038294244016,
,DD015.jpg,0,FF015.jpg,0,,,,,0,62,62,14,imgFunc,1,NA,1.495199600001797,387.81531299999915,389.4014513200382,2023-12-22 14:56:17.284126,2023-12-22 14:56:18.861544,FF015.jpg,0,10866,70-89+,2023-12-22_14h50.25.563,Recall,2021.2.3,59.88038294244016,
,SD004.jpg,0,MF004.jpg,0,,,,,0,63,63,53,imgFunc,1,NA,1.2489008998963982,389.4133725001011,390.7666750201024,2023-12-22 14:56:18.868527,2023-12-22 14:56:20.212788,MF004.jpg,0,10866,70-89+,2023-12-22_14h50.25.563,Recall,2021.2.3,59.88038294244016,
,DD022.jpg,0,FF022.jpg,0,,,,,0,64,64,21,imgFunc,9,NA,4.658332400023937,390.75619070010725,395.51136612019036,2023-12-22 14:56:20.219771,2023-12-22 14:56:24.966332,FF022.jpg,0,10866,70-89+,2023-12-22_14h50.25.563,Recall,2021.2.3,59.88038294244016,
,DD025.jpg,0,FF025.jpg,0,,,,,0,65,65,24,imgFunc,2,NA,3.7358180000446737,395.5185783000197,399.3698313201312,2023-12-22 14:56:24.974301,2023-12-22 14:56:28.818778,FF025.jpg,0,10866,70-89+,2023-12-22_14h50.25.563,Recall,2021.2.3,59.88038294244016,
,DD014.jpg,0,FF014.jpg,0,,,,,0,66,66,13,imgFunc,2,NA,3.2390675001079217,399.3595121001126,402.6969659200404,2023-12-22 14:56:28.825761,2023-12-22 14:56:32.154543,FF014.jpg,0,10866,70-89+,2023-12-22_14h50.25.563,Recall,2021.2.3,59.88038294244016,
,SD014.jpg,0,MF014.jpg,0,,,,,0,67,67,63,imgFunc,1,NA,1.207555599976331,402.7030508000171,404.02244292013347,2023-12-22 14:56:32.161526,2023-12-22 14:56:33.472393,MF014.jpg,0,10866,70-89+,2023-12-22_14h50.25.563,Recall,2021.2.3,59.88038294244016,
,DD021.jpg,0,FF021.jpg,0,,,,,0,68,68,20,imgFunc,0,NA,3.1300360000459477,404.0365876000142,407.27857552003115,2023-12-22 14:56:33.485362,2023-12-22 14:56:36.724471,FF021.jpg,0,10866,70-89+,2023-12-22_14h50.25.563,Recall,2021.2.3,59.88038294244016,
,DD029.jpg,0,FF029.jpg,0,,,,,0,69,69,28,imgFunc,0,NA,0.863186200032942,407.2711680000648,408.24030012008734,2023-12-22 14:56:36.732477,2023-12-22 14:56:37.692582,FF029.jpg,0,10866,70-89+,2023-12-22_14h50.25.563,Recall,2021.2.3,59.88038294244016,
,DD008.jpg,0,FF008.jpg,0,,,,,0,70,70,7,imgFunc,9,NA,3.5005430000601336,408.234104400035,411.837977420073,2023-12-22 14:56:37.699565,2023-12-22 14:56:41.294685,FF008.jpg,0,10866,70-89+,2023-12-22_14h50.25.563,Recall,2021.2.3,59.88038294244016,
,SD040.jpg,0,MF040.jpg,0,,,,,0,71,71,89,imgFunc,0,NA,3.012584300013259,411.83408410008997,414.937651220127,2023-12-22 14:56:41.301668,2023-12-22 14:56:44.397249,MF040.jpg,0,10866,70-89+,2023-12-22_14h50.25.563,Recall,2021.2.3,59.88038294244016,
,SD026.jpg,0,MF026.jpg,0,,,,,0,72,72,75,imgFunc,1,NA,1.4133333000354469,414.9452828000067,416.46443032007664,2023-12-22 14:56:44.404233,2023-12-22 14:56:45.914627,MF026.jpg,0,10866,70-89+,2023-12-22_14h50.25.563,Recall,2021.2.3,59.88038294244016,
,DD034.jpg,0,FF034.jpg,0,,,,,0,73,73,33,imgFunc,2,NA,2.464333300013095,416.47828970011324,419.0503406202188,2023-12-22 14:56:45.929589,2023-12-22 14:56:48.499732,FF034.jpg,0,10866,70-89+,2023-12-22_14h50.25.563,Recall,2021.2.3,59.88038294244016,
,DD004.jpg,0,FF004.jpg,0,,,,,0,74,74,3,imgFunc,0,NA,4.779340600012802,419.0429551000707,423.93023082008585,2023-12-22 14:56:48.507710,2023-12-22 14:56:53.386911,FF004.jpg,0,10866,70-89+,2023-12-22_14h50.25.563,Recall,2021.2.3,59.88038294244016,
,L_SD507.jpg,1,L_MF507.jpg,1,,,,,0,75,75,96,imgFunc,0,NA,2.990245799999684,423.928054900025,427.011068420019,2023-12-22 14:56:53.395925,2023-12-22 14:56:56.471719,L_MF507.jpg,1,10866,70-89+,2023-12-22_14h50.25.563,Recall,2021.2.3,59.88038294244016,
,SD008.jpg,0,MF008.jpg,0,,,,,0,76,76,57,imgFunc,1,NA,1.1355242000427097,427.022979500005,428.27379762008786,2023-12-22 14:56:56.480695,2023-12-22 14:56:57.723246,MF008.jpg,0,10866,70-89+,2023-12-22_14h50.25.563,Recall,2021.2.3,59.88038294244016,
,DD019.jpg,0,FF019.jpg,0,,,,,0,77,77,18,imgFunc,9,NA,4.464204800082371,428.29433960001916,432.88144492008723,2023-12-22 14:56:57.731227,2023-12-22 14:57:02.309986,FF019.jpg,0,10866,70-89+,2023-12-22_14h50.25.563,Recall,2021.2.3,59.88038294244016,
,DD011.jpg,0,FF011.jpg,0,,,,,0,78,78,10,imgFunc,9,NA,2.589791699894704,432.8566809000913,435.5428943200968,2023-12-22 14:57:02.317967,2023-12-22 14:57:04.994942,FF011.jpg,0,10866,70-89+,2023-12-22_14h50.25.563,Recall,2021.2.3,59.88038294244016,
,SD024.jpg,0,MF024.jpg,0,,,,,0,79,79,73,imgFunc,2,NA,5.138573299976997,435.54001810005866,440.77791632001754,2023-12-22 14:57:05.002945,2023-12-22 14:57:10.232602,MF024.jpg,0,10866,70-89+,2023-12-22_14h50.25.563,Recall,2021.2.3,59.88038294244016,
,DD001.jpg,0,FF001.jpg,0,,,,,0,80,80,0,imgFunc,0,NA,6.145424399990588,440.7892988000531,447.04133902012836,2023-12-22 14:57:10.241580,2023-12-22 14:57:16.487031,FF001.jpg,0,10866,70-89+,2023-12-22_14h50.25.563,Recall,2021.2.3,59.88038294244016,
,SD015.jpg,0,MF015.jpg,0,,,,,0,81,81,64,imgFunc,9,NA,5.209299299982376,447.0532987000188,452.3878572200192,2023-12-22 14:57:16.496008,2023-12-22 14:57:21.824499,MF015.jpg,0,10866,70-89+,2023-12-22_14h50.25.563,Recall,2021.2.3,59.88038294244016,
,DD007.jpg,0,FF007.jpg,0,,,,,0,82,82,6,imgFunc,9,NA,3.1091899999883026,452.3854391000932,455.60477842006367,2023-12-22 14:57:21.840463,2023-12-22 14:57:25.060031,FF007.jpg,0,10866,70-89+,2023-12-22_14h50.25.563,Recall,2021.2.3,59.88038294244016,
,SD009.jpg,0,MF009.jpg,0,,,,,0,83,83,58,imgFunc,1,NA,1.083153499988839,455.6034078000812,456.78796832007356,2023-12-22 14:57:25.068012,2023-12-22 14:57:26.244281,MF009.jpg,0,10866,70-89+,2023-12-22_14h50.25.563,Recall,2021.2.3,59.88038294244016,
,DD035.jpg,0,FF035.jpg,0,,,,,0,84,84,34,imgFunc,2,NA,7.813008800032549,456.7932881000452,464.7168966201134,2023-12-22 14:57:26.251264,2023-12-22 14:57:34.165994,FF035.jpg,0,10866,70-89+,2023-12-22_14h50.25.563,Recall,2021.2.3,59.88038294244016,
,SD022.jpg,0,MF022.jpg,0,,,,,0,85,85,71,imgFunc,9,NA,2.2453244999051094,464.7453324000817,467.1290489201201,2023-12-22 14:57:34.174955,2023-12-22 14:57:36.551542,MF022.jpg,0,10866,70-89+,2023-12-22_14h50.25.563,Recall,2021.2.3,59.88038294244016,
,SD033.jpg,0,MF033.jpg,0,,,,,0,86,86,82,imgFunc,9,NA,1.7298684000270441,467.1086117000086,468.9608561201021,2023-12-22 14:57:36.559548,2023-12-22 14:57:38.403064,MF033.jpg,0,10866,70-89+,2023-12-22_14h50.25.563,Recall,2021.2.3,59.88038294244016,
,DD017.jpg,0,FF017.jpg,0,,,,,0,87,87,16,imgFunc,0,NA,0.3539213000331074,468.96454510011245,469.418069220148,2023-12-22 14:57:38.418026,2023-12-22 14:57:38.870197,FF017.jpg,0,10866,70-89+,2023-12-22_14h50.25.563,Recall,2021.2.3,59.88038294244016,
,DD003.jpg,0,FF003.jpg,0,,,,,0,88,88,2,imgFunc,0,NA,1.9646684000035748,469.40991810010746,471.4797946200706,2023-12-22 14:57:38.877180,2023-12-22 14:57:40.938281,FF003.jpg,0,10866,70-89+,2023-12-22_14h50.25.563,Recall,2021.2.3,59.88038294244016,
,SD012.jpg,0,MF012.jpg,0,,,,,0,89,89,61,imgFunc,0,NA,0.03884960000868887,471.47985960007645,471.61511742009316,2023-12-22 14:57:40.945264,2023-12-22 14:57:41.071483,MF012.jpg,0,10866,70-89+,2023-12-22_14h50.25.563,Recall,2021.2.3,59.88038294244016,
,SD005.jpg,0,MF005.jpg,0,,,,,0,90,90,54,imgFunc,1,NA,2.602967099985108,471.61959200003184,474.3228443200933,2023-12-22 14:57:41.079486,2023-12-22 14:57:43.773722,MF005.jpg,0,10866,70-89+,2023-12-22_14h50.25.563,Recall,2021.2.3,59.88038294244016,
,SD003.jpg,0,MF003.jpg,0,,,,,0,91,91,52,imgFunc,1,NA,0.8028586999280378,474.3316642000573,475.250400620047,2023-12-22 14:57:43.780705,2023-12-22 14:57:44.690989,MF003.jpg,0,10866,70-89+,2023-12-22_14h50.25.563,Recall,2021.2.3,59.88038294244016,
,L_DD502.jpg,1,L_FF502.jpg,1,,,,,0,92,92,41,imgFunc,0,NA,4.464309600065462,475.2302022000076,479.7851307201199,2023-12-22 14:57:44.697972,2023-12-22 14:57:49.244139,L_FF502.jpg,1,10866,70-89+,2023-12-22_14h50.25.563,Recall,2021.2.3,59.88038294244016,
,L_DD504.jpg,1,L_FF504.jpg,1,,,,,0,93,93,43,imgFunc,0,NA,1.6773129000794142,479.80117030011024,481.58053612022195,2023-12-22 14:57:49.255091,2023-12-22 14:57:51.028946,L_FF504.jpg,1,10866,70-89+,2023-12-22_14h50.25.563,Recall,2021.2.3,59.88038294244016,
,SD010.jpg,0,MF010.jpg,0,,,,,0,94,94,59,imgFunc,0,NA,0.9622028000885621,481.5725290001137,482.64202962012496,2023-12-22 14:57:51.035929,2023-12-22 14:57:52.096434,MF010.jpg,0,10866,70-89+,2023-12-22_14h50.25.563,Recall,2021.2.3,59.88038294244016,
,SD037.jpg,0,MF037.jpg,0,,,,,0,95,95,86,imgFunc,2,NA,4.3212501999223605,482.64549980009906,487.0817913201172,2023-12-22 14:57:52.104415,2023-12-22 14:57:56.532989,MF037.jpg,0,10866,70-89+,2023-12-22_14h50.25.563,Recall,2021.2.3,59.88038294244016,
,SD021.jpg,0,MF021.jpg,0,,,,,0,96,96,70,imgFunc,1,NA,3.5229930999921635,487.0994319000747,490.739124219981,2023-12-22 14:57:56.546953,2023-12-22 14:58:00.185402,MF021.jpg,0,10866,70-89+,2023-12-22_14h50.25.563,Recall,2021.2.3,59.88038294244016,
,DD033.jpg,0,FF033.jpg,0,,,,,0,97,97,32,imgFunc,1,NA,1.108148500090465,490.72252619999927,491.9250404200284,2023-12-22 14:58:00.192385,2023-12-22 14:58:01.386386,FF033.jpg,0,10866,70-89+,2023-12-22_14h50.25.563,Recall,2021.2.3,59.88038294244016,
,SD030.jpg,0,MF030.jpg,0,,,,,0,98,98,79,imgFunc,1,NA,3.3196160999359563,491.92703650007024,495.3471480200533,2023-12-22 14:58:01.394389,2023-12-22 14:58:04.805815,MF030.jpg,0,10866,70-89+,2023-12-22_14h50.25.563,Recall,2021.2.3,59.88038294244016,
,SD023.jpg,0,MF023.jpg,0,,,,,0,99,99,72,imgFunc,9,NA,2.8199542000656947,495.35450150002725,498.27403332013637,2023-12-22 14:58:04.813796,2023-12-22 14:58:07.724304,MF023.jpg,0,10866,70-89+,2023-12-22_14h50.25.563,Recall,2021.2.3,59.88038294244016,
,,,,,,,,,,,,,instrFunc,space,"Great work! 

 Now you will switch to the other image type.

 Press the spacebar whenever you are ready to start.",3.8755600000731647,498.1951200000476,502.11156672006473,2023-12-22 14:58:07.725329,2023-12-22 14:58:11.625811,,,10866,70-89+,2023-12-22_14h50.25.563,Recall,2021.2.3,59.88038294244016,
,L_DD501.jpg,1,L_FF501.jpg,1,,,,,0,0,0,40,imgFunc,0,NA,23.646313300007023,502.20034210011363,525.9474820601754,2023-12-22 14:58:11.669696,2023-12-22 14:58:35.411386,L_DD501.jpg,1,10866,70-89+,2023-12-22_14h50.25.563,Recall,2021.2.3,59.88038294244016,
,DD017.jpg,0,FF017.jpg,0,,,,,0,1,1,16,imgFunc,0,NA,1.8844355000182986,525.9543092000531,527.9355813200818,2023-12-22 14:58:35.421361,2023-12-22 14:58:37.396116,DD017.jpg,0,10866,70-89+,2023-12-22_14h50.25.563,Recall,2021.2.3,59.88038294244016,
,SD011.jpg,0,MF011.jpg,0,,,,,0,2,2,60,imgFunc,2,NA,4.94071990007069,527.9299778999994,532.9681581200566,2023-12-22 14:58:37.403949,2023-12-22 14:58:42.433769,SD011.jpg,0,10866,70-89+,2023-12-22_14h50.25.563,Recall,2021.2.3,59.88038294244016,
,SD007.jpg,0,MF007.jpg,0,,,,,0,3,3,56,imgFunc,1,NA,2.356124800047837,532.9862724000122,535.4432601201115,2023-12-22 14:58:42.446734,2023-12-22 14:58:44.901798,SD007.jpg,0,10866,70-89+,2023-12-22_14h50.25.563,Recall,2021.2.3,59.88038294244016,
,SD025.jpg,0,MF025.jpg,0,,,,,0,4,4,74,imgFunc,1,NA,4.436481400043704,535.4341235000174,539.9547750200145,2023-12-22 14:58:44.909778,2023-12-22 14:58:49.421208,SD025.jpg,0,10866,70-89+,2023-12-22_14h50.25.563,Recall,2021.2.3,59.88038294244016,
,DD027.jpg,0,FF027.jpg,0,,,,,0,5,5,26,imgFunc,1,NA,2.14280399994459,539.9599208000582,542.193996720016,2023-12-22 14:58:49.430187,2023-12-22 14:58:51.656759,DD027.jpg,0,10866,70-89+,2023-12-22_14h50.25.563,Recall,2021.2.3,59.88038294244016,
,DD024.jpg,0,FF024.jpg,0,,,,,0,6,6,23,imgFunc,1,NA,2.048974300036207,542.1895523000276,544.3248801199952,2023-12-22 14:58:51.664740,2023-12-22 14:58:53.791193,DD024.jpg,0,10866,70-89+,2023-12-22_14h50.25.563,Recall,2021.2.3,59.88038294244016,
,DD020.jpg,0,FF020.jpg,0,,,,,0,7,7,19,imgFunc,1,NA,1.2588974999962375,544.3397621000186,545.7086253199959,2023-12-22 14:58:53.799175,2023-12-22 14:58:55.159208,DD020.jpg,0,10866,70-89+,2023-12-22_14h50.25.563,Recall,2021.2.3,59.88038294244016,
,DD023.jpg,0,FF023.jpg,0,,,,,0,8,8,22,imgFunc,1,NA,1.655236600083299,545.6951316000195,547.446765719913,2023-12-22 14:58:55.167211,2023-12-22 14:58:56.910469,DD023.jpg,0,10866,70-89+,2023-12-22_14h50.25.563,Recall,2021.2.3,59.88038294244016,
,SD009.jpg,0,MF009.jpg,0,,,,,0,9,9,58,imgFunc,1,NA,0.9367983000120148,547.4538754000096,548.4891134200152,2023-12-22 14:58:56.918450,2023-12-22 14:58:57.944847,SD009.jpg,0,10866,70-89+,2023-12-22_14h50.25.563,Recall,2021.2.3,59.88038294244016,
,DD002.jpg,0,FF002.jpg,0,,,,,0,10,10,1,imgFunc,1,NA,1.2218901000451297,548.4726473001065,549.7753644201439,2023-12-22 14:58:57.951830,2023-12-22 14:58:59.245415,DD002.jpg,0,10866,70-89+,2023-12-22_14h50.25.563,Recall,2021.2.3,59.88038294244016,
,DD016.jpg,0,FF016.jpg,0,,,,,0,11,11,15,imgFunc,1,NA,0.9940329000819474,549.788610800053,550.8906051201047,2023-12-22 14:58:59.253418,2023-12-22 14:59:00.346313,DD016.jpg,0,10866,70-89+,2023-12-22_14h50.25.563,Recall,2021.2.3,59.88038294244016,
,SD034.jpg,0,MF034.jpg,0,,,,,0,12,12,83,imgFunc,1,NA,1.2543804000597447,550.8884722000221,552.2299715200206,2023-12-22 14:59:00.359281,2023-12-22 14:59:01.697552,SD034.jpg,0,10866,70-89+,2023-12-22_14h50.25.563,Recall,2021.2.3,59.88038294244016,
,DD001.jpg,0,FF001.jpg,0,,,,,0,13,13,0,imgFunc,2,NA,1.8162626000121236,552.2303691999987,554.1338902199641,2023-12-22 14:59:01.704535,2023-12-22 14:59:03.598850,DD001.jpg,0,10866,70-89+,2023-12-22_14h50.25.563,Recall,2021.2.3,59.88038294244016,
,SD023.jpg,0,MF023.jpg,0,,,,,0,14,14,72,imgFunc,2,NA,1.373287700000219,554.1293570001144,555.59860132006,2023-12-22 14:59:03.605834,2023-12-22 14:59:05.065767,SD023.jpg,0,10866,70-89+,2023-12-22_14h50.25.563,Recall,2021.2.3,59.88038294244016,
,SD040.jpg,0,MF040.jpg,0,,,,,0,15,15,89,imgFunc,2,NA,3.0378667999757454,555.5929517000914,558.7133702201536,2023-12-22 14:59:05.073709,2023-12-22 14:59:08.185426,SD040.jpg,0,10866,70-89+,2023-12-22_14h50.25.563,Recall,2021.2.3,59.88038294244016,
,DD019.jpg,0,FF019.jpg,0,,,,,0,16,16,18,imgFunc,1,NA,1.4101798000046983,558.7242074001115,560.2268293200759,2023-12-22 14:59:08.192409,2023-12-22 14:59:09.686705,DD019.jpg,0,10866,70-89+,2023-12-22_14h50.25.563,Recall,2021.2.3,59.88038294244016,
,SD036.jpg,0,MF036.jpg,0,,,,,0,17,17,85,imgFunc,2,NA,2.0526576000265777,560.2418799001025,562.3950116201304,2023-12-22 14:59:09.702664,2023-12-22 14:59:11.854552,SD036.jpg,0,10866,70-89+,2023-12-22_14h50.25.563,Recall,2021.2.3,59.88038294244016,
,SD024.jpg,0,MF024.jpg,0,,,,,0,18,18,73,imgFunc,1,NA,0.008832499966956675,562.3897449000506,562.4902338200482,2023-12-22 14:59:11.862555,2023-12-22 14:59:11.954752,SD024.jpg,0,10866,70-89+,2023-12-22_14h50.25.563,Recall,2021.2.3,59.88038294244016,
,SD004.jpg,0,MF004.jpg,0,,,,,0,19,19,53,imgFunc,2,NA,2.6338531000074,562.4850089000538,565.2053468201775,2023-12-22 14:59:11.961758,2023-12-22 14:59:14.673562,SD004.jpg,0,10866,70-89+,2023-12-22_14h50.25.563,Recall,2021.2.3,59.88038294244016,
,L_SD505.jpg,1,L_MF505.jpg,1,,,,,0,20,20,94,imgFunc,1,NA,1.5759094000095502,565.2068257000064,566.8742057201453,2023-12-22 14:59:14.681565,2023-12-22 14:59:16.341589,L_SD505.jpg,1,10866,70-89+,2023-12-22_14h50.25.563,Recall,2021.2.3,59.88038294244016,
,SD029.jpg,0,MF029.jpg,0,,,,,0,21,21,78,imgFunc,2,NA,1.7519541999790817,566.8784321000567,568.7313451200025,2023-12-22 14:59:16.348569,2023-12-22 14:59:18.191803,SD029.jpg,0,10866,70-89+,2023-12-22_14h50.25.563,Recall,2021.2.3,59.88038294244016,
,DD021.jpg,0,FF021.jpg,0,,,,,0,22,22,20,imgFunc,1,NA,6.099421499995515,568.7392366999993,574.9312266201014,2023-12-22 14:59:18.206754,2023-12-22 14:59:24.397247,DD021.jpg,0,10866,70-89+,2023-12-22_14h50.25.563,Recall,2021.2.3,59.88038294244016,
,DD014.jpg,0,FF014.jpg,0,,,,,0,23,23,13,imgFunc,1,NA,1.5140357000054792,574.94071850006,576.5563999201404,2023-12-22 14:59:24.406228,2023-12-22 14:59:26.015159,DD014.jpg,0,10866,70-89+,2023-12-22_14h50.25.563,Recall,2021.2.3,59.88038294244016,
,SD013.jpg,0,MF013.jpg,0,,,,,0,24,24,62,imgFunc,2,NA,1.2130156999919564,576.5458152000792,577.8483630201081,2023-12-22 14:59:26.022143,2023-12-22 14:59:27.315783,SD013.jpg,0,10866,70-89+,2023-12-22_14h50.25.563,Recall,2021.2.3,59.88038294244016,
,DD039.jpg,0,FF039.jpg,0,,,,,0,25,25,38,imgFunc,1,NA,2.908618900110014,577.850170000107,580.8541208200622,2023-12-22 14:59:27.322766,2023-12-22 14:59:30.318219,DD039.jpg,0,10866,70-89+,2023-12-22_14h50.25.563,Recall,2021.2.3,59.88038294244016,
,SD028.jpg,0,MF028.jpg,0,,,,,0,26,26,77,imgFunc,2,NA,1.2147741001099348,580.8719252001029,582.2056396201951,2023-12-22 14:59:30.326199,2023-12-22 14:59:31.652404,SD028.jpg,0,10866,70-89+,2023-12-22_14h50.25.563,Recall,2021.2.3,59.88038294244016,
,SD017.jpg,0,MF017.jpg,0,,,,,0,27,27,66,imgFunc,9,NA,8.212167500052601,582.1943530000281,590.5020790201379,2023-12-22 14:59:31.659387,2023-12-22 14:59:39.958954,SD017.jpg,0,10866,70-89+,2023-12-22_14h50.25.563,Recall,2021.2.3,59.88038294244016,
,DD040.jpg,0,FF040.jpg,0,,,,,0,28,28,39,imgFunc,2,NA,6.682904400047846,590.4916888000444,597.2612651201198,2023-12-22 14:59:39.967932,2023-12-22 14:59:46.729813,DD040.jpg,0,10866,70-89+,2023-12-22_14h50.25.563,Recall,2021.2.3,59.88038294244016,
,SD014.jpg,0,MF014.jpg,0,,,,,0,29,29,63,imgFunc,0,NA,3.313495900016278,597.276989200036,600.6958323200233,2023-12-22 14:59:46.737797,2023-12-22 14:59:50.149015,SD014.jpg,0,10866,70-89+,2023-12-22_14h50.25.563,Recall,2021.2.3,59.88038294244016,
,SD035.jpg,0,MF035.jpg,0,,,,,0,30,30,84,imgFunc,9,NA,4.098712800070643,600.6919439000776,604.8934071201365,2023-12-22 14:59:50.157990,2023-12-22 14:59:54.352595,SD035.jpg,0,10866,70-89+,2023-12-22_14h50.25.563,Recall,2021.2.3,59.88038294244016,
,SD006.jpg,0,MF006.jpg,0,,,,,0,31,31,55,imgFunc,0,NA,3.357267400017008,604.8974487000378,608.3551180200884,2023-12-22 14:59:54.366519,2023-12-22 14:59:57.821657,SD006.jpg,0,10866,70-89+,2023-12-22_14h50.25.563,Recall,2021.2.3,59.88038294244016,
,SD010.jpg,0,MF010.jpg,0,,,,,0,32,32,59,imgFunc,0,NA,1.5842470000497997,608.3504608001094,610.020375919994,2023-12-22 14:59:57.828640,2023-12-22 14:59:59.489896,SD010.jpg,0,10866,70-89+,2023-12-22_14h50.25.563,Recall,2021.2.3,59.88038294244016,
,DD035.jpg,0,FF035.jpg,0,,,,,0,33,33,34,imgFunc,1,NA,3.9094376999419183,610.0253304000944,614.0296991200885,2023-12-22 14:59:59.496879,2023-12-22 15:00:03.492342,DD035.jpg,0,10866,70-89+,2023-12-22_14h50.25.563,Recall,2021.2.3,59.88038294244016,
,L_SD503.jpg,1,L_MF503.jpg,1,,,,,0,34,34,92,imgFunc,1,NA,1.726101699983701,614.0245677001076,615.8431800202234,2023-12-22 15:00:03.500323,2023-12-22 15:00:05.310504,L_SD503.jpg,1,10866,70-89+,2023-12-22_14h50.25.563,Recall,2021.2.3,59.88038294244016,
,L_SD507.jpg,1,L_MF507.jpg,1,,,,,0,35,35,96,imgFunc,9,NA,5.809835100080818,615.8529248000123,621.7754913201788,2023-12-22 15:00:05.317487,2023-12-22 15:00:11.231589,L_SD507.jpg,1,10866,70-89+,2023-12-22_14h50.25.563,Recall,2021.2.3,59.88038294244016,
,SD008.jpg,0,MF008.jpg,0,,,,,0,36,36,57,imgFunc,2,NA,3.544390899944119,621.80635050009,625.4919317401946,2023-12-22 15:00:11.248546,2023-12-22 15:00:14.917469,SD008.jpg,0,10866,70-89+,2023-12-22_14h50.25.563,Recall,2021.2.3,59.88038294244016,
,DD037.jpg,0,FF037.jpg,0,,,,,0,37,37,36,imgFunc,2,NA,4.469924099976197,625.4486788000213,630.020347320009,2023-12-22 15:00:14.924453,2023-12-22 15:00:19.487420,DD037.jpg,0,10866,70-89+,2023-12-22_14h50.25.563,Recall,2021.2.3,59.88038294244016,
,DD031.jpg,0,FF031.jpg,0,,,,,0,38,38,30,imgFunc,1,NA,2.7769275000318885,630.0378750000382,632.920600619982,2023-12-22 15:00:19.496421,2023-12-22 15:00:22.372827,DD031.jpg,0,10866,70-89+,2023-12-22_14h50.25.563,Recall,2021.2.3,59.88038294244016,
,DD033.jpg,0,FF033.jpg,0,,,,,0,39,39,32,imgFunc,1,NA,5.0429757999954745,632.9157372000627,638.0711745200679,2023-12-22 15:00:22.379836,2023-12-22 15:00:27.526782,DD033.jpg,0,10866,70-89+,2023-12-22_14h50.25.563,Recall,2021.2.3,59.88038294244016,
,SD037.jpg,0,MF037.jpg,0,,,,,0,40,40,86,imgFunc,2,NA,5.56796489993576,638.094598500058,643.7965553201502,2023-12-22 15:00:27.535771,2023-12-22 15:00:33.231055,SD037.jpg,0,10866,70-89+,2023-12-22_14h50.25.563,Recall,2021.2.3,59.88038294244016,
,DD038.jpg,0,FF038.jpg,0,,,,,0,41,41,37,imgFunc,1,NA,1.5297024000901729,643.7649225000059,645.3813310200348,2023-12-22 15:00:33.240033,2023-12-22 15:00:34.849044,DD038.jpg,0,10866,70-89+,2023-12-22_14h50.25.563,Recall,2021.2.3,59.88038294244016,
,L_SD509.jpg,1,L_MF509.jpg,1,,,,,0,42,42,98,imgFunc,1,NA,0.9996491000056267,645.3831460000947,646.4846240201732,2023-12-22 15:00:34.857025,2023-12-22 15:00:35.949533,L_SD509.jpg,1,10866,70-89+,2023-12-22_14h50.25.563,Recall,2021.2.3,59.88038294244016,
,DD004.jpg,0,FF004.jpg,0,,,,,0,43,43,3,imgFunc,1,NA,1.5754727999446914,646.4953170000808,648.1809944201959,2023-12-22 15:00:35.956517,2023-12-22 15:00:37.633854,DD004.jpg,0,10866,70-89+,2023-12-22_14h50.25.563,Recall,2021.2.3,59.88038294244016,
,L_DD509.jpg,1,L_FF509.jpg,1,,,,,0,44,44,48,imgFunc,1,NA,1.7211901999544352,648.1815028000856,650.0134006201988,2023-12-22 15:00:37.643858,2023-12-22 15:00:39.468848,L_DD509.jpg,1,10866,70-89+,2023-12-22_14h50.25.563,Recall,2021.2.3,59.88038294244016,
,DD012.jpg,0,FF012.jpg,0,,,,,0,45,45,11,imgFunc,0,NA,4.037739199935459,650.0251136000734,654.1674014200689,2023-12-22 15:00:39.481815,2023-12-22 15:00:43.621653,DD012.jpg,0,10866,70-89+,2023-12-22_14h50.25.563,Recall,2021.2.3,59.88038294244016,
,L_DD503.jpg,1,L_FF503.jpg,1,,,,,0,46,46,42,imgFunc,0,NA,0.9298875000094995,654.1728732000338,655.2242983200122,2023-12-22 15:00:43.629655,2023-12-22 15:00:44.672462,L_DD503.jpg,1,10866,70-89+,2023-12-22_14h50.25.563,Recall,2021.2.3,59.88038294244016,
,DD026.jpg,0,FF026.jpg,0,,,,,0,47,47,25,imgFunc,0,NA,0.9456862999359146,655.1971294000978,656.2328074200777,2023-12-22 15:00:44.679326,2023-12-22 15:00:45.706661,DD026.jpg,0,10866,70-89+,2023-12-22_14h50.25.563,Recall,2021.2.3,59.88038294244016,
,SD015.jpg,0,MF015.jpg,0,,,,,0,48,48,64,imgFunc,1,NA,1.283369299955666,656.2433706000447,657.6294311200036,2023-12-22 15:00:45.713644,2023-12-22 15:00:47.091213,SD015.jpg,0,10866,70-89+,2023-12-22_14h50.25.563,Recall,2021.2.3,59.88038294244016,
,DD030.jpg,0,FF030.jpg,0,,,,,0,49,49,29,imgFunc,9,NA,4.665107200038619,657.6296175000025,662.4015742200427,2023-12-22 15:00:47.098196,2023-12-22 15:00:51.861177,DD030.jpg,0,10866,70-89+,2023-12-22_14h50.25.563,Recall,2021.2.3,59.88038294244016,
,DD011.jpg,0,FF011.jpg,0,,,,,0,50,50,10,imgFunc,9,NA,3.257602700032294,662.4209568001097,665.7913237202447,2023-12-22 15:00:51.877137,2023-12-22 15:00:55.247160,DD011.jpg,0,10866,70-89+,2023-12-22_14h50.25.563,Recall,2021.2.3,59.88038294244016,
,DD036.jpg,0,FF036.jpg,0,,,,,0,51,51,35,imgFunc,2,NA,5.546548199956305,665.7800661000656,671.4199068200542,2023-12-22 15:00:55.254143,2023-12-22 15:01:00.884844,DD036.jpg,0,10866,70-89+,2023-12-22_14h50.25.563,Recall,2021.2.3,59.88038294244016,
,L_DD504.jpg,1,L_FF504.jpg,1,,,,,0,52,52,43,imgFunc,2,NA,1.6669985000044107,671.427511600079,673.1936500200536,2023-12-22 15:01:00.893822,2023-12-22 15:01:02.651738,L_DD504.jpg,1,10866,70-89+,2023-12-22_14h50.25.563,Recall,2021.2.3,59.88038294244016,
,SD039.jpg,0,MF039.jpg,0,,,,,0,53,53,88,imgFunc,2,NA,2.1439700999762863,673.190530300024,675.4430638201302,2023-12-22 15:01:02.659700,2023-12-22 15:01:04.903861,SD039.jpg,0,10866,70-89+,2023-12-22_14h50.25.563,Recall,2021.2.3,59.88038294244016,
,L_SD502.jpg,1,L_MF502.jpg,1,,,,,0,54,54,91,imgFunc,2,NA,5.6933831999776885,675.4412522000493,681.229810620076,2023-12-22 15:01:04.911859,2023-12-22 15:01:10.691865,L_SD502.jpg,1,10866,70-89+,2023-12-22_14h50.25.563,Recall,2021.2.3,59.88038294244016,
,L_DD506.jpg,1,L_FF506.jpg,1,,,,,0,55,55,45,imgFunc,1,NA,1.2051880999933928,681.2654667000752,682.595561340102,2023-12-22 15:01:10.709817,2023-12-22 15:01:12.025916,L_DD506.jpg,1,10866,70-89+,2023-12-22_14h50.25.563,Recall,2021.2.3,59.88038294244016,
,SD031.jpg,0,MF031.jpg,0,,,,,0,56,56,80,imgFunc,9,NA,2.762429299997166,682.5563430000329,685.4103428201051,2023-12-22 15:01:12.032899,2023-12-22 15:01:14.877844,SD031.jpg,0,10866,70-89+,2023-12-22_14h50.25.563,Recall,2021.2.3,59.88038294244016,
,DD022.jpg,0,FF022.jpg,0,,,,,0,57,57,21,imgFunc,1,NA,4.698025100049563,685.4045106000267,690.1928580200765,2023-12-22 15:01:14.884828,2023-12-22 15:01:19.664649,DD022.jpg,0,10866,70-89+,2023-12-22_14h50.25.563,Recall,2021.2.3,59.88038294244016,
,L_SD504.jpg,1,L_MF504.jpg,1,,,,,0,58,58,93,imgFunc,0,NA,3.928006700007245,690.2068134000292,694.2404425200075,2023-12-22 15:01:19.673627,2023-12-22 15:01:23.701068,L_SD504.jpg,1,10866,70-89+,2023-12-22_14h50.25.563,Recall,2021.2.3,59.88038294244016,
,L_SD510.jpg,1,L_MF510.jpg,1,,,,,0,59,59,99,imgFunc,0,NA,1.086854699999094,694.2397182000568,695.4260590202175,2023-12-22 15:01:23.708051,2023-12-22 15:01:24.885381,L_SD510.jpg,1,10866,70-89+,2023-12-22_14h50.25.563,Recall,2021.2.3,59.88038294244016,
,L_SD508.jpg,1,L_MF508.jpg,1,,,,,0,60,60,97,imgFunc,0,NA,0.9564553999807686,695.4184166000923,696.4710902201477,2023-12-22 15:01:24.892364,2023-12-22 15:01:25.936229,L_SD508.jpg,1,10866,70-89+,2023-12-22_14h50.25.563,Recall,2021.2.3,59.88038294244016,
,DD006.jpg,0,FF006.jpg,0,,,,,0,61,61,5,imgFunc,9,NA,4.39920169999823,696.4714905000292,700.9756008200347,2023-12-22 15:01:25.944210,2023-12-22 15:01:30.439523,DD006.jpg,0,10866,70-89+,2023-12-22_14h50.25.563,Recall,2021.2.3,59.88038294244016,
,DD029.jpg,0,FF029.jpg,0,,,,,0,62,62,28,imgFunc,9,NA,0.9958022999344394,700.9790781000629,702.0787230200367,2023-12-22 15:01:30.448182,2023-12-22 15:01:31.540160,DD029.jpg,0,10866,70-89+,2023-12-22_14h50.25.563,Recall,2021.2.3,59.88038294244016,
,L_DD502.jpg,1,L_FF502.jpg,1,,,,,0,63,63,41,imgFunc,0,NA,4.7815671999705955,702.081181100104,706.9690431201598,2023-12-22 15:01:31.548140,2023-12-22 15:01:36.427181,L_DD502.jpg,1,10866,70-89+,2023-12-22_14h50.25.563,Recall,2021.2.3,59.88038294244016,
,SD030.jpg,0,MF030.jpg,0,,,,,0,64,64,79,imgFunc,2,NA,3.028691799961962,706.9860813000705,710.1257045201492,2023-12-22 15:01:36.441145,2023-12-22 15:01:39.579440,SD030.jpg,0,10866,70-89+,2023-12-22_14h50.25.563,Recall,2021.2.3,59.88038294244016,
,DD028.jpg,0,FF028.jpg,0,,,,,0,65,65,27,imgFunc,1,NA,4.670204300084151,710.1126327000093,714.8845659199869,2023-12-22 15:01:39.586445,2023-12-22 15:01:44.349780,DD028.jpg,0,10866,70-89+,2023-12-22_14h50.25.563,Recall,2021.2.3,59.88038294244016,
,DD009.jpg,0,FF009.jpg,0,,,,,0,66,66,8,imgFunc,9,NA,4.771231500082649,714.8915125000058,719.7600615200354,2023-12-22 15:01:44.358770,2023-12-22 15:01:49.219994,DD009.jpg,0,10866,70-89+,2023-12-22_14h50.25.563,Recall,2021.2.3,59.88038294244016,
,DD018.jpg,0,FF018.jpg,0,,,,,0,67,67,17,imgFunc,1,NA,2.544268000056036,719.7585465000011,722.4089049200993,2023-12-22 15:01:49.228973,2023-12-22 15:01:51.871890,DD018.jpg,0,10866,70-89+,2023-12-22_14h50.25.563,Recall,2021.2.3,59.88038294244016,
,SD003.jpg,0,MF003.jpg,0,,,,,0,68,68,52,imgFunc,0,NA,2.6366229000268504,722.4181911000051,725.1721938201226,2023-12-22 15:01:51.878873,2023-12-22 15:01:54.623952,SD003.jpg,0,10866,70-89+,2023-12-22_14h50.25.563,Recall,2021.2.3,59.88038294244016,
,L_SD501.jpg,1,L_MF501.jpg,1,,,,,0,69,69,90,imgFunc,9,NA,7.138151799910702,725.1645638000919,732.3889609201578,2023-12-22 15:01:54.638915,2023-12-22 15:02:01.862908,L_SD501.jpg,1,10866,70-89+,2023-12-22_14h50.25.563,Recall,2021.2.3,59.88038294244016,
,SD002.jpg,0,MF002.jpg,0,,,,,0,70,70,51,imgFunc,2,NA,6.080921899992973,732.3977891000686,738.5674903201871,2023-12-22 15:02:01.871885,2023-12-22 15:02:08.033404,SD002.jpg,0,10866,70-89+,2023-12-22_14h50.25.563,Recall,2021.2.3,59.88038294244016,
,SD020.jpg,0,MF020.jpg,0,,,,,0,71,71,69,imgFunc,2,NA,2.3446212999988347,738.5980691000586,741.0650048201205,2023-12-22 15:02:08.042383,2023-12-22 15:02:10.502140,SD020.jpg,0,10866,70-89+,2023-12-22_14h50.25.563,Recall,2021.2.3,59.88038294244016,
,L_SD506.jpg,1,L_MF506.jpg,1,,,,,0,72,72,95,imgFunc,9,NA,4.9878267999738455,741.0430298000574,746.1304164200556,2023-12-22 15:02:10.510122,2023-12-22 15:02:15.589159,L_SD506.jpg,1,10866,70-89+,2023-12-22_14h50.25.563,Recall,2021.2.3,59.88038294244016,
,DD010.jpg,0,FF010.jpg,0,,,,,0,73,73,9,imgFunc,0,NA,1.2765442000236362,746.1385422000894,747.5215302201686,2023-12-22 15:02:15.598137,2023-12-22 15:02:16.973843,DD010.jpg,0,10866,70-89+,2023-12-22_14h50.25.563,Recall,2021.2.3,59.88038294244016,
,SD012.jpg,0,MF012.jpg,0,,,,,0,74,74,61,imgFunc,0,NA,1.0416437999811023,747.525185000035,748.6611957200803,2023-12-22 15:02:16.989802,2023-12-22 15:02:18.124835,SD012.jpg,0,10866,70-89+,2023-12-22_14h50.25.563,Recall,2021.2.3,59.88038294244016,
,DD005.jpg,0,FF005.jpg,0,,,,,0,75,75,4,imgFunc,0,NA,1.1713326999451965,748.6593636000762,749.9264028200414,2023-12-22 15:02:18.132815,2023-12-22 15:02:19.391803,DD005.jpg,0,10866,70-89+,2023-12-22_14h50.25.563,Recall,2021.2.3,59.88038294244016,
,L_DD510.jpg,1,L_FF510.jpg,1,,,,,0,76,76,49,imgFunc,0,NA,2.7529822000069544,749.9258622000925,752.7801254200749,2023-12-22 15:02:19.398786,2023-12-22 15:02:22.244008,L_DD510.jpg,1,10866,70-89+,2023-12-22_14h50.25.563,Recall,2021.2.3,59.88038294244016,
,L_DD508.jpg,1,L_FF508.jpg,1,,,,,0,77,77,47,imgFunc,0,NA,1.2853737999685109,752.7771938000806,754.1632234201534,2023-12-22 15:02:22.250991,2023-12-22 15:02:23.628253,L_DD508.jpg,1,10866,70-89+,2023-12-22_14h50.25.563,Recall,2021.2.3,59.88038294244016,
,SD016.jpg,0,MF016.jpg,0,,,,,0,78,78,65,imgFunc,0,NA,1.3453884000191465,754.1655256000813,755.6182093202369,2023-12-22 15:02:23.635237,2023-12-22 15:02:25.079509,SD016.jpg,0,10866,70-89+,2023-12-22_14h50.25.563,Recall,2021.2.3,59.88038294244016,
,SD033.jpg,0,MF033.jpg,0,,,,,0,79,79,82,imgFunc,0,NA,2.693839200073853,755.6091151,758.3961367200827,2023-12-22 15:02:25.086511,2023-12-22 15:02:27.864774,SD033.jpg,0,10866,70-89+,2023-12-22_14h50.25.563,Recall,2021.2.3,59.88038294244016,
,L_DD507.jpg,1,L_FF507.jpg,1,,,,,0,80,80,46,imgFunc,2,NA,2.057883800007403,758.3970364000415,760.5500862201443,2023-12-22 15:02:27.871775,2023-12-22 15:02:30.016251,L_DD507.jpg,1,10866,70-89+,2023-12-22_14h50.25.563,Recall,2021.2.3,59.88038294244016,
,SD005.jpg,0,MF005.jpg,0,,,,,0,81,81,54,imgFunc,9,NA,4.011065500089899,760.5476868000114,764.6526614200557,2023-12-22 15:02:30.023234,2023-12-22 15:02:34.119302,SD005.jpg,0,10866,70-89+,2023-12-22_14h50.25.563,Recall,2021.2.3,59.88038294244016,
,SD032.jpg,0,MF032.jpg,0,,,,,0,82,82,81,imgFunc,0,NA,2.8357795000774786,764.6589116000105,767.5949801200768,2023-12-22 15:02:34.126964,2023-12-22 15:02:37.054888,SD032.jpg,0,10866,70-89+,2023-12-22_14h50.25.563,Recall,2021.2.3,59.88038294244016,
,DD007.jpg,0,FF007.jpg,0,,,,,0,83,83,6,imgFunc,1,NA,3.270460500032641,767.6084842000855,770.9821762200445,2023-12-22 15:02:37.069304,2023-12-22 15:02:40.440603,DD007.jpg,0,10866,70-89+,2023-12-22_14h50.25.563,Recall,2021.2.3,59.88038294244016,
,SD021.jpg,0,MF021.jpg,0,,,,,0,84,84,70,imgFunc,2,NA,3.4609985999995843,770.9699383000843,774.5234018202173,2023-12-22 15:02:40.448584,2023-12-22 15:02:43.993279,SD021.jpg,0,10866,70-89+,2023-12-22_14h50.25.563,Recall,2021.2.3,59.88038294244016,
,SD018.jpg,0,MF018.jpg,0,,,,,0,85,85,67,imgFunc,9,NA,3.7011019999627024,774.5216275000712,778.3097683200613,2023-12-22 15:02:44.000262,2023-12-22 15:02:47.779509,SD018.jpg,0,10866,70-89+,2023-12-22_14h50.25.563,Recall,2021.2.3,59.88038294244016,
,L_DD505.jpg,1,L_FF505.jpg,1,,,,,0,86,86,44,imgFunc,2,NA,9.9947537999833,778.3241579000605,788.4331317201722,2023-12-22 15:02:47.786492,2023-12-22 15:02:57.886857,L_DD505.jpg,1,10866,70-89+,2023-12-22_14h50.25.563,Recall,2021.2.3,59.88038294244016,
,DD013.jpg,0,FF013.jpg,0,,,,,0,87,87,12,imgFunc,0,NA,1.603084799950011,788.4436995000578,790.1600402201293,2023-12-22 15:02:57.895835,2023-12-22 15:02:59.604662,DD013.jpg,0,10866,70-89+,2023-12-22_14h50.25.563,Recall,2021.2.3,59.88038294244016,
,SD022.jpg,0,MF022.jpg,0,,,,,0,88,88,71,imgFunc,2,NA,4.1775278999703005,790.1493873000145,794.4234295201022,2023-12-22 15:02:59.618626,2023-12-22 15:03:03.891203,SD022.jpg,0,10866,70-89+,2023-12-22_14h50.25.563,Recall,2021.2.3,59.88038294244016,
,DD015.jpg,0,FF015.jpg,0,,,,,0,89,89,14,imgFunc,9,NA,4.573717599967495,794.4171859000344,799.0878334200243,2023-12-22 15:03:03.899205,2023-12-22 15:03:08.561285,DD015.jpg,0,10866,70-89+,2023-12-22_14h50.25.563,Recall,2021.2.3,59.88038294244016,
,SD001.jpg,0,MF001.jpg,0,,,,,0,90,90,50,imgFunc,0,NA,2.946072299964726,799.0928107000655,802.1271077200072,2023-12-22 15:03:08.570263,2023-12-22 15:03:11.596916,SD001.jpg,0,10866,70-89+,2023-12-22_14h50.25.563,Recall,2021.2.3,59.88038294244016,
,SD027.jpg,0,MF027.jpg,0,,,,,0,91,91,76,imgFunc,1,NA,4.7215480000013486,802.1413253000937,806.9797756201588,2023-12-22 15:03:11.603899,2023-12-22 15:03:16.433453,SD027.jpg,0,10866,70-89+,2023-12-22_14h50.25.563,Recall,2021.2.3,59.88038294244016,
,DD025.jpg,0,FF025.jpg,0,,,,,0,92,92,24,imgFunc,2,NA,2.4112622999818996,806.9955792000983,809.5281254200963,2023-12-22 15:03:16.442450,2023-12-22 15:03:18.968686,DD025.jpg,0,10866,70-89+,2023-12-22_14h50.25.563,Recall,2021.2.3,59.88038294244016,
,DD008.jpg,0,FF008.jpg,0,,,,,0,93,93,7,imgFunc,9,NA,2.8195557000581175,809.5154274000088,812.4373703200836,2023-12-22 15:03:18.983648,2023-12-22 15:03:21.904240,DD008.jpg,0,10866,70-89+,2023-12-22_14h50.25.563,Recall,2021.2.3,59.88038294244016,
,DD032.jpg,0,FF032.jpg,0,,,,,0,94,94,31,imgFunc,9,NA,2.393405899987556,812.429175700061,814.9157302200329,2023-12-22 15:03:21.911223,2023-12-22 15:03:24.389339,DD032.jpg,0,10866,70-89+,2023-12-22_14h50.25.563,Recall,2021.2.3,59.88038294244016,
,SD026.jpg,0,MF026.jpg,0,,,,,0,95,95,75,imgFunc,2,NA,3.2787492000497878,814.928223200026,818.3154402201762,2023-12-22 15:03:24.396322,2023-12-22 15:03:27.775090,SD026.jpg,0,10866,70-89+,2023-12-22_14h50.25.563,Recall,2021.2.3,59.88038294244016,
,DD003.jpg,0,FF003.jpg,0,,,,,0,96,96,2,imgFunc,0,NA,6.354150000028312,818.3085647000698,824.7651586200809,2023-12-22 15:03:27.782073,2023-12-22 15:03:34.229852,DD003.jpg,0,10866,70-89+,2023-12-22_14h50.25.563,Recall,2021.2.3,59.88038294244016,
,DD034.jpg,0,FF034.jpg,0,,,,,0,97,97,33,imgFunc,1,NA,1.7330017999047413,824.7939215000952,826.6588350200327,2023-12-22 15:03:34.239827,2023-12-22 15:03:36.097870,DD034.jpg,0,10866,70-89+,2023-12-22_14h50.25.563,Recall,2021.2.3,59.88038294244016,
,SD019.jpg,0,MF019.jpg,0,,,,,0,98,98,68,imgFunc,0,NA,2.567294399952516,826.6235768001061,829.2767842200119,2023-12-22 15:03:36.104853,2023-12-22 15:03:38.750066,SD019.jpg,0,10866,70-89+,2023-12-22_14h50.25.563,Recall,2021.2.3,59.88038294244016,
,SD038.jpg,0,MF038.jpg,0,,,,,0,99,99,87,imgFunc,2,NA,3.032747699995525,829.2780696001137,832.3986746200826,2023-12-22 15:03:38.757050,2023-12-22 15:03:41.868879,SD038.jpg,0,10866,70-89+,2023-12-22_14h50.25.563,Recall,2021.2.3,59.88038294244016,
