onset	duration	trial_type	response_time	Endowment	Endowment_pmod	Decision	Decision_pmod	Offer_pmod
4.600983	2	cue_social	n/a	32	8	n/a	n/a	n/a
4.600983	2	cue_social_high	n/a	32	7	n/a	n/a	n/a
13.769754	2	cue_social	n/a	32	8	n/a	n/a	n/a
13.769754	2	cue_social_high	n/a	32	7	n/a	n/a	n/a
20.591742	2	cue_nonsocial	n/a	16	-9	n/a	n/a	n/a
20.591742	2	cue_nonsocial_low	n/a	16	-8	n/a	n/a	n/a
27.501980	2	cue_social	n/a	16	-8	n/a	n/a	n/a
27.501980	2	cue_social_low	n/a	16	-9	n/a	n/a	n/a
34.347538	2	cue_social	n/a	32	8	n/a	n/a	n/a
34.347538	2	cue_social_high	n/a	32	7	n/a	n/a	n/a
41.891575	2	cue_nonsocial	n/a	32	7	n/a	n/a	n/a
41.891575	2	cue_nonsocial_high	n/a	32	8	n/a	n/a	n/a
52.833160	2	cue_social	n/a	32	8	n/a	n/a	n/a
52.833160	2	cue_social_high	n/a	32	7	n/a	n/a	n/a
59.591570	2	cue_nonsocial	n/a	16	-9	n/a	n/a	n/a
59.591570	2	cue_nonsocial_low	n/a	16	-8	n/a	n/a	n/a
68.841670	2	cue_nonsocial	n/a	32	7	n/a	n/a	n/a
68.841670	2	cue_nonsocial_high	n/a	32	8	n/a	n/a	n/a
75.705200	2	cue_social	n/a	32	8	n/a	n/a	n/a
75.705200	2	cue_social_high	n/a	32	7	n/a	n/a	n/a
84.925020	2	cue_nonsocial	n/a	16	-9	n/a	n/a	n/a
84.925020	2	cue_nonsocial_low	n/a	16	-8	n/a	n/a	n/a
91.758160	2	cue_nonsocial	n/a	16	-9	n/a	n/a	n/a
91.758160	2	cue_nonsocial_low	n/a	16	-8	n/a	n/a	n/a
98.626950	2	cue_social	n/a	32	8	n/a	n/a	n/a
98.626950	2	cue_social_high	n/a	32	7	n/a	n/a	n/a
107.858160	2	cue_nonsocial	n/a	32	7	n/a	n/a	n/a
107.858160	2	cue_nonsocial_high	n/a	32	8	n/a	n/a	n/a
115.508280	2	cue_nonsocial	n/a	32	7	n/a	n/a	n/a
115.508280	2	cue_nonsocial_high	n/a	32	8	n/a	n/a	n/a
122.421740	2	cue_social	n/a	32	8	n/a	n/a	n/a
122.421740	2	cue_social_high	n/a	32	7	n/a	n/a	n/a
130.066020	2	cue_social	n/a	16	-8	n/a	n/a	n/a
130.066020	2	cue_social_low	n/a	16	-9	n/a	n/a	n/a
137.668270	2	cue_social	n/a	32	8	n/a	n/a	n/a
137.668270	2	cue_social_high	n/a	32	7	n/a	n/a	n/a
144.474700	2	cue_nonsocial	n/a	32	7	n/a	n/a	n/a
144.474700	2	cue_nonsocial_high	n/a	32	8	n/a	n/a	n/a
151.307900	2	cue_nonsocial	n/a	32	7	n/a	n/a	n/a
151.307900	2	cue_nonsocial_high	n/a	32	8	n/a	n/a	n/a
158.141360	2	cue_nonsocial	n/a	32	7	n/a	n/a	n/a
158.141360	2	cue_nonsocial_high	n/a	32	8	n/a	n/a	n/a
169.086210	2	cue_social	n/a	16	-8	n/a	n/a	n/a
169.086210	2	cue_social_low	n/a	16	-9	n/a	n/a	n/a
176.712050	2	cue_social	n/a	16	-8	n/a	n/a	n/a
176.712050	2	cue_social_low	n/a	16	-9	n/a	n/a	n/a
183.588970	2	cue_social	n/a	32	8	n/a	n/a	n/a
183.588970	2	cue_social_high	n/a	32	7	n/a	n/a	n/a
191.124500	2	cue_nonsocial	n/a	16	-9	n/a	n/a	n/a
191.124500	2	cue_nonsocial_low	n/a	16	-8	n/a	n/a	n/a
198.039120	2	cue_social	n/a	16	-8	n/a	n/a	n/a
198.039120	2	cue_social_low	n/a	16	-9	n/a	n/a	n/a
205.591110	2	cue_nonsocial	n/a	32	7	n/a	n/a	n/a
205.591110	2	cue_nonsocial_high	n/a	32	8	n/a	n/a	n/a
212.491090	2	cue_social	n/a	16	-8	n/a	n/a	n/a
212.491090	2	cue_social_low	n/a	16	-9	n/a	n/a	n/a
219.257660	2	cue_nonsocial	n/a	16	-9	n/a	n/a	n/a
219.257660	2	cue_nonsocial_low	n/a	16	-8	n/a	n/a	n/a
231.741360	2	cue_nonsocial	n/a	16	-9	n/a	n/a	n/a
231.741360	2	cue_nonsocial_low	n/a	16	-8	n/a	n/a	n/a
241.007640	2	cue_nonsocial	n/a	32	7	n/a	n/a	n/a
241.007640	2	cue_nonsocial_high	n/a	32	8	n/a	n/a	n/a
248.658040	2	cue_nonsocial	n/a	16	-9	n/a	n/a	n/a
248.658040	2	cue_nonsocial_low	n/a	16	-8	n/a	n/a	n/a
255.490920	2	cue_nonsocial	n/a	32	7	n/a	n/a	n/a
255.490920	2	cue_nonsocial_high	n/a	32	8	n/a	n/a	n/a
262.324430	2	cue_nonsocial	n/a	32	7	n/a	n/a	n/a
262.324430	2	cue_nonsocial_high	n/a	32	8	n/a	n/a	n/a
270.016140	2	cue_social	n/a	32	8	n/a	n/a	n/a
270.016140	2	cue_social_high	n/a	32	7	n/a	n/a	n/a
276.807560	2	cue_nonsocial	n/a	16	-9	n/a	n/a	n/a
276.807560	2	cue_nonsocial_low	n/a	16	-8	n/a	n/a	n/a
283.697540	2	cue_social	n/a	16	-8	n/a	n/a	n/a
283.697540	2	cue_social_low	n/a	16	-9	n/a	n/a	n/a
292.980560	2	cue_social	n/a	16	-8	n/a	n/a	n/a
292.980560	2	cue_social_low	n/a	16	-9	n/a	n/a	n/a
299.724150	2	cue_nonsocial	n/a	16	-9	n/a	n/a	n/a
299.724150	2	cue_nonsocial_low	n/a	16	-8	n/a	n/a	n/a
310.658300	2	cue_social	n/a	16	-8	n/a	n/a	n/a
310.658300	2	cue_social_low	n/a	16	-9	n/a	n/a	n/a
317.423600	2	cue_nonsocial	n/a	32	7	n/a	n/a	n/a
317.423600	2	cue_nonsocial_high	n/a	32	8	n/a	n/a	n/a
326.772460	2	cue_social	n/a	32	8	n/a	n/a	n/a
326.772460	2	cue_social_high	n/a	32	7	n/a	n/a	n/a
334.324400	2	cue_nonsocial	n/a	32	7	n/a	n/a	n/a
334.324400	2	cue_nonsocial_high	n/a	32	8	n/a	n/a	n/a
342.011300	2	cue_social	n/a	32	8	n/a	n/a	n/a
342.011300	2	cue_social_high	n/a	32	7	n/a	n/a	n/a
348.846370	2	cue_social	n/a	16	-8	n/a	n/a	n/a
348.846370	2	cue_social_low	n/a	16	-9	n/a	n/a	n/a
355.623930	2	cue_nonsocial	n/a	32	7	n/a	n/a	n/a
355.623930	2	cue_nonsocial_high	n/a	32	8	n/a	n/a	n/a
363.315220	2	cue_social	n/a	16	-8	n/a	n/a	n/a
363.315220	2	cue_social_low	n/a	16	-9	n/a	n/a	n/a
370.173100	2	cue_social	n/a	16	-8	n/a	n/a	n/a
370.173100	2	cue_social_low	n/a	16	-9	n/a	n/a	n/a
6.515444	1.049707	dec_social_choice	1.049707	32.000000	n/a	16	2.682292e-01	2.682292e-01
6.515444	1.049707	dec_choice	1.049707	32.000000	n/a	16	2.682292e-01	2.682292e-01
6.515444	1.049707	dec_social_accept	1.049707	32.000000	n/a	16	2.682292e-01	2.682292e-01
6.515444	1.049707	dec_accept	1.049707	32.000000	n/a	16	2.682292e-01	2.682292e-01
6.515444	1.049707	dec_social_high	1.049707	32.000000	n/a	16	2.682292e-01	2.682292e-01
6.515444	1.049707	dec_social_accept_high	1.049707	32.000000	n/a	16	2.682292e-01	2.682292e-01
15.765117	0.699996	dec_social_choice	0.699996	32.000000	n/a	3	-1.380208e-01	-1.380208e-01
15.765117	0.699996	dec_choice	0.699996	32.000000	n/a	3	-1.380208e-01	-1.380208e-01
15.765117	0.699996	dec_social_accept	0.699996	32.000000	n/a	3	-1.380208e-01	-1.380208e-01
15.765117	0.699996	dec_accept	0.699996	32.000000	n/a	3	-1.380208e-01	-1.380208e-01
15.765117	0.699996	dec_social_low	0.699996	32.000000	n/a	3	-1.380208e-01	-1.380208e-01
15.765117	0.699996	dec_social_accept_low	0.699996	32.000000	n/a	3	-1.380208e-01	-1.380208e-01
22.598583	0.716601	dec_nonsocial_choice	0.716601	16.000000	n/a	8	2.682292e-01	2.682292e-01
22.598583	0.716601	dec_choice	0.716601	16.000000	n/a	8	2.682292e-01	2.682292e-01
22.598583	0.716601	dec_nonsocial_accept	0.716601	16.000000	n/a	8	2.682292e-01	2.682292e-01
22.598583	0.716601	dec_accept	0.716601	16.000000	n/a	8	2.682292e-01	2.682292e-01
22.598583	0.716601	dec_nonsocial_high	0.716601	16.000000	n/a	8	2.682292e-01	2.682292e-01
22.598583	0.716601	dec_nonsocial_accept_high	0.716601	16.000000	n/a	8	2.682292e-01	2.682292e-01
29.431135	0.667335	dec_social_choice	0.667335	16.000000	n/a	2	-1.067708e-01	-1.067708e-01
29.431135	0.667335	dec_choice	0.667335	16.000000	n/a	2	-1.067708e-01	-1.067708e-01
29.431135	0.667335	dec_social_accept	0.667335	16.000000	n/a	2	-1.067708e-01	-1.067708e-01
29.431135	0.667335	dec_accept	0.667335	16.000000	n/a	2	-1.067708e-01	-1.067708e-01
29.431135	0.667335	dec_social_low	0.667335	16.000000	n/a	2	-1.067708e-01	-1.067708e-01
29.431135	0.667335	dec_social_accept_low	0.667335	16.000000	n/a	2	-1.067708e-01	-1.067708e-01
36.265377	0.733057	dec_social_choice	0.733057	32.000000	n/a	16	2.682292e-01	2.682292e-01
36.265377	0.733057	dec_choice	0.733057	32.000000	n/a	16	2.682292e-01	2.682292e-01
36.265377	0.733057	dec_social_accept	0.733057	32.000000	n/a	16	2.682292e-01	2.682292e-01
36.265377	0.733057	dec_accept	0.733057	32.000000	n/a	16	2.682292e-01	2.682292e-01
36.265377	0.733057	dec_social_high	0.733057	32.000000	n/a	16	2.682292e-01	2.682292e-01
36.265377	0.733057	dec_social_accept_high	0.733057	32.000000	n/a	16	2.682292e-01	2.682292e-01
43.898150	0.733661	dec_nonsocial_choice	0.733661	32.000000	n/a	8	1.822917e-02	1.822917e-02
43.898150	0.733661	dec_choice	0.733661	32.000000	n/a	8	1.822917e-02	1.822917e-02
43.898150	0.733661	dec_nonsocial_accept	0.733661	32.000000	n/a	8	1.822917e-02	1.822917e-02
43.898150	0.733661	dec_accept	0.733661	32.000000	n/a	8	1.822917e-02	1.822917e-02
43.898150	0.733661	dec_nonsocial_high	0.733661	32.000000	n/a	8	1.822917e-02	1.822917e-02
43.898150	0.733661	dec_nonsocial_accept_high	0.733661	32.000000	n/a	8	1.822917e-02	1.822917e-02
54.764084	0.767719	dec_social_choice	0.767719	32.000000	n/a	16	2.682292e-01	2.682292e-01
54.764084	0.767719	dec_choice	0.767719	32.000000	n/a	16	2.682292e-01	2.682292e-01
54.764084	0.767719	dec_social_accept	0.767719	32.000000	n/a	16	2.682292e-01	2.682292e-01
54.764084	0.767719	dec_accept	0.767719	32.000000	n/a	16	2.682292e-01	2.682292e-01
54.764084	0.767719	dec_social_high	0.767719	32.000000	n/a	16	2.682292e-01	2.682292e-01
54.764084	0.767719	dec_social_accept_high	0.767719	32.000000	n/a	16	2.682292e-01	2.682292e-01
61.598263	0.883496	dec_nonsocial_choice	0.883496	16.000000	n/a	2	-1.067708e-01	-1.067708e-01
61.598263	0.883496	dec_choice	0.883496	16.000000	n/a	2	-1.067708e-01	-1.067708e-01
61.598263	0.883496	dec_nonsocial_accept	0.883496	16.000000	n/a	2	-1.067708e-01	-1.067708e-01
61.598263	0.883496	dec_accept	0.883496	16.000000	n/a	2	-1.067708e-01	-1.067708e-01
61.598263	0.883496	dec_nonsocial_low	0.883496	16.000000	n/a	2	-1.067708e-01	-1.067708e-01
61.598263	0.883496	dec_nonsocial_accept_low	0.883496	16.000000	n/a	2	-1.067708e-01	-1.067708e-01
70.848236	0.800236	dec_nonsocial_choice	0.800236	32.000000	n/a	2	-1.692708e-01	-1.692708e-01
70.848236	0.800236	dec_choice	0.800236	32.000000	n/a	2	-1.692708e-01	-1.692708e-01
70.848236	0.800236	dec_nonsocial_accept	0.800236	32.000000	n/a	2	-1.692708e-01	-1.692708e-01
70.848236	0.800236	dec_accept	0.800236	32.000000	n/a	2	-1.692708e-01	-1.692708e-01
70.848236	0.800236	dec_nonsocial_low	0.800236	32.000000	n/a	2	-1.692708e-01	-1.692708e-01
70.848236	0.800236	dec_nonsocial_accept_low	0.800236	32.000000	n/a	2	-1.692708e-01	-1.692708e-01
77.680954	1.583701	dec_social_choice	1.583701	32.000000	n/a	3	-1.380208e-01	-1.380208e-01
77.680954	1.583701	dec_choice	1.583701	32.000000	n/a	3	-1.380208e-01	-1.380208e-01
77.680954	1.583701	dec_social_accept	1.583701	32.000000	n/a	3	-1.380208e-01	-1.380208e-01
77.680954	1.583701	dec_accept	1.583701	32.000000	n/a	3	-1.380208e-01	-1.380208e-01
77.680954	1.583701	dec_social_accept_low	1.583701	32.000000	n/a	3	-1.380208e-01	-1.380208e-01
86.931430	1.150479	dec_nonsocial_choice	1.150479	16.000000	n/a	2	-1.067708e-01	-1.067708e-01
86.931430	1.150479	dec_choice	1.150479	16.000000	n/a	2	-1.067708e-01	-1.067708e-01
86.931430	1.150479	dec_nonsocial_accept	1.150479	16.000000	n/a	2	-1.067708e-01	-1.067708e-01
86.931430	1.150479	dec_accept	1.150479	16.000000	n/a	2	-1.067708e-01	-1.067708e-01
86.931430	1.150479	dec_nonsocial_accept_low	1.150479	16.000000	n/a	2	-1.067708e-01	-1.067708e-01
93.765060	1.049835	dec_nonsocial_choice	1.049835	16.000000	n/a	8	2.682292e-01	2.682292e-01
93.765060	1.049835	dec_choice	1.049835	16.000000	n/a	8	2.682292e-01	2.682292e-01
93.765060	1.049835	dec_nonsocial_accept	1.049835	16.000000	n/a	8	2.682292e-01	2.682292e-01
93.765060	1.049835	dec_accept	1.049835	16.000000	n/a	8	2.682292e-01	2.682292e-01
93.765060	1.049835	dec_nonsocial_accept_high	1.049835	16.000000	n/a	8	2.682292e-01	2.682292e-01
100.597710	1.150399	dec_social_choice	1.150399	32.000000	n/a	2	-1.692708e-01	-1.692708e-01
100.597710	1.150399	dec_choice	1.150399	32.000000	n/a	2	-1.692708e-01	-1.692708e-01
100.597710	1.150399	dec_social_accept	1.150399	32.000000	n/a	2	-1.692708e-01	-1.692708e-01
100.597710	1.150399	dec_accept	1.150399	32.000000	n/a	2	-1.692708e-01	-1.692708e-01
100.597710	1.150399	dec_social_accept_low	1.150399	32.000000	n/a	2	-1.692708e-01	-1.692708e-01
109.865010	1.033163	dec_nonsocial_choice	1.033163	32.000000	n/a	2	-1.692708e-01	-1.692708e-01
109.865010	1.033163	dec_choice	1.033163	32.000000	n/a	2	-1.692708e-01	-1.692708e-01
109.865010	1.033163	dec_nonsocial_accept	1.033163	32.000000	n/a	2	-1.692708e-01	-1.692708e-01
109.865010	1.033163	dec_accept	1.033163	32.000000	n/a	2	-1.692708e-01	-1.692708e-01
109.865010	1.033163	dec_nonsocial_low	1.033163	32.000000	n/a	2	-1.692708e-01	-1.692708e-01
109.865010	1.033163	dec_nonsocial_accept_low	1.033163	32.000000	n/a	2	-1.692708e-01	-1.692708e-01
117.514970	0.999652	dec_nonsocial_choice	0.999652	32.000000	n/a	16	2.682292e-01	2.682292e-01
117.514970	0.999652	dec_choice	0.999652	32.000000	n/a	16	2.682292e-01	2.682292e-01
117.514970	0.999652	dec_nonsocial_accept	0.999652	32.000000	n/a	16	2.682292e-01	2.682292e-01
117.514970	0.999652	dec_accept	0.999652	32.000000	n/a	16	2.682292e-01	2.682292e-01
117.514970	0.999652	dec_nonsocial_high	0.999652	32.000000	n/a	16	2.682292e-01	2.682292e-01
117.514970	0.999652	dec_nonsocial_accept_high	0.999652	32.000000	n/a	16	2.682292e-01	2.682292e-01
124.348160	1.032892	dec_social_choice	1.032892	32.000000	n/a	8	1.822917e-02	1.822917e-02
124.348160	1.032892	dec_choice	1.032892	32.000000	n/a	8	1.822917e-02	1.822917e-02
124.348160	1.032892	dec_social_accept	1.032892	32.000000	n/a	8	1.822917e-02	1.822917e-02
124.348160	1.032892	dec_accept	1.032892	32.000000	n/a	8	1.822917e-02	1.822917e-02
124.348160	1.032892	dec_social_accept_high	1.032892	32.000000	n/a	8	1.822917e-02	1.822917e-02
131.997160	0.883956	dec_social_choice	0.883956	16.000000	n/a	4	1.822917e-02	1.822917e-02
131.997160	0.883956	dec_choice	0.883956	16.000000	n/a	4	1.822917e-02	1.822917e-02
131.997160	0.883956	dec_social_accept	0.883956	16.000000	n/a	4	1.822917e-02	1.822917e-02
131.997160	0.883956	dec_accept	0.883956	16.000000	n/a	4	1.822917e-02	1.822917e-02
131.997160	0.883956	dec_social_high	0.883956	16.000000	n/a	4	1.822917e-02	1.822917e-02
131.997160	0.883956	dec_social_accept_high	0.883956	16.000000	n/a	4	1.822917e-02	1.822917e-02
139.647490	0.950593	dec_social_choice	0.950593	32.000000	n/a	16	2.682292e-01	2.682292e-01
139.647490	0.950593	dec_choice	0.950593	32.000000	n/a	16	2.682292e-01	2.682292e-01
139.647490	0.950593	dec_social_accept	0.950593	32.000000	n/a	16	2.682292e-01	2.682292e-01
139.647490	0.950593	dec_accept	0.950593	32.000000	n/a	16	2.682292e-01	2.682292e-01
139.647490	0.950593	dec_social_high	0.950593	32.000000	n/a	16	2.682292e-01	2.682292e-01
139.647490	0.950593	dec_social_accept_high	0.950593	32.000000	n/a	16	2.682292e-01	2.682292e-01
146.481550	1.283226	dec_nonsocial_choice	1.283226	32.000000	n/a	2	-1.692708e-01	-1.692708e-01
146.481550	1.283226	dec_choice	1.283226	32.000000	n/a	2	-1.692708e-01	-1.692708e-01
146.481550	1.283226	dec_nonsocial_accept	1.283226	32.000000	n/a	2	-1.692708e-01	-1.692708e-01
146.481550	1.283226	dec_accept	1.283226	32.000000	n/a	2	-1.692708e-01	-1.692708e-01
146.481550	1.283226	dec_nonsocial_accept_low	1.283226	32.000000	n/a	2	-1.692708e-01	-1.692708e-01
153.314060	0.883977	dec_nonsocial_choice	0.883977	32.000000	n/a	8	1.822917e-02	1.822917e-02
153.314060	0.883977	dec_choice	0.883977	32.000000	n/a	8	1.822917e-02	1.822917e-02
153.314060	0.883977	dec_nonsocial_accept	0.883977	32.000000	n/a	8	1.822917e-02	1.822917e-02
153.314060	0.883977	dec_accept	0.883977	32.000000	n/a	8	1.822917e-02	1.822917e-02
153.314060	0.883977	dec_nonsocial_high	0.883977	32.000000	n/a	8	1.822917e-02	1.822917e-02
153.314060	0.883977	dec_nonsocial_accept_high	0.883977	32.000000	n/a	8	1.822917e-02	1.822917e-02
160.149020	0.915304	dec_nonsocial_choice	0.915304	32.000000	n/a	3	-1.380208e-01	-1.380208e-01
160.149020	0.915304	dec_choice	0.915304	32.000000	n/a	3	-1.380208e-01	-1.380208e-01
160.149020	0.915304	dec_nonsocial_accept	0.915304	32.000000	n/a	3	-1.380208e-01	-1.380208e-01
160.149020	0.915304	dec_accept	0.915304	32.000000	n/a	3	-1.380208e-01	-1.380208e-01
160.149020	0.915304	dec_nonsocial_accept_low	0.915304	32.000000	n/a	3	-1.380208e-01	-1.380208e-01
171.015010	0.966350	dec_social_choice	0.966350	16.000000	n/a	2	-1.067708e-01	-1.067708e-01
171.015010	0.966350	dec_choice	0.966350	16.000000	n/a	2	-1.067708e-01	-1.067708e-01
171.015010	0.966350	dec_social_accept	0.966350	16.000000	n/a	2	-1.067708e-01	-1.067708e-01
171.015010	0.966350	dec_accept	0.966350	16.000000	n/a	2	-1.067708e-01	-1.067708e-01
171.015010	0.966350	dec_social_low	0.966350	16.000000	n/a	2	-1.067708e-01	-1.067708e-01
171.015010	0.966350	dec_social_accept_low	0.966350	16.000000	n/a	2	-1.067708e-01	-1.067708e-01
178.664730	0.933166	dec_social_choice	0.933166	16.000000	n/a	8	2.682292e-01	2.682292e-01
178.664730	0.933166	dec_choice	0.933166	16.000000	n/a	8	2.682292e-01	2.682292e-01
178.664730	0.933166	dec_social_accept	0.933166	16.000000	n/a	8	2.682292e-01	2.682292e-01
178.664730	0.933166	dec_accept	0.933166	16.000000	n/a	8	2.682292e-01	2.682292e-01
178.664730	0.933166	dec_social_accept_high	0.933166	16.000000	n/a	8	2.682292e-01	2.682292e-01
185.497960	1.333455	dec_social_choice	1.333455	32.000000	n/a	2	-1.692708e-01	-1.692708e-01
185.497960	1.333455	dec_choice	1.333455	32.000000	n/a	2	-1.692708e-01	-1.692708e-01
185.497960	1.333455	dec_social_accept	1.333455	32.000000	n/a	2	-1.692708e-01	-1.692708e-01
185.497960	1.333455	dec_accept	1.333455	32.000000	n/a	2	-1.692708e-01	-1.692708e-01
185.497960	1.333455	dec_social_low	1.333455	32.000000	n/a	2	-1.692708e-01	-1.692708e-01
185.497960	1.333455	dec_social_accept_low	1.333455	32.000000	n/a	2	-1.692708e-01	-1.692708e-01
193.130660	0.950819	dec_nonsocial_choice	0.950819	16.000000	n/a	4	1.822917e-02	1.822917e-02
193.130660	0.950819	dec_choice	0.950819	16.000000	n/a	4	1.822917e-02	1.822917e-02
193.130660	0.950819	dec_nonsocial_accept	0.950819	16.000000	n/a	4	1.822917e-02	1.822917e-02
193.130660	0.950819	dec_accept	0.950819	16.000000	n/a	4	1.822917e-02	1.822917e-02
193.130660	0.950819	dec_nonsocial_accept_high	0.950819	16.000000	n/a	4	1.822917e-02	1.822917e-02
199.964110	0.667367	dec_social_choice	0.667367	16.000000	n/a	1	-1.692708e-01	-1.692708e-01
199.964110	0.667367	dec_choice	0.667367	16.000000	n/a	1	-1.692708e-01	-1.692708e-01
199.964110	0.667367	dec_social_accept	0.667367	16.000000	n/a	1	-1.692708e-01	-1.692708e-01
199.964110	0.667367	dec_accept	0.667367	16.000000	n/a	1	-1.692708e-01	-1.692708e-01
199.964110	0.667367	dec_social_low	0.667367	16.000000	n/a	1	-1.692708e-01	-1.692708e-01
199.964110	0.667367	dec_social_accept_low	0.667367	16.000000	n/a	1	-1.692708e-01	-1.692708e-01
207.597930	0.833280	dec_nonsocial_choice	0.833280	32.000000	n/a	16	2.682292e-01	2.682292e-01
207.597930	0.833280	dec_choice	0.833280	32.000000	n/a	16	2.682292e-01	2.682292e-01
207.597930	0.833280	dec_nonsocial_accept	0.833280	32.000000	n/a	16	2.682292e-01	2.682292e-01
207.597930	0.833280	dec_accept	0.833280	32.000000	n/a	16	2.682292e-01	2.682292e-01
207.597930	0.833280	dec_nonsocial_high	0.833280	32.000000	n/a	16	2.682292e-01	2.682292e-01
207.597930	0.833280	dec_nonsocial_accept_high	0.833280	32.000000	n/a	16	2.682292e-01	2.682292e-01
214.431000	0.983627	dec_social_choice	0.983627	16.000000	n/a	2	-1.067708e-01	-1.067708e-01
214.431000	0.983627	dec_choice	0.983627	16.000000	n/a	2	-1.067708e-01	-1.067708e-01
214.431000	0.983627	dec_social_accept	0.983627	16.000000	n/a	2	-1.067708e-01	-1.067708e-01
214.431000	0.983627	dec_accept	0.983627	16.000000	n/a	2	-1.067708e-01	-1.067708e-01
214.431000	0.983627	dec_social_accept_low	0.983627	16.000000	n/a	2	-1.067708e-01	-1.067708e-01
221.264430	0.866227	dec_nonsocial_choice	0.866227	16.000000	n/a	2	-1.067708e-01	-1.067708e-01
221.264430	0.866227	dec_choice	0.866227	16.000000	n/a	2	-1.067708e-01	-1.067708e-01
221.264430	0.866227	dec_nonsocial_accept	0.866227	16.000000	n/a	2	-1.067708e-01	-1.067708e-01
221.264430	0.866227	dec_accept	0.866227	16.000000	n/a	2	-1.067708e-01	-1.067708e-01
221.264430	0.866227	dec_nonsocial_low	0.866227	16.000000	n/a	2	-1.067708e-01	-1.067708e-01
221.264430	0.866227	dec_nonsocial_accept_low	0.866227	16.000000	n/a	2	-1.067708e-01	-1.067708e-01
233.748050	1.115972	dec_nonsocial_choice	1.115972	16.000000	n/a	1	-1.692708e-01	-1.692708e-01
233.748050	1.115972	dec_choice	1.115972	16.000000	n/a	1	-1.692708e-01	-1.692708e-01
233.748050	1.115972	dec_nonsocial_accept	1.115972	16.000000	n/a	1	-1.692708e-01	-1.692708e-01
233.748050	1.115972	dec_accept	1.115972	16.000000	n/a	1	-1.692708e-01	-1.692708e-01
233.748050	1.115972	dec_nonsocial_accept_low	1.115972	16.000000	n/a	1	-1.692708e-01	-1.692708e-01
243.013900	0.783840	dec_nonsocial_choice	0.783840	32.000000	n/a	2	-1.692708e-01	-1.692708e-01
243.013900	0.783840	dec_choice	0.783840	32.000000	n/a	2	-1.692708e-01	-1.692708e-01
243.013900	0.783840	dec_nonsocial_accept	0.783840	32.000000	n/a	2	-1.692708e-01	-1.692708e-01
243.013900	0.783840	dec_accept	0.783840	32.000000	n/a	2	-1.692708e-01	-1.692708e-01
243.013900	0.783840	dec_nonsocial_accept_low	0.783840	32.000000	n/a	2	-1.692708e-01	-1.692708e-01
250.664520	0.966008	dec_nonsocial_choice	0.966008	16.000000	n/a	2	-1.067708e-01	-1.067708e-01
250.664520	0.966008	dec_choice	0.966008	16.000000	n/a	2	-1.067708e-01	-1.067708e-01
250.664520	0.966008	dec_nonsocial_accept	0.966008	16.000000	n/a	2	-1.067708e-01	-1.067708e-01
250.664520	0.966008	dec_accept	0.966008	16.000000	n/a	2	-1.067708e-01	-1.067708e-01
250.664520	0.966008	dec_nonsocial_accept_low	0.966008	16.000000	n/a	2	-1.067708e-01	-1.067708e-01
257.496980	0.867014	dec_nonsocial_choice	0.867014	32.000000	n/a	3	-1.380208e-01	-1.380208e-01
257.496980	0.867014	dec_choice	0.867014	32.000000	n/a	3	-1.380208e-01	-1.380208e-01
257.496980	0.867014	dec_nonsocial_accept	0.867014	32.000000	n/a	3	-1.380208e-01	-1.380208e-01
257.496980	0.867014	dec_accept	0.867014	32.000000	n/a	3	-1.380208e-01	-1.380208e-01
257.496980	0.867014	dec_nonsocial_low	0.867014	32.000000	n/a	3	-1.380208e-01	-1.380208e-01
257.496980	0.867014	dec_nonsocial_accept_low	0.867014	32.000000	n/a	3	-1.380208e-01	-1.380208e-01
264.331400	1.132874	dec_nonsocial_choice	1.132874	32.000000	n/a	2	-1.692708e-01	-1.692708e-01
264.331400	1.132874	dec_choice	1.132874	32.000000	n/a	2	-1.692708e-01	-1.692708e-01
264.331400	1.132874	dec_nonsocial_accept	1.132874	32.000000	n/a	2	-1.692708e-01	-1.692708e-01
264.331400	1.132874	dec_accept	1.132874	32.000000	n/a	2	-1.692708e-01	-1.692708e-01
264.331400	1.132874	dec_nonsocial_accept_low	1.132874	32.000000	n/a	2	-1.692708e-01	-1.692708e-01
271.981900	1.182541	dec_social_choice	1.182541	32.000000	n/a	2	-1.692708e-01	-1.692708e-01
271.981900	1.182541	dec_choice	1.182541	32.000000	n/a	2	-1.692708e-01	-1.692708e-01
271.981900	1.182541	dec_social_accept	1.182541	32.000000	n/a	2	-1.692708e-01	-1.692708e-01
271.981900	1.182541	dec_accept	1.182541	32.000000	n/a	2	-1.692708e-01	-1.692708e-01
271.981900	1.182541	dec_social_low	1.182541	32.000000	n/a	2	-1.692708e-01	-1.692708e-01
271.981900	1.182541	dec_social_accept_low	1.182541	32.000000	n/a	2	-1.692708e-01	-1.692708e-01
278.813870	0.933759	dec_nonsocial_choice	0.933759	16.000000	n/a	4	1.822917e-02	1.822917e-02
278.813870	0.933759	dec_choice	0.933759	16.000000	n/a	4	1.822917e-02	1.822917e-02
278.813870	0.933759	dec_nonsocial_accept	0.933759	16.000000	n/a	4	1.822917e-02	1.822917e-02
278.813870	0.933759	dec_accept	0.933759	16.000000	n/a	4	1.822917e-02	1.822917e-02
278.813870	0.933759	dec_nonsocial_accept_high	0.933759	16.000000	n/a	4	1.822917e-02	1.822917e-02
285.647920	0.616237	dec_social_choice	0.616237	16.000000	n/a	4	1.822917e-02	1.822917e-02
285.647920	0.616237	dec_choice	0.616237	16.000000	n/a	4	1.822917e-02	1.822917e-02
285.647920	0.616237	dec_social_accept	0.616237	16.000000	n/a	4	1.822917e-02	1.822917e-02
285.647920	0.616237	dec_accept	0.616237	16.000000	n/a	4	1.822917e-02	1.822917e-02
285.647920	0.616237	dec_social_accept_high	0.616237	16.000000	n/a	4	1.822917e-02	1.822917e-02
294.897860	0.683110	dec_social_choice	0.683110	16.000000	n/a	4	1.822917e-02	1.822917e-02
294.897860	0.683110	dec_choice	0.683110	16.000000	n/a	4	1.822917e-02	1.822917e-02
294.897860	0.683110	dec_social_accept	0.683110	16.000000	n/a	4	1.822917e-02	1.822917e-02
294.897860	0.683110	dec_accept	0.683110	16.000000	n/a	4	1.822917e-02	1.822917e-02
294.897860	0.683110	dec_social_accept_high	0.683110	16.000000	n/a	4	1.822917e-02	1.822917e-02
301.731870	0.899081	dec_nonsocial_choice	0.899081	16.000000	n/a	4	1.822917e-02	1.822917e-02
301.731870	0.899081	dec_choice	0.899081	16.000000	n/a	4	1.822917e-02	1.822917e-02
301.731870	0.899081	dec_nonsocial_accept	0.899081	16.000000	n/a	4	1.822917e-02	1.822917e-02
301.731870	0.899081	dec_accept	0.899081	16.000000	n/a	4	1.822917e-02	1.822917e-02
301.731870	0.899081	dec_nonsocial_high	0.899081	16.000000	n/a	4	1.822917e-02	1.822917e-02
301.731870	0.899081	dec_nonsocial_accept_high	0.899081	16.000000	n/a	4	1.822917e-02	1.822917e-02
312.597840	0.965882	dec_social_choice	0.965882	16.000000	n/a	1	-1.692708e-01	-1.692708e-01
312.597840	0.965882	dec_choice	0.965882	16.000000	n/a	1	-1.692708e-01	-1.692708e-01
312.597840	0.965882	dec_social_accept	0.965882	16.000000	n/a	1	-1.692708e-01	-1.692708e-01
312.597840	0.965882	dec_accept	0.965882	16.000000	n/a	1	-1.692708e-01	-1.692708e-01
312.597840	0.965882	dec_social_accept_low	0.965882	16.000000	n/a	1	-1.692708e-01	-1.692708e-01
319.430850	1.200016	dec_nonsocial_choice	1.200016	32.000000	n/a	8	1.822917e-02	1.822917e-02
319.430850	1.200016	dec_choice	1.200016	32.000000	n/a	8	1.822917e-02	1.822917e-02
319.430850	1.200016	dec_nonsocial_accept	1.200016	32.000000	n/a	8	1.822917e-02	1.822917e-02
319.430850	1.200016	dec_accept	1.200016	32.000000	n/a	8	1.822917e-02	1.822917e-02
319.430850	1.200016	dec_nonsocial_accept_high	1.200016	32.000000	n/a	8	1.822917e-02	1.822917e-02
328.681980	0.765137	dec_social_choice	0.765137	32.000000	n/a	8	1.822917e-02	1.822917e-02
328.681980	0.765137	dec_choice	0.765137	32.000000	n/a	8	1.822917e-02	1.822917e-02
328.681980	0.765137	dec_social_accept	0.765137	32.000000	n/a	8	1.822917e-02	1.822917e-02
328.681980	0.765137	dec_accept	0.765137	32.000000	n/a	8	1.822917e-02	1.822917e-02
328.681980	0.765137	dec_social_accept_high	0.765137	32.000000	n/a	8	1.822917e-02	1.822917e-02
336.330930	0.783221	dec_nonsocial_choice	0.783221	32.000000	n/a	16	2.682292e-01	2.682292e-01
336.330930	0.783221	dec_choice	0.783221	32.000000	n/a	16	2.682292e-01	2.682292e-01
336.330930	0.783221	dec_nonsocial_accept	0.783221	32.000000	n/a	16	2.682292e-01	2.682292e-01
336.330930	0.783221	dec_accept	0.783221	32.000000	n/a	16	2.682292e-01	2.682292e-01
336.330930	0.783221	dec_nonsocial_accept_high	0.783221	32.000000	n/a	16	2.682292e-01	2.682292e-01
343.964870	0.849271	dec_social_choice	0.849271	32.000000	n/a	2	-1.692708e-01	-1.692708e-01
343.964870	0.849271	dec_choice	0.849271	32.000000	n/a	2	-1.692708e-01	-1.692708e-01
343.964870	0.849271	dec_social_accept	0.849271	32.000000	n/a	2	-1.692708e-01	-1.692708e-01
343.964870	0.849271	dec_accept	0.849271	32.000000	n/a	2	-1.692708e-01	-1.692708e-01
343.964870	0.849271	dec_social_accept_low	0.849271	32.000000	n/a	2	-1.692708e-01	-1.692708e-01
350.797820	1.049436	dec_social_choice	1.049436	16.000000	n/a	4	1.822917e-02	1.822917e-02
350.797820	1.049436	dec_choice	1.049436	16.000000	n/a	4	1.822917e-02	1.822917e-02
350.797820	1.049436	dec_social_accept	1.049436	16.000000	n/a	4	1.822917e-02	1.822917e-02
350.797820	1.049436	dec_accept	1.049436	16.000000	n/a	4	1.822917e-02	1.822917e-02
350.797820	1.049436	dec_social_high	1.049436	16.000000	n/a	4	1.822917e-02	1.822917e-02
350.797820	1.049436	dec_social_accept_high	1.049436	16.000000	n/a	4	1.822917e-02	1.822917e-02
357.630800	0.983256	dec_nonsocial_choice	0.983256	32.000000	n/a	16	2.682292e-01	2.682292e-01
357.630800	0.983256	dec_choice	0.983256	32.000000	n/a	16	2.682292e-01	2.682292e-01
357.630800	0.983256	dec_nonsocial_accept	0.983256	32.000000	n/a	16	2.682292e-01	2.682292e-01
357.630800	0.983256	dec_accept	0.983256	32.000000	n/a	16	2.682292e-01	2.682292e-01
357.630800	0.983256	dec_nonsocial_high	0.983256	32.000000	n/a	16	2.682292e-01	2.682292e-01
357.630800	0.983256	dec_nonsocial_accept_high	0.983256	32.000000	n/a	16	2.682292e-01	2.682292e-01
365.280980	1.199495	dec_social_choice	1.199495	16.000000	n/a	2	-1.067708e-01	-1.067708e-01
365.280980	1.199495	dec_choice	1.199495	16.000000	n/a	2	-1.067708e-01	-1.067708e-01
365.280980	1.199495	dec_social_accept	1.199495	16.000000	n/a	2	-1.067708e-01	-1.067708e-01
365.280980	1.199495	dec_accept	1.199495	16.000000	n/a	2	-1.067708e-01	-1.067708e-01
365.280980	1.199495	dec_social_accept_low	1.199495	16.000000	n/a	2	-1.067708e-01	-1.067708e-01
372.113800	0.733618	dec_social_choice	0.733618	16.000000	n/a	8	2.682292e-01	2.682292e-01
372.113800	0.733618	dec_choice	0.733618	16.000000	n/a	8	2.682292e-01	2.682292e-01
372.113800	0.733618	dec_social_accept	0.733618	16.000000	n/a	8	2.682292e-01	2.682292e-01
372.113800	0.733618	dec_accept	0.733618	16.000000	n/a	8	2.682292e-01	2.682292e-01
372.113800	0.733618	dec_social_accept_high	0.733618	16.000000	n/a	8	2.682292e-01	2.682292e-01
