onset	duration	trial_type	response_time	Endowment	Endowment_pmod	Decision	Decision_pmod	Offer_pmod
4.497915	2	cue_nonsocial	n/a	32	6	n/a	n/a	n/a
4.497915	2	cue_nonsocial_high	n/a	32	9	n/a	n/a	n/a
11.331260	2	cue_nonsocial	n/a	32	6	n/a	n/a	n/a
11.331260	2	cue_nonsocial_high	n/a	32	9	n/a	n/a	n/a
18.981424	2	cue_nonsocial	n/a	16	-10	n/a	n/a	n/a
18.981424	2	cue_nonsocial_low	n/a	16	-7	n/a	n/a	n/a
25.870035	2	cue_social	n/a	16	-7	n/a	n/a	n/a
25.870035	2	cue_social_low	n/a	16	-10	n/a	n/a	n/a
32.693450	2	cue_social	n/a	16	-7	n/a	n/a	n/a
32.693450	2	cue_social_low	n/a	16	-10	n/a	n/a	n/a
41.914738	2	cue_nonsocial	n/a	32	6	n/a	n/a	n/a
41.914738	2	cue_nonsocial_high	n/a	32	9	n/a	n/a	n/a
49.548004	2	cue_nonsocial	n/a	32	6	n/a	n/a	n/a
49.548004	2	cue_nonsocial_high	n/a	32	9	n/a	n/a	n/a
56.381496	2	cue_nonsocial	n/a	16	-10	n/a	n/a	n/a
56.381496	2	cue_nonsocial_low	n/a	16	-7	n/a	n/a	n/a
65.680466	2	cue_social	n/a	16	-7	n/a	n/a	n/a
65.680466	2	cue_social_low	n/a	16	-10	n/a	n/a	n/a
73.331220	2	cue_social	n/a	32	9	n/a	n/a	n/a
73.331220	2	cue_social_high	n/a	32	6	n/a	n/a	n/a
82.599170	2	cue_social	n/a	16	-7	n/a	n/a	n/a
82.599170	2	cue_social_low	n/a	16	-10	n/a	n/a	n/a
89.364560	2	cue_nonsocial	n/a	32	6	n/a	n/a	n/a
89.364560	2	cue_nonsocial_high	n/a	32	9	n/a	n/a	n/a
96.197530	2	cue_nonsocial	n/a	32	6	n/a	n/a	n/a
96.197530	2	cue_nonsocial_high	n/a	32	9	n/a	n/a	n/a
105.447754	2	cue_nonsocial	n/a	32	6	n/a	n/a	n/a
105.447754	2	cue_nonsocial_high	n/a	32	9	n/a	n/a	n/a
112.281006	2	cue_nonsocial	n/a	32	6	n/a	n/a	n/a
112.281006	2	cue_nonsocial_high	n/a	32	9	n/a	n/a	n/a
121.608330	2	cue_social	n/a	16	-7	n/a	n/a	n/a
121.608330	2	cue_social_low	n/a	16	-10	n/a	n/a	n/a
128.380430	2	cue_nonsocial	n/a	16	-10	n/a	n/a	n/a
128.380430	2	cue_nonsocial_low	n/a	16	-7	n/a	n/a	n/a
139.350850	2	cue_social	n/a	16	-7	n/a	n/a	n/a
139.350850	2	cue_social_low	n/a	16	-10	n/a	n/a	n/a
146.139620	2	cue_social	n/a	32	9	n/a	n/a	n/a
146.139620	2	cue_social_high	n/a	32	6	n/a	n/a	n/a
152.914050	2	cue_nonsocial	n/a	32	6	n/a	n/a	n/a
152.914050	2	cue_nonsocial_high	n/a	32	9	n/a	n/a	n/a
160.609480	2	cue_social	n/a	16	-7	n/a	n/a	n/a
160.609480	2	cue_social_low	n/a	16	-10	n/a	n/a	n/a
168.214190	2	cue_nonsocial	n/a	16	-10	n/a	n/a	n/a
168.214190	2	cue_nonsocial_low	n/a	16	-7	n/a	n/a	n/a
175.069240	2	cue_social	n/a	32	9	n/a	n/a	n/a
175.069240	2	cue_social_high	n/a	32	6	n/a	n/a	n/a
181.959370	2	cue_social	n/a	32	9	n/a	n/a	n/a
181.959370	2	cue_social_high	n/a	32	6	n/a	n/a	n/a
188.770110	2	cue_social	n/a	32	9	n/a	n/a	n/a
188.770110	2	cue_social_high	n/a	32	6	n/a	n/a	n/a
199.580500	2	cue_nonsocial	n/a	32	6	n/a	n/a	n/a
199.580500	2	cue_nonsocial_high	n/a	32	9	n/a	n/a	n/a
207.319530	2	cue_social	n/a	32	9	n/a	n/a	n/a
207.319530	2	cue_social_high	n/a	32	6	n/a	n/a	n/a
214.880510	2	cue_nonsocial	n/a	32	6	n/a	n/a	n/a
214.880510	2	cue_nonsocial_high	n/a	32	9	n/a	n/a	n/a
221.777340	2	cue_social	n/a	16	-7	n/a	n/a	n/a
221.777340	2	cue_social_low	n/a	16	-10	n/a	n/a	n/a
228.613200	2	cue_social	n/a	16	-7	n/a	n/a	n/a
228.613200	2	cue_social_low	n/a	16	-10	n/a	n/a	n/a
235.380620	2	cue_nonsocial	n/a	16	-10	n/a	n/a	n/a
235.380620	2	cue_nonsocial_low	n/a	16	-7	n/a	n/a	n/a
242.285540	2	cue_social	n/a	32	9	n/a	n/a	n/a
242.285540	2	cue_social_high	n/a	32	6	n/a	n/a	n/a
249.968550	2	cue_social	n/a	32	9	n/a	n/a	n/a
249.968550	2	cue_social_high	n/a	32	6	n/a	n/a	n/a
256.774350	2	cue_social	n/a	32	9	n/a	n/a	n/a
256.774350	2	cue_social_high	n/a	32	6	n/a	n/a	n/a
263.530500	2	cue_nonsocial	n/a	32	6	n/a	n/a	n/a
263.530500	2	cue_nonsocial_high	n/a	32	9	n/a	n/a	n/a
272.860170	2	cue_social	n/a	16	-7	n/a	n/a	n/a
272.860170	2	cue_social_low	n/a	16	-10	n/a	n/a	n/a
279.613600	2	cue_nonsocial	n/a	16	-10	n/a	n/a	n/a
279.613600	2	cue_nonsocial_low	n/a	16	-7	n/a	n/a	n/a
286.539980	2	cue_social	n/a	32	9	n/a	n/a	n/a
286.539980	2	cue_social_high	n/a	32	6	n/a	n/a	n/a
294.145320	2	cue_social	n/a	32	9	n/a	n/a	n/a
294.145320	2	cue_social_high	n/a	32	6	n/a	n/a	n/a
306.580400	2	cue_nonsocial	n/a	16	-10	n/a	n/a	n/a
306.580400	2	cue_nonsocial_low	n/a	16	-7	n/a	n/a	n/a
313.413570	2	cue_nonsocial	n/a	16	-10	n/a	n/a	n/a
313.413570	2	cue_nonsocial_low	n/a	16	-7	n/a	n/a	n/a
320.323940	2	cue_social	n/a	16	-7	n/a	n/a	n/a
320.323940	2	cue_social_low	n/a	16	-10	n/a	n/a	n/a
327.896880	2	cue_nonsocial	n/a	16	-10	n/a	n/a	n/a
327.896880	2	cue_nonsocial_low	n/a	16	-7	n/a	n/a	n/a
334.730160	2	cue_nonsocial	n/a	32	6	n/a	n/a	n/a
334.730160	2	cue_nonsocial_high	n/a	32	9	n/a	n/a	n/a
343.980070	2	cue_nonsocial	n/a	32	6	n/a	n/a	n/a
343.980070	2	cue_nonsocial_high	n/a	32	9	n/a	n/a	n/a
354.847080	2	cue_nonsocial	n/a	32	6	n/a	n/a	n/a
354.847080	2	cue_nonsocial_high	n/a	32	9	n/a	n/a	n/a
362.537900	2	cue_social	n/a	16	-7	n/a	n/a	n/a
362.537900	2	cue_social_low	n/a	16	-10	n/a	n/a	n/a
370.193400	2	cue_social	n/a	16	-7	n/a	n/a	n/a
370.193400	2	cue_social_low	n/a	16	-10	n/a	n/a	n/a
6.504326	0.883704	dec_nonsocial_choice	0.883704	32.000000	n/a	16	2.682292e-01	2.682292e-01
6.504326	0.883704	dec_choice	0.883704	32.000000	n/a	16	2.682292e-01	2.682292e-01
6.504326	0.883704	dec_nonsocial_accept	0.883704	32.000000	n/a	16	2.652926e-01	2.652926e-01
6.504326	0.883704	dec_accept	0.883704	32.000000	n/a	16	2.622283e-01	2.622283e-01
6.504326	0.883704	dec_nonsocial_high	0.883704	32.000000	n/a	16	2.682292e-01	2.682292e-01
6.504326	0.883704	dec_nonsocial_accept_high	0.883704	32.000000	n/a	16	2.622283e-01	2.622283e-01
13.339123	0.748893	dec_nonsocial_choice	0.748893	32.000000	n/a	8	1.822917e-02	1.822917e-02
13.339123	0.748893	dec_choice	0.748893	32.000000	n/a	8	1.822917e-02	1.822917e-02
13.339123	0.748893	dec_nonsocial_accept	0.748893	32.000000	n/a	8	1.529255e-02	1.529255e-02
13.339123	0.748893	dec_accept	0.748893	32.000000	n/a	8	1.222826e-02	1.222826e-02
13.339123	0.748893	dec_nonsocial_accept_high	0.748893	32.000000	n/a	8	1.822917e-02	1.822917e-02
20.987192	0.801046	dec_nonsocial_choice	0.801046	16.000000	n/a	2	-1.067708e-01	-1.067708e-01
20.987192	0.801046	dec_choice	0.801046	16.000000	n/a	2	-1.067708e-01	-1.067708e-01
20.987192	0.801046	dec_nonsocial_accept	0.801046	16.000000	n/a	2	-1.097074e-01	-1.097074e-01
20.987192	0.801046	dec_accept	0.801046	16.000000	n/a	2	-1.127717e-01	-1.127717e-01
20.987192	0.801046	dec_nonsocial_low	0.801046	16.000000	n/a	2	-1.067708e-01	-1.067708e-01
20.987192	0.801046	dec_nonsocial_accept_low	0.801046	16.000000	n/a	2	-1.127717e-01	-1.127717e-01
27.822080	0.799124	dec_social_choice	0.799124	16.000000	n/a	8	2.682292e-01	2.682292e-01
27.822080	0.799124	dec_choice	0.799124	16.000000	n/a	8	2.682292e-01	2.682292e-01
27.822080	0.799124	dec_social_accept	0.799124	16.000000	n/a	8	2.652926e-01	2.652926e-01
27.822080	0.799124	dec_accept	0.799124	16.000000	n/a	8	2.682292e-01	2.682292e-01
27.822080	0.799124	dec_social_accept_high	0.799124	16.000000	n/a	8	2.682292e-01	2.682292e-01
34.655040	1.015684	dec_social_choice	1.015684	16.000000	n/a	8	2.682292e-01	2.682292e-01
34.655040	1.015684	dec_choice	1.015684	16.000000	n/a	8	2.682292e-01	2.682292e-01
34.655040	1.015684	dec_social_accept	1.015684	16.000000	n/a	8	2.652926e-01	2.652926e-01
34.655040	1.015684	dec_accept	1.015684	16.000000	n/a	8	2.682292e-01	2.682292e-01
34.655040	1.015684	dec_social_high	1.015684	16.000000	n/a	8	2.682292e-01	2.682292e-01
34.655040	1.015684	dec_social_accept_high	1.015684	16.000000	n/a	8	2.682292e-01	2.682292e-01
43.920723	0.850317	dec_nonsocial_choice	0.850317	32.000000	n/a	8	1.822917e-02	1.822917e-02
43.920723	0.850317	dec_choice	0.850317	32.000000	n/a	8	1.822917e-02	1.822917e-02
43.920723	0.850317	dec_nonsocial_accept	0.850317	32.000000	n/a	8	1.529255e-02	1.529255e-02
43.920723	0.850317	dec_accept	0.850317	32.000000	n/a	8	1.222826e-02	1.222826e-02
43.920723	0.850317	dec_nonsocial_high	0.850317	32.000000	n/a	8	1.822917e-02	1.822917e-02
43.920723	0.850317	dec_nonsocial_accept_high	0.850317	32.000000	n/a	8	1.222826e-02	1.222826e-02
51.554855	0.899842	dec_nonsocial_choice	0.899842	32.000000	n/a	16	2.682292e-01	2.682292e-01
51.554855	0.899842	dec_choice	0.899842	32.000000	n/a	16	2.682292e-01	2.682292e-01
51.554855	0.899842	dec_nonsocial_accept	0.899842	32.000000	n/a	16	2.652926e-01	2.652926e-01
51.554855	0.899842	dec_accept	0.899842	32.000000	n/a	16	2.622283e-01	2.622283e-01
51.554855	0.899842	dec_nonsocial_high	0.899842	32.000000	n/a	16	2.682292e-01	2.682292e-01
51.554855	0.899842	dec_nonsocial_accept_high	0.899842	32.000000	n/a	16	2.622283e-01	2.622283e-01
58.388070	0.833174	dec_nonsocial_choice	0.833174	16.000000	n/a	2	-1.067708e-01	-1.067708e-01
58.388070	0.833174	dec_choice	0.833174	16.000000	n/a	2	-1.067708e-01	-1.067708e-01
58.388070	0.833174	dec_nonsocial_accept	0.833174	16.000000	n/a	2	-1.097074e-01	-1.097074e-01
58.388070	0.833174	dec_accept	0.833174	16.000000	n/a	2	-1.127717e-01	-1.127717e-01
58.388070	0.833174	dec_nonsocial_low	0.833174	16.000000	n/a	2	-1.067708e-01	-1.067708e-01
58.388070	0.833174	dec_nonsocial_accept_low	0.833174	16.000000	n/a	2	-1.127717e-01	-1.127717e-01
67.637150	0.766978	dec_social_choice	0.766978	16.000000	n/a	2	-1.067708e-01	-1.067708e-01
67.637150	0.766978	dec_choice	0.766978	16.000000	n/a	2	-1.067708e-01	-1.067708e-01
67.637150	0.766978	dec_social_accept	0.766978	16.000000	n/a	2	-1.097074e-01	-1.097074e-01
67.637150	0.766978	dec_accept	0.766978	16.000000	n/a	2	-1.067708e-01	-1.067708e-01
67.637150	0.766978	dec_social_low	0.766978	16.000000	n/a	2	-1.067708e-01	-1.067708e-01
67.637150	0.766978	dec_social_accept_low	0.766978	16.000000	n/a	2	-1.067708e-01	-1.067708e-01
75.287704	0.766552	dec_social_choice	0.766552	32.000000	n/a	8	1.822917e-02	1.822917e-02
75.287704	0.766552	dec_choice	0.766552	32.000000	n/a	8	1.822917e-02	1.822917e-02
75.287704	0.766552	dec_social_accept	0.766552	32.000000	n/a	8	1.529255e-02	1.529255e-02
75.287704	0.766552	dec_accept	0.766552	32.000000	n/a	8	1.822917e-02	1.822917e-02
75.287704	0.766552	dec_social_accept_high	0.766552	32.000000	n/a	8	1.822917e-02	1.822917e-02
84.537080	0.950731	dec_social_choice	0.950731	16.000000	n/a	2	-1.067708e-01	-1.067708e-01
84.537080	0.950731	dec_choice	0.950731	16.000000	n/a	2	-1.067708e-01	-1.067708e-01
84.537080	0.950731	dec_social_accept	0.950731	16.000000	n/a	2	-1.097074e-01	-1.097074e-01
84.537080	0.950731	dec_accept	0.950731	16.000000	n/a	2	-1.067708e-01	-1.067708e-01
84.537080	0.950731	dec_social_accept_low	0.950731	16.000000	n/a	2	-1.067708e-01	-1.067708e-01
91.371056	0.933470	dec_nonsocial_choice	0.933470	32.000000	n/a	8	1.822917e-02	1.822917e-02
91.371056	0.933470	dec_choice	0.933470	32.000000	n/a	8	1.822917e-02	1.822917e-02
91.371056	0.933470	dec_nonsocial_accept	0.933470	32.000000	n/a	8	1.529255e-02	1.529255e-02
91.371056	0.933470	dec_accept	0.933470	32.000000	n/a	8	1.222826e-02	1.222826e-02
91.371056	0.933470	dec_nonsocial_accept_high	0.933470	32.000000	n/a	8	1.822917e-02	1.822917e-02
98.204320	0.816423	dec_nonsocial_choice	0.816423	32.000000	n/a	0	0	-2.317708e-01
98.204320	0.816423	dec_choice	0.816423	32.000000	n/a	0	0	-2.317708e-01
98.204320	0.816423	dec_nonsocial_reject	0.816423	32.000000	n/a	0	0	4.687500e-02
98.204320	0.816423	dec_reject	0.816423	32.000000	n/a	0	0	0
98.204320	0.816423	dec_nonsocial_reject_low	0.816423	32.000000	n/a	3	9.375000e-02	0
107.454390	0.983141	dec_nonsocial_choice	0.983141	32.000000	n/a	8	1.822917e-02	1.822917e-02
107.454390	0.983141	dec_choice	0.983141	32.000000	n/a	8	1.822917e-02	1.822917e-02
107.454390	0.983141	dec_nonsocial_accept	0.983141	32.000000	n/a	8	1.529255e-02	1.529255e-02
107.454390	0.983141	dec_accept	0.983141	32.000000	n/a	8	1.222826e-02	1.222826e-02
107.454390	0.983141	dec_nonsocial_accept_high	0.983141	32.000000	n/a	8	1.822917e-02	1.822917e-02
114.287056	0.966795	dec_nonsocial_choice	0.966795	32.000000	n/a	2	-1.692708e-01	-1.692708e-01
114.287056	0.966795	dec_choice	0.966795	32.000000	n/a	2	-1.692708e-01	-1.692708e-01
114.287056	0.966795	dec_nonsocial_accept	0.966795	32.000000	n/a	2	-1.722074e-01	-1.722074e-01
114.287056	0.966795	dec_accept	0.966795	32.000000	n/a	2	-1.752717e-01	-1.752717e-01
114.287056	0.966795	dec_nonsocial_accept_low	0.966795	32.000000	n/a	2	-1.692708e-01	-1.692708e-01
123.554344	1.016388	dec_social_choice	1.016388	16.000000	n/a	8	2.682292e-01	2.682292e-01
123.554344	1.016388	dec_choice	1.016388	16.000000	n/a	8	2.682292e-01	2.682292e-01
123.554344	1.016388	dec_social_accept	1.016388	16.000000	n/a	8	2.652926e-01	2.652926e-01
123.554344	1.016388	dec_accept	1.016388	16.000000	n/a	8	2.682292e-01	2.682292e-01
123.554344	1.016388	dec_social_accept_high	1.016388	16.000000	n/a	8	2.682292e-01	2.682292e-01
130.387070	0.866943	dec_nonsocial_choice	0.866943	16.000000	n/a	8	2.682292e-01	2.682292e-01
130.387070	0.866943	dec_choice	0.866943	16.000000	n/a	8	2.682292e-01	2.682292e-01
130.387070	0.866943	dec_nonsocial_accept	0.866943	16.000000	n/a	8	2.652926e-01	2.652926e-01
130.387070	0.866943	dec_accept	0.866943	16.000000	n/a	8	2.622283e-01	2.622283e-01
130.387070	0.866943	dec_nonsocial_accept_high	0.866943	16.000000	n/a	8	2.682292e-01	2.682292e-01
141.254400	0.799902	dec_social_choice	0.799902	16.000000	n/a	2	-1.067708e-01	-1.067708e-01
141.254400	0.799902	dec_choice	0.799902	16.000000	n/a	2	-1.067708e-01	-1.067708e-01
141.254400	0.799902	dec_social_accept	0.799902	16.000000	n/a	2	-1.097074e-01	-1.097074e-01
141.254400	0.799902	dec_accept	0.799902	16.000000	n/a	2	-1.067708e-01	-1.067708e-01
141.254400	0.799902	dec_social_low	0.799902	16.000000	n/a	2	-1.067708e-01	-1.067708e-01
141.254400	0.799902	dec_social_accept_low	0.799902	16.000000	n/a	2	-1.067708e-01	-1.067708e-01
148.088000	0.783057	dec_social_choice	0.783057	32.000000	n/a	8	1.822917e-02	1.822917e-02
148.088000	0.783057	dec_choice	0.783057	32.000000	n/a	8	1.822917e-02	1.822917e-02
148.088000	0.783057	dec_social_accept	0.783057	32.000000	n/a	8	1.529255e-02	1.529255e-02
148.088000	0.783057	dec_accept	0.783057	32.000000	n/a	8	1.822917e-02	1.822917e-02
148.088000	0.783057	dec_social_high	0.783057	32.000000	n/a	8	1.822917e-02	1.822917e-02
148.088000	0.783057	dec_social_accept_high	0.783057	32.000000	n/a	8	1.822917e-02	1.822917e-02
154.921040	0.949864	dec_nonsocial_choice	0.949864	32.000000	n/a	8	1.822917e-02	1.822917e-02
154.921040	0.949864	dec_choice	0.949864	32.000000	n/a	8	1.822917e-02	1.822917e-02
154.921040	0.949864	dec_nonsocial_accept	0.949864	32.000000	n/a	8	1.529255e-02	1.529255e-02
154.921040	0.949864	dec_accept	0.949864	32.000000	n/a	8	1.222826e-02	1.222826e-02
154.921040	0.949864	dec_nonsocial_accept_high	0.949864	32.000000	n/a	8	1.822917e-02	1.822917e-02
162.570080	1.250805	dec_social_choice	1.250805	16.000000	n/a	1	-1.692708e-01	-1.692708e-01
162.570080	1.250805	dec_choice	1.250805	16.000000	n/a	1	-1.692708e-01	-1.692708e-01
162.570080	1.250805	dec_social_accept	1.250805	16.000000	n/a	1	-1.722074e-01	-1.722074e-01
162.570080	1.250805	dec_accept	1.250805	16.000000	n/a	1	-1.692708e-01	-1.692708e-01
162.570080	1.250805	dec_social_low	1.250805	16.000000	n/a	1	-1.692708e-01	-1.692708e-01
162.570080	1.250805	dec_social_accept_low	1.250805	16.000000	n/a	1	-1.692708e-01	-1.692708e-01
170.221330	0.849523	dec_nonsocial_choice	0.849523	16.000000	n/a	2	-1.067708e-01	-1.067708e-01
170.221330	0.849523	dec_choice	0.849523	16.000000	n/a	2	-1.067708e-01	-1.067708e-01
170.221330	0.849523	dec_nonsocial_accept	0.849523	16.000000	n/a	2	-1.097074e-01	-1.097074e-01
170.221330	0.849523	dec_accept	0.849523	16.000000	n/a	2	-1.127717e-01	-1.127717e-01
170.221330	0.849523	dec_nonsocial_low	0.849523	16.000000	n/a	2	-1.067708e-01	-1.067708e-01
170.221330	0.849523	dec_nonsocial_accept_low	0.849523	16.000000	n/a	2	-1.127717e-01	-1.127717e-01
177.052870	0.951413	dec_social_choice	0.951413	32.000000	n/a	2	-1.692708e-01	-1.692708e-01
177.052870	0.951413	dec_choice	0.951413	32.000000	n/a	2	-1.692708e-01	-1.692708e-01
177.052870	0.951413	dec_social_accept	0.951413	32.000000	n/a	2	-1.722074e-01	-1.722074e-01
177.052870	0.951413	dec_accept	0.951413	32.000000	n/a	2	-1.692708e-01	-1.692708e-01
177.052870	0.951413	dec_social_accept_low	0.951413	32.000000	n/a	2	-1.692708e-01	-1.692708e-01
183.886700	1.200929	dec_social_choice	1.200929	32.000000	n/a	2	-1.692708e-01	-1.692708e-01
183.886700	1.200929	dec_choice	1.200929	32.000000	n/a	2	-1.692708e-01	-1.692708e-01
183.886700	1.200929	dec_social_accept	1.200929	32.000000	n/a	2	-1.722074e-01	-1.722074e-01
183.886700	1.200929	dec_accept	1.200929	32.000000	n/a	2	-1.692708e-01	-1.692708e-01
183.886700	1.200929	dec_social_accept_low	1.200929	32.000000	n/a	2	-1.692708e-01	-1.692708e-01
190.721000	1.216008	dec_social_choice	1.216008	32.000000	n/a	16	2.682292e-01	2.682292e-01
190.721000	1.216008	dec_choice	1.216008	32.000000	n/a	16	2.682292e-01	2.682292e-01
190.721000	1.216008	dec_social_accept	1.216008	32.000000	n/a	16	2.652926e-01	2.652926e-01
190.721000	1.216008	dec_accept	1.216008	32.000000	n/a	16	2.682292e-01	2.682292e-01
190.721000	1.216008	dec_social_high	1.216008	32.000000	n/a	16	2.682292e-01	2.682292e-01
190.721000	1.216008	dec_social_accept_high	1.216008	32.000000	n/a	16	2.682292e-01	2.682292e-01
201.587950	0.715867	dec_nonsocial_choice	0.715867	32.000000	n/a	16	2.682292e-01	2.682292e-01
201.587950	0.715867	dec_choice	0.715867	32.000000	n/a	16	2.682292e-01	2.682292e-01
201.587950	0.715867	dec_nonsocial_accept	0.715867	32.000000	n/a	16	2.652926e-01	2.652926e-01
201.587950	0.715867	dec_accept	0.715867	32.000000	n/a	16	2.622283e-01	2.622283e-01
201.587950	0.715867	dec_nonsocial_high	0.715867	32.000000	n/a	16	2.682292e-01	2.682292e-01
201.587950	0.715867	dec_nonsocial_accept_high	0.715867	32.000000	n/a	16	2.622283e-01	2.622283e-01
209.237960	0.782735	dec_social_choice	0.782735	32.000000	n/a	3	-1.380208e-01	-1.380208e-01
209.237960	0.782735	dec_choice	0.782735	32.000000	n/a	3	-1.380208e-01	-1.380208e-01
209.237960	0.782735	dec_social_accept	0.782735	32.000000	n/a	3	-1.409574e-01	-1.409574e-01
209.237960	0.782735	dec_accept	0.782735	32.000000	n/a	3	-1.380208e-01	-1.380208e-01
209.237960	0.782735	dec_social_low	0.782735	32.000000	n/a	3	-1.380208e-01	-1.380208e-01
209.237960	0.782735	dec_social_accept_low	0.782735	32.000000	n/a	3	-1.380208e-01	-1.380208e-01
216.887360	1.466229	dec_nonsocial_choice	1.466229	32.000000	n/a	2	-1.692708e-01	-1.692708e-01
216.887360	1.466229	dec_choice	1.466229	32.000000	n/a	2	-1.692708e-01	-1.692708e-01
216.887360	1.466229	dec_nonsocial_accept	1.466229	32.000000	n/a	2	-1.722074e-01	-1.722074e-01
216.887360	1.466229	dec_accept	1.466229	32.000000	n/a	2	-1.752717e-01	-1.752717e-01
216.887360	1.466229	dec_nonsocial_low	1.466229	32.000000	n/a	2	-1.692708e-01	-1.692708e-01
216.887360	1.466229	dec_nonsocial_accept_low	1.466229	32.000000	n/a	2	-1.752717e-01	-1.752717e-01
223.719970	0.967226	dec_social_choice	0.967226	16.000000	n/a	2	-1.067708e-01	-1.067708e-01
223.719970	0.967226	dec_choice	0.967226	16.000000	n/a	2	-1.067708e-01	-1.067708e-01
223.719970	0.967226	dec_social_accept	0.967226	16.000000	n/a	2	-1.097074e-01	-1.097074e-01
223.719970	0.967226	dec_accept	0.967226	16.000000	n/a	2	-1.067708e-01	-1.067708e-01
223.719970	0.967226	dec_social_accept_low	0.967226	16.000000	n/a	2	-1.067708e-01	-1.067708e-01
230.554720	0.965550	dec_social_choice	0.965550	16.000000	n/a	8	2.682292e-01	2.682292e-01
230.554720	0.965550	dec_choice	0.965550	16.000000	n/a	8	2.682292e-01	2.682292e-01
230.554720	0.965550	dec_social_accept	0.965550	16.000000	n/a	8	2.652926e-01	2.652926e-01
230.554720	0.965550	dec_accept	0.965550	16.000000	n/a	8	2.682292e-01	2.682292e-01
230.554720	0.965550	dec_social_high	0.965550	16.000000	n/a	8	2.682292e-01	2.682292e-01
230.554720	0.965550	dec_social_accept_high	0.965550	16.000000	n/a	8	2.682292e-01	2.682292e-01
237.387250	0.916417	dec_nonsocial_choice	0.916417	16.000000	n/a	4	1.822917e-02	1.822917e-02
237.387250	0.916417	dec_choice	0.916417	16.000000	n/a	4	1.822917e-02	1.822917e-02
237.387250	0.916417	dec_nonsocial_accept	0.916417	16.000000	n/a	4	1.529255e-02	1.529255e-02
237.387250	0.916417	dec_accept	0.916417	16.000000	n/a	4	1.222826e-02	1.222826e-02
237.387250	0.916417	dec_nonsocial_accept_high	0.916417	16.000000	n/a	4	1.822917e-02	1.822917e-02
244.219860	1.017456	dec_social_choice	1.017456	32.000000	n/a	8	1.822917e-02	1.822917e-02
244.219860	1.017456	dec_choice	1.017456	32.000000	n/a	8	1.822917e-02	1.822917e-02
244.219860	1.017456	dec_social_accept	1.017456	32.000000	n/a	8	1.529255e-02	1.529255e-02
244.219860	1.017456	dec_accept	1.017456	32.000000	n/a	8	1.822917e-02	1.822917e-02
244.219860	1.017456	dec_social_accept_high	1.017456	32.000000	n/a	8	1.822917e-02	1.822917e-02
251.869960	0.700699	dec_social_choice	0.700699	32.000000	n/a	2	-1.692708e-01	-1.692708e-01
251.869960	0.700699	dec_choice	0.700699	32.000000	n/a	2	-1.692708e-01	-1.692708e-01
251.869960	0.700699	dec_social_accept	0.700699	32.000000	n/a	2	-1.722074e-01	-1.722074e-01
251.869960	0.700699	dec_accept	0.700699	32.000000	n/a	2	-1.692708e-01	-1.692708e-01
251.869960	0.700699	dec_social_low	0.700699	32.000000	n/a	2	-1.692708e-01	-1.692708e-01
251.869960	0.700699	dec_social_accept_low	0.700699	32.000000	n/a	2	-1.692708e-01	-1.692708e-01
258.703900	0.932831	dec_social_choice	0.932831	32.000000	n/a	8	1.822917e-02	1.822917e-02
258.703900	0.932831	dec_choice	0.932831	32.000000	n/a	8	1.822917e-02	1.822917e-02
258.703900	0.932831	dec_social_accept	0.932831	32.000000	n/a	8	1.529255e-02	1.529255e-02
258.703900	0.932831	dec_accept	0.932831	32.000000	n/a	8	1.822917e-02	1.822917e-02
258.703900	0.932831	dec_social_accept_high	0.932831	32.000000	n/a	8	1.822917e-02	1.822917e-02
265.537170	0.816239	dec_nonsocial_choice	0.816239	32.000000	n/a	2	-1.692708e-01	-1.692708e-01
265.537170	0.816239	dec_choice	0.816239	32.000000	n/a	2	-1.692708e-01	-1.692708e-01
265.537170	0.816239	dec_nonsocial_accept	0.816239	32.000000	n/a	2	-1.722074e-01	-1.722074e-01
265.537170	0.816239	dec_accept	0.816239	32.000000	n/a	2	-1.752717e-01	-1.752717e-01
265.537170	0.816239	dec_nonsocial_low	0.816239	32.000000	n/a	2	-1.692708e-01	-1.692708e-01
265.537170	0.816239	dec_nonsocial_accept_low	0.816239	32.000000	n/a	2	-1.752717e-01	-1.752717e-01
274.786600	0.950497	dec_social_choice	0.950497	16.000000	n/a	4	1.822917e-02	1.822917e-02
274.786600	0.950497	dec_choice	0.950497	16.000000	n/a	4	1.822917e-02	1.822917e-02
274.786600	0.950497	dec_social_accept	0.950497	16.000000	n/a	4	1.529255e-02	1.529255e-02
274.786600	0.950497	dec_accept	0.950497	16.000000	n/a	4	1.822917e-02	1.822917e-02
274.786600	0.950497	dec_social_high	0.950497	16.000000	n/a	4	1.822917e-02	1.822917e-02
274.786600	0.950497	dec_social_accept_high	0.950497	16.000000	n/a	4	1.822917e-02	1.822917e-02
281.620880	0.849790	dec_nonsocial_choice	0.849790	16.000000	n/a	8	2.682292e-01	2.682292e-01
281.620880	0.849790	dec_choice	0.849790	16.000000	n/a	8	2.682292e-01	2.682292e-01
281.620880	0.849790	dec_nonsocial_accept	0.849790	16.000000	n/a	8	2.652926e-01	2.652926e-01
281.620880	0.849790	dec_accept	0.849790	16.000000	n/a	8	2.622283e-01	2.622283e-01
281.620880	0.849790	dec_nonsocial_high	0.849790	16.000000	n/a	8	2.682292e-01	2.682292e-01
281.620880	0.849790	dec_nonsocial_accept_high	0.849790	16.000000	n/a	8	2.622283e-01	2.622283e-01
288.454220	1.115840	dec_social_choice	1.115840	32.000000	n/a	2	-1.692708e-01	-1.692708e-01
288.454220	1.115840	dec_choice	1.115840	32.000000	n/a	2	-1.692708e-01	-1.692708e-01
288.454220	1.115840	dec_social_accept	1.115840	32.000000	n/a	2	-1.722074e-01	-1.722074e-01
288.454220	1.115840	dec_accept	1.115840	32.000000	n/a	2	-1.692708e-01	-1.692708e-01
288.454220	1.115840	dec_social_accept_low	1.115840	32.000000	n/a	2	-1.692708e-01	-1.692708e-01
296.103880	1.099875	dec_social_choice	1.099875	32.000000	n/a	3	-1.380208e-01	-1.380208e-01
296.103880	1.099875	dec_choice	1.099875	32.000000	n/a	3	-1.380208e-01	-1.380208e-01
296.103880	1.099875	dec_social_accept	1.099875	32.000000	n/a	3	-1.409574e-01	-1.409574e-01
296.103880	1.099875	dec_accept	1.099875	32.000000	n/a	3	-1.380208e-01	-1.380208e-01
296.103880	1.099875	dec_social_accept_low	1.099875	32.000000	n/a	3	-1.380208e-01	-1.380208e-01
308.586880	1.033600	dec_nonsocial_choice	1.033600	16.000000	n/a	8	2.682292e-01	2.682292e-01
308.586880	1.033600	dec_choice	1.033600	16.000000	n/a	8	2.682292e-01	2.682292e-01
308.586880	1.033600	dec_nonsocial_accept	1.033600	16.000000	n/a	8	2.652926e-01	2.652926e-01
308.586880	1.033600	dec_accept	1.033600	16.000000	n/a	8	2.622283e-01	2.622283e-01
308.586880	1.033600	dec_nonsocial_high	1.033600	16.000000	n/a	8	2.682292e-01	2.682292e-01
308.586880	1.033600	dec_nonsocial_accept_high	1.033600	16.000000	n/a	8	2.622283e-01	2.622283e-01
315.420840	0.849618	dec_nonsocial_choice	0.849618	16.000000	n/a	2	-1.067708e-01	-1.067708e-01
315.420840	0.849618	dec_choice	0.849618	16.000000	n/a	2	-1.067708e-01	-1.067708e-01
315.420840	0.849618	dec_nonsocial_accept	0.849618	16.000000	n/a	2	-1.097074e-01	-1.097074e-01
315.420840	0.849618	dec_accept	0.849618	16.000000	n/a	2	-1.127717e-01	-1.127717e-01
315.420840	0.849618	dec_nonsocial_low	0.849618	16.000000	n/a	2	-1.067708e-01	-1.067708e-01
315.420840	0.849618	dec_nonsocial_accept_low	0.849618	16.000000	n/a	2	-1.127717e-01	-1.127717e-01
322.253330	1.250817	dec_social_choice	1.250817	16.000000	n/a	8	2.682292e-01	2.682292e-01
322.253330	1.250817	dec_choice	1.250817	16.000000	n/a	8	2.682292e-01	2.682292e-01
322.253330	1.250817	dec_social_accept	1.250817	16.000000	n/a	8	2.652926e-01	2.652926e-01
322.253330	1.250817	dec_accept	1.250817	16.000000	n/a	8	2.682292e-01	2.682292e-01
322.253330	1.250817	dec_social_high	1.250817	16.000000	n/a	8	2.682292e-01	2.682292e-01
322.253330	1.250817	dec_social_accept_high	1.250817	16.000000	n/a	8	2.682292e-01	2.682292e-01
329.902830	1.184282	dec_nonsocial_choice	1.184282	16.000000	n/a	1	-1.692708e-01	-1.692708e-01
329.902830	1.184282	dec_choice	1.184282	16.000000	n/a	1	-1.692708e-01	-1.692708e-01
329.902830	1.184282	dec_nonsocial_accept	1.184282	16.000000	n/a	1	-1.722074e-01	-1.722074e-01
329.902830	1.184282	dec_accept	1.184282	16.000000	n/a	1	-1.752717e-01	-1.752717e-01
329.902830	1.184282	dec_nonsocial_accept_low	1.184282	16.000000	n/a	1	-1.692708e-01	-1.692708e-01
336.737430	1.049644	dec_nonsocial_choice	1.049644	32.000000	n/a	2	-1.692708e-01	-1.692708e-01
336.737430	1.049644	dec_choice	1.049644	32.000000	n/a	2	-1.692708e-01	-1.692708e-01
336.737430	1.049644	dec_nonsocial_accept	1.049644	32.000000	n/a	2	-1.722074e-01	-1.722074e-01
336.737430	1.049644	dec_accept	1.049644	32.000000	n/a	2	-1.752717e-01	-1.752717e-01
336.737430	1.049644	dec_nonsocial_accept_low	1.049644	32.000000	n/a	2	-1.692708e-01	-1.692708e-01
345.986820	0.800132	dec_nonsocial_choice	0.800132	32.000000	n/a	3	-1.380208e-01	-1.380208e-01
345.986820	0.800132	dec_choice	0.800132	32.000000	n/a	3	-1.380208e-01	-1.380208e-01
345.986820	0.800132	dec_nonsocial_accept	0.800132	32.000000	n/a	3	-1.409574e-01	-1.409574e-01
345.986820	0.800132	dec_accept	0.800132	32.000000	n/a	3	-1.440217e-01	-1.440217e-01
345.986820	0.800132	dec_nonsocial_accept_low	0.800132	32.000000	n/a	3	-1.380208e-01	-1.380208e-01
356.853850	0.699500	dec_nonsocial_choice	0.699500	32.000000	n/a	2	-1.692708e-01	-1.692708e-01
356.853850	0.699500	dec_choice	0.699500	32.000000	n/a	2	-1.692708e-01	-1.692708e-01
356.853850	0.699500	dec_nonsocial_accept	0.699500	32.000000	n/a	2	-1.722074e-01	-1.722074e-01
356.853850	0.699500	dec_accept	0.699500	32.000000	n/a	2	-1.752717e-01	-1.752717e-01
356.853850	0.699500	dec_nonsocial_accept_low	0.699500	32.000000	n/a	2	-1.692708e-01	-1.692708e-01
364.503800	0.982924	dec_social_choice	0.982924	16.000000	n/a	4	1.822917e-02	1.822917e-02
364.503800	0.982924	dec_choice	0.982924	16.000000	n/a	4	1.822917e-02	1.822917e-02
364.503800	0.982924	dec_social_accept	0.982924	16.000000	n/a	4	1.529255e-02	1.529255e-02
364.503800	0.982924	dec_accept	0.982924	16.000000	n/a	4	1.822917e-02	1.822917e-02
364.503800	0.982924	dec_social_high	0.982924	16.000000	n/a	4	1.822917e-02	1.822917e-02
364.503800	0.982924	dec_social_accept_high	0.982924	16.000000	n/a	4	1.822917e-02	1.822917e-02
372.153780	0.933210	dec_social_choice	0.933210	16.000000	n/a	1	-1.692708e-01	-1.692708e-01
372.153780	0.933210	dec_choice	0.933210	16.000000	n/a	1	-1.692708e-01	-1.692708e-01
372.153780	0.933210	dec_social_accept	0.933210	16.000000	n/a	1	-1.722074e-01	-1.722074e-01
372.153780	0.933210	dec_accept	0.933210	16.000000	n/a	1	-1.692708e-01	-1.692708e-01
372.153780	0.933210	dec_social_accept_low	0.933210	16.000000	n/a	1	-1.692708e-01	-1.692708e-01
