onset	duration	trial_type	rt	resp
0.0004292000085115433	0.63623489998281	fixation_1	999	999
0.6367192000034265	3.0376346999546513	face	n/a	n/a
3.6743816999951378	0.63623489998281	fixation_2	999	999
4.220071299991105	1.0165662000072189	feedback win	999	999
5.236639500013553	5.317427499976475	ITI	999	999
10.569694000005256	0.6336684999987483	fixation_1	999	999
11.203415700001642	3.0011183999595232	face	1.5326362999621779	1
14.204573199967854	0.6336684999987483	fixation_2	999	999
14.753278099989984	1.0166743000154383	feedback loss	999	999
15.769954599963967	1.1180886999936774	ITI	999	999
16.891068700002506	0.6288645999738947	fixation_1	999	999
17.5199852999649	3.0010770999942906	face	1.5330702000064775	2
20.521101999969687	0.6288645999738947	fixation_2	999	999
21.0700278999866	1.0164125000010245	feedback win	999	999
22.086442500003614	1.1176160000031814	ITI	999	999
23.207080999971367	0.6292995000258088	fixation_1	999	999
23.83643480000319	3.0017762999632396	face	1.5328074999852106	1
26.838250499975402	0.6292995000258088	fixation_2	999	999
27.386602899990976	1.000049299967941	feedback win	999	999
28.386654299974907	3.216384100029245	ITI	999	999
31.60603889997583	0.6305677000200376	fixation_1	999	999
32.23665889998665	3.000371499976609	face	1.2830457999953069	2
35.237069999973755	0.6305677000200376	fixation_2	999	999
35.78657779999776	1.016615099972114	feedback loss	999	999
36.803195099986624	5.315947399998549	ITI	999	999
42.12216939998325	0.6310610999935307	fixation_1	999	999
42.7532826999668	3.001534100039862	face	2.281862000003457	2
45.75485669996124	0.6310610999935307	fixation_2	999	999
46.30320419999771	1.000031500007026	feedback loss	999	999
47.30323789996328	3.216510800004471	ITI	999	999
50.52275919995736	0.6304490000475198	fixation_1	999	999
51.15326290001394	3.0020144999725744	face	2.783808499982115	1
54.15531900001224	0.6304490000475198	fixation_2	999	999
54.70331999997143	1.0164855000330135	feedback win	999	999
55.71980749996146	3.216312000004109	ITI	999	999
58.93929979996756	0.6305046000052243	fixation_1	999	999
59.569856599962804	3.03609890001826	face	n/a	n/a
62.60598220000975	0.6305046000052243	fixation_2	999	999
63.15317419997882	1.0170447999844328	feedback loss	999	999
64.17022109997924	1.1174295999808237	ITI	999	999
65.29077769996366	0.6289869000320323	fixation_1	999	999
65.91981960000703	3.034285200003069	face	n/a	n/a
68.95413149998058	0.6289869000320323	fixation_2	999	999
69.50316209997982	1.0000472000101581	feedback win	999	999
70.50321140000597	1.1169287000084296	ITI	999	999
71.62336169998161	0.6297650000196882	fixation_1	999	999
72.25317969999742	3.0008398999925703	face	1.282305400003679	1
75.25405970000429	0.6297650000196882	fixation_2	999	999
75.80311360000633	1.0000285999849439	feedback win	999	999
76.80314430000726	1.1169294999563135	ITI	999	999
77.92325290001463	0.6298795999609865	fixation_1	999	999
78.5531842999626	3.0346754000056535	face	n/a	n/a
81.58788889995776	0.6298795999609865	fixation_2	999	999
82.13619339995785	1.016905200027395	feedback loss	999	999
83.15310070000123	3.2163104999926873	ITI	999	999
86.37256190000335	0.6305158999748528	fixation_1	999	999
87.00313450000249	3.0006811000057496	face	1.0332612000056542	1
90.00385569996433	0.6305158999748528	fixation_2	999	999
90.55286699999124	1.0003047999925911	feedback loss	999	999
91.55317400000058	1.1178115999791771	ITI	999	999
92.6743496999843	0.628755200013984	fixation_1	999	999
93.30315819999669	3.0008065999718383	face	1.7819421999738552	2
96.3040041999775	0.628755200013984	fixation_2	999	999
96.85269809997408	1.0003766000154428	feedback win	999	999
97.85307700000703	5.3159102000063285	ITI	999	999
103.17231059999904	0.6307566000032239	fixation_1	999	999
103.80312379996758	3.00145830004476	face	2.5319701000116765	2
106.80462119996082	0.6307566000032239	fixation_2	999	999
107.35318019997794	1.0165829000179656	feedback win	999	999
108.36976530001266	1.1172003999818116	ITI	999	999
109.49021329998504	0.6294544999836944	fixation_1	999	999
110.11972809996223	3.001622900017537	face	1.5321670999983326	1
113.12139029998798	0.6294544999836944	fixation_2	999	999
113.66966459999094	1.000000900006853	feedback win	999	999
114.66966849996243	5.316853400028776	ITI	999	999
119.98981999995885	0.6298052000347525	fixation_1	999	999
120.6196859999909	3.000980200013146	face	1.5332626000163145	1
123.62070570001379	0.6298052000347525	fixation_2	999	999
124.16957699996419	1.0000513000413775	feedback win	999	999
125.16963049996411	3.2163104999926873	ITI	999	999
128.38932640000712	0.6302810999914072	fixation_1	999	999
129.0196672999882	3.0011977999820374	face	2.799921399971936	1
132.02090549998684	0.6302810999914072	fixation_2	999	999
132.56961119995685	1.0166010000393726	feedback win	999	999
133.58621440001298	3.2173686999594793	ITI	999	999
136.80705760000274	0.6290573999867775	fixation_1	999	999
137.43617010000162	3.0372983000124805	face	n/a	n/a
140.47349589999067	0.6290573999867775	fixation_2	999	999
141.01960269996198	1.0000742000411265	feedback win	999	999
142.01967909996165	3.2162553000380285	ITI	999	999
145.23930799996015	0.6302679000073113	fixation_1	999	999
145.8696321999887	3.001350399979856	face	1.783021999988705	1
148.87102560000494	0.6302679000073113	fixation_2	999	999
149.41956629999913	1.0166246999870054	feedback win	999	999
150.43619300000137	11.616233899956569	ITI	999	999
162.05586570000742	0.6302325999713503	fixation_1	999	999
162.68615139997564	3.0017625000327826	face	2.0336270999978296	1
165.68795339995995	0.6302325999713503	fixation_2	999	999
166.23609339998802	1.0171359999803826	feedback loss	999	999
167.25323159998516	5.316660500015132	ITI	999	999
172.57329839997692	0.6295727000106126	fixation_1	999	999
173.20292299997527	3.001979199994821	face	2.2829655000241473	1
176.2049419999821	0.6295727000106126	fixation_2	999	999
176.75301169999875	1.0164695999701507	feedback win	999	999
177.7694833999849	5.316901599988341	ITI	999	999
183.08980759995757	0.629500100039877	fixation_1	999	999
183.71936280000955	3.001592799962964	face	1.5327622999902815	2
186.7209946999792	0.629500100039877	fixation_2	999	999
187.2694662999711	1.0165801999974065	feedback loss	999	999
188.2860485999845	3.216121800011024	ITI	999	999
191.50568979996024	0.6300478000193834	fixation_1	999	999
192.13577900000382	3.001088399963919	face	2.033504399994854	2
195.13690669997595	0.6300478000193834	fixation_2	999	999
195.68608690000838	1.0166781999869272	feedback loss	999	999
196.70276750001358	1.1177825999911875	ITI	999	999
197.82402319996618	0.6286744000390172	fixation_1	999	999
198.45275180001045	3.0021270999568515	face	2.0327014999929816	1
201.45491809997475	0.6286744000390172	fixation_2	999	999
202.00279219995718	1.0166368000209332	feedback loss	999	999
203.01943119999487	1.117449100012891	ITI	999	999
204.14039819996106	0.6290149000124075	fixation_1	999	999
204.7694662999711	3.001385100011248	face	1.5329030000139028	1
207.77089200000046	0.6290149000124075	fixation_2	999	999
208.31930440000724	1.0002048999886028	feedback win	999	999
209.31951160001336	5.3162311999476515	ITI	999	999
214.6393323999946	0.6304433000041172	fixation_1	999	999
215.26982809999026	3.0379456999944523	face	n/a	n/a
218.30780079995748	0.6304433000041172	fixation_2	999	999
218.85280069999862	1.000013199984096	feedback loss	999	999
219.8528159999987	5.317043099959847	ITI	999	999
225.17344310000772	0.6293394999811426	fixation_1	999	999
225.80283609998878	3.0010039000189863	face	1.5331827999907546	1
228.80387959996006	0.6293394999811426	fixation_2	999	999
229.35251429997152	1.0001821999903768	feedback win	999	999
230.35269869997865	3.2161720999865793	ITI	999	999
233.57254679995822	0.6302378000109456	fixation_1	999	999
234.20283739996376	3.0368997000041418	face	n/a	n/a
237.23976409999887	0.6302378000109456	fixation_2	999	999
237.785896699992	1.00020539999241	feedback loss	999	999
238.78610430000117	1.1167532000108622	ITI	999	999
239.90644960000645	0.6296264999546111	fixation_1	999	999
240.53612989996327	3.0017096000374295	face	1.7827496000099927	1
243.53787890000967	0.6296264999546111	fixation_2	999	999
244.08601189998444	1.0166213000193238	feedback win	999	999
245.1026353999623	3.2172070000087842	ITI	999	999
248.32351670000935	0.6296224999823608	fixation_1	999	999
248.9531927999924	3.035077699983958	face	n/a	n/a
251.9882973000058	0.6296224999823608	fixation_2	999	999
252.53600560000632	1.0167272999533452	feedback loss	999	999
253.55273499997566	1.1181753000128083	ITI	999	999
254.67464219999965	0.6280083999736235	fixation_1	999	999
255.3027048999793	3.001048600010108	face	2.5330967000336386	2
258.303793900006	0.6280083999736235	fixation_2	999	999
258.85262079996755	1.0000111000263132	feedback loss	999	999
259.8526341000106	1.1181772999698296	ITI	999	999
260.97455769998487	0.6280317999771796	fixation_1	999	999
261.60264379996806	3.0016055000014603	face	1.7829177000094205	1
264.60428929998307	0.6280317999771796	fixation_2	999	999
265.1525525999605	1.0003415000392124	feedback loss	999	999
266.15289619995747	1.1178280000458471	ITI	999	999
267.27446939999936	0.6279443000094034	fixation_1	999	999
267.9024664000026	3.0362985999672674	face	n/a	n/a
270.9387923000031	0.6279443000094034	fixation_2	999	999
271.48599889996694	1.000068099994678	feedback win	999	999
272.4860691999784	5.316694999986794	ITI	999	999
277.806494999968	0.6294177999952808	fixation_1	999	999
278.43596659996547	3.0357471000170335	face	n/a	n/a
281.47174119995907	0.6294177999952808	fixation_2	999	999
282.0190280000097	1.0168807999580167	feedback loss	999	999
283.0359109999845	1.1176923000020906	ITI	999	999
284.1574713999871	0.6284265000140294	fixation_1	999	999
284.78595300001325	3.00136209995253	face	1.5338242999860086	1
287.787354399974	0.6284265000140294	fixation_2	999	999
288.3358553999569	1.0001127000432462	feedback loss	999	999
289.33597019995796	3.216790300037246	ITI	999	999
292.55655019998085	0.6293690000311472	fixation_1	999	999
293.18597290001344	3.0014035999774933	face	1.2827818999649025	1
296.187416700006	0.6293690000311472	fixation_2	999	999
296.73591270000907	1.0165908999624662	feedback win	999	999
297.7525057999883	5.316696399997454	ITI	999	999
303.0730666999589	0.6297646000166424	fixation_1	999	999
303.70288319996325	3.0018412000499666	face	1.532861200044863	2
306.7047639999655	0.6297646000166424	fixation_2	999	999
307.2525341999717	1.016416400030721	feedback loss	999	999
308.2689526999602	5.316913600021508	ITI	999	999
313.5897296000039	0.6292319999774918	fixation_1	999	999
314.21901509998133	3.0014912000042386	face	2.7828056000289507	1
317.22054720000597	0.6292319999774918	fixation_2	999	999
317.7691288999631	1.0167004000395536	feedback win	999	999
318.78583139996044	1.1179008000181057	ITI	999	999
319.9075820000144	0.628254699986428	fixation_1	999	999
320.5358884999878	3.001669600023888	face	2.2818500999710523	2
323.53759739996167	0.628254699986428	fixation_2	999	999
324.08579969999846	1.0000401000143029	feedback loss	999	999
325.08584189997055	1.1178899999940768	ITI	999	999
326.2076772999717	0.6281512000132352	fixation_1	999	999
326.83588019997114	3.049452700011898	face	3.0489506000303663	1
329.8853591000079	0.6281512000132352	fixation_2	999	999
330.43587789998855	1.016272199980449	feedback loss	999	999
331.452152199985	5.316735900007188	ITI	999	999
