onset	duration	trial_type	rt	resp	gender	image_left	image_right
0.6013748999685049	3.000828400021419	decision	2.035339900001418	left	S	SD001.jpg	SD002.jpg
4.155072399997152	1.0010338999563828	win	n/a	n/a	n/a	SD001.jpg	SD002.jpg
11.078846299962606	3.0012798000243492	decision	2.535318400012329	right	S	SD003.jpg	SD004.jpg
14.632536899996921	1.0011128999758512	loss	n/a	n/a	n/a	SD003.jpg	SD004.jpg
17.352022399951238	3.0023802000214346	decision	1.7839569000061601	left	S	SD005.jpg	SD006.jpg
20.905454899999313	1.0010831999825314	win	n/a	n/a	n/a	SD005.jpg	SD006.jpg
23.625006199989002	3.0023639000137337	decision	2.5349806000012904	left	D	DD001.jpg	DD002.jpg
27.178386999992654	1.0009275999618694	win	n/a	n/a	n/a	DD001.jpg	DD002.jpg
31.999597699963488	3.03580419998616	decision-missed	n/a	n/a	D	DD003.jpg	DD004.jpg
35.58695969998371	1.0009354999638163	loss	n/a	n/a	n/a	DD003.jpg	DD004.jpg
42.49364760000026	3.00071619998198	decision	2.0342863999539986	left	S	SD007.jpg	SD008.jpg
46.047131999977864	1.0013670999906026	loss	n/a	n/a	n/a	SD007.jpg	SD008.jpg
50.88577999995323	3.00128590001259	decision	1.283249700034503	left	S	SD009.jpg	SD010.jpg
54.43899049999891	1.0008839999791235	win	n/a	n/a	n/a	SD009.jpg	SD010.jpg
59.27763779996894	3.0013529999996535	decision	1.2833209999953397	left	D	DD005.jpg	DD006.jpg
62.830949099967256	1.0009359000250697	loss	n/a	n/a	n/a	DD005.jpg	DD006.jpg
65.56700349994935	3.0016929000266828	decision	2.033984200039413	left	D	DD007.jpg	DD008.jpg
69.12043289997382	1.001265799975954	win	n/a	n/a	n/a	DD007.jpg	DD008.jpg
71.83995299995877	3.035771500028204	decision-missed	n/a	n/a	D	DD009.jpg	DD010.jpg
75.42691319994628	1.0009644000092521	win	n/a	n/a	n/a	DD009.jpg	DD010.jpg
78.14674329996342	3.0021884000161663	decision	1.282884299987927	left	D	DD011.jpg	DD012.jpg
81.69988669996383	1.001147500006482	loss	n/a	n/a	n/a	DD011.jpg	DD012.jpg
86.53833969996776	3.0016681000124663	decision	1.2833285999950022	right	S	SD011.jpg	SD012.jpg
90.09182089997921	1.0010301999864168	loss	n/a	n/a	n/a	SD011.jpg	SD012.jpg
92.81134189997101	3.0007263000006787	decision	1.2832942000241019	left	S	SD013.jpg	SD014.jpg
96.36482499999693	1.0011369999847375	win	n/a	n/a	n/a	SD013.jpg	SD014.jpg
103.28877829998964	3.001213099982124	decision	1.2831634999602102	left	S	SD015.jpg	SD016.jpg
106.84186999994563	1.0010460000485182	win	n/a	n/a	n/a	SD015.jpg	SD016.jpg
109.56120929995086	3.0346069000079297	decision-missed	n/a	n/a	D	DD013.jpg	DD014.jpg
113.14840459998231	1.0010187000152655	win	n/a	n/a	n/a	DD013.jpg	DD014.jpg
120.07201379997423	3.035367499978747	decision-missed	n/a	n/a	S	SD017.jpg	SD018.jpg
123.65885749994777	1.0008557000546716	win	n/a	n/a	n/a	SD017.jpg	SD018.jpg
128.49690919998102	3.0010802000178955	decision	1.2839141999720596	left	D	DD015.jpg	DD016.jpg
132.05072439997457	1.001042200019583	win	n/a	n/a	n/a	DD015.jpg	DD016.jpg
136.9057107999688	3.0381497999769635	decision-missed	n/a	n/a	S	SD019.jpg	SD020.jpg
140.4925825999817	1.0007251999923028	win	n/a	n/a	n/a	SD019.jpg	SD020.jpg
145.31378959998256	3.0016604000120424	decision	1.2832402000203729	right	D	DD017.jpg	DD018.jpg
148.86767639999744	1.0010921999928541	win	n/a	n/a	n/a	DD017.jpg	DD018.jpg
162.0974554999848	3.0014229000080377	decision	1.2843982999911532	left	S	SD021.jpg	SD022.jpg
165.65120759996353	1.0010390999959782	loss	n/a	n/a	n/a	SD021.jpg	SD022.jpg
172.57491099997424	3.0016133000026457	decision	1.2829296999843791	left	S	SD023.jpg	SD024.jpg
176.1282539999811	1.0018241999787278	win	n/a	n/a	n/a	SD023.jpg	SD024.jpg
183.05190829996718	3.001968400029	decision	1.5339963000151329	right	S	SD025.jpg	SD026.jpg
186.60558109998237	1.0011384999961592	loss	n/a	n/a	n/a	SD025.jpg	SD026.jpg
191.4270321999793	3.001891399966553	decision	1.0337799999979325	right	S	SD027.jpg	SD028.jpg
194.9804223999963	1.0010387999936938	loss	n/a	n/a	n/a	SD027.jpg	SD028.jpg
197.73363599996082	3.0361639999900945	decision-missed	n/a	n/a	D	DD019.jpg	DD020.jpg
201.32043869997142	1.0010331000084989	loss	n/a	n/a	n/a	DD019.jpg	DD020.jpg
204.05667729995912	3.001618300040718	decision	1.5332947000279091	left	D	DD021.jpg	DD022.jpg
207.60989589995006	1.0010705000022426	win	n/a	n/a	n/a	DD021.jpg	DD022.jpg
214.53355279995594	3.001348700025119	decision	1.534442400035914	left	S	SD029.jpg	SD030.jpg
218.08731009997427	1.0010746999760158	loss	n/a	n/a	n/a	SD029.jpg	SD030.jpg
225.0108866999508	3.0020023999968544	decision	1.2838848000392318	left	S	SD031.jpg	SD032.jpg
228.56461599998875	1.001623699965421	win	n/a	n/a	n/a	SD031.jpg	SD032.jpg
233.38602649996756	3.0347228000173345	decision-missed	n/a	n/a	D	DD023.jpg	DD024.jpg
236.97276449995115	1.0011120000272058	loss	n/a	n/a	n/a	DD023.jpg	DD024.jpg
239.6922235999955	3.0015893999952823	decision	1.2833788999705575	left	D	DD025.jpg	DD026.jpg
243.2455648999894	1.0012583999778144	win	n/a	n/a	n/a	DD025.jpg	DD026.jpg
248.06762479996542	3.0011449999874458	decision	1.7833351999870501	left	D	DD027.jpg	DD028.jpg
251.62079429998994	1.0009201999637298	loss	n/a	n/a	n/a	DD027.jpg	DD028.jpg
254.3405562999542	3.00224480003817	decision	2.0339401999954134	left	S	SD033.jpg	SD034.jpg
257.8937224999536	1.0010317999986	loss	n/a	n/a	n/a	SD033.jpg	SD034.jpg
260.62979639996774	3.0338192000053823	decision-missed	n/a	n/a	S	SD035.jpg	SD036.jpg
264.2169368999894	1.0011635000118986	loss	n/a	n/a	n/a	SD035.jpg	SD036.jpg
266.9366451999522	3.001133400015533	decision	1.7843554000137374	left	S	SD037.jpg	SD038.jpg
270.48977139999624	1.0013106999685988	win	n/a	n/a	n/a	SD037.jpg	SD038.jpg
277.413630999974	3.3026537999976426	decision	3.302128800016362	left	D	DD029.jpg	DD030.jpg
281.2676132999477	1.0009887000196613	loss	n/a	n/a	n/a	DD029.jpg	DD030.jpg
284.00388769997517	3.0355562000186183	decision-missed	n/a	n/a	D	DD031.jpg	DD032.jpg
287.5906379999942	1.0010181999532506	loss	n/a	n/a	n/a	DD031.jpg	DD032.jpg
292.4120586999925	3.0016640999820083	decision	1.2832329999655485	left	D	DD033.jpg	DD034.jpg
295.9655981999822	1.001046999997925	win	n/a	n/a	n/a	DD033.jpg	DD034.jpg
302.88942520000273	3.0353813999681734	decision-missed	n/a	n/a	S	SD039.jpg	SD040.jpg
306.47644849994686	1.0007053000153974	loss	n/a	n/a	n/a	SD039.jpg	SD040.jpg
313.4164647999569	3.001234800030943	decision	1.0335936000337824	left	D	DD035.jpg	DD036.jpg
316.96995339996647	1.0012549000093713	win	n/a	n/a	n/a	DD035.jpg	DD036.jpg
319.6893565999926	3.00141079997411	decision	1.5334843999589793	right	D	DD037.jpg	DD038.jpg
323.2428050999879	1.0011549000046216	loss	n/a	n/a	n/a	DD037.jpg	DD038.jpg
325.96301439998206	3.0016531000146642	decision	2.2837124000070617	left	D	DD039.jpg	DD040.jpg
329.5162086999626	1.0009280000231229	loss	n/a	n/a	n/a	DD039.jpg	DD040.jpg
