TrialNumber,Trial,cLeft,cRight,Partner,Reciprocate,ISI,ITI,ran,order,onset,bpress,resp,resp_onset,highlow,rt,ISIpad,ISI_onset,ISI_offset,outcome_onset,outcome_offset,duration,ITI_onset,ITI_offset
1,1,4,2,2,1,5.000000e-01,2.422500e+00,1.0,0.0,4.129287,2.0,2,6.6211686,low,2.491882,0.508118,7.1413603,9.379553,9.382822,11.384896,7.2556095,11.38538,13.801984
2,2,2,4,3,0,2,7.267500e+00,1.0,1.0,13.81962,2.0,4,16.321587,high,2.5019658,0.4980343,16.841892,20.569878,20.572714,22.575891,8.756271,22.57627,29.837368
3,3,4,8,3,0,2,2.422500e+00,1.0,2.0,29.851978,1.0,4,32.45474,low,2.6027596,0.3972403,32.975143,36.603615,36.60402,38.606884,8.754905,38.607258,41.024902
4,4,0,2,3,1,5.000000e-01,5.652500e+00,1.0,3.0,41.03882,2.0,2,43.221584,high,2.1827664,0.8172336,43.74105,46.28988,46.291817,48.29452,7.255705,48.294933,53.941483
5,5,0,8,1,0,5.000000e-01,2.422500e+00,1.0,4.0,53.947098,2.0,8,56.67164,high,2.7245414,0.2754586,57.191143,59.19799,59.200035,61.20271,7.255609,61.203087,63.61988
6,6,4,2,1,0,5.000000e-01,8.075000e-01,1.0,5.0,63.624443,1.0,4,66.187874,high,2.5634322,0.4365679,66.70721,68.874886,68.87528,70.87791,7.2534595,70.87828,71.68189
7,7,2,8,3,1,2,8.075000e-01,1.0,6.0,71.69741,1.0,2,73.83822,low,2.1408117,0.8591882,74.357086,78.44804,78.450005,80.45273,8.755317,80.45311,81.254845
8,8,2,0,1,0,5.000000e-01,8.075000e-01,1.0,7.0,81.259056,1.0,2,83.68812,high,2.4290645,0.5709355,84.20765,86.509895,86.5119,88.51491,7.2558546,88.515305,89.31759
9,9,8,0,3,1,5.000000e-01,4.037500e+00,1.0,8.0,89.33172,1.0,8,91.555,high,2.2232845,0.7767154,92.07412,94.582985,94.58497,96.58822,7.2564993,96.58863,100.61969
10,10,8,4,2,1,5.000000e-01,8.075000e-01,1.0,9.0,100.73129,2.0,4,103.421234,low,2.689947,0.3100531,103.9421,105.981926,105.98381,107.98697,7.255682,107.98736,108.78888
11,11,2,8,3,1,5.000000e-01,8.075000e-01,1.0,10.0,108.804245,1.0,2,111.40492,low,2.6006725,0.3993275,111.925095,114.05492,114.05691,116.05989,7.2556405,116.060265,116.8619
12,12,2,4,1,1,2,8.075000e-01,1.0,11.0,116.866264,1.0,2,118.67094,low,1.8046763,1.1953237,119.192154,123.616905,123.61898,125.62205,8.755783,125.62243,126.42406
13,13,8,4,1,0,3.500000e+00,2.422500e+00,1.0,12.0,126.42759,2.0,4,128.78809,low,2.3605008,0.6394993,129.30809,134.67761,134.67987,136.6829,10.255321,136.68329,139.09988
14,14,2,8,1,1,2,5.652500e+00,1.0,13.0,139.10442,1.0,2,141.82123,low,2.716817,0.283183,142.3405,145.85591,145.85794,147.8609,8.756495,147.86128,153.5079
15,15,2,8,3,0,2,8.075000e-01,1.0,14.0,153.52046,2.0,8,155.20432,high,1.6838422,1.3161578,155.72449,160.27188,160.27385,162.27657,8.756103,162.27695,163.07892
16,16,8,2,3,0,5.000000e-01,8.075000e-01,1.0,15.0,163.09303,999.0,999,166.10413,999,0.0,0.0,166.10725,168.34354,999.0,999.0,835.907,170.3497,171.14992
17,17,4,2,3,1,2,2.422500e+00,1.0,16.0,171.16298,2.0,2,172.83813,low,1.6751575,1.3248425,173.35817,177.91391,177.91582,179.91954,8.756559,179.91992,182.33525
18,18,0,2,3,0,5.000000e-01,2.422500e+00,1.0,17.0,182.34885,2.0,2,184.08804,high,1.7391953,1.2608047,184.6084,187.59982,187.6017,189.60492,7.2560673,189.6053,192.02158
19,19,2,8,2,0,5.000000e-01,8.075000e-01,1.0,18.0,192.13313,2.0,8,193.93816,high,1.8050199,1.1949801,194.45818,197.38261,197.38441,199.38693,7.2537904,199.3873,200.19092
20,20,0,2,1,1,3.500000e+00,8.075000e-01,1.0,19.0,200.1966,2.0,2,201.93825,high,1.741652,1.258348,202.4571,208.44604,208.44806,210.4509,10.254301,210.45128,211.25366
21,21,4,0,1,0,5.000000e-01,4.037500e+00,1.0,20.0,211.25826,1.0,4,213.03815,high,1.7798827,1.2201173,213.55815,216.50859,216.51053,218.51309,7.2548256,218.51346,222.54576
22,22,8,4,3,1,5.000000e-01,2.422500e+00,1.0,21.0,222.56111,2.0,4,224.35463,low,1.7935132,1.2064868,224.87415,227.81169,227.81364,229.81543,7.2543206,229.81581,232.2339
23,23,0,2,2,1,2,8.075000e-01,1.0,22.0,232.34593,2.0,2,234.05455,high,1.7086043,1.2913957,234.57419,239.09691,239.09879,241.10094,8.755004,241.10132,241.90387
24,24,4,0,1,1,5.000000e-01,8.075000e-01,1.0,23.0,241.9096,1.0,4,243.47127,high,1.5616688,1.4383312,243.99019,247.16121,247.1632,249.1659,7.2562966,249.16628,249.96678
25,25,4,0,2,0,2,8.075000e-01,1.0,24.0,250.07678,1.0,4,251.85455,high,1.7777741,1.2222259,252.37357,256.8269,256.82864,258.83093,8.754134,258.8313,259.635
26,26,2,8,2,1,5.000000e-01,4.037500e+00,1.0,25.0,259.74835,1.0,2,261.88742,low,2.1390789,0.8609211,262.4073,264.9989,265.00085,267.00293,7.254575,267.0033,271.03656
27,27,8,0,2,0,2,8.075000e-01,1.0,26.0,271.14767,1.0,8,273.1713,high,2.023628,0.976372,273.69016,277.8979,277.8997,279.90158,8.753902,279.90198,280.706
28,28,0,4,2,1,5.000000e-01,8.075000e-01,1.0,27.0,280.8192,2.0,4,282.5542,high,1.734982,1.265018,283.07428,286.07004,286.07196,288.0739,7.2546773,288.07428,288.8766
29,29,4,2,2,0,5.000000e-01,2.422500e+00,1.0,28.0,288.98874,1.0,4,290.97092,high,1.9821767,1.0178233,291.4901,294.2395,294.24136,296.24448,7.255722,296.24484,298.6619
30,30,4,0,3,0,2,8.075000e-01,1.0,29.0,298.67618,1.0,4,300.57144,high,1.8952626,1.1047374,301.09027,305.42682,305.42874,307.43192,8.755731,307.43228,308.2338
31,31,2,8,1,1,5.000000e-01,8.075000e-01,1.0,30.0,308.2394,1.0,2,309.93777,low,1.6983756,1.3016244,310.45703,313.48956,313.4917,315.4949,7.2554836,315.49527,316.29706
32,32,0,8,1,1,3.500000e+00,7.267500e+00,1.0,31.0,316.30035,2.0,8,318.28796,high,1.9876024,1.0123976,318.80676,324.5506,324.55096,326.55392,10.253573,326.5543,333.81757
33,33,8,0,2,1,2,8.075000e-01,1.0,32.0,333.93082,1.0,8,335.97046,high,2.0396688,0.9603312,336.4903,340.6811,340.68304,342.6859,8.7551155,342.6863,343.48892
34,34,8,4,1,1,2,8.075000e-01,1.0,33.0,343.49344,2.0,4,345.45428,low,1.9608446,1.0391554,345.97516,350.24344,350.24542,352.2488,8.755394,352.24924,353.0519
35,35,8,0,3,0,2,8.075000e-01,1.0,34.0,353.06586,1.0,8,355.15466,high,2.0888164,0.9111835,355.67328,359.81708,359.8192,361.8219,8.756065,361.8223,362.6239
36,36,8,2,1,0,2,8.882500e+00,1.0,35.0,362.62823,2.0,2,365.02063,low,2.39237,0.6076301,365.53983,369.3789,369.38083,371.3839,8.755661,371.38428,380.26205
37,37,8,2,2,1,5.000000e-01,4.037500e+00,1.0,36.0,380.3708,1.0,8,382.8376,high,2.4668167,0.5331834,383.35712,385.62195,385.62387,387.6269,7.2561207,387.62726,391.6589
38,38,2,0,2,0,3.500000e+00,2.422500e+00,1.0,37.0,391.77216,1.0,2,393.98755,high,2.2153718,0.7846282,394.50726,400.02274,400.0245,402.02838,10.256225,402.02878,404.4449
39,39,4,8,2,0,5.000000e-01,2.422500e+00,1.0,38.0,404.55707,1.0,4,406.6038,low,2.0467024,0.9532976,407.1232,409.80692,409.8073,411.80984,7.252757,411.8102,414.22934
40,40,2,8,1,0,5.000000e-01,8.075000e-01,1.0,39.0,414.23373,2.0,8,416.05453,high,1.8208051,1.1791949,416.57513,419.48392,419.48602,421.4886,7.2548537,421.48895,422.29108
41,41,0,4,3,1,5.000000e-01,4.037500e+00,1.0,40.0,422.3065,2.0,4,424.0542,high,1.7477075,1.2522925,424.57324,427.55692,427.55887,429.5616,7.2551274,429.56198,433.5949
42,42,8,2,2,0,5.000000e-01,2.422500e+00,1.0,41.0,433.70428,1.0,8,435.9372,high,2.2329,0.7671002,436.45615,438.95508,438.95703,440.95978,7.2554665,440.96014,443.3769
