TrialNumber,Trialn,TrialType,Partner,Feedback,ITI,ISI,ran,order,studyStart,InitFixOnset,decision_onset,resp,resp_onset,rt,ISI_onset,isi_for_trial,ISI_offset,outcome_val,outcome_onset,outcome_offset,trialDuration,ITIonset,ITIoffset,final_fix_offset
1,1,3,1,3,8.075000e-01,8.075000e-01,1.0,0.0,2.5000045e-06,0.0101352,4.0155935,1.0,5.0627294,1.047136,5.163096,2.460364,7.625913,4.0,7.6260457,8.234028,4.2184343,8.23421,9.044907,--
2,2,3,1,3,5.652500e+00,2.422500e+00,1.0,1.0,--,--,9.046797,1.0,9.479648,0.4328504,9.579994,4.6896496,14.271627,3.0,14.271734,14.877008,5.830211,14.877153,20.531569,--
3,3,9,3,3,8.075000e-01,8.075000e-01,1.0,2.0,--,--,20.539827,2.0,21.079517,0.5396902,21.17984,2.96781,24.149885,6.0,24.149992,24.754684,4.2148585,24.754831,25.564041,--
4,4,7,3,1,2.422500e+00,8.075000e-01,1.0,3.0,--,--,25.568697,2.0,26.195768,0.627072,26.296072,2.880428,29.178686,2.0,29.178791,29.785627,4.216931,29.785776,32.20997,--
5,5,6,2,3,7.267500e+00,1.615000e+00,1.0,4.0,--,--,32.225296,1.0,33.062637,0.8373414,33.162933,3.4776585,36.64272,3.0,36.642822,37.24757,5.022276,37.247723,44.518883,--
6,6,9,3,3,8.075000e-01,2.422500e+00,1.0,5.0,--,--,44.524563,1.0,45.162636,0.6380709,45.26295,4.484429,49.749878,3.0,49.749985,50.353676,5.8291135,50.353813,51.16399,--
7,7,4,2,1,8.075000e-01,2.422500e+00,1.0,6.0,--,--,51.175518,1.0,52.429302,1.2537829,52.529602,3.8687172,56.40032,8.0,56.400425,57.008625,5.8331056,57.008774,57.818874,--
8,8,1,1,1,8.075000e-01,2.422500e+00,1.0,7.0,--,--,57.823605,2.0,58.562447,0.7388399,58.66276,4.3836603,63.048786,4.0,63.048893,63.653416,5.8298106,63.65357,64.46372,--
9,9,1,1,1,8.075000e-01,1.615000e+00,1.0,8.0,--,--,64.46549,2.0,64.99585,0.530364,65.09618,3.784636,68.88287,4.0,68.88298,69.48648,5.0209928,69.48663,70.295845,--
10,10,7,3,1,8.075000e-01,8.075000e-01,1.0,9.0,--,--,70.30156,1.0,70.72961,0.42805,70.82996,3.07945,73.91189,8.0,73.911995,74.51697,4.21541,74.51711,75.326454,--
11,11,4,2,1,8.075000e-01,2.422500e+00,1.0,10.0,--,--,75.33817,2.0,75.762505,0.4243341,75.86284,4.698166,80.56407,2.0,80.564186,81.16831,5.8301373,81.168465,81.978004,--
12,12,7,3,1,7.267500e+00,2.422500e+00,1.0,11.0,--,--,81.98369,1.0,82.51228,0.5285975,82.61261,4.5939026,87.208855,8.0,87.20896,87.81395,5.83026,87.814095,95.08384,--
13,13,9,3,3,8.075000e-01,8.075000e-01,1.0,12.0,--,--,95.08825,1.0,95.72933,0.6410822,95.82969,2.866418,98.69884,2.0,98.69894,99.3046,4.2163568,99.304756,100.11483,--
14,14,5,2,2,2.422500e+00,1.615000e+00,1.0,13.0,--,--,100.127235,1.0,101.162605,1.0353663,101.26288,3.2796338,104.54485,5.0,104.54497,105.15162,5.0243807,105.151764,107.57599,--
15,15,8,3,2,2.422500e+00,2.422500e+00,1.0,14.0,--,--,107.58215,2.0,108.01257,0.4304176,108.112885,4.6920824,112.80823,5.0,112.808334,113.41382,5.831661,113.41395,115.83843,--
16,16,4,2,1,8.075000e-01,2.422500e+00,1.0,15.0,--,--,115.85008,2.0,116.478966,0.6288821,116.57927,4.493618,121.07582,1.0,121.07592,121.68146,5.8313713,121.6816,122.490845,--
17,17,3,1,3,8.075000e-01,8.075000e-01,1.0,16.0,--,--,122.49379,2.0,123.129196,0.6354042,123.229485,2.8720958,126.103836,7.0,126.10395,126.710625,4.2168317,126.71076,127.520966,--
18,18,1,1,1,8.075000e-01,8.075000e-01,1.0,17.0,--,--,127.522896,2.0,128.26247,0.7395661,128.36276,2.7679338,131.13287,2.0,131.13298,131.73892,4.2160225,131.73906,132.54883,--
19,19,4,2,1,2.422500e+00,2.422500e+00,1.0,18.0,--,--,132.56068,1.0,133.09569,0.5350036,133.19601,4.5874963,137.78583,9.0,137.78593,138.39104,5.8303523,138.39119,140.81564,--
20,20,6,2,3,8.075000e-01,8.075000e-01,1.0,19.0,--,--,140.82634,1.0,141.96277,1.1364189,142.06305,2.371081,144.43782,2.0,144.43793,145.04292,4.216576,145.04306,145.85281,--
21,21,9,3,3,8.075000e-01,2.422500e+00,1.0,20.0,--,--,145.85907,2.0,146.37976,0.520691,146.48004,4.601809,151.08383,7.0,151.08394,151.68845,5.8293686,151.6886,152.49783,--
22,22,1,1,1,8.075000e-01,1.615000e+00,1.0,21.0,--,--,152.50096,1.0,152.92943,0.4284705,153.02977,3.8865294,156.91861,9.0,156.91872,157.52441,5.023454,157.52457,158.33395,--
23,23,3,1,3,8.075000e-01,8.075000e-01,1.0,22.0,--,--,158.33572,1.0,158.76259,0.4268559,158.86295,3.0806441,161.9458,1.0,161.9459,162.55183,4.216111,162.552,163.3628,--
24,24,6,2,3,8.075000e-01,2.422500e+00,1.0,23.0,--,--,163.37439,2.0,164.21225,0.8378731,164.31255,4.284627,168.5998,7.0,168.5999,169.20358,5.829198,169.20374,170.01381,--
25,25,4,2,1,5.652500e+00,1.615000e+00,1.0,24.0,--,--,170.02525,2.0,170.66246,0.6372036,170.76274,3.6777964,174.44269,3.0,174.4428,175.04791,5.0226617,175.04807,180.70279,--
26,26,6,2,3,4.037500e+00,1.615000e+00,1.0,25.0,--,--,180.71373,1.0,181.34546,0.6317283,181.44576,3.6832716,185.13187,2.0,185.13199,185.73688,5.023156,185.73703,189.7769,--
27,27,6,2,3,2.422500e+00,1.615000e+00,1.0,26.0,--,--,189.78726,1.0,190.3121,0.5248523,190.4124,3.7901478,194.20581,2.0,194.20592,194.80989,5.022638,194.81004,197.23447,--
28,28,9,3,3,5.652500e+00,2.422500e+00,1.0,27.0,--,--,197.24034,1.0,197.97888,0.7385384,198.07921,4.3839617,202.4645,1.0,202.4646,203.07025,5.829918,203.07042,208.7258,--
29,29,7,3,1,4.037500e+00,8.075000e-01,1.0,28.0,--,--,208.73045,2.0,209.36209,0.6316473,209.4624,2.8758526,212.34077,1.0,212.34088,212.94588,4.2154365,212.94603,216.98532,--
30,30,6,2,3,8.075000e-01,8.075000e-01,1.0,29.0,--,--,216.99722,2.0,217.52872,0.5314858,217.62903,2.9760141,220.60773,8.0,220.60783,221.21234,4.215124,221.21251,222.02177,--
31,31,6,2,3,8.075000e-01,8.075000e-01,1.0,30.0,--,--,222.03265,2.0,222.97885,0.946193,223.0792,2.561307,225.64278,6.0,225.64288,226.24829,4.215639,226.24844,227.05878,--
32,32,7,3,1,5.652500e+00,1.615000e+00,1.0,31.0,--,--,227.06465,1.0,227.7953,0.7306615,227.8956,3.5843384,231.48277,7.0,231.48288,232.08855,5.0238943,232.08868,237.74289,--
33,33,3,1,3,2.422500e+00,2.422500e+00,1.0,32.0,--,--,237.74583,1.0,238.27875,0.5329028,238.37909,4.589597,242.97183,1.0,242.97194,243.57788,5.8320413,243.57803,246.0027,--
34,34,9,3,3,2.422500e+00,2.422500e+00,1.0,33.0,--,--,246.0091,1.0,246.74559,0.7365038,246.84592,4.3859963,251.23378,1.0,251.23389,251.83759,5.828494,251.83774,254.262,--
35,35,1,1,1,2.422500e+00,2.422500e+00,1.0,34.0,--,--,254.265,1.0,254.9954,0.7304187,255.09573,4.3920813,259.49078,8.0,259.49088,260.09552,5.8305244,260.09567,262.52084,--
36,36,7,3,1,8.075000e-01,1.615000e+00,1.0,35.0,--,--,262.5268,2.0,263.262,0.7352145,263.36234,3.5797856,266.9437,3.0,266.9438,267.5475,5.0206876,267.5476,268.3578,--
37,37,2,1,2,8.075000e-01,2.422500e+00,1.0,36.0,--,--,268.36078,1.0,269.09537,0.73459,269.1957,4.38791,273.58575,5.0,273.58585,274.19153,5.8307505,274.19168,275.00098,--
38,38,2,1,2,8.075000e-01,1.615000e+00,1.0,37.0,--,--,275.00272,1.0,275.72852,0.7258174,275.82883,3.5891826,279.42078,5.0,279.42087,280.02475,5.022048,280.0249,280.83484,--
39,39,3,1,3,4.037500e+00,8.075000e-01,1.0,38.0,--,--,280.8367,1.0,281.563,0.7262839,281.66327,2.7812161,284.44675,3.0,284.44684,285.05154,4.214835,285.0517,289.0909,--
40,40,4,2,1,8.882500e+00,1.615000e+00,1.0,39.0,--,--,289.10373,2.0,289.52872,0.4249844,289.62903,3.8900156,293.52127,2.0,293.5214,294.13092,5.0271897,294.13104,303.01575,--
41,41,7,3,1,2.422500e+00,8.075000e-01,1.0,40.0,--,--,303.022,2.0,303.5452,0.5231987,303.6455,2.9843013,306.63275,3.0,306.63287,307.23782,4.2158175,307.23798,309.66284,--
42,42,1,1,1,8.075000e-01,2.422500e+00,1.0,41.0,--,--,309.66583,2.0,310.29523,0.629392,310.39554,4.493108,314.89078,2.0,314.8909,315.5016,5.83574,315.50174,316.31174,--
43,43,4,2,1,4.037500e+00,1.615000e+00,1.0,42.0,--,--,316.3236,2.0,316.8455,0.5218946,316.9458,3.7931054,320.74158,4.0,320.7417,321.34668,5.023095,321.34683,325.38626,--
44,44,8,3,2,8.075000e-01,2.422500e+00,1.0,43.0,--,--,325.3926,1.0,325.81177,0.4191786,325.91208,4.7033215,330.61874,5.0,330.61884,331.22375,5.8311553,331.22388,332.0334,--
45,45,1,1,1,2.422500e+00,1.615000e+00,1.0,44.0,--,--,332.03638,1.0,332.8786,0.8422178,332.97888,3.4727821,336.45377,7.0,336.4539,337.0607,5.024337,337.06085,339.48483,--
46,46,9,3,3,4.037500e+00,1.615000e+00,1.0,45.0,--,--,339.49054,1.0,339.91208,0.4215149,340.0124,3.893485,343.90784,1.0,343.90796,344.51385,5.023292,344.51398,348.5544,--
47,47,5,2,2,4.037500e+00,8.075000e-01,1.0,46.0,--,--,348.56598,2.0,349.0954,0.5294199,349.1957,2.97808,352.17673,5.0,352.17682,352.78186,4.2158856,352.78198,356.8224,--
48,48,4,2,1,2.422500e+00,8.075000e-01,1.0,47.0,--,--,356.8331,2.0,357.46225,0.629162,357.56253,2.878338,360.44284,2.0,360.44293,361.04843,4.2153316,361.04858,363.4747,--
49,49,6,2,3,8.075000e-01,1.615000e+00,1.0,48.0,--,--,363.4858,2.0,364.21262,0.7268163,364.31296,3.5881836,367.90372,7.0,367.9038,368.50983,5.0240145,368.50998,369.3194,--
50,50,9,3,3,8.075000e-01,8.075000e-01,1.0,49.0,--,--,369.32562,1.0,370.36304,1.0374175,370.46335,2.4700825,372.9367,1.0,372.9368,373.5415,4.215892,373.54166,374.3517,--
51,51,1,1,1,8.075000e-01,8.075000e-01,1.0,50.0,--,--,374.35477,1.0,375.1952,0.8404148,375.29553,2.6670852,377.9657,9.0,377.96582,378.57233,4.2175465,378.57248,379.3817,--
52,52,3,1,3,4.037500e+00,1.615000e+00,1.0,51.0,--,--,379.38345,1.0,380.11163,0.7281914,380.21194,3.5868087,383.80048,1.0,383.80057,384.4058,5.022342,384.40594,388.4457,--
53,53,7,3,1,2.422500e+00,1.615000e+00,1.0,52.0,--,--,388.4515,2.0,388.97815,0.5266443,389.07843,3.7883556,392.86868,2.0,392.86877,393.47354,5.0220456,393.4737,395.8988,--
54,54,3,1,3,2.422500e+00,1.615000e+00,1.0,53.0,--,--,395.9018,2.0,396.5283,0.6264947,396.62857,3.6885054,400.31946,9.0,400.31955,400.9248,5.0229993,400.92493,403.34943,412.0011
