instrText,stimDoor,stimDoorLure,stimFace,stimFaceLure,Instructions.thisRepN,Instructions.thisTrialN,Instructions.thisN,Instructions.thisIndex,Trials.thisRepN,Trials.thisTrialN,Trials.thisN,Trials.thisIndex,Func,Keys,Text,RespTime,Onset,Offset,SystemTime_Start,SystemTime_Stop,Stim,Lure,Participant*,date,expName,psychopyVersion,frameRate,
"Thank you for participating in our study!\n\n In the earlier picture task, you guessed which doors contained a prize, and which peers liked you. \n\n You then saw positive or negative feedback (green up arrow or red down arrow) from the door or peer you selected.\n\n The green up arrow indicated that the door contained a prize, or that the peer liked you. \n\n The red down arrow indicated that the door contained a loss, or that the peer disliked you. \n\n  Please press the spacebar to continue.",,,,,0,0,0,0,,,,,instrFunc,space,"Thank you for participating in our study!\n\n In the earlier picture task, you guessed which doors contained a prize, and which peers liked you. \n\n You then saw positive or negative feedback (green up arrow or red down arrow) from the door or peer you selected.\n\n The green up arrow indicated that the door contained a prize, or that the peer liked you. \n\n The red down arrow indicated that the door contained a loss, or that the peer disliked you. \n\n  Please press the spacebar to continue.",19.73942890000012,17.53657750000002,37.48911315999976,2022-04-12 14:21:12.126188,2022-04-12 14:21:32.071338,,,12007,2022_Apr_12_1421,Recall,2021.2.3,59.89261254568393,
"You will now see a series of doors and peers, some of which you saw during the earlier picture task, and some which you have never seen before.\n\n For doors/peers that you remember getting feedback from, your job is to RECALL whether that door or peer gave you positive or negative feedback. \n\n Press '1' to indicate that you recall positive feedback. \n\n Press '2' to indicate that you recall negative feedback.\n\n You will see a green and red circle under the word 'RECALL' on the left side of the screen to remind you what to press. \n\n Press the spacebar to continue.",,,,,0,1,1,1,,,,,instrFunc,space,"You will now see a series of doors and peers, some of which you saw during the earlier picture task, and some which you have never seen before.\n\n For doors/peers that you remember getting feedback from, your job is to RECALL whether that door or peer gave you positive or negative feedback. \n\n Press '1' to indicate that you recall positive feedback. \n\n Press '2' to indicate that you recall negative feedback.\n\n You will see a green and red circle under the word 'RECALL' on the left side of the screen to remind you what to press. \n\n Press the spacebar to continue.",27.187073100000134,37.43248659999995,64.78328292999981,2022-04-12 14:21:32.073333,2022-04-12 14:21:59.414515,,,12007,2022_Apr_12_1421,Recall,2021.2.3,59.89261254568393,
"For doors/peers that you don't remember getting feedback from, your job is to PREDICT whether you think that door or peer WOULD HAVE given you positive or negative feedback. \n\n Press '9' if you predict that you would have received positive feedback.\n\n Press '0' if you predict that you would have received negative feedback. \n\n You will see a green and red circle under the word 'PREDICT' on the right side of the screen to remind you what to press. \n\n Please press the spacebar to continue.",,,,,0,2,2,2,,,,,instrFunc,space,"For doors/peers that you don't remember getting feedback from, your job is to PREDICT whether you think that door or peer WOULD HAVE given you positive or negative feedback. \n\n Press '9' if you predict that you would have received positive feedback.\n\n Press '0' if you predict that you would have received negative feedback. \n\n You will see a green and red circle under the word 'PREDICT' on the right side of the screen to remind you what to press. \n\n Please press the spacebar to continue.",23.23178359999997,64.75129249999986,88.12241322999989,2022-04-12 14:21:59.416511,2022-04-12 14:22:22.777440,,,12007,2022_Apr_12_1421,Recall,2021.2.3,59.89261254568393,
"This task is self-paced, and the prompts will always stay on the screen so that you know which buttons to press. \n\n On the next screen we will show you what those prompts look like, so that you know exactly what to expect. \n\n  You will start with either doors or peers, and then switch halfway through. \n\n Please press the spacebar to continue.",,,,,0,3,3,3,,,,,instrFunc,space,"This task is self-paced, and the prompts will always stay on the screen so that you know which buttons to press. \n\n On the next screen we will show you what those prompts look like, so that you know exactly what to expect. \n\n  You will start with either doors or peers, and then switch halfway through. \n\n Please press the spacebar to continue.",12.87714979999987,88.06938109999987,101.03366312999992,2022-04-12 14:22:22.779435,2022-04-12 14:22:35.733462,,,12007,2022_Apr_12_1421,Recall,2021.2.3,59.89261254568393,
,,,,,,,,,,,,,imgtextFunc,space,"Here is what the screen will look like while you go through all of the doors and peers.

Please let the experimenter know if you have any questions.










Remember to keep your hands on the keyboard at all times.

 Whenever you're ready, press the spacebar to start the task.",9.633323699999892,101.4121502999999,111.49676085999977,2022-04-12 14:22:35.760388,2022-04-12 14:22:45.842167,,,12007,2022_Apr_12_1421,Recall,2021.2.3,59.89261254568393,
,DD015.jpg,0,FF015.jpg,0,,,,,0,0,0,14,imgFunc,1,NA,4.583918299999823,111.41489879999995,116.2282773999998,2022-04-12 14:22:45.988773,2022-04-12 14:22:50.787815,FF015.jpg,0,12007,2022_Apr_12_1421,Recall,2021.2.3,59.89261254568393,
,L_SD507.jpg,1,L_MF507.jpg,1,,,,,0,1,1,106,imgFunc,2,NA,4.597124500000064,116.21907279999982,121.00664166000001,2022-04-12 14:22:50.813746,2022-04-12 14:22:55.600822,L_MF507.jpg,1,12007,2022_Apr_12_1421,Recall,2021.2.3,59.89261254568393,
,L_DD518.jpg,1,L_FF518.jpg,1,,,,,0,2,2,57,imgFunc,2,NA,10.167713999999933,121.05383579999989,131.4450370899997,2022-04-12 14:22:55.630746,2022-04-12 14:23:06.008709,L_FF518.jpg,1,12007,2022_Apr_12_1421,Recall,2021.2.3,59.89261254568393,
,SD033.jpg,0,MF033.jpg,0,,,,,0,3,3,92,imgFunc,2,NA,16.532225199999857,131.46309509999992,148.20136795999997,2022-04-12 14:23:06.037632,2022-04-12 14:23:22.777438,MF033.jpg,0,12007,2022_Apr_12_1421,Recall,2021.2.3,59.89261254568393,
,L_DD509.jpg,1,L_FF509.jpg,1,,,,,0,4,4,48,imgFunc,2,NA,1.5294649999998455,148.26282189999984,150.03918788999954,2022-04-12 14:23:22.810362,2022-04-12 14:23:24.575582,L_FF509.jpg,1,12007,2022_Apr_12_1421,Recall,2021.2.3,59.89261254568393,
,L_DD513.jpg,1,L_FF513.jpg,1,,,,,0,5,5,52,imgFunc,0,NA,1.8588479000000007,150.01911169999994,152.09460495999997,2022-04-12 14:23:24.600515,2022-04-12 14:23:26.673747,L_FF513.jpg,1,12007,2022_Apr_12_1421,Recall,2021.2.3,59.89261254568393,
,DD003.jpg,0,FF003.jpg,0,,,,,0,6,6,2,imgFunc,1,NA,1.283698700000059,152.1074779999999,153.5805373600001,2022-04-12 14:23:26.699669,2022-04-12 14:23:28.172460,FF003.jpg,0,12007,2022_Apr_12_1421,Recall,2021.2.3,59.89261254568393,
,DD030.jpg,0,FF030.jpg,0,,,,,0,7,7,29,imgFunc,1,NA,0.7183348000000933,157.1277118999999,161.58866215999979,2022-04-12 14:23:28.187401,2022-04-12 14:23:32.635819,FF030.jpg,0,12007,2022_Apr_12_1421,Recall,2021.2.3,59.89261254568393,
,SD027.jpg,0,MF027.jpg,0,,,,,0,8,8,86,imgFunc,0,NA,3.0574739999999565,158.1377673999998,161.46293625999965,2022-04-12 14:23:32.660753,2022-04-12 14:23:35.983780,MF027.jpg,0,12007,2022_Apr_12_1421,Recall,2021.2.3,59.89261254568393,
,L_SD508.jpg,1,L_MF508.jpg,1,,,,,0,9,9,107,imgFunc,1,NA,1.2139840999998341,161.42770599999994,162.84956565999983,2022-04-12 14:23:36.010709,2022-04-12 14:23:37.432869,L_MF508.jpg,1,12007,2022_Apr_12_1421,Recall,2021.2.3,59.89261254568393,
,DD006.jpg,0,FF006.jpg,0,,,,,0,10,10,5,imgFunc,0,NA,0.8663616999999704,162.8813235,163.95055059000015,2022-04-12 14:23:37.468780,2022-04-12 14:23:38.530903,FF006.jpg,0,12007,2022_Apr_12_1421,Recall,2021.2.3,59.89261254568393,
,SD006.jpg,0,MF006.jpg,0,,,,,0,11,11,65,imgFunc,2,NA,1.5686815000001388,163.99699689999989,165.79677109,2022-04-12 14:23:38.559825,2022-04-12 14:23:40.346003,MF006.jpg,0,12007,2022_Apr_12_1421,Recall,2021.2.3,59.89261254568393,
,SD002.jpg,0,MF002.jpg,0,,,,,0,12,12,61,imgFunc,1,NA,0.9987839000000349,165.7660664,166.94107855999982,2022-04-12 14:23:40.370936,2022-04-12 14:23:41.544766,MF002.jpg,0,12007,2022_Apr_12_1421,Recall,2021.2.3,59.89261254568393,
,L_SD501.jpg,1,L_MF501.jpg,1,,,,,0,13,13,100,imgFunc,0,NA,1.5126940000000104,166.9885562999998,168.7133352599999,2022-04-12 14:23:41.569699,2022-04-12 14:23:43.293074,L_MF501.jpg,1,12007,2022_Apr_12_1421,Recall,2021.2.3,59.89261254568393,
,DD013.jpg,0,FF013.jpg,0,,,,,0,14,14,12,imgFunc,1,NA,0.7925990999999613,168.7359462999998,169.7226711599999,2022-04-12 14:23:43.321003,2022-04-12 14:23:44.309330,FF013.jpg,0,12007,2022_Apr_12_1421,Recall,2021.2.3,59.89261254568393,
,DD025.jpg,0,FF025.jpg,0,,,,,0,15,15,24,imgFunc,0,NA,1.09133410000004,169.73628769999982,171.00558806000004,2022-04-12 14:23:44.337256,2022-04-12 14:23:45.607825,FF025.jpg,0,12007,2022_Apr_12_1421,Recall,2021.2.3,59.89261254568393,
,DD040.jpg,0,FF040.jpg,0,,,,,0,16,16,39,imgFunc,1,NA,0.7856852999998409,171.0491672999999,172.04384515999982,2022-04-12 14:23:45.633757,2022-04-12 14:23:46.628072,FF040.jpg,0,12007,2022_Apr_12_1421,Recall,2021.2.3,59.89261254568393,
,SD018.jpg,0,MF018.jpg,0,,,,,0,17,17,77,imgFunc,1,NA,1.4398943000001054,172.12035449999985,173.79624341999988,2022-04-12 14:23:46.676944,2022-04-12 14:23:48.342443,MF018.jpg,0,12007,2022_Apr_12_1421,Recall,2021.2.3,59.89261254568393,
,DD005.jpg,0,FF005.jpg,0,,,,,0,18,18,4,imgFunc,2,NA,2.889078900000186,173.78457689999982,176.8716071599997,2022-04-12 14:23:48.367375,2022-04-12 14:23:51.453045,FF005.jpg,0,12007,2022_Apr_12_1421,Recall,2021.2.3,59.89261254568393,
,SD021.jpg,0,MF021.jpg,0,,,,,0,19,19,80,imgFunc,1,NA,1.0516943000000083,176.8888497999999,178.14749725999968,2022-04-12 14:23:51.477977,2022-04-12 14:23:52.734584,MF021.jpg,0,12007,2022_Apr_12_1421,Recall,2021.2.3,59.89261254568393,
,L_DD519.jpg,1,L_FF519.jpg,1,,,,,0,20,20,58,imgFunc,0,NA,1.1241245999999592,178.16692169999988,179.49988455999983,2022-04-12 14:23:52.756525,2022-04-12 14:23:54.083941,L_FF519.jpg,1,12007,2022_Apr_12_1421,Recall,2021.2.3,59.89261254568393,
,SD022.jpg,0,MF022.jpg,0,,,,,0,21,21,81,imgFunc,1,NA,1.279211499999974,179.53227829999992,181.01892116000022,2022-04-12 14:23:54.111868,2022-04-12 14:23:55.599849,MF022.jpg,0,12007,2022_Apr_12_1421,Recall,2021.2.3,59.89261254568393,
,SD029.jpg,0,MF029.jpg,0,,,,,0,22,22,88,imgFunc,1,NA,0.980479399999922,181.03509299999996,182.2052501600001,2022-04-12 14:23:55.626775,2022-04-12 14:23:56.797615,MF029.jpg,0,12007,2022_Apr_12_1421,Recall,2021.2.3,59.89261254568393,
,L_DD512.jpg,1,L_FF512.jpg,1,,,,,0,23,23,51,imgFunc,2,NA,1.3022505999999794,182.22885999999994,183.72589775999973,2022-04-12 14:23:56.820554,2022-04-12 14:23:58.313523,L_FF512.jpg,1,12007,2022_Apr_12_1421,Recall,2021.2.3,59.89261254568393,
,DD002.jpg,0,FF002.jpg,0,,,,,0,24,24,1,imgFunc,2,NA,0.8081392999999935,183.7410121999999,184.73783305999996,2022-04-12 14:23:58.336460,2022-04-12 14:23:59.329780,FF002.jpg,0,12007,2022_Apr_12_1421,Recall,2021.2.3,59.89261254568393,
,L_DD516.jpg,1,L_FF516.jpg,1,,,,,0,25,25,55,imgFunc,1,NA,0.6111402999999882,184.77834719999987,185.5981045599999,2022-04-12 14:23:59.357710,2022-04-12 14:24:00.178486,L_FF516.jpg,1,12007,2022_Apr_12_1421,Recall,2021.2.3,59.89261254568393,
,L_DD506.jpg,1,L_FF506.jpg,1,,,,,0,26,26,45,imgFunc,1,NA,1.1413761999999679,185.6159353999999,186.9594595599997,2022-04-12 14:24:00.202423,2022-04-12 14:24:01.543801,L_FF506.jpg,1,12007,2022_Apr_12_1421,Recall,2021.2.3,59.89261254568393,
,L_SD518.jpg,1,L_MF518.jpg,1,,,,,0,27,27,117,imgFunc,0,NA,3.387558499999841,186.97452019999992,190.54738656000018,2022-04-12 14:24:01.569732,2022-04-12 14:24:05.141088,L_MF518.jpg,1,12007,2022_Apr_12_1421,Recall,2021.2.3,59.89261254568393,
,DD004.jpg,0,FF004.jpg,0,,,,,0,28,28,3,imgFunc,1,NA,0.9719923000000108,190.5800807999999,191.75795646000006,2022-04-12 14:24:05.165025,2022-04-12 14:24:06.339866,FF004.jpg,0,12007,2022_Apr_12_1421,Recall,2021.2.3,59.89261254568393,
,DD007.jpg,0,FF007.jpg,0,,,,,0,29,29,6,imgFunc,2,NA,0.897023900000022,191.7833607,192.89906505999988,2022-04-12 14:24:06.361807,2022-04-12 14:24:07.472808,FF007.jpg,0,12007,2022_Apr_12_1421,Recall,2021.2.3,59.89261254568393,
,SD036.jpg,0,MF036.jpg,0,,,,,0,30,30,95,imgFunc,1,NA,0.764914299999873,192.92057139999997,193.8917309599999,2022-04-12 14:24:07.499736,2022-04-12 14:24:08.471112,MF036.jpg,0,12007,2022_Apr_12_1421,Recall,2021.2.3,59.89261254568393,
,SD024.jpg,0,MF024.jpg,0,,,,,0,31,31,83,imgFunc,0,NA,1.0725958000000446,193.913006,195.18996345999994,2022-04-12 14:24:08.496046,2022-04-12 14:24:09.770604,MF024.jpg,0,12007,2022_Apr_12_1421,Recall,2021.2.3,59.89261254568393,
,DD039.jpg,0,FF039.jpg,0,,,,,0,32,32,38,imgFunc,1,NA,0.9925797000000784,195.19611529999997,196.38019566000003,2022-04-12 14:24:09.792544,2022-04-12 14:24:10.971363,FF039.jpg,0,12007,2022_Apr_12_1421,Recall,2021.2.3,59.89261254568393,
,L_DD517.jpg,1,L_FF517.jpg,1,,,,,0,33,33,56,imgFunc,1,NA,1.2191150999999536,196.42306359999998,197.84464935999995,2022-04-12 14:24:10.999287,2022-04-12 14:24:12.422445,L_FF517.jpg,1,12007,2022_Apr_12_1421,Recall,2021.2.3,59.89261254568393,
,L_SD519.jpg,1,L_MF519.jpg,1,,,,,0,34,34,118,imgFunc,0,NA,1.4360200000000987,197.86069729999986,199.4970775600002,2022-04-12 14:24:12.447378,2022-04-12 14:24:14.082961,L_MF519.jpg,1,12007,2022_Apr_12_1421,Recall,2021.2.3,59.89261254568393,
,DD028.jpg,0,FF028.jpg,0,,,,,0,35,35,27,imgFunc,0,NA,0.6215935000000172,199.51832799999988,200.33925646000012,2022-04-12 14:24:14.110888,2022-04-12 14:24:14.932668,FF028.jpg,0,12007,2022_Apr_12_1421,Recall,2021.2.3,59.89261254568393,
,SD005.jpg,0,MF005.jpg,0,,,,,0,36,36,64,imgFunc,1,NA,1.1605667999999696,200.37529789999985,201.73535165999965,2022-04-12 14:24:14.957601,2022-04-12 14:24:16.315933,MF005.jpg,0,12007,2022_Apr_12_1421,Recall,2021.2.3,59.89261254568393,
,L_DD511.jpg,1,L_FF511.jpg,1,,,,,0,37,37,50,imgFunc,0,NA,2.1973876999998083,201.7698922999998,204.17847705999975,2022-04-12 14:24:16.340867,2022-04-12 14:24:18.747376,L_FF511.jpg,1,12007,2022_Apr_12_1421,Recall,2021.2.3,59.89261254568393,
,SD020.jpg,0,MF020.jpg,0,,,,,0,38,38,79,imgFunc,2,NA,1.3561142000000928,204.18683179999994,205.7398988599998,2022-04-12 14:24:18.774296,2022-04-12 14:24:20.328101,MF020.jpg,0,12007,2022_Apr_12_1421,Recall,2021.2.3,59.89261254568393,
,SD009.jpg,0,MF009.jpg,0,,,,,0,39,39,68,imgFunc,9,NA,1.5583429999999225,205.74907689999986,207.49991735999993,2022-04-12 14:24:20.349045,2022-04-12 14:24:22.093334,MF009.jpg,0,12007,2022_Apr_12_1421,Recall,2021.2.3,59.89261254568393,
,L_SD511.jpg,1,L_MF511.jpg,1,,,,,0,40,40,110,imgFunc,9,NA,0.8435042000000976,207.5304024999998,208.5699824599999,2022-04-12 14:24:22.120262,2022-04-12 14:24:23.159456,L_MF511.jpg,1,12007,2022_Apr_12_1421,Recall,2021.2.3,59.89261254568393,
,DD008.jpg,0,FF008.jpg,0,,,,,0,41,41,7,imgFunc,2,NA,1.0802212000000964,208.58191799999986,209.8387636599998,2022-04-12 14:24:23.185388,2022-04-12 14:24:24.441994,FF008.jpg,0,12007,2022_Apr_12_1421,Recall,2021.2.3,59.89261254568393,
,L_DD515.jpg,1,L_FF515.jpg,1,,,,,0,42,42,54,imgFunc,1,NA,0.8829427000000578,209.87672989999987,210.94955125999968,2022-04-12 14:24:24.467924,2022-04-12 14:24:25.540028,L_FF515.jpg,1,12007,2022_Apr_12_1421,Recall,2021.2.3,59.89261254568393,
,DD026.jpg,0,FF026.jpg,0,,,,,0,43,43,25,imgFunc,2,NA,0.7496466000000055,210.9750067,211.92429576000018,2022-04-12 14:24:25.561970,2022-04-12 14:24:26.506420,FF026.jpg,0,12007,2022_Apr_12_1421,Recall,2021.2.3,59.89261254568393,
,DD009.jpg,0,FF009.jpg,0,,,,,0,44,44,8,imgFunc,1,NA,0.8546527000000879,211.9564922999998,213.03089295999962,2022-04-12 14:24:26.532352,2022-04-12 14:24:27.605458,FF009.jpg,0,12007,2022_Apr_12_1421,Recall,2021.2.3,59.89261254568393,
,L_SD503.jpg,1,L_MF503.jpg,1,,,,,0,45,45,102,imgFunc,2,NA,0.9517444999999043,213.04382279999982,214.2028369599998,2022-04-12 14:24:27.630386,2022-04-12 14:24:28.788262,L_MF503.jpg,1,12007,2022_Apr_12_1421,Recall,2021.2.3,59.89261254568393,
,SD040.jpg,0,MF040.jpg,0,,,,,0,46,46,99,imgFunc,1,NA,0.8038203999999496,214.21830079999995,215.21054246000017,2022-04-12 14:24:28.813192,2022-04-12 14:24:29.804034,MF040.jpg,0,12007,2022_Apr_12_1421,Recall,2021.2.3,59.89261254568393,
,L_SD509.jpg,1,L_MF509.jpg,1,,,,,0,47,47,108,imgFunc,0,NA,2.9815719999999146,215.2405965999999,218.41034095999976,2022-04-12 14:24:29.830962,2022-04-12 14:24:33.000403,L_MF509.jpg,1,12007,2022_Apr_12_1421,Recall,2021.2.3,59.89261254568393,
,SD003.jpg,0,MF003.jpg,0,,,,,0,48,48,62,imgFunc,0,NA,0.9896177999999054,218.42411459999994,219.61124675999986,2022-04-12 14:24:33.022344,2022-04-12 14:24:34.205155,MF003.jpg,0,12007,2022_Apr_12_1421,Recall,2021.2.3,59.89261254568393,
,DD010.jpg,0,FF010.jpg,0,,,,,0,49,49,9,imgFunc,0,NA,0.9699338000000353,219.6265100999999,220.79255199,2022-04-12 14:24:34.230084,2022-04-12 14:24:35.381974,FF010.jpg,0,12007,2022_Apr_12_1421,Recall,2021.2.3,59.89261254568393,
,SD037.jpg,0,MF037.jpg,0,,,,,0,50,50,96,imgFunc,0,NA,0.7558064999998351,220.82539069999984,221.78389875999983,2022-04-12 14:24:35.407904,2022-04-12 14:24:36.364321,MF037.jpg,0,12007,2022_Apr_12_1421,Recall,2021.2.3,59.89261254568393,
,SD035.jpg,0,MF035.jpg,0,,,,,0,51,51,94,imgFunc,1,NA,0.9919949999998607,221.8090459,223.00425555999982,2022-04-12 14:24:36.388257,2022-04-12 14:24:37.580039,MF035.jpg,0,12007,2022_Apr_12_1421,Recall,2021.2.3,59.89261254568393,
,L_SD512.jpg,1,L_MF512.jpg,1,,,,,0,52,52,111,imgFunc,2,NA,0.8910015999999814,223.01435319999996,224.10596216,2022-04-12 14:24:37.605970,2022-04-12 14:24:38.696026,L_MF512.jpg,1,12007,2022_Apr_12_1421,Recall,2021.2.3,59.89261254568393,
,DD038.jpg,0,FF038.jpg,0,,,,,0,53,53,37,imgFunc,0,NA,1.075459599999931,224.1403289,225.4170131599999,2022-04-12 14:24:38.720959,2022-04-12 14:24:39.995518,FF038.jpg,0,12007,2022_Apr_12_1421,Recall,2021.2.3,59.89261254568393,
,SD025.jpg,0,MF025.jpg,0,,,,,0,54,54,84,imgFunc,1,NA,1.8898019999999178,225.41843659999995,227.49636185999998,2022-04-12 14:24:40.018458,2022-04-12 14:24:42.092856,MF025.jpg,0,12007,2022_Apr_12_1421,Recall,2021.2.3,59.89261254568393,
,SD031.jpg,0,MF031.jpg,0,,,,,0,55,55,90,imgFunc,1,NA,1.4952186999998958,227.52778079999985,229.22007535999978,2022-04-12 14:24:42.117789,2022-04-12 14:24:43.808224,MF031.jpg,0,12007,2022_Apr_12_1421,Recall,2021.2.3,59.89261254568393,
,SD026.jpg,0,MF026.jpg,0,,,,,0,56,56,85,imgFunc,1,NA,0.7202847999999449,229.23938929999986,230.1581352600001,2022-04-12 14:24:43.829171,2022-04-12 14:24:44.741704,MF026.jpg,0,12007,2022_Apr_12_1421,Recall,2021.2.3,59.89261254568393,
,L_SD504.jpg,1,L_MF504.jpg,1,,,,,0,57,57,103,imgFunc,2,NA,0.6692471000001206,230.17503669999996,231.03129916000012,2022-04-12 14:24:44.767634,2022-04-12 14:24:45.623325,L_MF504.jpg,1,12007,2022_Apr_12_1421,Recall,2021.2.3,59.89261254568393,
,SD034.jpg,0,MF034.jpg,0,,,,,0,58,58,93,imgFunc,0,NA,3.7334293999999772,231.06590219999998,235.00862826000002,2022-04-12 14:24:45.647259,2022-04-12 14:24:49.586623,MF034.jpg,0,12007,2022_Apr_12_1421,Recall,2021.2.3,59.89261254568393,
,L_SD520.jpg,1,L_MF520.jpg,1,,,,,0,59,59,119,imgFunc,1,NA,3.992282500000101,235.0195202,239.20806816000004,2022-04-12 14:24:49.612554,2022-04-12 14:24:53.799248,L_MF520.jpg,1,12007,2022_Apr_12_1421,Recall,2021.2.3,59.89261254568393,
,SD001.jpg,0,MF001.jpg,0,,,,,0,60,60,60,imgFunc,2,NA,1.1178824999999506,239.20181149999985,240.49428685999987,2022-04-12 14:24:53.816204,2022-04-12 14:24:55.098745,MF001.jpg,0,12007,2022_Apr_12_1421,Recall,2021.2.3,59.89261254568393,
,SD019.jpg,0,MF019.jpg,0,,,,,0,61,61,78,imgFunc,1,NA,1.0561370999998871,240.50305639999988,241.73085816000003,2022-04-12 14:24:55.122678,2022-04-12 14:24:56.347370,MF019.jpg,0,12007,2022_Apr_12_1421,Recall,2021.2.3,59.89261254568393,
,L_DD504.jpg,1,L_FF504.jpg,1,,,,,0,62,62,43,imgFunc,2,NA,0.8140445999999883,241.81112749999988,242.85601936000012,2022-04-12 14:24:56.371306,2022-04-12 14:24:57.413498,L_FF504.jpg,1,12007,2022_Apr_12_1421,Recall,2021.2.3,59.89261254568393,
,DD032.jpg,0,FF032.jpg,0,,,,,0,63,63,31,imgFunc,1,NA,0.7042205000000195,242.83437949999984,243.7261008600001,2022-04-12 14:24:57.438425,2022-04-12 14:24:58.329020,FF032.jpg,0,12007,2022_Apr_12_1421,Recall,2021.2.3,59.89261254568393,
,L_SD514.jpg,1,L_MF514.jpg,1,,,,,0,64,64,113,imgFunc,0,NA,1.3362298999998075,243.73727289999988,245.25102335999964,2022-04-12 14:24:58.351961,2022-04-12 14:24:59.860883,L_MF514.jpg,1,12007,2022_Apr_12_1421,Recall,2021.2.3,59.89261254568393,
,SD038.jpg,0,MF038.jpg,0,,,,,0,65,65,97,imgFunc,1,NA,0.9045054000000619,245.24443999999994,246.29701746,2022-04-12 14:24:59.880833,2022-04-12 14:25:00.927008,MF038.jpg,0,12007,2022_Apr_12_1421,Recall,2021.2.3,59.89261254568393,
,DD031.jpg,0,FF031.jpg,0,,,,,0,66,66,30,imgFunc,0,NA,0.8973049000001083,246.35718559999987,247.45997525999974,2022-04-12 14:25:00.946953,2022-04-12 14:25:02.042993,FF031.jpg,0,12007,2022_Apr_12_1421,Recall,2021.2.3,59.89261254568393,
,DD012.jpg,0,FF012.jpg,0,,,,,0,67,67,11,imgFunc,1,NA,1.8467427000000498,247.4544007999998,249.48681775999967,2022-04-12 14:25:02.064933,2022-04-12 14:25:04.091461,FF012.jpg,0,12007,2022_Apr_12_1421,Recall,2021.2.3,59.89261254568393,
,DD024.jpg,0,FF024.jpg,0,,,,,0,68,68,23,imgFunc,0,NA,1.5398235000000113,249.50461399999995,251.21476555999993,2022-04-12 14:25:04.115397,2022-04-12 14:25:05.823785,FF024.jpg,0,12007,2022_Apr_12_1421,Recall,2021.2.3,59.89261254568393,
,DD020.jpg,0,FF020.jpg,0,,,,,0,69,69,19,imgFunc,0,NA,0.8458917999998903,251.26500279999982,252.30415076000008,2022-04-12 14:25:05.849716,2022-04-12 14:25:06.888909,FF020.jpg,0,12007,2022_Apr_12_1421,Recall,2021.2.3,59.89261254568393,
,SD039.jpg,0,MF039.jpg,0,,,,,0,70,70,98,imgFunc,0,NA,1.486721100000068,252.30131129999995,253.95907306000004,2022-04-12 14:25:06.913843,2022-04-12 14:25:08.570369,MF039.jpg,0,12007,2022_Apr_12_1421,Recall,2021.2.3,59.89261254568393,
,L_DD508.jpg,1,L_FF508.jpg,1,,,,,0,71,71,47,imgFunc,1,NA,0.7835668999998688,253.99941549999994,254.97695365999994,2022-04-12 14:25:08.595302,2022-04-12 14:25:09.569671,L_FF508.jpg,1,12007,2022_Apr_12_1421,Recall,2021.2.3,59.89261254568393,
,SD015.jpg,0,MF015.jpg,0,,,,,0,72,72,74,imgFunc,0,NA,0.5308216999999331,255.0767704,255.86368245999984,2022-04-12 14:25:09.597596,2022-04-12 14:25:10.385468,MF015.jpg,0,12007,2022_Apr_12_1421,Recall,2021.2.3,59.89261254568393,
,L_SD505.jpg,1,L_MF505.jpg,1,,,,,0,73,73,104,imgFunc,0,NA,1.1026358999999957,255.82119629999988,257.11602275999985,2022-04-12 14:25:10.409405,2022-04-12 14:25:11.701915,L_MF505.jpg,1,12007,2022_Apr_12_1421,Recall,2021.2.3,59.89261254568393,
,DD023.jpg,0,FF023.jpg,0,,,,,0,74,74,22,imgFunc,1,NA,1.2622122999998737,257.14264089999983,258.5984702599999,2022-04-12 14:25:11.727844,2022-04-12 14:25:13.183912,FF023.jpg,0,12007,2022_Apr_12_1421,Recall,2021.2.3,59.89261254568393,
,DD011.jpg,0,FF011.jpg,0,,,,,0,75,75,10,imgFunc,2,NA,0.7321790000000874,258.6182234999999,259.54804395999986,2022-04-12 14:25:13.206850,2022-04-12 14:25:14.133349,FF011.jpg,0,12007,2022_Apr_12_1421,Recall,2021.2.3,59.89261254568393,
,DD033.jpg,0,FF033.jpg,0,,,,,0,76,76,32,imgFunc,1,NA,0.7850842999998804,259.5604444999999,260.54004685999985,2022-04-12 14:25:14.156294,2022-04-12 14:25:15.131654,FF033.jpg,0,12007,2022_Apr_12_1421,Recall,2021.2.3,59.89261254568393,
,L_DD503.jpg,1,L_FF503.jpg,1,,,,,0,77,77,42,imgFunc,1,NA,0.9639402999998765,260.56372939999983,261.7198218599997,2022-04-12 14:25:15.158580,2022-04-12 14:25:16.313463,L_FF503.jpg,1,12007,2022_Apr_12_1421,Recall,2021.2.3,59.89261254568393,
,SD017.jpg,0,MF017.jpg,0,,,,,0,78,78,76,imgFunc,0,NA,0.7969945999998345,261.7262515,262.70504456000026,2022-04-12 14:25:16.337397,2022-04-12 14:25:17.312764,MF017.jpg,0,12007,2022_Apr_12_1421,Recall,2021.2.3,59.89261254568393,
,L_SD516.jpg,1,L_MF516.jpg,1,,,,,0,79,79,115,imgFunc,1,NA,2.1271401999999853,262.7491253999999,265.0749545599999,2022-04-12 14:25:17.337697,2022-04-12 14:25:19.661423,L_MF516.jpg,1,12007,2022_Apr_12_1421,Recall,2021.2.3,59.89261254568393,
,DD016.jpg,0,FF016.jpg,0,,,,,0,80,80,15,imgFunc,2,NA,0.8443498999999974,265.08766909999986,266.1127515599999,2022-04-12 14:25:19.686356,2022-04-12 14:25:20.710589,FF016.jpg,0,12007,2022_Apr_12_1421,Recall,2021.2.3,59.89261254568393,
,SD016.jpg,0,MF016.jpg,0,,,,,0,81,81,75,imgFunc,0,NA,1.42235699999992,266.1292862999999,267.73791886000004,2022-04-12 14:25:20.735524,2022-04-12 14:25:22.342184,MF016.jpg,0,12007,2022_Apr_12_1421,Recall,2021.2.3,59.89261254568393,
,L_SD517.jpg,1,L_MF517.jpg,1,,,,,0,82,82,116,imgFunc,0,NA,0.827905200000032,267.75067949999993,268.74343526000007,2022-04-12 14:25:22.367117,2022-04-12 14:25:23.358442,L_MF517.jpg,1,12007,2022_Apr_12_1421,Recall,2021.2.3,59.89261254568393,
,L_SD513.jpg,1,L_MF513.jpg,1,,,,,0,83,83,112,imgFunc,0,NA,0.7800047000000632,268.7733618,269.7338275599998,2022-04-12 14:25:23.382376,2022-04-12 14:25:24.340787,L_MF513.jpg,1,12007,2022_Apr_12_1421,Recall,2021.2.3,59.89261254568393,
,SD012.jpg,0,MF012.jpg,0,,,,,0,84,84,71,imgFunc,0,NA,0.5009696000001895,269.75148379999996,270.4306883600002,2022-04-12 14:25:24.363727,2022-04-12 14:25:25.039902,MF012.jpg,0,12007,2022_Apr_12_1421,Recall,2021.2.3,59.89261254568393,
,DD021.jpg,0,FF021.jpg,0,,,,,0,85,85,20,imgFunc,0,NA,0.6987567000001036,270.4673539999999,271.35891666,2022-04-12 14:25:25.065831,2022-04-12 14:25:25.956426,FF021.jpg,0,12007,2022_Apr_12_1421,Recall,2021.2.3,59.89261254568393,
,L_DD502.jpg,1,L_FF502.jpg,1,,,,,0,86,86,41,imgFunc,0,NA,0.6453636999999617,271.3820183999999,272.20716975999994,2022-04-12 14:25:25.981360,2022-04-12 14:25:26.805134,L_FF502.jpg,1,12007,2022_Apr_12_1421,Recall,2021.2.3,59.89261254568393,
,L_SD506.jpg,1,L_MF506.jpg,1,,,,,0,87,87,105,imgFunc,0,NA,0.6420595999998113,272.21808739999983,273.03320385999996,2022-04-12 14:25:26.827076,2022-04-12 14:25:27.637885,L_MF506.jpg,1,12007,2022_Apr_12_1421,Recall,2021.2.3,59.89261254568393,
,L_SD515.jpg,1,L_MF515.jpg,1,,,,,0,88,88,114,imgFunc,0,NA,0.6015529999999671,273.05203749999987,273.8294065599998,2022-04-12 14:25:27.662819,2022-04-12 14:25:28.437726,L_MF515.jpg,1,12007,2022_Apr_12_1421,Recall,2021.2.3,59.89261254568393,
,DD034.jpg,0,FF034.jpg,0,,,,,0,89,89,33,imgFunc,0,NA,0.5029852999998639,273.8719116999998,274.5651758599997,2022-04-12 14:25:28.462658,2022-04-12 14:25:29.153793,FF034.jpg,0,12007,2022_Apr_12_1421,Recall,2021.2.3,59.89261254568393,
,L_DD507.jpg,1,L_FF507.jpg,1,,,,,0,90,90,46,imgFunc,9,NA,0.9669090999998389,274.57697499999995,275.73291575999997,2022-04-12 14:25:29.179723,2022-04-12 14:25:30.334603,L_FF507.jpg,1,12007,2022_Apr_12_1421,Recall,2021.2.3,59.89261254568393,
,DD037.jpg,0,FF037.jpg,0,,,,,0,91,91,36,imgFunc,9,NA,0.8499303000000964,275.7544247999999,276.7984366600001,2022-04-12 14:25:30.351564,2022-04-12 14:25:31.384769,FF037.jpg,0,12007,2022_Apr_12_1421,Recall,2021.2.3,59.89261254568393,
,SD004.jpg,0,MF004.jpg,0,,,,,0,92,92,63,imgFunc,0,NA,0.7824064999999791,276.8053178,277.7607857600001,2022-04-12 14:25:31.411697,2022-04-12 14:25:32.367116,MF004.jpg,0,12007,2022_Apr_12_1421,Recall,2021.2.3,59.89261254568393,
,SD032.jpg,0,MF032.jpg,0,,,,,0,93,93,91,imgFunc,0,NA,0.704763899999989,277.7981563999999,278.68953725999995,2022-04-12 14:25:32.393048,2022-04-12 14:25:33.282786,MF032.jpg,0,12007,2022_Apr_12_1421,Recall,2021.2.3,59.89261254568393,
,DD014.jpg,0,FF014.jpg,0,,,,,0,94,94,13,imgFunc,9,NA,0.4653071000000182,278.6910542999999,279.3380083599998,2022-04-12 14:25:33.305725,2022-04-12 14:25:33.948985,FF014.jpg,0,12007,2022_Apr_12_1421,Recall,2021.2.3,59.89261254568393,
,DD018.jpg,0,FF018.jpg,0,,,,,0,95,95,17,imgFunc,9,NA,0.5789583000000675,279.3771075999998,280.15916175999996,2022-04-12 14:25:33.970927,2022-04-12 14:25:34.748827,FF018.jpg,0,12007,2022_Apr_12_1421,Recall,2021.2.3,59.89261254568393,
,L_SD502.jpg,1,L_MF502.jpg,1,,,,,0,96,96,101,imgFunc,0,NA,0.46602359999997134,280.1633075,280.80583226,2022-04-12 14:25:34.773759,2022-04-12 14:25:35.415030,L_MF502.jpg,1,12007,2022_Apr_12_1421,Recall,2021.2.3,59.89261254568393,
,SD014.jpg,0,MF014.jpg,0,,,,,0,97,97,73,imgFunc,0,NA,0.5558132000001024,280.8424029999999,281.58450945999994,2022-04-12 14:25:35.439961,2022-04-12 14:25:36.180962,MF014.jpg,0,12007,2022_Apr_12_1421,Recall,2021.2.3,59.89261254568393,
,L_DD514.jpg,1,L_FF514.jpg,1,,,,,0,98,98,53,imgFunc,0,NA,0.47207380000008925,281.6159063,282.2903329600001,2022-04-12 14:25:36.206890,2022-04-12 14:25:36.880072,L_FF514.jpg,1,12007,2022_Apr_12_1421,Recall,2021.2.3,59.89261254568393,
,L_DD501.jpg,1,L_FF501.jpg,1,,,,,0,99,99,40,imgFunc,0,NA,0.4011617999999544,282.3089537999999,282.9032681599999,2022-04-12 14:25:36.905005,2022-04-12 14:25:37.496411,L_FF501.jpg,1,12007,2022_Apr_12_1421,Recall,2021.2.3,59.89261254568393,
,SD010.jpg,0,MF010.jpg,0,,,,,0,100,100,69,imgFunc,1,NA,1.339469999999892,282.9251850999999,284.44738345999986,2022-04-12 14:25:37.522340,2022-04-12 14:25:39.044228,MF010.jpg,0,12007,2022_Apr_12_1421,Recall,2021.2.3,59.89261254568393,
,DD022.jpg,0,FF022.jpg,0,,,,,0,101,101,21,imgFunc,9,NA,1.0249221999999918,284.4721918,285.6820359600001,2022-04-12 14:25:39.069163,2022-04-12 14:25:40.276903,FF022.jpg,0,12007,2022_Apr_12_1421,Recall,2021.2.3,59.89261254568393,
,DD036.jpg,0,FF036.jpg,0,,,,,0,102,102,35,imgFunc,0,NA,0.6559488000000329,285.6955899999998,286.5366507599997,2022-04-12 14:25:40.302833,2022-04-12 14:25:41.142563,FF036.jpg,0,12007,2022_Apr_12_1421,Recall,2021.2.3,59.89261254568393,
,L_DD510.jpg,1,L_FF510.jpg,1,,,,,0,103,103,49,imgFunc,0,NA,0.8777692999999545,286.56086519999985,287.62176546,2022-04-12 14:25:41.167498,2022-04-12 14:25:42.225639,L_FF510.jpg,1,12007,2022_Apr_12_1421,Recall,2021.2.3,59.89261254568393,
,SD013.jpg,0,MF013.jpg,0,,,,,0,104,104,72,imgFunc,0,NA,0.48526459999993676,287.6440378,288.30447826,2022-04-12 14:25:42.250573,2022-04-12 14:25:42.908795,MF013.jpg,0,12007,2022_Apr_12_1421,Recall,2021.2.3,59.89261254568393,
,DD019.jpg,0,FF019.jpg,0,,,,,0,105,105,18,imgFunc,0,NA,0.6230924999999843,288.32935529999986,289.14004486,2022-04-12 14:25:42.932730,2022-04-12 14:25:43.741548,FF019.jpg,0,12007,2022_Apr_12_1421,Recall,2021.2.3,59.89261254568393,
,SD028.jpg,0,MF028.jpg,0,,,,,0,106,106,87,imgFunc,0,NA,0.6060609000001023,289.15103269999986,289.92593985999997,2022-04-12 14:25:43.766480,2022-04-12 14:25:44.540390,MF028.jpg,0,12007,2022_Apr_12_1421,Recall,2021.2.3,59.89261254568393,
,SD023.jpg,0,MF023.jpg,0,,,,,0,107,107,82,imgFunc,0,NA,0.6407434000000194,289.9689735999998,290.7937598599999,2022-04-12 14:25:44.566322,2022-04-12 14:25:45.390095,MF023.jpg,0,12007,2022_Apr_12_1421,Recall,2021.2.3,59.89261254568393,
,L_DD505.jpg,1,L_FF505.jpg,1,,,,,0,108,108,44,imgFunc,0,NA,0.5207780000000639,290.81130689999986,291.51750075999985,2022-04-12 14:25:45.416028,2022-04-12 14:25:46.122119,L_FF505.jpg,1,12007,2022_Apr_12_1421,Recall,2021.2.3,59.89261254568393,
,DD027.jpg,0,FF027.jpg,0,,,,,0,109,109,26,imgFunc,0,NA,0.7173109999998815,291.5423575,292.44404525999994,2022-04-12 14:25:46.143062,2022-04-12 14:25:47.038644,FF027.jpg,0,12007,2022_Apr_12_1421,Recall,2021.2.3,59.89261254568393,
,DD017.jpg,0,FF017.jpg,0,,,,,0,110,110,16,imgFunc,0,NA,0.6173937000000933,292.4711777,293.28157055999986,2022-04-12 14:25:47.062582,2022-04-12 14:25:47.870399,FF017.jpg,0,12007,2022_Apr_12_1421,Recall,2021.2.3,59.89261254568393,
,DD001.jpg,0,FF001.jpg,0,,,,,0,111,111,0,imgFunc,1,NA,1.811343000000079,293.2904429,295.28535626000007,2022-04-12 14:25:47.894336,2022-04-12 14:25:49.885956,FF001.jpg,0,12007,2022_Apr_12_1421,Recall,2021.2.3,59.89261254568393,
,SD007.jpg,0,MF007.jpg,0,,,,,0,112,112,66,imgFunc,1,NA,0.6690770999998676,295.29830519999996,296.1394773600002,2022-04-12 14:25:49.911887,2022-04-12 14:25:50.751626,MF007.jpg,0,12007,2022_Apr_12_1421,Recall,2021.2.3,59.89261254568393,
,SD008.jpg,0,MF008.jpg,0,,,,,0,113,113,67,imgFunc,1,NA,0.6597438999999667,296.1714482,297.0116025599998,2022-04-12 14:25:50.777550,2022-04-12 14:25:51.617281,MF008.jpg,0,12007,2022_Apr_12_1421,Recall,2021.2.3,59.89261254568393,
,DD029.jpg,0,FF029.jpg,0,,,,,0,114,114,28,imgFunc,2,NA,0.4209961999999905,297.0497565999999,297.65869836000024,2022-04-12 14:25:51.643214,2022-04-12 14:25:52.250571,FF029.jpg,0,12007,2022_Apr_12_1421,Recall,2021.2.3,59.89261254568393,
,SD030.jpg,0,MF030.jpg,0,,,,,0,115,115,89,imgFunc,2,NA,1.6810390999999072,297.6797291999999,299.5510157599997,2022-04-12 14:25:52.277499,2022-04-12 14:25:54.148447,MF030.jpg,0,12007,2022_Apr_12_1421,Recall,2021.2.3,59.89261254568393,
,L_DD520.jpg,1,L_FF520.jpg,1,,,,,0,116,116,59,imgFunc,2,NA,0.7157462000000123,299.57145549999996,300.46000316000004,2022-04-12 14:25:54.175377,2022-04-12 14:25:55.063975,L_FF520.jpg,1,12007,2022_Apr_12_1421,Recall,2021.2.3,59.89261254568393,
,SD011.jpg,0,MF011.jpg,0,,,,,0,117,117,70,imgFunc,9,NA,0.8831207000000632,300.49066519999997,301.56785186,2022-04-12 14:25:55.088909,2022-04-12 14:25:56.164005,MF011.jpg,0,12007,2022_Apr_12_1421,Recall,2021.2.3,59.89261254568393,
,DD035.jpg,0,FF035.jpg,0,,,,,0,118,118,34,imgFunc,1,NA,1.3425521000001481,301.5863807999999,303.11530226000013,2022-04-12 14:25:56.186944,2022-04-12 14:25:57.712823,FF035.jpg,0,12007,2022_Apr_12_1421,Recall,2021.2.3,59.89261254568393,
,L_SD510.jpg,1,L_MF510.jpg,1,,,,,0,119,119,109,imgFunc,2,NA,2.1018159000000196,303.1296511999999,305.4012157599998,2022-04-12 14:25:57.738754,2022-04-12 14:26:00.010620,L_MF510.jpg,1,12007,2022_Apr_12_1421,Recall,2021.2.3,59.89261254568393,
,,,,,,,,,,,,,instrFunc,space,"Great work! 

 Now you will switch to the other image type.

 Press the spacebar whenever you are ready to start.",2.531651699999884,305.2834988999998,307.87323152999966,2022-04-12 14:26:00.012614,2022-04-12 14:26:02.591650,,,12007,2022_Apr_12_1421,Recall,2021.2.3,59.89261254568393,
,DD023.jpg,0,FF023.jpg,0,,,,,0,0,0,22,imgFunc,1,NA,2.5629934999999477,308.11427119999985,310.8520851699998,2022-04-12 14:26:02.726289,2022-04-12 14:26:05.455917,DD023.jpg,0,12007,2022_Apr_12_1421,Recall,2021.2.3,59.89261254568393,
,DD006.jpg,0,FF006.jpg,0,,,,,0,1,1,5,imgFunc,0,NA,1.8226388999999017,310.8696258,312.8614342599999,2022-04-12 14:26:05.480850,2022-04-12 14:26:07.470478,DD006.jpg,0,12007,2022_Apr_12_1421,Recall,2021.2.3,59.89261254568393,
,DD001.jpg,0,FF001.jpg,0,,,,,0,2,2,0,imgFunc,1,NA,3.103053799999998,312.87262399999986,316.13166465999984,2022-04-12 14:26:07.495412,2022-04-12 14:26:10.751618,DD001.jpg,0,12007,2022_Apr_12_1421,Recall,2021.2.3,59.89261254568393,
,SD003.jpg,0,MF003.jpg,0,,,,,0,3,3,62,imgFunc,1,NA,1.111486700000114,316.18142739999985,317.4727214899997,2022-04-12 14:26:10.793506,2022-04-12 14:26:12.084023,SD003.jpg,0,12007,2022_Apr_12_1421,Recall,2021.2.3,59.89261254568393,
,DD028.jpg,0,FF028.jpg,0,,,,,0,4,4,27,imgFunc,0,NA,1.1851426000000629,317.47817139999984,318.82009675999984,2022-04-12 14:26:12.108954,2022-04-12 14:26:13.449337,DD028.jpg,0,12007,2022_Apr_12_1421,Recall,2021.2.3,59.89261254568393,
,L_SD519.jpg,1,L_MF519.jpg,1,,,,,0,5,5,118,imgFunc,0,NA,1.3901325000001634,318.84651689999987,320.39134895999996,2022-04-12 14:26:13.473271,2022-04-12 14:26:15.015106,L_SD519.jpg,1,12007,2022_Apr_12_1421,Recall,2021.2.3,59.89261254568393,
,L_SD507.jpg,1,L_MF507.jpg,1,,,,,0,6,6,106,imgFunc,0,NA,1.300944900000104,320.42118979999987,321.89685826000004,2022-04-12 14:26:15.039043,2022-04-12 14:26:16.513063,L_SD507.jpg,1,12007,2022_Apr_12_1421,Recall,2021.2.3,59.89261254568393,
,L_SD504.jpg,1,L_MF504.jpg,1,,,,,0,7,7,103,imgFunc,0,NA,0.7667021000002023,321.91069419999985,322.8395533600001,2022-04-12 14:26:16.536998,2022-04-12 14:26:17.462498,L_SD504.jpg,1,12007,2022_Apr_12_1421,Recall,2021.2.3,59.89261254568393,
,DD040.jpg,0,FF040.jpg,0,,,,,0,8,8,39,imgFunc,9,NA,1.3908606999998483,322.86209689999987,324.4263578599998,2022-04-12 14:26:17.484439,2022-04-12 14:26:19.044228,DD040.jpg,0,12007,2022_Apr_12_1421,Recall,2021.2.3,59.89261254568393,
,DD008.jpg,0,FF008.jpg,0,,,,,0,9,9,7,imgFunc,9,NA,0.8534036000000924,324.4464051,325.45847026,2022-04-12 14:26:19.068164,2022-04-12 14:26:20.077439,DD008.jpg,0,12007,2022_Apr_12_1421,Recall,2021.2.3,59.89261254568393,
,SD004.jpg,0,MF004.jpg,0,,,,,0,10,10,63,imgFunc,0,NA,1.1351597999996557,325.47093159999986,326.7624385600002,2022-04-12 14:26:20.102373,2022-04-12 14:26:21.391889,SD004.jpg,0,12007,2022_Apr_12_1421,Recall,2021.2.3,59.89261254568393,
,L_DD514.jpg,1,L_FF514.jpg,1,,,,,0,11,11,53,imgFunc,9,NA,0.6003188999998201,326.7966830999999,327.55925655999954,2022-04-12 14:26:21.415825,2022-04-12 14:26:22.174775,L_DD514.jpg,1,12007,2022_Apr_12_1421,Recall,2021.2.3,59.89261254568393,
,SD015.jpg,0,MF015.jpg,0,,,,,0,12,12,74,imgFunc,9,NA,0.7110463999997592,327.57026730000007,328.43474365999964,2022-04-12 14:26:22.197713,2022-04-12 14:26:23.057391,SD015.jpg,0,12007,2022_Apr_12_1421,Recall,2021.2.3,59.89261254568393,
,L_DD512.jpg,1,L_FF512.jpg,1,,,,,0,13,13,51,imgFunc,1,NA,1.2878831999996692,328.4673272,329.92917806000014,2022-04-12 14:26:23.081327,2022-04-12 14:26:24.539390,L_DD512.jpg,1,12007,2022_Apr_12_1421,Recall,2021.2.3,59.89261254568393,
,DD030.jpg,0,FF030.jpg,0,,,,,0,14,14,29,imgFunc,0,NA,0.7727310000000216,329.9484290999999,330.89267925999957,2022-04-12 14:26:24.564324,2022-04-12 14:26:25.505781,DD030.jpg,0,12007,2022_Apr_12_1421,Recall,2021.2.3,59.89261254568393,
,SD020.jpg,0,MF020.jpg,0,,,,,0,15,15,79,imgFunc,2,NA,0.7855980999997882,330.9298884,331.90482096000005,2022-04-12 14:26:25.530715,2022-04-12 14:26:26.504085,SD020.jpg,0,12007,2022_Apr_12_1421,Recall,2021.2.3,59.89261254568393,
,L_DD503.jpg,1,L_FF503.jpg,1,,,,,0,16,16,42,imgFunc,0,NA,1.290993399999934,331.9069592999999,333.37121315999957,2022-04-12 14:26:26.527025,2022-04-12 14:26:27.987082,L_DD503.jpg,1,12007,2022_Apr_12_1421,Recall,2021.2.3,59.89261254568393,
,DD020.jpg,0,FF020.jpg,0,,,,,0,17,17,19,imgFunc,1,NA,1.5757598000000144,333.4097907999999,335.16781586000025,2022-04-12 14:26:28.012015,2022-04-12 14:26:29.768273,DD020.jpg,0,12007,2022_Apr_12_1421,Recall,2021.2.3,59.89261254568393,
,SD035.jpg,0,MF035.jpg,0,,,,,0,18,18,94,imgFunc,0,NA,1.1689362000001893,335.1717370000001,336.49958586,2022-04-12 14:26:29.792210,2022-04-12 14:26:31.117637,SD035.jpg,0,12007,2022_Apr_12_1421,Recall,2021.2.3,59.89261254568393,
,L_SD515.jpg,1,L_MF515.jpg,1,,,,,0,19,19,114,imgFunc,1,NA,1.2998219999999492,336.5192575000001,337.9803880600002,2022-04-12 14:26:31.141565,2022-04-12 14:26:32.599633,L_SD515.jpg,1,12007,2022_Apr_12_1421,Recall,2021.2.3,59.89261254568393,
,SD027.jpg,0,MF027.jpg,0,,,,,0,20,20,86,imgFunc,1,NA,1.0133215999999265,338.00892139999996,339.1848163599998,2022-04-12 14:26:32.624561,2022-04-12 14:26:33.798391,SD027.jpg,0,12007,2022_Apr_12_1421,Recall,2021.2.3,59.89261254568393,
,L_SD520.jpg,1,L_MF520.jpg,1,,,,,0,21,21,119,imgFunc,1,NA,0.8109511000002385,339.2150548999998,340.2046703599999,2022-04-12 14:26:33.824321,2022-04-12 14:26:34.813650,L_SD520.jpg,1,12007,2022_Apr_12_1421,Recall,2021.2.3,59.89261254568393,
,SD037.jpg,0,MF037.jpg,0,,,,,0,22,22,96,imgFunc,2,NA,1.5065849000002345,340.22447839999995,341.9060999600001,2022-04-12 14:26:34.836588,2022-04-12 14:26:36.513063,SD037.jpg,0,12007,2022_Apr_12_1421,Recall,2021.2.3,59.89261254568393,
,SD028.jpg,0,MF028.jpg,0,,,,,0,23,23,87,imgFunc,2,NA,0.7527308999997331,341.91379659999984,342.82523465999975,2022-04-12 14:26:36.536999,2022-04-12 14:26:37.445543,SD028.jpg,0,12007,2022_Apr_12_1421,Recall,2021.2.3,59.89261254568393,
,DD007.jpg,0,FF007.jpg,0,,,,,0,24,24,6,imgFunc,1,NA,0.32139950000009776,342.8518535999997,343.3467723599997,2022-04-12 14:26:37.469481,2022-04-12 14:26:37.961152,DD007.jpg,0,12007,2022_Apr_12_1421,Recall,2021.2.3,59.89261254568393,
,L_SD511.jpg,1,L_MF511.jpg,1,,,,,0,25,25,110,imgFunc,2,NA,0.5149577000001955,343.36934059999976,344.04706175999945,2022-04-12 14:26:37.986084,2022-04-12 14:26:38.661262,L_SD511.jpg,1,12007,2022_Apr_12_1421,Recall,2021.2.3,59.89261254568393,
,DD005.jpg,0,FF005.jpg,0,,,,,0,26,26,4,imgFunc,1,NA,2.438474600000063,344.0699174000001,346.6809846600004,2022-04-12 14:26:38.684198,2022-04-12 14:26:41.292160,DD005.jpg,0,12007,2022_Apr_12_1421,Recall,2021.2.3,59.89261254568393,
,SD011.jpg,0,MF011.jpg,0,,,,,0,27,27,70,imgFunc,1,NA,1.2149418999997579,346.7047312999998,348.09758185999954,2022-04-12 14:26:41.317090,2022-04-12 14:26:42.707336,SD011.jpg,0,12007,2022_Apr_12_1421,Recall,2021.2.3,59.89261254568393,
,DD033.jpg,0,FF033.jpg,0,,,,,0,28,28,32,imgFunc,1,NA,1.6423789000000397,348.1092067999998,349.9212181600001,2022-04-12 14:26:42.731272,2022-04-12 14:26:44.539391,DD033.jpg,0,12007,2022_Apr_12_1421,Recall,2021.2.3,59.89261254568393,
,DD025.jpg,0,FF025.jpg,0,,,,,0,29,29,24,imgFunc,9,NA,0.8517705999997816,349.9357351999997,350.9457036599997,2022-04-12 14:26:44.564323,2022-04-12 14:26:45.571603,DD025.jpg,0,12007,2022_Apr_12_1421,Recall,2021.2.3,59.89261254568393,
,L_DD515.jpg,1,L_FF515.jpg,1,,,,,0,30,30,54,imgFunc,0,NA,0.8714538999997785,350.97299840000005,352.00005406000037,2022-04-12 14:26:45.596536,2022-04-12 14:26:46.620772,L_DD515.jpg,1,12007,2022_Apr_12_1421,Recall,2021.2.3,59.89261254568393,
,L_DD509.jpg,1,L_FF509.jpg,1,,,,,0,31,31,48,imgFunc,9,NA,4.2038360999999895,352.0304020999997,356.40500485999974,2022-04-12 14:26:46.644707,2022-04-12 14:26:51.016900,L_DD509.jpg,1,12007,2022_Apr_12_1421,Recall,2021.2.3,59.89261254568393,
,SD001.jpg,0,MF001.jpg,0,,,,,0,32,32,60,imgFunc,1,NA,1.1061738999997033,356.4292068,357.7024787600003,2022-04-12 14:26:51.042831,2022-04-12 14:26:52.315394,SD001.jpg,0,12007,2022_Apr_12_1421,Recall,2021.2.3,59.89261254568393,
,DD017.jpg,0,FF017.jpg,0,,,,,0,33,33,16,imgFunc,2,NA,0.6803486000003431,357.7281531999997,358.5942601599995,2022-04-12 14:26:52.337336,2022-04-12 14:26:53.199009,DD017.jpg,0,12007,2022_Apr_12_1421,Recall,2021.2.3,59.89261254568393,
,SD025.jpg,0,MF025.jpg,0,,,,,0,34,34,84,imgFunc,1,NA,1.2165325000000848,358.59631450000006,359.97267525999996,2022-04-12 14:26:53.222945,2022-04-12 14:26:54.597233,SD025.jpg,0,12007,2022_Apr_12_1421,Recall,2021.2.3,59.89261254568393,
,DD027.jpg,0,FF027.jpg,0,,,,,0,35,35,26,imgFunc,2,NA,1.0346008999999867,360.001041,361.1954343599996,2022-04-12 14:26:54.621170,2022-04-12 14:26:55.812952,DD027.jpg,0,12007,2022_Apr_12_1421,Recall,2021.2.3,59.89261254568393,
,L_SD509.jpg,1,L_MF509.jpg,1,,,,,0,36,36,108,imgFunc,0,NA,3.1624197999999524,361.21473509999987,364.54086315999984,2022-04-12 14:26:55.836886,2022-04-12 14:26:59.159913,L_SD509.jpg,1,12007,2022_Apr_12_1421,Recall,2021.2.3,59.89261254568393,
,SD016.jpg,0,MF016.jpg,0,,,,,0,37,37,75,imgFunc,9,NA,1.0233776999998554,364.57081789999984,365.7640930599996,2022-04-12 14:26:59.184847,2022-04-12 14:27:00.375632,SD016.jpg,0,12007,2022_Apr_12_1421,Recall,2021.2.3,59.89261254568393,
,SD040.jpg,0,MF040.jpg,0,,,,,0,38,38,99,imgFunc,0,NA,0.8174587000003157,365.78192899999976,366.75321795999935,2022-04-12 14:27:00.403558,2022-04-12 14:27:01.374933,SD040.jpg,0,12007,2022_Apr_12_1421,Recall,2021.2.3,59.89261254568393,
,DD037.jpg,0,FF037.jpg,0,,,,,0,39,39,36,imgFunc,9,NA,0.538156699999945,366.77460729999984,367.4715977599999,2022-04-12 14:27:01.397872,2022-04-12 14:27:02.091001,DD037.jpg,0,12007,2022_Apr_12_1421,Recall,2021.2.3,59.89261254568393,
,SD008.jpg,0,MF008.jpg,0,,,,,0,40,40,67,imgFunc,1,NA,0.34990349999998216,367.4906514999998,368.00166525999975,2022-04-12 14:27:02.114936,2022-04-12 14:27:02.623561,SD008.jpg,0,12007,2022_Apr_12_1421,Recall,2021.2.3,59.89261254568393,
,SD031.jpg,0,MF031.jpg,0,,,,,0,41,41,90,imgFunc,2,NA,0.37640419999979713,368.02251609999985,368.5715857599994,2022-04-12 14:27:02.637528,2022-04-12 14:27:03.174076,SD031.jpg,0,12007,2022_Apr_12_1421,Recall,2021.2.3,59.89261254568393,
,DD022.jpg,0,FF022.jpg,0,,,,,0,42,42,21,imgFunc,2,NA,2.872512899999947,368.58052610000004,371.62426366,2022-04-12 14:27:03.197014,2022-04-12 14:27:06.237919,DD022.jpg,0,12007,2022_Apr_12_1421,Recall,2021.2.3,59.89261254568393,
,L_DD518.jpg,1,L_FF518.jpg,1,,,,,0,43,43,57,imgFunc,1,NA,0.7443936999998186,371.6421798000001,372.5511631600002,2022-04-12 14:27:06.262854,2022-04-12 14:27:07.169472,L_DD518.jpg,1,12007,2022_Apr_12_1421,Recall,2021.2.3,59.89261254568393,
,DD029.jpg,0,FF029.jpg,0,,,,,0,44,44,28,imgFunc,0,NA,0.8356598000000304,372.5755143000001,373.58503726000026,2022-04-12 14:27:07.186430,2022-04-12 14:27:08.186801,DD029.jpg,0,12007,2022_Apr_12_1421,Recall,2021.2.3,59.89261254568393,
,DD038.jpg,0,FF038.jpg,0,,,,,0,45,45,37,imgFunc,0,NA,0.7074695000001157,373.5899857999998,374.46250766,2022-04-12 14:27:08.212733,2022-04-12 14:27:09.085443,DD038.jpg,0,12007,2022_Apr_12_1421,Recall,2021.2.3,59.89261254568393,
,SD019.jpg,0,MF019.jpg,0,,,,,0,46,46,78,imgFunc,0,NA,0.8405608000002758,374.4845379999997,375.4919679599998,2022-04-12 14:27:09.103398,2022-04-12 14:27:10.101771,SD019.jpg,0,12007,2022_Apr_12_1421,Recall,2021.2.3,59.89261254568393,
,SD009.jpg,0,MF009.jpg,0,,,,,0,47,47,68,imgFunc,0,NA,0.8603952999997091,375.5120673000001,376.5408145600004,2022-04-12 14:27:10.125709,2022-04-12 14:27:11.151016,SD009.jpg,0,12007,2022_Apr_12_1421,Recall,2021.2.3,59.89261254568393,
,L_DD519.jpg,1,L_FF519.jpg,1,,,,,0,48,48,58,imgFunc,1,NA,1.1143172000001869,376.57096809999985,377.8558137599998,2022-04-12 14:27:11.179942,2022-04-12 14:27:12.466561,L_DD519.jpg,1,12007,2022_Apr_12_1421,Recall,2021.2.3,59.89261254568393,
,L_SD516.jpg,1,L_MF516.jpg,1,,,,,0,49,49,115,imgFunc,1,NA,0.9150346999999783,377.8883646999998,378.98206776000006,2022-04-12 14:27:12.490502,2022-04-12 14:27:13.581633,L_SD516.jpg,1,12007,2022_Apr_12_1421,Recall,2021.2.3,59.89261254568393,
,L_SD502.jpg,1,L_MF502.jpg,1,,,,,0,50,50,101,imgFunc,1,NA,0.8187606999999844,378.98002339999994,379.96083395999995,2022-04-12 14:27:13.604573,2022-04-12 14:27:14.582005,L_SD502.jpg,1,12007,2022_Apr_12_1421,Recall,2021.2.3,59.89261254568393,
,L_DD507.jpg,1,L_FF507.jpg,1,,,,,0,51,51,46,imgFunc,1,NA,0.7398855000001276,379.9744267000001,380.86812306000047,2022-04-12 14:27:14.605943,2022-04-12 14:27:15.497601,L_DD507.jpg,1,12007,2022_Apr_12_1421,Recall,2021.2.3,59.89261254568393,
,L_DD504.jpg,1,L_FF504.jpg,1,,,,,0,52,52,43,imgFunc,2,NA,0.8482926000001498,380.92050419999987,381.9421972600003,2022-04-12 14:27:15.524532,2022-04-12 14:27:16.546845,L_DD504.jpg,1,12007,2022_Apr_12_1421,Recall,2021.2.3,59.89261254568393,
,SD017.jpg,0,MF017.jpg,0,,,,,0,53,53,76,imgFunc,0,NA,1.4003681999997752,381.9646767999998,383.5354953599999,2022-04-12 14:27:16.573778,2022-04-12 14:27:18.144648,SD017.jpg,0,12007,2022_Apr_12_1421,Recall,2021.2.3,59.89261254568393,
,L_DD508.jpg,1,L_FF508.jpg,1,,,,,0,54,54,47,imgFunc,9,NA,0.777390799999921,383.54917939999996,384.49098725999966,2022-04-12 14:27:18.170583,2022-04-12 14:27:19.111117,L_DD508.jpg,1,12007,2022_Apr_12_1421,Recall,2021.2.3,59.89261254568393,
,DD002.jpg,0,FF002.jpg,0,,,,,0,55,55,1,imgFunc,0,NA,1.0268224000001283,384.5187996999998,385.7089836599994,2022-04-12 14:27:19.137043,2022-04-12 14:27:20.326918,DD002.jpg,0,12007,2022_Apr_12_1421,Recall,2021.2.3,59.89261254568393,
,SD005.jpg,0,MF005.jpg,0,,,,,0,56,56,64,imgFunc,9,NA,0.4596083000001272,385.7244894999999,386.33237525999994,2022-04-12 14:27:20.352850,2022-04-12 14:27:20.960227,SD005.jpg,0,12007,2022_Apr_12_1421,Recall,2021.2.3,59.89261254568393,
,L_DD502.jpg,1,L_FF502.jpg,1,,,,,0,57,57,41,imgFunc,2,NA,0.6447033999997984,386.3732498999998,387.19419836,2022-04-12 14:27:20.987154,2022-04-12 14:27:21.808923,L_DD502.jpg,1,12007,2022_Apr_12_1421,Recall,2021.2.3,59.89261254568393,
,L_SD517.jpg,1,L_MF517.jpg,1,,,,,0,58,58,116,imgFunc,1,NA,0.6126699000001281,387.2059512999999,387.98496615999966,2022-04-12 14:27:21.832853,2022-04-12 14:27:22.608741,L_SD517.jpg,1,12007,2022_Apr_12_1421,Recall,2021.2.3,59.89261254568393,
,DD036.jpg,0,FF036.jpg,0,,,,,0,59,59,35,imgFunc,2,NA,0.4545568000003186,388.0081772999997,388.63124956,2022-04-12 14:27:22.626693,2022-04-12 14:27:23.241020,DD036.jpg,0,12007,2022_Apr_12_1421,Recall,2021.2.3,59.89261254568393,
,L_SD508.jpg,1,L_MF508.jpg,1,,,,,0,60,60,107,imgFunc,0,NA,0.8033898999997291,388.6648597999997,389.6553970599998,2022-04-12 14:27:23.266951,2022-04-12 14:27:24.256258,L_SD508.jpg,1,12007,2022_Apr_12_1421,Recall,2021.2.3,59.89261254568393,
,SD006.jpg,0,MF006.jpg,0,,,,,0,61,61,65,imgFunc,1,NA,1.3050970000003872,389.7335358999999,391.21201518,2022-04-12 14:27:24.347012,2022-04-12 14:27:25.821997,SD006.jpg,0,12007,2022_Apr_12_1421,Recall,2021.2.3,59.89261254568393,
,DD024.jpg,0,FF024.jpg,0,,,,,0,62,62,23,imgFunc,2,NA,0.8748003999999128,391.2201476,392.25008596000043,2022-04-12 14:27:25.844934,2022-04-12 14:27:26.871141,DD024.jpg,0,12007,2022_Apr_12_1421,Recall,2021.2.3,59.89261254568393,
,SD013.jpg,0,MF013.jpg,0,,,,,0,63,63,72,imgFunc,1,NA,0.5621946000001117,392.2828166999998,393.0062585599994,2022-04-12 14:27:26.897073,2022-04-12 14:27:27.620105,SD013.jpg,0,12007,2022_Apr_12_1421,Recall,2021.2.3,59.89261254568393,
,SD023.jpg,0,MF023.jpg,0,,,,,0,64,64,82,imgFunc,1,NA,0.6536270999999942,393.0262465999999,393.85363426000004,2022-04-12 14:27:27.645038,2022-04-12 14:27:28.469795,SD023.jpg,0,12007,2022_Apr_12_1421,Recall,2021.2.3,59.89261254568393,
,SD029.jpg,0,MF029.jpg,0,,,,,0,65,65,88,imgFunc,2,NA,0.7186738000000332,393.8777305999997,394.76928055999997,2022-04-12 14:27:28.495722,2022-04-12 14:27:29.385300,SD029.jpg,0,12007,2022_Apr_12_1421,Recall,2021.2.3,59.89261254568393,
,DD039.jpg,0,FF039.jpg,0,,,,,0,66,66,38,imgFunc,0,NA,0.9273044999999911,394.7981942000001,395.88935065999976,2022-04-12 14:27:29.411230,2022-04-12 14:27:30.501264,DD039.jpg,0,12007,2022_Apr_12_1421,Recall,2021.2.3,59.89261254568393,
,L_DD516.jpg,1,L_FF516.jpg,1,,,,,0,67,67,55,imgFunc,9,NA,0.6095577999999477,395.91843040000003,396.7142432599999,2022-04-12 14:27:30.525198,2022-04-12 14:27:31.317043,L_DD516.jpg,1,12007,2022_Apr_12_1421,Recall,2021.2.3,59.89261254568393,
,SD030.jpg,0,MF030.jpg,0,,,,,0,68,68,89,imgFunc,1,NA,1.0150180000000546,396.73950179999974,397.93050095999934,2022-04-12 14:27:31.342974,2022-04-12 14:27:32.532736,SD030.jpg,0,12007,2022_Apr_12_1421,Recall,2021.2.3,59.89261254568393,
,L_DD511.jpg,1,L_FF511.jpg,1,,,,,0,69,69,50,imgFunc,2,NA,1.1513445000000502,397.9364568000001,399.2457679600002,2022-04-12 14:27:32.557667,2022-04-12 14:27:33.865109,L_DD511.jpg,1,12007,2022_Apr_12_1421,Recall,2021.2.3,59.89261254568393,
,SD039.jpg,0,MF039.jpg,0,,,,,0,70,70,98,imgFunc,1,NA,2.029062099999919,399.2686077999997,401.4635165599998,2022-04-12 14:27:33.889046,2022-04-12 14:27:36.080081,SD039.jpg,0,12007,2022_Apr_12_1421,Recall,2021.2.3,59.89261254568393,
,L_DD513.jpg,1,L_FF513.jpg,1,,,,,0,71,71,52,imgFunc,1,NA,1.6061580999999023,401.4991692999997,403.2886356599997,2022-04-12 14:27:36.106011,2022-04-12 14:27:37.895142,L_DD513.jpg,1,12007,2022_Apr_12_1421,Recall,2021.2.3,59.89261254568393,
,DD010.jpg,0,FF010.jpg,0,,,,,0,72,72,9,imgFunc,2,NA,0.6284561000002213,403.3066650999999,404.0984667599996,2022-04-12 14:27:37.920076,2022-04-12 14:27:38.710922,DD010.jpg,0,12007,2022_Apr_12_1421,Recall,2021.2.3,59.89261254568393,
,DD035.jpg,0,FF035.jpg,0,,,,,0,73,73,34,imgFunc,9,NA,0.5910094000000754,404.1276214999998,404.8855530599999,2022-04-12 14:27:38.736853,2022-04-12 14:27:39.493798,DD035.jpg,0,12007,2022_Apr_12_1421,Recall,2021.2.3,59.89261254568393,
,DD026.jpg,0,FF026.jpg,0,,,,,0,74,74,25,imgFunc,0,NA,0.466975100000127,404.89996489999976,405.5287935599995,2022-04-12 14:27:39.517728,2022-04-12 14:27:40.143025,DD026.jpg,0,12007,2022_Apr_12_1421,Recall,2021.2.3,59.89261254568393,
,SD032.jpg,0,MF032.jpg,0,,,,,0,75,75,91,imgFunc,9,NA,0.9380904999998165,405.55502939999997,406.66247436000003,2022-04-12 14:27:40.168955,2022-04-12 14:27:41.274944,SD032.jpg,0,12007,2022_Apr_12_1421,Recall,2021.2.3,59.89261254568393,
,DD032.jpg,0,FF032.jpg,0,,,,,0,76,76,31,imgFunc,1,NA,1.2623773000000256,406.65778309999996,408.08005866000076,2022-04-12 14:27:41.293894,2022-04-12 14:27:42.707051,DD032.jpg,0,12007,2022_Apr_12_1421,Recall,2021.2.3,59.89261254568393,
,SD010.jpg,0,MF010.jpg,0,,,,,0,77,77,69,imgFunc,2,NA,0.9928712000000814,408.09256319999986,409.2476251600001,2022-04-12 14:27:42.725997,2022-04-12 14:27:43.873874,SD010.jpg,0,12007,2022_Apr_12_1421,Recall,2021.2.3,59.89261254568393,
,L_SD505.jpg,1,L_MF505.jpg,1,,,,,0,78,78,104,imgFunc,0,NA,2.1002393000003394,409.27667399999973,411.53233365999995,2022-04-12 14:27:43.899802,2022-04-12 14:27:46.154667,L_SD505.jpg,1,12007,2022_Apr_12_1421,Recall,2021.2.3,59.89261254568393,
,L_DD505.jpg,1,L_FF505.jpg,1,,,,,0,79,79,44,imgFunc,0,NA,1.8456709000001865,411.55009949999976,413.56831655999986,2022-04-12 14:27:46.173615,2022-04-12 14:27:48.185262,L_DD505.jpg,1,12007,2022_Apr_12_1421,Recall,2021.2.3,59.89261254568393,
,L_DD506.jpg,1,L_FF506.jpg,1,,,,,0,80,80,45,imgFunc,0,NA,1.5015109999999368,413.5448551999998,415.19398576000003,2022-04-12 14:27:48.199196,2022-04-12 14:27:49.834605,L_DD506.jpg,1,12007,2022_Apr_12_1421,Recall,2021.2.3,59.89261254568393,
,DD034.jpg,0,FF034.jpg,0,,,,,0,81,81,33,imgFunc,9,NA,0.7156972000002497,415.18525279999994,416.0327509599997,2022-04-12 14:27:49.848569,2022-04-12 14:27:50.683051,DD034.jpg,0,12007,2022_Apr_12_1421,Recall,2021.2.3,59.89261254568393,
,L_SD512.jpg,1,L_MF512.jpg,1,,,,,0,82,82,111,imgFunc,1,NA,1.6407314999996743,416.05929689999994,417.8563248599994,2022-04-12 14:27:50.697984,2022-04-12 14:27:52.482587,L_SD512.jpg,1,12007,2022_Apr_12_1421,Recall,2021.2.3,59.89261254568393,
,DD004.jpg,0,FF004.jpg,0,,,,,0,83,83,3,imgFunc,1,NA,0.9085573000002114,417.8479752999997,418.8871940599993,2022-04-12 14:27:52.500539,2022-04-12 14:27:53.530784,DD004.jpg,0,12007,2022_Apr_12_1421,Recall,2021.2.3,59.89261254568393,
,SD038.jpg,0,MF038.jpg,0,,,,,0,84,84,97,imgFunc,9,NA,0.7342892000001484,418.8874768999999,419.7443120600001,2022-04-12 14:27:53.548736,2022-04-12 14:27:54.397360,SD038.jpg,0,12007,2022_Apr_12_1421,Recall,2021.2.3,59.89261254568393,
,DD013.jpg,0,FF013.jpg,0,,,,,0,85,85,12,imgFunc,1,NA,0.636268900000232,419.7547866,420.53379656000016,2022-04-12 14:27:54.412322,2022-04-12 14:27:55.179742,DD013.jpg,0,12007,2022_Apr_12_1421,Recall,2021.2.3,59.89261254568393,
,SD022.jpg,0,MF022.jpg,0,,,,,0,86,86,81,imgFunc,9,NA,0.6079195000002073,420.5375786999998,421.26907545999984,2022-04-12 14:27:55.201684,2022-04-12 14:27:55.928733,SD022.jpg,0,12007,2022_Apr_12_1421,Recall,2021.2.3,59.89261254568393,
,L_SD513.jpg,1,L_MF513.jpg,1,,,,,0,87,87,112,imgFunc,1,NA,0.24585190000016155,421.2921959999999,421.67521446,2022-04-12 14:27:55.941671,2022-04-12 14:27:56.311661,L_SD513.jpg,1,12007,2022_Apr_12_1421,Recall,2021.2.3,59.89261254568393,
,L_SD503.jpg,1,L_MF503.jpg,1,,,,,0,88,88,102,imgFunc,0,NA,0.32569310000008045,421.66074660000004,422.10912715999984,2022-04-12 14:27:56.325628,2022-04-12 14:27:56.761441,L_SD503.jpg,1,12007,2022_Apr_12_1421,Recall,2021.2.3,59.89261254568393,
,L_SD506.jpg,1,L_MF506.jpg,1,,,,,0,89,89,105,imgFunc,2,NA,0.29363839999996344,422.1492767,422.6003803599997,2022-04-12 14:27:56.782382,2022-04-12 14:27:57.227470,L_SD506.jpg,1,12007,2022_Apr_12_1421,Recall,2021.2.3,59.89261254568393,
,L_SD510.jpg,1,L_MF510.jpg,1,,,,,0,90,90,109,imgFunc,0,NA,2.5633496999998897,422.5972711999998,425.3123216599997,2022-04-12 14:27:57.240436,2022-04-12 14:27:59.941901,L_SD510.jpg,1,12007,2022_Apr_12_1421,Recall,2021.2.3,59.89261254568393,
,L_DD517.jpg,1,L_FF517.jpg,1,,,,,0,91,91,56,imgFunc,0,NA,0.8463772000000063,425.3099364999998,426.3069191599998,2022-04-12 14:27:59.956861,2022-04-12 14:28:00.942375,L_DD517.jpg,1,12007,2022_Apr_12_1421,Recall,2021.2.3,59.89261254568393,
,DD021.jpg,0,FF021.jpg,0,,,,,0,92,92,20,imgFunc,0,NA,0.08169779999980165,426.30554140000004,426.5331412600003,2022-04-12 14:28:00.958330,2022-04-12 14:28:01.174741,DD021.jpg,0,12007,2022_Apr_12_1421,Recall,2021.2.3,59.89261254568393,
,DD019.jpg,0,FF019.jpg,0,,,,,0,93,93,18,imgFunc,1,NA,1.5706033000001298,426.5597739,428.2876011600001,2022-04-12 14:28:01.189705,2022-04-12 14:28:02.906696,DD019.jpg,0,12007,2022_Apr_12_1421,Recall,2021.2.3,59.89261254568393,
,L_DD501.jpg,1,L_FF501.jpg,1,,,,,0,94,94,40,imgFunc,1,NA,0.8756103000000621,428.2713117999997,429.27922255999965,2022-04-12 14:28:02.923650,2022-04-12 14:28:03.921935,L_DD501.jpg,1,12007,2022_Apr_12_1421,Recall,2021.2.3,59.89261254568393,
,L_SD501.jpg,1,L_MF501.jpg,1,,,,,0,95,95,100,imgFunc,9,NA,0.7781026000002385,429.3021614999998,430.2288767599998,2022-04-12 14:28:03.937891,2022-04-12 14:28:04.854201,L_SD501.jpg,1,12007,2022_Apr_12_1421,Recall,2021.2.3,59.89261254568393,
,DD016.jpg,0,FF016.jpg,0,,,,,0,96,96,15,imgFunc,2,NA,0.5535926999996263,430.22961750000013,430.94576506000067,2022-04-12 14:28:04.867164,2022-04-12 14:28:05.570206,DD016.jpg,0,12007,2022_Apr_12_1421,Recall,2021.2.3,59.89261254568393,
,SD012.jpg,0,MF012.jpg,0,,,,,0,97,97,71,imgFunc,0,NA,2.5688336999996864,430.9457231000001,433.6776585599996,2022-04-12 14:28:05.583145,2022-04-12 14:28:08.301768,SD012.jpg,0,12007,2022_Apr_12_1421,Recall,2021.2.3,59.89261254568393,
,DD003.jpg,0,FF003.jpg,0,,,,,0,98,98,2,imgFunc,2,NA,1.5621952999999849,434.0130687000001,436.04681643000004,2022-04-12 14:28:08.313626,2022-04-12 14:28:10.349257,DD003.jpg,0,12007,2022_Apr_12_1421,Recall,2021.2.3,59.89261254568393,
,DD014.jpg,0,FF014.jpg,0,,,,,0,99,99,13,imgFunc,0,NA,0.05354699999998047,435.71690839999974,435.91345056,2022-04-12 14:28:10.364220,2022-04-12 14:28:10.549712,DD014.jpg,0,12007,2022_Apr_12_1421,Recall,2021.2.3,59.89261254568393,
,SD036.jpg,0,MF036.jpg,0,,,,,0,100,100,95,imgFunc,1,NA,2.6299764999998843,435.9128830999998,438.6927292599994,2022-04-12 14:28:10.563673,2022-04-12 14:28:13.330709,SD036.jpg,0,12007,2022_Apr_12_1421,Recall,2021.2.3,59.89261254568393,
,DD011.jpg,0,FF011.jpg,0,,,,,0,101,101,10,imgFunc,1,NA,0.6518498000000363,438.7057276999999,439.5195945600003,2022-04-12 14:28:13.344672,2022-04-12 14:28:14.146563,DD011.jpg,0,12007,2022_Apr_12_1421,Recall,2021.2.3,59.89261254568393,
,SD024.jpg,0,MF024.jpg,0,,,,,0,102,102,83,imgFunc,2,NA,2.0232194999998683,439.5080204000001,441.6685952600001,2022-04-12 14:28:14.161527,2022-04-12 14:28:16.311300,SD024.jpg,0,12007,2022_Apr_12_1421,Recall,2021.2.3,59.89261254568393,
,DD018.jpg,0,FF018.jpg,0,,,,,0,103,103,17,imgFunc,1,NA,0.7847501000001103,441.6923569999999,442.6222635600002,2022-04-12 14:28:16.334238,2022-04-12 14:28:17.260525,DD018.jpg,0,12007,2022_Apr_12_1421,Recall,2021.2.3,59.89261254568393,
,DD015.jpg,0,FF015.jpg,0,,,,,0,104,104,14,imgFunc,0,NA,3.328345899999931,442.64839269999993,446.13513525999997,2022-04-12 14:28:17.278473,2022-04-12 14:28:20.757074,DD015.jpg,0,12007,2022_Apr_12_1421,Recall,2021.2.3,59.89261254568393,
,DD012.jpg,0,FF012.jpg,0,,,,,0,105,105,11,imgFunc,9,NA,0.7296344000001227,446.1208117000001,446.98620796000023,2022-04-12 14:28:20.771036,2022-04-12 14:28:21.623518,DD012.jpg,0,12007,2022_Apr_12_1421,Recall,2021.2.3,59.89261254568393,
,SD007.jpg,0,MF007.jpg,0,,,,,0,106,106,66,imgFunc,1,NA,0.8677081000000726,446.9883381999998,448.00202546000037,2022-04-12 14:28:21.637486,2022-04-12 14:28:22.638686,SD007.jpg,0,12007,2022_Apr_12_1421,Recall,2021.2.3,59.89261254568393,
,L_SD514.jpg,1,L_MF514.jpg,1,,,,,0,107,107,113,imgFunc,2,NA,0.57213449999972,448.00340460000007,448.7179311599998,2022-04-12 14:28:22.653644,2022-04-12 14:28:23.355455,L_SD514.jpg,1,12007,2022_Apr_12_1421,Recall,2021.2.3,59.89261254568393,
,SD033.jpg,0,MF033.jpg,0,,,,,0,108,108,92,imgFunc,1,NA,0.14096580000023096,448.73985949999997,449.02466856000046,2022-04-12 14:28:23.375420,2022-04-12 14:28:23.654639,SD033.jpg,0,12007,2022_Apr_12_1421,Recall,2021.2.3,59.89261254568393,
,SD026.jpg,0,MF026.jpg,0,,,,,0,109,109,85,imgFunc,9,NA,0.9457274000001235,449.0234494000001,450.11965436000037,2022-04-12 14:28:23.669604,2022-04-12 14:28:24.753970,SD026.jpg,0,12007,2022_Apr_12_1421,Recall,2021.2.3,59.89261254568393,
,SD034.jpg,0,MF034.jpg,0,,,,,0,110,110,93,imgFunc,0,NA,1.0566579000001184,450.11418879999974,451.3059549599993,2022-04-12 14:28:24.770893,2022-04-12 14:28:25.952699,SD034.jpg,0,12007,2022_Apr_12_1421,Recall,2021.2.3,59.89261254568393,
,L_SD518.jpg,1,L_MF518.jpg,1,,,,,0,111,111,117,imgFunc,2,NA,1.050957500000095,451.30817960000013,452.48961155999996,2022-04-12 14:28:25.966661,2022-04-12 14:28:27.134776,L_SD518.jpg,1,12007,2022_Apr_12_1421,Recall,2021.2.3,59.89261254568393,
,DD009.jpg,0,FF009.jpg,0,,,,,0,112,112,8,imgFunc,0,NA,2.1512447999998585,452.50073840000005,454.7940346600003,2022-04-12 14:28:27.150757,2022-04-12 14:28:29.433621,DD009.jpg,0,12007,2022_Apr_12_1421,Recall,2021.2.3,59.89261254568393,
,DD031.jpg,0,FF031.jpg,0,,,,,0,113,113,30,imgFunc,1,NA,1.3248789999997825,454.8239681,456.31543845999977,2022-04-12 14:28:29.450578,2022-04-12 14:28:30.931823,DD031.jpg,0,12007,2022_Apr_12_1421,Recall,2021.2.3,59.89261254568393,
,SD018.jpg,0,MF018.jpg,0,,,,,0,114,114,77,imgFunc,2,NA,1.324601299999813,456.2969688999997,457.75883745999954,2022-04-12 14:28:30.946812,2022-04-12 14:28:32.397114,SD018.jpg,0,12007,2022_Apr_12_1421,Recall,2021.2.3,59.89261254568393,
,L_DD510.jpg,1,L_FF510.jpg,1,,,,,0,115,115,49,imgFunc,9,NA,0.9915031000000454,457.75160229999983,458.88338416000033,2022-04-12 14:28:32.411048,2022-04-12 14:28:33.529507,L_DD510.jpg,1,12007,2022_Apr_12_1421,Recall,2021.2.3,59.89261254568393,
,L_DD520.jpg,1,L_FF520.jpg,1,,,,,0,116,116,59,imgFunc,1,NA,2.064729399999578,458.9040761000001,461.11806686,2022-04-12 14:28:33.543471,2022-04-12 14:28:35.744637,L_DD520.jpg,1,12007,2022_Apr_12_1421,Recall,2021.2.3,59.89261254568393,
,SD014.jpg,0,MF014.jpg,0,,,,,0,117,117,73,imgFunc,1,NA,0.8337661999999,461.10130690000005,462.06486656000016,2022-04-12 14:28:35.758569,2022-04-12 14:28:36.710036,SD014.jpg,0,12007,2022_Apr_12_1421,Recall,2021.2.3,59.89261254568393,
,SD021.jpg,0,MF021.jpg,0,,,,,0,118,118,80,imgFunc,0,NA,1.2728884000002836,462.0645743,463.4789541600003,2022-04-12 14:28:36.724000,2022-04-12 14:28:38.124793,SD021.jpg,0,12007,2022_Apr_12_1421,Recall,2021.2.3,59.89261254568393,
,SD002.jpg,0,MF002.jpg,0,,,,,0,119,119,61,imgFunc,1,NA,0.9442400000002635,463.49303759999975,464.59116956000025,2022-04-12 14:28:38.138804,2022-04-12 14:28:39.224494,SD002.jpg,0,12007,2022_Apr_12_1421,Recall,2021.2.3,59.89261254568393,
