onset	duration	trial_type	rt	resp
0.0014777000000094631	0.8312270999999782	fixation_1	999	999
0.8328614999999218	3.8278844000000163	face	2.3378852000000734	3
4.660845799999947	0.8312270999999782	fixation_2	999	999
5.21245799999997	1.0157550999999785	feedback win	999	999
6.228218500000025	5.317569999999932	ITI	999	999
11.562962799999923	0.809686700000043	fixation_1	999	999
12.37278040000001	3.008246799999938	face	2.3150860999999168	2
15.381116299999917	0.809686700000043	fixation_2	999	999
15.936995000000024	1.0155875999998898	feedback loss	999	999
16.952588600000013	1.1182339999999158	ITI	999	999
18.07964119999997	0.8547630000000481	fixation_1	999	999
18.934542799999917	3.0089102000000594	face	1.8150889000000916	3
21.94353990000002	0.8547630000000481	fixation_2	999	999
22.498004899999955	1.015972099999999	feedback win	999	999
23.513983699999926	1.1172941000000947	ITI	999	999
24.641177799999923	0.8377398000000085	fixation_1	999	999
25.47906189999992	3.0089088000000856	face	2.0644265000000814	2
28.488063799999964	0.8377398000000085	fixation_2	999	999
29.042603699999972	1.0157464999999775	feedback win	999	999
30.058356600000025	3.215978699999937	ITI	999	999
33.28371870000001	0.8877745999999433	fixation_1	999	999
34.171652600000016	3.0073322999999164	face	2.0646829999999454	2
37.179045799999926	0.8877745999999433	fixation_2	999	999
37.735589300000015	1.015605599999958	feedback loss	999	999
38.751201299999934	5.316534600000068	ITI	999	999
44.073433499999965	0.8223566000000346	fixation_1	999	999
44.89590809999993	3.009614900000088	face	2.5797439000000395	3
47.905622799999946	0.8223566000000346	fixation_2	999	999
48.460214199999996	1.015525700000012	feedback loss	999	999
49.47574739999993	3.217995500000029	ITI	999	999
52.70484209999995	0.8341563999999835	fixation_1	999	999
53.53914780000002	3.0132326999998895	face	2.5814427999999907	3
56.5524772	0.8341563999999835	fixation_2	999	999
57.10281650000002	1.0158792999999378	feedback win	999	999
58.11870339999996	3.21729670000002	ITI	999	999
61.345599900000025	0.8363217999999506	fixation_1	999	999
62.18204119999996	3.0080663999999615	face	2.830225300000052	3
65.19020139999998	0.8363217999999506	fixation_2	999	999
65.74549319999994	1.0155209000000696	feedback loss	999	999
66.76101999999992	1.1185937000000195	ITI	999	999
67.88879049999991	0.8539826000001085	fixation_1	999	999
68.74288209999997	3.008374099999969	face	1.814548899999977	3
71.7513381	0.8539826000001085	fixation_2	999	999
72.30736639999998	1.0158374000000094	feedback win	999	999
73.32324089999997	1.1178049999999757	ITI	999	999
74.450876	0.8700417000000016	fixation_1	999	999
75.32104559999993	3.0096209999999246	face	1.8150399999999536	3
78.33075940000003	0.8700417000000016	fixation_2	999	999
78.88439489999996	1.01612410000007	feedback win	999	999
79.90052549999996	1.1179779999999937	ITI	999	999
81.02873780000004	0.8537123999999494	fixation_1	999	999
81.8825852	3.008523799999921	face	1.8146418999999696	3
84.89131070000008	0.8537123999999494	fixation_2	999	999
85.44614780000006	1.0156027999998969	feedback loss	999	999
86.46175719999997	3.217477899999949	ITI	999	999
89.68887449999988	0.7528345000000627	fixation_1	999	999
90.44183150000003	3.008373899999924	face	1.5482449999999517	3
93.45029329999988	0.7528345000000627	fixation_2	999	999
94.00526579999996	1.0162341000000197	feedback loss	999	999
95.0215060999999	1.1174776000000293	ITI	999	999
96.14846569999986	0.8380873000000975	fixation_1	999	999
96.98670169999991	3.0079961999999796	face	2.830428200000142	2
99.9947803	0.8380873000000975	fixation_2	999	999
100.54984319999994	1.016047300000082	feedback win	999	999
101.56589749999989	5.316344100000151	ITI	999	999
106.89296719999993	0.834235900000067	fixation_1	999	999
107.72733990000006	3.008592099999987	face	1.549546699999837	3
110.73602649999998	0.834235900000067	fixation_2	999	999
111.2912718	1.0158754999999928	feedback win	999	999
112.30715349999991	1.1175650000000132	ITI	999	999
113.43278669999995	0.8393960999999308	fixation_1	999	999
114.27233690000003	3.010035900000048	face	1.2996286999998574	3
117.28244949999998	0.8393960999999308	fixation_2	999	999
117.8357140999999	1.0157216000000062	feedback win	999	999
118.85144050000008	5.3165363999999045	ITI	999	999
124.17747069999996	0.7858896000000186	fixation_1	999	999
124.96348510000007	3.0092239999999038	face	1.54814609999994	3
127.972802	0.7858896000000186	fixation_2	999	999
128.52696220000007	1.0162299999999505	feedback win	999	999
129.54319880000003	3.2167841999998927	ITI	999	999
132.7713314	0.868400500000007	fixation_1	999	999
133.63985839999987	3.008748700000069	face	2.0642092000000503	2
136.6486978999999	0.868400500000007	fixation_2	999	999
137.20312880000006	1.0160002000000077	feedback win	999	999
138.2191358	3.2175861999999142	ITI	999	999
141.4473117	0.7685576999999739	fixation_1	999	999
142.21600510000007	3.0075438999999733	face	2.0650570999998763	2
145.2236309	0.7685576999999739	fixation_2	999	999
145.78001489999997	1.015114799999992	feedback win	999	999
146.79513529999986	3.2176503000000594	ITI	999	999
150.02396120000003	0.9012855999999374	fixation_1	999	999
150.92540919999988	3.0078627000000324	face	2.581001100000094	3
153.9333526999999	0.9012855999999374	fixation_2	999	999
154.48877360000006	1.0159489000000121	feedback win	999	999
155.5047285999999	11.61728579999999	ITI	999	999
167.13133449999987	0.8130985000000237	fixation_1	999	999
167.94455979999998	3.0081350000000384	face	1.5490422000000308	3
170.9527868	0.8130985000000237	fixation_2	999	999
171.50807729999997	1.015951800000039	feedback loss	999	999
172.52403589999994	5.316288100000065	ITI	999	999
177.8499500999999	1.0198617000000922	fixation_1	999	999
178.86997159999987	3.009476500000119	face	1.298081400000001	2
181.87953300000004	1.0198617000000922	fixation_2	999	999
182.4328387999999	1.0159054000000651	feedback win	999	999
183.44875090000005	5.316291399999955	ITI	999	999
188.77650219999987	0.8334882000001471	fixation_1	999	999
189.61017909999987	3.010519400000021	face	1.2991598000000977	2
192.62077150000005	0.8334882000001471	fixation_2	999	999
193.1739533	1.01593170000001	feedback loss	999	999
194.18989140000008	3.2180612999998175	ITI	999	999
197.41989999999987	0.7999985000001288	fixation_1	999	999
198.2200307999999	3.0096613000000616	face	1.549701099999993	3
201.2297744	0.7999985000001288	fixation_2	999	999
201.78367419999995	1.015312799999947	feedback loss	999	999
202.79899269999987	1.1185170000001108	ITI	999	999
203.92858410000008	0.9366278999998485	fixation_1	999	999
204.86542129999998	3.0164432999999917	face	1.8147676999999476	2
207.88196040000003	0.9366278999998485	fixation_2	999	999
208.42803170000002	1.0156463999999232	feedback loss	999	999
209.44368400000008	1.1184688999999253	ITI	999	999
210.57403799999997	0.8848789999999553	fixation_1	999	999
211.45905990000006	3.0081890999999814	face	2.3160508999999365	2
214.46733059999997	0.8848789999999553	fixation_2	999	999
215.02234270000008	1.0159916999998586	feedback win	999	999
216.03834289999986	5.316467700000203	ITI	999	999
221.3668917	0.8831213000000844	fixation_1	999	999
222.25020619999987	3.010165700000016	face	1.5480441000001974	2
225.26045670000008	0.8831213000000844	fixation_2	999	999
225.81402260000004	1.015491799999836	feedback loss	999	999
226.82952060000002	5.316446000000042	ITI	999	999
232.15824299999986	0.93281520000005	fixation_1	999	999
233.09141739999995	3.0099781999999777	face	1.8168462000001	3
236.1014854	0.93281520000005	fixation_2	999	999
236.65480879999996	1.0156389000001127	feedback win	999	999
237.67045389999998	3.2171235000000706	ITI	999	999
240.8992842	0.8845876000000317	fixation_1	999	999
241.78407199999992	3.0090053000001262	face	2.065517100000079	3
244.79318669999998	0.8845876000000317	fixation_2	999	999
245.34749119999992	1.0158117000000857	feedback loss	999	999
246.36330859999998	1.1176258000000416	ITI	999	999
247.49344210000004	0.868389999999863	fixation_1	999	999
248.3619693999999	3.009497200000169	face	1.2990839999999935	2
251.37155000000007	0.868389999999863	fixation_2	999	999
251.92549710000003	1.0159783999999945	feedback win	999	999
252.94148210000003	3.2172316999999566	ITI	999	999
256.1735928999999	0.964534599999979	fixation_1	999	999
257.1382916	3.0096719999999095	face	1.3007023999998637	2
260.14805939999997	0.964534599999979	fixation_2	999	999
260.7024088999999	1.0149117000000842	feedback loss	999	999
261.71733040000004	1.1174914999999146	ITI	999	999
262.84516499999995	0.8369520999999622	fixation_1	999	999
263.68223839999996	3.0082002999999986	face	2.0647252000001117	2
266.69051609999997	0.8369520999999622	fixation_2	999	999
267.2462358	1.0154665000000023	feedback loss	999	999
268.26170920000004	1.1252757999998266	ITI	999	999
269.4043979999999	1.00608770000008	fixation_1	999	999
270.41061579999996	3.0088195999999243	face	2.0783042999998997	2
273.4195144	1.00608770000008	fixation_2	999	999
273.9736350999999	1.0161390000000665	feedback loss	999	999
274.98978080000006	1.1174788999999237	ITI	999	999
276.1204384	0.83424459999992	fixation_1	999	999
276.95483820000004	3.0091075999998793	face	1.8150473999999122	3
279.96407410000006	0.83424459999992	fixation_2	999	999
280.51835529999994	1.0159246000000621	feedback win	999	999
281.53428499999995	5.316277099999979	ITI	999	999
286.8635517	0.865738599999986	fixation_1	999	999
287.7294256	3.009152399999948	face	2.31452709999985	2
290.7386830999999	0.865738599999986	fixation_2	999	999
291.2925863999999	1.015867900000103	feedback loss	999	999
292.3084601999999	1.1185007999999925	ITI	999	999
293.43975219999993	0.9006529000000683	fixation_1	999	999
294.34056929999997	3.0104722999999467	face	1.8129942000000483	2
297.35113950000004	0.9006529000000683	fixation_2	999	999
297.90393100000006	1.0159573999999338	feedback loss	999	999
298.9198947	3.2167421999999988	ITI	999	999
302.1495041999999	0.9167038000000503	fixation_1	999	999
303.06635559999995	3.0097187999999733	face	1.8148843000001307	2
306.0761536	0.9167038000000503	fixation_2	999	999
306.6302493999999	1.0158585000001494	feedback win	999	999
307.6461139999999	5.318034699999998	ITI	999	999
312.97575289999986	0.8152782000001935	fixation_1	999	999
313.7911515999999	3.008206599999994	face	1.8313250999999582	3
316.79945150000003	0.8152782000001935	fixation_2	999	999
317.3548490999999	1.015541600000006	feedback loss	999	999
318.3703963999999	5.317563500000006	ITI	999	999
323.70131689999994	0.8806601999999657	fixation_1	999	999
324.5821140999999	3.009320500000058	face	1.5482589000000644	2
327.5915083	0.8806601999999657	fixation_2	999	999
328.1458043	1.0159570000000713	feedback win	999	999
329.16176700000005	1.1174799999998868	ITI	999	999
330.29212699999994	0.901095899999973	fixation_1	999	999
331.1933511	3.009412399999974	face	2.064961900000071	3
334.2028402000001	0.901095899999973	fixation_2	999	999
334.7570633999999	1.0157451000000037	feedback loss	999	999
335.77281419999986	1.117779900000187	ITI	999	999
336.9054914000001	0.8994673999998213	fixation_1	999	999
337.8051048	3.0089404999998806	face	1.5478295000000344	2
340.8141284000001	0.8994673999998213	fixation_2	999	999
341.3683441999999	1.0155371000000741	feedback loss	999	999
342.38388729999997	5.3167510000000675	ITI	999	999
