instrText,stimDoor,stimDoorLure,stimFace,stimFaceLure,Instructions.thisRepN,Instructions.thisTrialN,Instructions.thisN,Instructions.thisIndex,Trials.thisRepN,Trials.thisTrialN,Trials.thisN,Trials.thisIndex,Func,Keys,Text,RespTime,Onset,Offset,SystemTime_Start,SystemTime_Stop,Stim,Lure,Participant*,Age,date,expName,psychopyVersion,frameRate,
"In the earlier Feedback Games, you chose which doors contained a prize, and which peers liked you. 

You then saw positive or negative feedback (green check mark or red X) from the door or peer you selected.

You will now see a series of doors and peers, some of which you saw during the earlier Feedback Games, and some that you have never seen before.

Please press the spacebar to continue.",,,,,0,0,0,0,,,,,instrFunc,space,"In the earlier Feedback Games, you chose which doors contained a prize, and which peers liked you. 

You then saw positive or negative feedback (green check mark or red X) from the door or peer you selected.

You will now see a series of doors and peers, some of which you saw during the earlier Feedback Games, and some that you have never seen before.

Please press the spacebar to continue.",44.340166399721056,33.39557009981945,77.8013574196957,2024-01-05 11:50:08.298964,2024-01-05 11:50:52.693900,,,10862,40-69,2024-01-05_11h50.04.205,Recall,2021.2.3,59.91805613999938,
"For doors/peers that you remember selecting and getting feedback from, your job is to RECALL what feedback you received. 

Press '1' if you recall positive feedback. 

Press '2' if you recall negative feedback

Press the spacebar to continue.",,,,,0,1,1,1,,,,,instrFunc,space,"For doors/peers that you remember selecting and getting feedback from, your job is to RECALL what feedback you received. 

Press '1' if you recall positive feedback. 

Press '2' if you recall negative feedback

Press the spacebar to continue.",12.68458230001852,77.77946940017864,90.51895180996507,2024-01-05 11:50:52.694900,2024-01-05 11:51:05.419096,,,10862,40-69,2024-01-05_11h50.04.205,Recall,2021.2.3,59.91805613999938,
"For doors/peers that you don't remember getting feedback from, your job is to PREDICT what feedback you WOULD HAVE received.

Press '9' if you predict positive feedback.

Press '0' if you predict negative feedback. 

Please press the spacebar to continue.",,,,,0,2,2,2,,,,,instrFunc,space,"For doors/peers that you don't remember getting feedback from, your job is to PREDICT what feedback you WOULD HAVE received.

Press '9' if you predict positive feedback.

Press '0' if you predict negative feedback. 

Please press the spacebar to continue.",9.513057199772447,90.50298460014164,100.07429441064596,2024-01-05 11:51:05.420096,2024-01-05 11:51:14.975873,,,10862,40-69,2024-01-05_11h50.04.205,Recall,2021.2.3,59.91805613999938,
"This task is self-paced, and the prompts will always stay on the screen so that you know which buttons to press.

On the next screen we will show you what those prompts look like, so that you know exactly what to expect. 

You will start with either doors or peers, and then switch halfway through. 

Please press the spacebar to continue.",,,,,0,3,3,3,,,,,instrFunc,space,"This task is self-paced, and the prompts will always stay on the screen so that you know which buttons to press.

On the next screen we will show you what those prompts look like, so that you know exactly what to expect. 

You will start with either doors or peers, and then switch halfway through. 

Please press the spacebar to continue.",7.602352300193161,100.05371369980276,107.70738940965384,2024-01-05 11:51:14.976873,2024-01-05 11:51:22.615001,,,10862,40-69,2024-01-05_11h50.04.205,Recall,2021.2.3,59.91805613999938,
,,,,,,,,,,,,,imgtextFunc,space,"Here is what the screen will look like while you make your ratings.
The green circles remind you to press 1 or 9 for positive feedback.
The red circles remind you to press 2 or 0 for negative feedback.









Please let the experimenter know if you have any questions.

Whenever you're ready, press the spacebar to start the task.",18.40057640010491,107.8473578998819,126.42372251022607,2024-01-05 11:51:22.624976,2024-01-05 11:51:41.196049,,,10862,40-69,2024-01-05_11h50.04.205,Recall,2021.2.3,59.91805613999938,
,SD025.jpg,0,MF025.jpg,0,,,,,0,0,0,74,imgFunc,1,NA,20.754361600149423,126.39761150022969,147.2848717304878,2024-01-05 11:51:41.234755,2024-01-05 11:52:02.110670,MF025.jpg,0,10862,40-69,2024-01-05_11h50.04.205,Recall,2021.2.3,59.91805613999938,
,DD002.jpg,0,FF002.jpg,0,,,,,0,1,1,1,imgFunc,2,NA,4.481118100229651,147.3109889999032,151.9387721098028,2024-01-05 11:52:02.122601,2024-01-05 11:52:06.747091,FF002.jpg,0,10862,40-69,2024-01-05_11h50.04.205,Recall,2021.2.3,59.91805613999938,
,SD031.jpg,0,MF031.jpg,0,,,,,0,2,2,80,imgFunc,2,NA,2.5499281003139913,151.91400119988248,154.585547210183,2024-01-05 11:52:06.756069,2024-01-05 11:52:09.419762,MF031.jpg,0,10862,40-69,2024-01-05_11h50.04.205,Recall,2021.2.3,59.91805613999938,
,SD017.jpg,0,MF017.jpg,0,,,,,0,3,3,66,imgFunc,1,NA,1.447207000106573,154.56887200009078,156.11254760995507,2024-01-05 11:52:09.427741,2024-01-05 11:52:10.967028,MF017.jpg,0,10862,40-69,2024-01-05_11h50.04.205,Recall,2021.2.3,59.91805613999938,
,SD013.jpg,0,MF013.jpg,0,,,,,0,4,4,62,imgFunc,2,NA,2.463637299835682,156.11250830022618,158.6827521105297,2024-01-05 11:52:10.974011,2024-01-05 11:52:13.535174,MF013.jpg,0,10862,40-69,2024-01-05_11h50.04.205,Recall,2021.2.3,59.91805613999938,
,L_SD508.jpg,1,L_MF508.jpg,1,,,,,0,5,5,97,imgFunc,0,NA,5.189322599675506,158.68274200009182,163.97112641017884,2024-01-05 11:52:13.543178,2024-01-05 11:52:18.822758,L_MF508.jpg,1,10862,40-69,2024-01-05_11h50.04.205,Recall,2021.2.3,59.91805613999938,
,DD013.jpg,0,FF013.jpg,0,,,,,0,6,6,12,imgFunc,2,NA,2.9235797002911568,163.99650399992242,167.04663921054453,2024-01-05 11:52:18.831735,2024-01-05 11:52:21.874522,FF013.jpg,0,10862,40-69,2024-01-05_11h50.04.205,Recall,2021.2.3,59.91805613999938,
,DD010.jpg,0,FF010.jpg,0,,,,,0,7,7,9,imgFunc,2,NA,2.4272803999483585,167.02880410011858,169.5534744099714,2024-01-05 11:52:21.887489,2024-01-05 11:52:24.409465,FF010.jpg,0,10862,40-69,2024-01-05_11h50.04.205,Recall,2021.2.3,59.91805613999938,
,DD022.jpg,0,FF022.jpg,0,,,,,0,8,8,21,imgFunc,2,NA,2.279519900213927,169.55222659977153,171.93913060985506,2024-01-05 11:52:24.416448,2024-01-05 11:52:26.794910,FF022.jpg,0,10862,40-69,2024-01-05_11h50.04.205,Recall,2021.2.3,59.91805613999938,
,SD037.jpg,0,MF037.jpg,0,,,,,0,9,9,86,imgFunc,1,NA,1.3489509001374245,171.94695870019495,173.3998859100975,2024-01-05 11:52:26.801893,2024-01-05 11:52:28.245929,MF037.jpg,0,10862,40-69,2024-01-05_11h50.04.205,Recall,2021.2.3,59.91805613999938,
,L_SD504.jpg,1,L_MF504.jpg,1,,,,,0,10,10,93,imgFunc,2,NA,4.961412800010294,173.3906315001659,178.4623788096942,2024-01-05 11:52:28.252912,2024-01-05 11:52:33.316142,L_MF504.jpg,1,10862,40-69,2024-01-05_11h50.04.205,Recall,2021.2.3,59.91805613999938,
,DD026.jpg,0,FF026.jpg,0,,,,,0,11,11,25,imgFunc,2,NA,1.9478959999978542,178.49202609993517,180.57481071026996,2024-01-05 11:52:33.325119,2024-01-05 11:52:35.400894,FF026.jpg,0,10862,40-69,2024-01-05_11h50.04.205,Recall,2021.2.3,59.91805613999938,
,L_SD510.jpg,1,L_MF510.jpg,1,,,,,0,12,12,99,imgFunc,1,NA,1.1307657002471387,180.56533830007538,181.80222031055018,2024-01-05 11:52:35.415856,2024-01-05 11:52:36.651876,L_MF510.jpg,1,10862,40-69,2024-01-05_11h50.04.205,Recall,2021.2.3,59.91805613999938,
,SD011.jpg,0,MF011.jpg,0,,,,,0,13,13,60,imgFunc,1,NA,3.195109900087118,181.7966503999196,185.09962460957468,2024-01-05 11:52:36.659857,2024-01-05 11:52:39.953849,MF011.jpg,0,10862,40-69,2024-01-05_11h50.04.205,Recall,2021.2.3,59.91805613999938,
,DD003.jpg,0,FF003.jpg,0,,,,,0,14,14,2,imgFunc,2,NA,3.5701803998090327,185.10188979981467,188.77225810987875,2024-01-05 11:52:39.961796,2024-01-05 11:52:43.623719,FF003.jpg,0,10862,40-69,2024-01-05_11h50.04.205,Recall,2021.2.3,59.91805613999938,
,L_DD502.jpg,1,L_FF502.jpg,1,,,,,0,15,15,41,imgFunc,2,NA,1.2693265001289546,188.77878649998456,190.16434200992808,2024-01-05 11:52:43.630702,2024-01-05 11:52:45.007878,L_FF502.jpg,1,10862,40-69,2024-01-05_11h50.04.205,Recall,2021.2.3,59.91805613999938,
,SD040.jpg,0,MF040.jpg,0,,,,,0,16,16,89,imgFunc,1,NA,1.04442790010944,190.16358599998057,191.31593770952895,2024-01-05 11:52:45.014862,2024-01-05 11:52:46.158748,MF040.jpg,0,10862,40-69,2024-01-05_11h50.04.205,Recall,2021.2.3,59.91805613999938,
,L_SD503.jpg,1,L_MF503.jpg,1,,,,,0,17,17,92,imgFunc,1,NA,3.781072599813342,191.307014899794,195.19218131015077,2024-01-05 11:52:46.167726,2024-01-05 11:52:50.044990,L_MF503.jpg,1,10862,40-69,2024-01-05_11h50.04.205,Recall,2021.2.3,59.91805613999938,
,DD018.jpg,0,FF018.jpg,0,,,,,0,18,18,17,imgFunc,1,NA,2.1756923999637365,195.18440870009363,197.45420350972563,2024-01-05 11:52:50.051974,2024-01-05 11:52:52.313153,FF018.jpg,0,10862,40-69,2024-01-05_11h50.04.205,Recall,2021.2.3,59.91805613999938,
,L_DD507.jpg,1,L_FF507.jpg,1,,,,,0,19,19,46,imgFunc,0,NA,4.038628600072116,197.45746780000627,201.59526290977374,2024-01-05 11:52:52.320136,2024-01-05 11:52:56.449330,L_FF507.jpg,1,10862,40-69,2024-01-05_11h50.04.205,Recall,2021.2.3,59.91805613999938,
,L_DD506.jpg,1,L_FF506.jpg,1,,,,,0,20,20,45,imgFunc,9,NA,3.216481199953705,201.60754750017077,204.94391500996426,2024-01-05 11:52:56.457310,2024-01-05 11:52:59.785090,L_FF506.jpg,1,10862,40-69,2024-01-05_11h50.04.205,Recall,2021.2.3,59.91805613999938,
,DD027.jpg,0,FF027.jpg,0,,,,,0,21,21,26,imgFunc,2,NA,3.0754900998435915,204.94061970012262,208.11539260996506,2024-01-05 11:52:59.798057,2024-01-05 11:53:02.970782,FF027.jpg,0,10862,40-69,2024-01-05_11h50.04.205,Recall,2021.2.3,59.91805613999938,
,SD010.jpg,0,MF010.jpg,0,,,,,0,22,22,59,imgFunc,1,NA,1.7667268998920918,208.11341310013086,209.9830578104593,2024-01-05 11:53:02.977765,2024-01-05 11:53:04.838727,MF010.jpg,0,10862,40-69,2024-01-05_11h50.04.205,Recall,2021.2.3,59.91805613999938,
,SD024.jpg,0,MF024.jpg,0,,,,,0,23,23,73,imgFunc,1,NA,1.7510934001766145,209.98472750000656,211.83598111011088,2024-01-05 11:53:04.846731,2024-01-05 11:53:06.689556,MF024.jpg,0,10862,40-69,2024-01-05_11h50.04.205,Recall,2021.2.3,59.91805613999938,
,L_SD509.jpg,1,L_MF509.jpg,1,,,,,0,24,24,98,imgFunc,2,NA,3.7018951000645757,211.85026399977505,215.66490130964667,2024-01-05 11:53:06.700526,2024-01-05 11:53:10.509530,L_MF509.jpg,1,10862,40-69,2024-01-05_11h50.04.205,Recall,2021.2.3,59.91805613999938,
,L_DD504.jpg,1,L_FF504.jpg,1,,,,,0,25,25,43,imgFunc,9,NA,4.137731400318444,215.6623416999355,219.91667140973732,2024-01-05 11:53:10.516513,2024-01-05 11:53:14.762130,L_FF504.jpg,1,10862,40-69,2024-01-05_11h50.04.205,Recall,2021.2.3,59.91805613999938,
,SD005.jpg,0,MF005.jpg,0,,,,,0,26,26,54,imgFunc,0,NA,2.642555699683726,219.93343580001965,222.68584071053192,2024-01-05 11:53:14.778079,2024-01-05 11:53:17.531211,MF005.jpg,0,10862,40-69,2024-01-05_11h50.04.205,Recall,2021.2.3,59.91805613999938,
,SD034.jpg,0,MF034.jpg,0,,,,,0,27,27,83,imgFunc,1,NA,1.1564170997589827,222.67563779978082,223.9264984098263,2024-01-05 11:53:17.539191,2024-01-05 11:53:18.782305,MF034.jpg,0,10862,40-69,2024-01-05_11h50.04.205,Recall,2021.2.3,59.91805613999938,
,SD026.jpg,0,MF026.jpg,0,,,,,0,28,28,75,imgFunc,1,NA,1.4276046003215015,223.92447869991884,225.46004611020908,2024-01-05 11:53:18.789288,2024-01-05 11:53:20.316716,MF026.jpg,0,10862,40-69,2024-01-05_11h50.04.205,Recall,2021.2.3,59.91805613999938,
,DD015.jpg,0,FF015.jpg,0,,,,,0,29,29,14,imgFunc,2,NA,3.5389665998518467,225.4609826998785,229.09890350978822,2024-01-05 11:53:20.323699,2024-01-05 11:53:23.952724,FF015.jpg,0,10862,40-69,2024-01-05_11h50.04.205,Recall,2021.2.3,59.91805613999938,
,L_DD503.jpg,1,L_FF503.jpg,1,,,,,0,30,30,42,imgFunc,2,NA,1.8866094001568854,229.11315689980984,231.11567980982363,2024-01-05 11:53:23.959707,2024-01-05 11:53:25.953424,L_FF503.jpg,1,10862,40-69,2024-01-05_11h50.04.205,Recall,2021.2.3,59.91805613999938,
,SD027.jpg,0,MF027.jpg,0,,,,,0,31,31,76,imgFunc,2,NA,2.1295015001669526,231.09448469989002,233.3149657100439,2024-01-05 11:53:25.960405,2024-01-05 11:53:28.171709,MF027.jpg,0,10862,40-69,2024-01-05_11h50.04.205,Recall,2021.2.3,59.91805613999938,
,SD036.jpg,0,MF036.jpg,0,,,,,0,32,32,85,imgFunc,9,NA,3.5850649997591972,233.31881010020152,237.00638501020148,2024-01-05 11:53:28.179712,2024-01-05 11:53:31.858119,MF036.jpg,0,10862,40-69,2024-01-05_11h50.04.205,Recall,2021.2.3,59.91805613999938,
,DD008.jpg,0,FF008.jpg,0,,,,,0,33,33,7,imgFunc,9,NA,5.204181500244886,237.00357630010694,242.3074672096409,2024-01-05 11:53:31.866099,2024-01-05 11:53:37.160784,FF008.jpg,0,10862,40-69,2024-01-05_11h50.04.205,Recall,2021.2.3,59.91805613999938,
,DD023.jpg,0,FF023.jpg,0,,,,,0,34,34,22,imgFunc,0,NA,2.415709299966693,242.32826009998098,244.85896441014484,2024-01-05 11:53:37.171782,2024-01-05 11:53:39.697055,FF023.jpg,0,10862,40-69,2024-01-05_11h50.04.205,Recall,2021.2.3,59.91805613999938,
,SD021.jpg,0,MF021.jpg,0,,,,,0,35,35,70,imgFunc,0,NA,2.120305699761957,244.85579130006954,247.0800986099057,2024-01-05 11:53:39.710021,2024-01-05 11:53:41.932104,MF021.jpg,0,10862,40-69,2024-01-05_11h50.04.205,Recall,2021.2.3,59.91805613999938,
,DD040.jpg,0,FF040.jpg,0,,,,,0,36,36,39,imgFunc,0,NA,1.3815316003747284,247.07469470007345,248.56114901043475,2024-01-05 11:53:41.939088,2024-01-05 11:53:43.416690,FF040.jpg,0,10862,40-69,2024-01-05_11h50.04.205,Recall,2021.2.3,59.91805613999938,
,SD033.jpg,0,MF033.jpg,0,,,,,0,37,37,82,imgFunc,9,NA,2.4475532001815736,248.56853729998693,251.1223664097488,2024-01-05 11:53:43.423673,2024-01-05 11:53:45.968502,MF033.jpg,0,10862,40-69,2024-01-05_11h50.04.205,Recall,2021.2.3,59.91805613999938,
,DD012.jpg,0,FF012.jpg,0,,,,,0,38,38,11,imgFunc,2,NA,2.9320523999631405,251.11609659995884,254.1532675102353,2024-01-05 11:53:45.975485,2024-01-05 11:53:49.003761,FF012.jpg,0,10862,40-69,2024-01-05_11h50.04.205,Recall,2021.2.3,59.91805613999938,
,SD039.jpg,0,MF039.jpg,0,,,,,0,39,39,88,imgFunc,2,NA,2.1203274000436068,254.15172760002315,256.3714610100724,2024-01-05 11:53:49.011573,2024-01-05 11:53:51.222308,MF039.jpg,0,10862,40-69,2024-01-05_11h50.04.205,Recall,2021.2.3,59.91805613999938,
,DD032.jpg,0,FF032.jpg,0,,,,,0,40,40,31,imgFunc,9,NA,3.4239546000026166,256.3840683000162,259.9055617097765,2024-01-05 11:53:51.237270,2024-01-05 11:53:54.758014,FF032.jpg,0,10862,40-69,2024-01-05_11h50.04.205,Recall,2021.2.3,59.91805613999938,
,DD030.jpg,0,FF030.jpg,0,,,,,0,41,41,29,imgFunc,0,NA,7.40041880030185,259.90357539989054,267.40963880950585,2024-01-05 11:53:54.765456,2024-01-05 11:54:02.263298,FF030.jpg,0,10862,40-69,2024-01-05_11h50.04.205,Recall,2021.2.3,59.91805613999938,
,DD007.jpg,0,FF007.jpg,0,,,,,0,42,42,6,imgFunc,2,NA,3.6331790001131594,267.4310265001841,271.18249441031367,2024-01-05 11:54:02.272276,2024-01-05 11:54:06.016160,FF007.jpg,0,10862,40-69,2024-01-05_11h50.04.205,Recall,2021.2.3,59.91805613999938,
,DD029.jpg,0,FF029.jpg,0,,,,,0,43,43,28,imgFunc,2,NA,1.6201702998951077,271.1716591999866,272.90042171021923,2024-01-05 11:54:06.027105,2024-01-05 11:54:07.749780,FF029.jpg,0,10862,40-69,2024-01-05_11h50.04.205,Recall,2021.2.3,59.91805613999938,
,L_DD505.jpg,1,L_FF505.jpg,1,,,,,0,44,44,44,imgFunc,9,NA,2.6126434998586774,272.92339750006795,275.6589092100039,2024-01-05 11:54:07.758722,2024-01-05 11:54:10.486002,L_FF505.jpg,1,10862,40-69,2024-01-05_11h50.04.205,Recall,2021.2.3,59.91805613999938,
,SD014.jpg,0,MF014.jpg,0,,,,,0,45,45,63,imgFunc,9,NA,2.4623230998404324,275.62587979994714,278.17995700985193,2024-01-05 11:54:10.492985,2024-01-05 11:54:13.037474,MF014.jpg,0,10862,40-69,2024-01-05_11h50.04.205,Recall,2021.2.3,59.91805613999938,
,SD023.jpg,0,MF023.jpg,0,,,,,0,46,46,72,imgFunc,0,NA,6.276602199766785,278.187594700139,284.5765719101764,2024-01-05 11:54:13.045471,2024-01-05 11:54:19.425712,MF023.jpg,0,10862,40-69,2024-01-05_11h50.04.205,Recall,2021.2.3,59.91805613999938,
,L_SD506.jpg,1,L_MF506.jpg,1,,,,,0,47,47,95,imgFunc,9,NA,3.357862299773842,284.5859802002087,288.0528495097533,2024-01-05 11:54:19.434690,2024-01-05 11:54:22.895064,L_MF506.jpg,1,10862,40-69,2024-01-05_11h50.04.205,Recall,2021.2.3,59.91805613999938,
,DD016.jpg,0,FF016.jpg,0,,,,,0,48,48,15,imgFunc,0,NA,1.6800031000748277,288.0479620997794,289.83406490972266,2024-01-05 11:54:22.902047,2024-01-05 11:54:24.679421,FF016.jpg,0,10862,40-69,2024-01-05_11h50.04.205,Recall,2021.2.3,59.91805613999938,
,SD003.jpg,0,MF003.jpg,0,,,,,0,49,49,52,imgFunc,1,NA,2.4316823999397457,289.83244040003046,292.35769511014223,2024-01-05 11:54:24.692388,2024-01-05 11:54:27.214823,MF003.jpg,0,10862,40-69,2024-01-05_11h50.04.205,Recall,2021.2.3,59.91805613999938,
,L_SD505.jpg,1,L_MF505.jpg,1,,,,,0,50,50,94,imgFunc,2,NA,2.552720199804753,292.35946490010247,295.01205290993676,2024-01-05 11:54:27.221806,2024-01-05 11:54:29.866342,L_MF505.jpg,1,10862,40-69,2024-01-05_11h50.04.205,Recall,2021.2.3,59.91805613999938,
,DD021.jpg,0,FF021.jpg,0,,,,,0,51,51,20,imgFunc,0,NA,5.76306189969182,295.02094969991595,300.89320620941,2024-01-05 11:54:29.873325,2024-01-05 11:54:35.737369,FF021.jpg,0,10862,40-69,2024-01-05_11h50.04.205,Recall,2021.2.3,59.91805613999938,
,DD011.jpg,0,FF011.jpg,0,,,,,0,52,52,10,imgFunc,9,NA,2.022872899658978,300.89741639979184,303.03068100940436,2024-01-05 11:54:35.746347,2024-01-05 11:54:37.872429,FF011.jpg,0,10862,40-69,2024-01-05_11h50.04.205,Recall,2021.2.3,59.91805613999938,
,DD017.jpg,0,FF017.jpg,0,,,,,0,53,53,16,imgFunc,0,NA,3.2122092000208795,303.0277912002057,306.34661721019074,2024-01-05 11:54:37.880409,2024-01-05 11:54:41.191472,FF017.jpg,0,10862,40-69,2024-01-05_11h50.04.205,Recall,2021.2.3,59.91805613999938,
,DD037.jpg,0,FF037.jpg,0,,,,,0,54,54,36,imgFunc,2,NA,1.9880379997193813,306.34812030009925,308.44881052011624,2024-01-05 11:54:41.208429,2024-01-05 11:54:43.292989,FF037.jpg,0,10862,40-69,2024-01-05_11h50.04.205,Recall,2021.2.3,59.91805613999938,
,SD004.jpg,0,MF004.jpg,0,,,,,0,55,55,53,imgFunc,1,NA,2.5610136999748647,308.43927319999784,311.1091602104716,2024-01-05 11:54:43.299972,2024-01-05 11:54:45.961556,MF004.jpg,0,10862,40-69,2024-01-05_11h50.04.205,Recall,2021.2.3,59.91805613999938,
,DD028.jpg,0,FF028.jpg,0,,,,,0,56,56,27,imgFunc,0,NA,2.4644510000944138,311.1116566997953,313.6811805097386,2024-01-05 11:54:45.968539,2024-01-05 11:54:48.529961,FF028.jpg,0,10862,40-69,2024-01-05_11h50.04.205,Recall,2021.2.3,59.91805613999938,
,SD002.jpg,0,MF002.jpg,0,,,,,0,57,57,51,imgFunc,0,NA,2.7844417998567224,313.67975150002167,316.5668823099695,2024-01-05 11:54:48.536945,2024-01-05 11:54:51.415620,MF002.jpg,0,10862,40-69,2024-01-05_11h50.04.205,Recall,2021.2.3,59.91805613999938,
,SD022.jpg,0,MF022.jpg,0,,,,,0,58,58,71,imgFunc,9,NA,3.9781421003863215,316.58998030005023,320.69428340997547,2024-01-05 11:54:51.422603,2024-01-05 11:54:55.518428,MF022.jpg,0,10862,40-69,2024-01-05_11h50.04.205,Recall,2021.2.3,59.91805613999938,
,SD015.jpg,0,MF015.jpg,0,,,,,0,59,59,64,imgFunc,1,NA,7.719985800329596,320.6560085997917,328.4801538097672,2024-01-05 11:54:55.525411,2024-01-05 11:55:03.340928,MF015.jpg,0,10862,40-69,2024-01-05_11h50.04.205,Recall,2021.2.3,59.91805613999938,
,SD001.jpg,0,MF001.jpg,0,,,,,0,60,60,50,imgFunc,0,NA,2.0777925001457334,328.49827650003135,330.6817870102823,2024-01-05 11:55:03.348908,2024-01-05 11:55:05.525489,MF001.jpg,0,10862,40-69,2024-01-05_11h50.04.205,Recall,2021.2.3,59.91805613999938,
,DD034.jpg,0,FF034.jpg,0,,,,,0,61,61,33,imgFunc,1,NA,1.6001859996467829,330.69564720010385,332.427961810492,2024-01-05 11:55:05.534464,2024-01-05 11:55:07.259329,FF034.jpg,0,10862,40-69,2024-01-05_11h50.04.205,Recall,2021.2.3,59.91805613999938,
,DD004.jpg,0,FF004.jpg,0,,,,,0,62,62,3,imgFunc,2,NA,1.881105599924922,332.40674890019,334.39248581044376,2024-01-05 11:55:07.267263,2024-01-05 11:55:09.243870,FF004.jpg,0,10862,40-69,2024-01-05_11h50.04.205,Recall,2021.2.3,59.91805613999938,
,L_DD509.jpg,1,L_FF509.jpg,1,,,,,0,63,63,48,imgFunc,9,NA,2.26392799988389,334.4000806999393,336.75736640999094,2024-01-05 11:55:09.257831,2024-01-05 11:55:11.613315,L_FF509.jpg,1,10862,40-69,2024-01-05_11h50.04.205,Recall,2021.2.3,59.91805613999938,
,SD006.jpg,0,MF006.jpg,0,,,,,0,64,64,55,imgFunc,0,NA,3.8988491003401577,336.74929969990626,340.7371185095981,2024-01-05 11:55:11.620298,2024-01-05 11:55:15.599582,MF006.jpg,0,10862,40-69,2024-01-05_11h50.04.205,Recall,2021.2.3,59.91805613999938,
,SD018.jpg,0,MF018.jpg,0,,,,,0,65,65,67,imgFunc,1,NA,1.2641401002183557,340.7436983999796,342.1124978098087,2024-01-05 11:55:15.606565,2024-01-05 11:55:16.966062,MF018.jpg,0,10862,40-69,2024-01-05_11h50.04.205,Recall,2021.2.3,59.91805613999938,
,DD025.jpg,0,FF025.jpg,0,,,,,0,66,66,24,imgFunc,2,NA,1.6409422000870109,342.1112087001093,343.8476180098951,2024-01-05 11:55:16.974041,2024-01-05 11:55:18.701661,FF025.jpg,0,10862,40-69,2024-01-05_11h50.04.205,Recall,2021.2.3,59.91805613999938,
,DD024.jpg,0,FF024.jpg,0,,,,,0,67,67,23,imgFunc,0,NA,1.663922100327909,343.8402037001215,345.60938001051545,2024-01-05 11:55:18.708666,2024-01-05 11:55:20.469675,FF024.jpg,0,10862,40-69,2024-01-05_11h50.04.205,Recall,2021.2.3,59.91805613999938,
,SD032.jpg,0,MF032.jpg,0,,,,,0,68,68,81,imgFunc,0,NA,4.304246700368822,345.6240145000629,350.030209810473,2024-01-05 11:55:20.484637,2024-01-05 11:55:24.889409,MF032.jpg,0,10862,40-69,2024-01-05_11h50.04.205,Recall,2021.2.3,59.91805613999938,
,DD020.jpg,0,FF020.jpg,0,,,,,0,69,69,19,imgFunc,2,NA,1.8669058000668883,350.0451933997683,352.0270061097108,2024-01-05 11:55:24.899384,2024-01-05 11:55:26.874290,FF020.jpg,0,10862,40-69,2024-01-05_11h50.04.205,Recall,2021.2.3,59.91805613999938,
,L_SD502.jpg,1,L_MF502.jpg,1,,,,,0,70,70,91,imgFunc,0,NA,4.210363500285894,352.0219092001207,356.3433537101373,2024-01-05 11:55:26.881273,2024-01-05 11:55:31.193936,L_MF502.jpg,1,10862,40-69,2024-01-05_11h50.04.205,Recall,2021.2.3,59.91805613999938,
,SD008.jpg,0,MF008.jpg,0,,,,,0,71,71,57,imgFunc,0,NA,2.8419468998908997,356.33420309983194,359.2708161100745,2024-01-05 11:55:31.201917,2024-01-05 11:55:34.129514,MF008.jpg,0,10862,40-69,2024-01-05_11h50.04.205,Recall,2021.2.3,59.91805613999938,
,DD035.jpg,0,FF035.jpg,0,,,,,0,72,72,34,imgFunc,1,NA,2.474527799990028,359.29367240006104,361.89663951005787,2024-01-05 11:55:34.136497,2024-01-05 11:55:36.731218,FF035.jpg,0,10862,40-69,2024-01-05_11h50.04.205,Recall,2021.2.3,59.91805613999938,
,DD014.jpg,0,FF014.jpg,0,,,,,0,73,73,13,imgFunc,2,NA,1.6252663000486791,361.87897829990834,363.6150446096435,2024-01-05 11:55:36.738201,2024-01-05 11:55:38.465736,FF014.jpg,0,10862,40-69,2024-01-05_11h50.04.205,Recall,2021.2.3,59.91805613999938,
,DD038.jpg,0,FF038.jpg,0,,,,,0,74,74,37,imgFunc,0,NA,1.967868299689144,363.61637500021607,365.6867425101809,2024-01-05 11:55:38.472719,2024-01-05 11:55:40.534384,FF038.jpg,0,10862,40-69,2024-01-05_11h50.04.205,Recall,2021.2.3,59.91805613999938,
,DD009.jpg,0,FF009.jpg,0,,,,,0,75,75,8,imgFunc,9,NA,5.071892899926752,365.68033210001886,370.8522511101328,2024-01-05 11:55:40.541366,2024-01-05 11:55:45.704490,FF009.jpg,0,10862,40-69,2024-01-05_11h50.04.205,Recall,2021.2.3,59.91805613999938,
,DD001.jpg,0,FF001.jpg,0,,,,,0,76,76,0,imgFunc,9,NA,3.9050505002960563,370.85515089984983,374.87281900970265,2024-01-05 11:55:45.713468,2024-01-05 11:55:49.723877,FF001.jpg,0,10862,40-69,2024-01-05_11h50.04.205,Recall,2021.2.3,59.91805613999938,
,DD031.jpg,0,FF031.jpg,0,,,,,0,77,77,30,imgFunc,0,NA,2.1694006002508104,374.8869540002197,377.1618436104618,2024-01-05 11:55:49.736845,2024-01-05 11:55:52.009058,FF031.jpg,0,10862,40-69,2024-01-05_11h50.04.205,Recall,2021.2.3,59.91805613999938,
,DD019.jpg,0,FF019.jpg,0,,,,,0,78,78,18,imgFunc,0,NA,2.3048682999797165,377.1433052001521,379.5469186101109,2024-01-05 11:55:52.016041,2024-01-05 11:55:54.410614,FF019.jpg,0,10862,40-69,2024-01-05_11h50.04.205,Recall,2021.2.3,59.91805613999938,
,L_SD507.jpg,1,L_MF507.jpg,1,,,,,0,79,79,96,imgFunc,0,NA,0.9657602999359369,379.5545199001208,380.62343551032245,2024-01-05 11:55:54.417597,2024-01-05 11:55:55.478241,L_MF507.jpg,1,10862,40-69,2024-01-05_11h50.04.205,Recall,2021.2.3,59.91805613999938,
,SD007.jpg,0,MF007.jpg,0,,,,,0,80,80,56,imgFunc,1,NA,1.0955409999005497,380.6247531999834,381.8272456098348,2024-01-05 11:55:55.485224,2024-01-05 11:55:56.679044,MF007.jpg,0,10862,40-69,2024-01-05_11h50.04.205,Recall,2021.2.3,59.91805613999938,
,DD006.jpg,0,FF006.jpg,0,,,,,0,81,81,5,imgFunc,0,NA,3.742806900292635,381.82532949978486,385.6795531096868,2024-01-05 11:55:56.686027,2024-01-05 11:56:00.531718,FF006.jpg,0,10862,40-69,2024-01-05_11h50.04.205,Recall,2021.2.3,59.91805613999938,
,DD036.jpg,0,FF036.jpg,0,,,,,0,82,82,35,imgFunc,9,NA,2.586600999813527,385.6856130999513,388.37431370979175,2024-01-05 11:56:00.546680,2024-01-05 11:56:03.233665,FF036.jpg,0,10862,40-69,2024-01-05_11h50.04.205,Recall,2021.2.3,59.91805613999938,
,DD005.jpg,0,FF005.jpg,0,,,,,0,83,83,4,imgFunc,9,NA,1.175980200059712,388.3842857000418,389.670485409908,2024-01-05 11:56:03.240648,2024-01-05 11:56:04.517859,FF005.jpg,0,10862,40-69,2024-01-05_11h50.04.205,Recall,2021.2.3,59.91805613999938,
,SD016.jpg,0,MF016.jpg,0,,,,,0,84,84,65,imgFunc,0,NA,2.9469869998283684,389.66121789999306,392.71506591001526,2024-01-05 11:56:04.525591,2024-01-05 11:56:07.570068,MF016.jpg,0,10862,40-69,2024-01-05_11h50.04.205,Recall,2021.2.3,59.91805613999938,
,SD038.jpg,0,MF038.jpg,0,,,,,0,85,85,87,imgFunc,2,NA,2.531922399997711,392.7081837002188,395.3450525100343,2024-01-05 11:56:07.577051,2024-01-05 11:56:10.205236,MF038.jpg,0,10862,40-69,2024-01-05_11h50.04.205,Recall,2021.2.3,59.91805613999938,
,SD009.jpg,0,MF009.jpg,0,,,,,0,86,86,58,imgFunc,9,NA,5.862519799731672,395.3537698001601,401.32588400971144,2024-01-05 11:56:10.212979,2024-01-05 11:56:16.176383,MF009.jpg,0,10862,40-69,2024-01-05_11h50.04.205,Recall,2021.2.3,59.91805613999938,
,L_SD501.jpg,1,L_MF501.jpg,1,,,,,0,87,87,90,imgFunc,0,NA,2.0515531999990344,401.3166579999961,403.4663511100225,2024-01-05 11:56:16.185361,2024-01-05 11:56:18.327702,L_MF501.jpg,1,10862,40-69,2024-01-05_11h50.04.205,Recall,2021.2.3,59.91805613999938,
,SD030.jpg,0,MF030.jpg,0,,,,,0,88,88,79,imgFunc,1,NA,3.009141100104898,403.4790468001738,406.59870281023905,2024-01-05 11:56:18.335705,2024-01-05 11:56:21.446642,MF030.jpg,0,10862,40-69,2024-01-05_11h50.04.205,Recall,2021.2.3,59.91805613999938,
,DD033.jpg,0,FF033.jpg,0,,,,,0,89,89,32,imgFunc,9,NA,3.491788299754262,406.5965089001693,410.2007416100241,2024-01-05 11:56:21.453625,2024-01-05 11:56:25.049186,FF033.jpg,0,10862,40-69,2024-01-05_11h50.04.205,Recall,2021.2.3,59.91805613999938,
,SD012.jpg,0,MF012.jpg,0,,,,,0,90,90,61,imgFunc,9,NA,2.991355999838561,410.1927291001193,413.279911310412,2024-01-05 11:56:25.056169,2024-01-05 11:56:28.135259,MF012.jpg,0,10862,40-69,2024-01-05_11h50.04.205,Recall,2021.2.3,59.91805613999938,
,L_DD501.jpg,1,L_FF501.jpg,1,,,,,0,91,91,40,imgFunc,0,NA,1.8557005999609828,413.2964715999551,415.2513472097926,2024-01-05 11:56:28.149243,2024-01-05 11:56:30.103266,L_FF501.jpg,1,10862,40-69,2024-01-05_11h50.04.205,Recall,2021.2.3,59.91805613999938,
,L_DD508.jpg,1,L_FF508.jpg,1,,,,,0,92,92,47,imgFunc,9,NA,4.027737999800593,415.24425850016996,419.3657373096794,2024-01-05 11:56:30.110249,2024-01-05 11:56:34.222529,L_FF508.jpg,1,10862,40-69,2024-01-05_11h50.04.205,Recall,2021.2.3,59.91805613999938,
,SD028.jpg,0,MF028.jpg,0,,,,,0,93,93,77,imgFunc,2,NA,3.067223799880594,419.365001199767,422.5335143096745,2024-01-05 11:56:34.230510,2024-01-05 11:56:37.391375,MF028.jpg,0,10862,40-69,2024-01-05_11h50.04.205,Recall,2021.2.3,59.91805613999938,
,SD020.jpg,0,MF020.jpg,0,,,,,0,94,94,69,imgFunc,0,NA,2.3576583000831306,422.53056399989873,424.9836829099804,2024-01-05 11:56:37.398382,2024-01-05 11:56:39.843225,MF020.jpg,0,10862,40-69,2024-01-05_11h50.04.205,Recall,2021.2.3,59.91805613999938,
,SD029.jpg,0,MF029.jpg,0,,,,,0,95,95,78,imgFunc,1,NA,1.311708000022918,424.99261809978634,426.41203081049025,2024-01-05 11:56:39.850208,2024-01-05 11:56:41.260904,MF029.jpg,0,10862,40-69,2024-01-05_11h50.04.205,Recall,2021.2.3,59.91805613999938,
,SD019.jpg,0,MF019.jpg,0,,,,,0,96,96,68,imgFunc,1,NA,4.402996599674225,426.42139849998057,430.92832060996443,2024-01-05 11:56:41.274868,2024-01-05 11:56:45.780925,MF019.jpg,0,10862,40-69,2024-01-05_11h50.04.205,Recall,2021.2.3,59.91805613999938,
,L_DD510.jpg,1,L_FF510.jpg,1,,,,,0,97,97,49,imgFunc,0,NA,2.2334727002307773,430.92682459997013,433.26249290956184,2024-01-05 11:56:45.787912,2024-01-05 11:56:48.115758,L_FF510.jpg,1,10862,40-69,2024-01-05_11h50.04.205,Recall,2021.2.3,59.91805613999938,
,DD039.jpg,0,FF039.jpg,0,,,,,0,98,98,38,imgFunc,2,NA,4.409235900267959,433.26303499983624,437.78496381035075,2024-01-05 11:56:48.122741,2024-01-05 11:56:52.635772,FF039.jpg,0,10862,40-69,2024-01-05_11h50.04.205,Recall,2021.2.3,59.91805613999938,
,SD035.jpg,0,MF035.jpg,0,,,,,0,99,99,84,imgFunc,1,NA,0.978874699678272,437.797453999985,438.89775850996375,2024-01-05 11:56:52.643752,2024-01-05 11:56:53.736542,MF035.jpg,0,10862,40-69,2024-01-05_11h50.04.205,Recall,2021.2.3,59.91805613999938,
,,,,,,,,,,,,,instrFunc,space,"Great work! 

 Now you will switch to the other image type.

 Press the spacebar whenever you are ready to start.",3.769046399742365,438.8072544001043,442.6235381104052,2024-01-05 11:56:53.737542,2024-01-05 11:56:57.537632,,,10862,40-69,2024-01-05_11h50.04.205,Recall,2021.2.3,59.91805613999938,
,DD036.jpg,0,FF036.jpg,0,,,,,0,0,0,35,imgFunc,2,NA,5.867649499792606,442.71630730014294,448.6935042203404,2024-01-05 11:56:57.568552,2024-01-05 11:57:03.543549,DD036.jpg,0,10862,40-69,2024-01-05_11h50.04.205,Recall,2021.2.3,59.91805613999938,
,SD007.jpg,0,MF007.jpg,0,,,,,0,1,1,56,imgFunc,2,NA,4.741959200240672,448.6742921997793,453.50979301007465,2024-01-05 11:57:03.552527,2024-01-05 11:57:08.380414,SD007.jpg,0,10862,40-69,2024-01-05_11h50.04.205,Recall,2021.2.3,59.91805613999938,
,SD013.jpg,0,MF013.jpg,0,,,,,0,2,2,62,imgFunc,9,NA,2.877630100119859,453.52231879998,456.50546141015366,2024-01-05 11:57:08.389397,2024-01-05 11:57:11.365824,SD013.jpg,0,10862,40-69,2024-01-05_11h50.04.205,Recall,2021.2.3,59.91805613999938,
,SD028.jpg,0,MF028.jpg,0,,,,,0,3,3,77,imgFunc,2,NA,4.075475899968296,456.5247447001748,460.7026873100549,2024-01-05 11:57:11.377794,2024-01-05 11:57:15.552339,SD028.jpg,0,10862,40-69,2024-01-05_11h50.04.205,Recall,2021.2.3,59.91805613999938,
,DD016.jpg,0,FF016.jpg,0,,,,,0,4,4,15,imgFunc,2,NA,4.513152100145817,460.6871818997897,465.29030650947243,2024-01-05 11:57:15.560319,2024-01-05 11:57:20.155321,DD016.jpg,0,10862,40-69,2024-01-05_11h50.04.205,Recall,2021.2.3,59.91805613999938,
,L_SD510.jpg,1,L_MF510.jpg,1,,,,,0,5,5,99,imgFunc,0,NA,4.0953440996818244,465.28901090007275,469.4725107103586,2024-01-05 11:57:20.165318,2024-01-05 11:57:24.341988,L_SD510.jpg,1,10862,40-69,2024-01-05_11h50.04.205,Recall,2021.2.3,59.91805613999938,
,DD039.jpg,0,FF039.jpg,0,,,,,0,6,6,38,imgFunc,0,NA,3.826904400251806,469.48506420012563,473.4215253102593,2024-01-05 11:57:24.349969,2024-01-05 11:57:28.278026,DD039.jpg,0,10862,40-69,2024-01-05_11h50.04.205,Recall,2021.2.3,59.91805613999938,
,DD027.jpg,0,FF027.jpg,0,,,,,0,7,7,26,imgFunc,2,NA,4.232618200127035,473.41582430014387,477.7536860103719,2024-01-05 11:57:28.285009,2024-01-05 11:57:32.614592,DD027.jpg,0,10862,40-69,2024-01-05_11h50.04.205,Recall,2021.2.3,59.91805613999938,
,DD024.jpg,0,FF024.jpg,0,,,,,0,8,8,23,imgFunc,1,NA,1.874948600307107,477.74929169984534,479.71870620921254,2024-01-05 11:57:32.621576,2024-01-05 11:57:34.582556,DD024.jpg,0,10862,40-69,2024-01-05_11h50.04.205,Recall,2021.2.3,59.91805613999938,
,L_DD506.jpg,1,L_FF506.jpg,1,,,,,0,9,9,45,imgFunc,9,NA,3.3810112001374364,479.72330569988117,483.21075700968504,2024-01-05 11:57:34.589539,2024-01-05 11:57:38.068363,L_DD506.jpg,1,10862,40-69,2024-01-05_11h50.04.205,Recall,2021.2.3,59.91805613999938,
,DD005.jpg,0,FF005.jpg,0,,,,,0,10,10,4,imgFunc,9,NA,2.8339601000770926,483.2064034999348,486.1436499096453,2024-01-05 11:57:38.075346,2024-01-05 11:57:41.003997,DD005.jpg,0,10862,40-69,2024-01-05_11h50.04.205,Recall,2021.2.3,59.91805613999938,
,DD006.jpg,0,FF006.jpg,0,,,,,0,11,11,5,imgFunc,0,NA,7.0962295001372695,486.1361940000206,493.32649660948664,2024-01-05 11:57:41.010980,2024-01-05 11:57:48.192331,DD006.jpg,0,10862,40-69,2024-01-05_11h50.04.205,Recall,2021.2.3,59.91805613999938,
,L_DD501.jpg,1,L_FF501.jpg,1,,,,,0,12,12,40,imgFunc,9,NA,2.403210800141096,493.3490602998063,495.8546191100031,2024-01-05 11:57:48.206296,2024-01-05 11:57:50.710759,L_DD501.jpg,1,10862,40-69,2024-01-05_11h50.04.205,Recall,2021.2.3,59.91805613999938,
,SD011.jpg,0,MF011.jpg,0,,,,,0,13,13,60,imgFunc,1,NA,2.8878546999767423,495.8484864998609,498.83606840949506,2024-01-05 11:57:50.717743,2024-01-05 11:57:53.696434,SD011.jpg,0,10862,40-69,2024-01-05_11h50.04.205,Recall,2021.2.3,59.91805613999938,
,DD011.jpg,0,FF011.jpg,0,,,,,0,14,14,10,imgFunc,1,NA,1.3442037999629974,498.82415439980105,500.2601404101588,2024-01-05 11:57:53.703417,2024-01-05 11:57:55.130472,DD011.jpg,0,10862,40-69,2024-01-05_11h50.04.205,Recall,2021.2.3,59.91805613999938,
,DD018.jpg,0,FF018.jpg,0,,,,,0,15,15,17,imgFunc,2,NA,2.814986899960786,500.2652579001151,503.1695586098358,2024-01-05 11:57:55.137455,2024-01-05 11:57:58.032847,DD018.jpg,0,10862,40-69,2024-01-05_11h50.04.205,Recall,2021.2.3,59.91805613999938,
,L_SD505.jpg,1,L_MF505.jpg,1,,,,,0,16,16,94,imgFunc,9,NA,2.7612401000224054,503.1747611002065,506.04485741024837,2024-01-05 11:57:58.039830,2024-01-05 11:58:00.901394,L_SD505.jpg,1,10862,40-69,2024-01-05_11h50.04.205,Recall,2021.2.3,59.91805613999938,
,SD020.jpg,0,MF020.jpg,0,,,,,0,17,17,69,imgFunc,2,NA,2.357861000113189,506.05012209992856,508.5062486096285,2024-01-05 11:58:00.915358,2024-01-05 11:58:03.369940,SD020.jpg,0,10862,40-69,2024-01-05_11h50.04.205,Recall,2021.2.3,59.91805613999938,
,SD040.jpg,0,MF040.jpg,0,,,,,0,18,18,89,imgFunc,1,NA,1.7650506002828479,508.51527460012585,510.36723830970004,2024-01-05 11:58:03.385896,2024-01-05 11:58:05.237702,SD040.jpg,0,10862,40-69,2024-01-05_11h50.04.205,Recall,2021.2.3,59.91805613999938,
,SD024.jpg,0,MF024.jpg,0,,,,,0,19,19,73,imgFunc,0,NA,2.341845399700105,510.3705481002107,512.8074261103757,2024-01-05 11:58:05.244685,2024-01-05 11:58:07.672934,SD024.jpg,0,10862,40-69,2024-01-05_11h50.04.205,Recall,2021.2.3,59.91805613999938,
,SD008.jpg,0,MF008.jpg,0,,,,,0,20,20,57,imgFunc,1,NA,1.8526241998188198,512.811750699766,514.7630747100338,2024-01-05 11:58:07.680732,2024-01-05 11:58:09.624220,SD008.jpg,0,10862,40-69,2024-01-05_11h50.04.205,Recall,2021.2.3,59.91805613999938,
,L_SD503.jpg,1,L_MF503.jpg,1,,,,,0,21,21,92,imgFunc,9,NA,1.9758700001984835,514.7604844998568,516.8307004095986,2024-01-05 11:58:09.631203,2024-01-05 11:58:11.692496,L_SD503.jpg,1,10862,40-69,2024-01-05_11h50.04.205,Recall,2021.2.3,59.91805613999938,
,L_DD509.jpg,1,L_FF509.jpg,1,,,,,0,22,22,48,imgFunc,0,NA,2.1936850999481976,516.8386670998298,519.1279311100952,2024-01-05 11:58:11.706461,2024-01-05 11:58:13.994365,L_DD509.jpg,1,10862,40-69,2024-01-05_11h50.04.205,Recall,2021.2.3,59.91805613999938,
,SD009.jpg,0,MF009.jpg,0,,,,,0,23,23,58,imgFunc,9,NA,3.039494199678302,519.1368371001445,522.2745940107852,2024-01-05 11:58:14.001348,2024-01-05 11:58:17.129922,SD009.jpg,0,10862,40-69,2024-01-05_11h50.04.205,Recall,2021.2.3,59.91805613999938,
,L_DD502.jpg,1,L_FF502.jpg,1,,,,,0,24,24,41,imgFunc,9,NA,6.5262905000709,522.2658155998215,528.888294509612,2024-01-05 11:58:17.136905,2024-01-05 11:58:23.751475,L_DD502.jpg,1,10862,40-69,2024-01-05_11h50.04.205,Recall,2021.2.3,59.91805613999938,
,SD031.jpg,0,MF031.jpg,0,,,,,0,25,25,80,imgFunc,9,NA,5.661492199636996,528.8828970999457,534.6350709102117,2024-01-05 11:58:23.760473,2024-01-05 11:58:29.505472,SD031.jpg,0,10862,40-69,2024-01-05_11h50.04.205,Recall,2021.2.3,59.91805613999938,
,L_SD501.jpg,1,L_MF501.jpg,1,,,,,0,26,26,90,imgFunc,1,NA,0.9773050998337567,534.6469716001302,535.7292228098959,2024-01-05 11:58:29.514450,2024-01-05 11:58:30.589207,L_SD501.jpg,1,10862,40-69,2024-01-05_11h50.04.205,Recall,2021.2.3,59.91805613999938,
,SD039.jpg,0,MF039.jpg,0,,,,,0,27,27,88,imgFunc,0,NA,2.532889200374484,535.7233426999301,538.3446585098282,2024-01-05 11:58:30.596190,2024-01-05 11:58:33.208340,SD039.jpg,0,10862,40-69,2024-01-05_11h50.04.205,Recall,2021.2.3,59.91805613999938,
,DD034.jpg,0,FF034.jpg,0,,,,,0,28,28,33,imgFunc,1,NA,1.7694280999712646,538.3509557000361,540.220502810087,2024-01-05 11:58:33.215341,2024-01-05 11:58:35.076096,DD034.jpg,0,10862,40-69,2024-01-05_11h50.04.205,Recall,2021.2.3,59.91805613999938,
,L_SD509.jpg,1,L_MF509.jpg,1,,,,,0,29,29,98,imgFunc,2,NA,3.9007196999154985,540.2036796999164,544.1919480096549,2024-01-05 11:58:35.083079,2024-01-05 11:58:39.062345,L_SD509.jpg,1,10862,40-69,2024-01-05_11h50.04.205,Recall,2021.2.3,59.91805613999938,
,SD034.jpg,0,MF034.jpg,0,,,,,0,30,30,83,imgFunc,1,NA,7.380560100078583,544.1958693000488,551.6697378098033,2024-01-05 11:58:39.069328,2024-01-05 11:58:46.534056,SD034.jpg,0,10862,40-69,2024-01-05_11h50.04.205,Recall,2021.2.3,59.91805613999938,
,DD037.jpg,0,FF037.jpg,0,,,,,0,31,31,36,imgFunc,1,NA,1.0841518002562225,551.700147499796,552.8876022095792,2024-01-05 11:58:46.549046,2024-01-05 11:58:47.735337,DD037.jpg,0,10862,40-69,2024-01-05_11h50.04.205,Recall,2021.2.3,59.91805613999938,
,DD012.jpg,0,FF012.jpg,0,,,,,0,32,32,11,imgFunc,9,NA,4.80049190018326,552.871594700031,557.7766231098212,2024-01-05 11:58:47.742320,2024-01-05 11:58:52.638714,DD012.jpg,0,10862,40-69,2024-01-05_11h50.04.205,Recall,2021.2.3,59.91805613999938,
,L_SD508.jpg,1,L_MF508.jpg,1,,,,,0,33,33,97,imgFunc,9,NA,1.5929621001705527,557.7751663001254,559.4582846099511,2024-01-05 11:58:52.647692,2024-01-05 11:58:54.323301,L_SD508.jpg,1,10862,40-69,2024-01-05_11h50.04.205,Recall,2021.2.3,59.91805613999938,
,SD023.jpg,0,MF023.jpg,0,,,,,0,34,34,72,imgFunc,1,NA,1.9406725000590086,559.4673750000075,561.5201330101117,2024-01-05 11:58:54.330284,2024-01-05 11:58:56.374578,SD023.jpg,0,10862,40-69,2024-01-05_11h50.04.205,Recall,2021.2.3,59.91805613999938,
,SD021.jpg,0,MF021.jpg,0,,,,,0,35,35,70,imgFunc,9,NA,5.4102747002616525,561.5179034997709,567.0402782093734,2024-01-05 11:58:56.381562,2024-01-05 11:59:01.895253,SD021.jpg,0,10862,40-69,2024-01-05_11h50.04.205,Recall,2021.2.3,59.91805613999938,
,DD008.jpg,0,FF008.jpg,0,,,,,0,36,36,7,imgFunc,1,NA,2.044336900115013,567.0597466002218,569.2266607200727,2024-01-05 11:59:01.912210,2024-01-05 11:59:04.063416,DD008.jpg,0,10862,40-69,2024-01-05_11h50.04.205,Recall,2021.2.3,59.91805613999938,
,DD015.jpg,0,FF015.jpg,0,,,,,0,37,37,14,imgFunc,2,NA,2.6153148002922535,569.1930773998611,571.8937576101162,2024-01-05 11:59:04.072360,2024-01-05 11:59:06.765369,DD015.jpg,0,10862,40-69,2024-01-05_11h50.04.205,Recall,2021.2.3,59.91805613999938,
,SD022.jpg,0,MF022.jpg,0,,,,,0,38,38,71,imgFunc,1,NA,0.9707869999110699,571.9016339001246,572.9707944104448,2024-01-05 11:59:06.772353,2024-01-05 11:59:07.832965,SD022.jpg,0,10862,40-69,2024-01-05_11h50.04.205,Recall,2021.2.3,59.91805613999938,
,DD013.jpg,0,FF013.jpg,0,,,,,0,39,39,12,imgFunc,1,NA,2.385590999852866,572.966617200058,575.4536649105139,2024-01-05 11:59:07.839948,2024-01-05 11:59:10.318085,DD013.jpg,0,10862,40-69,2024-01-05_11h50.04.205,Recall,2021.2.3,59.91805613999938,
,DD004.jpg,0,FF004.jpg,0,,,,,0,40,40,3,imgFunc,1,NA,4.549428400117904,575.4589072000235,580.1141201099381,2024-01-05 11:59:10.325068,2024-01-05 11:59:14.971342,DD004.jpg,0,10862,40-69,2024-01-05_11h50.04.205,Recall,2021.2.3,59.91805613999938,
,SD035.jpg,0,MF035.jpg,0,,,,,0,41,41,84,imgFunc,0,NA,1.6358265997841954,580.1164846997708,581.8506607101299,2024-01-05 11:59:14.979323,2024-01-05 11:59:16.706086,SD035.jpg,0,10862,40-69,2024-01-05_11h50.04.205,Recall,2021.2.3,59.91805613999938,
,DD031.jpg,0,FF031.jpg,0,,,,,0,42,42,30,imgFunc,9,NA,2.427946699783206,581.8524632002227,584.388716309797,2024-01-05 11:59:16.713069,2024-01-05 11:59:19.241030,DD031.jpg,0,10862,40-69,2024-01-05_11h50.04.205,Recall,2021.2.3,59.91805613999938,
,L_DD504.jpg,1,L_FF504.jpg,1,,,,,0,43,43,43,imgFunc,0,NA,1.1634642998687923,584.380909900181,585.6509559098631,2024-01-05 11:59:19.248013,2024-01-05 11:59:20.509437,L_DD504.jpg,1,10862,40-69,2024-01-05_11h50.04.205,Recall,2021.2.3,59.91805613999938,
,DD009.jpg,0,FF009.jpg,0,,,,,0,44,44,8,imgFunc,1,NA,4.427635699976236,585.6448340001516,590.1651215096936,2024-01-05 11:59:20.516420,2024-01-05 11:59:25.028334,DD009.jpg,0,10862,40-69,2024-01-05_11h50.04.205,Recall,2021.2.3,59.91805613999938,
,DD028.jpg,0,FF028.jpg,0,,,,,0,45,45,27,imgFunc,1,NA,0.8776707001961768,590.1787693002261,591.1509530097246,2024-01-05 11:59:25.042298,2024-01-05 11:59:26.012399,DD028.jpg,0,10862,40-69,2024-01-05_11h50.04.205,Recall,2021.2.3,59.91805613999938,
,DD021.jpg,0,FF021.jpg,0,,,,,0,46,46,20,imgFunc,9,NA,3.9815074000507593,591.1468810997903,595.2185741099529,2024-01-05 11:59:26.019382,2024-01-05 11:59:30.082324,DD021.jpg,0,10862,40-69,2024-01-05_11h50.04.205,Recall,2021.2.3,59.91805613999938,
,DD038.jpg,0,FF038.jpg,0,,,,,0,47,47,37,imgFunc,9,NA,2.855520899873227,595.2248375001363,598.1790599101223,2024-01-05 11:59:30.089307,2024-01-05 11:59:33.034604,DD038.jpg,0,10862,40-69,2024-01-05_11h50.04.205,Recall,2021.2.3,59.91805613999938,
,DD040.jpg,0,FF040.jpg,0,,,,,0,48,48,39,imgFunc,9,NA,1.9010703000240028,598.1633191998117,600.1500132097863,2024-01-05 11:59:33.041587,2024-01-05 11:59:35.019282,DD040.jpg,0,10862,40-69,2024-01-05_11h50.04.205,Recall,2021.2.3,59.91805613999938,
,SD018.jpg,0,MF018.jpg,0,,,,,0,49,49,67,imgFunc,9,NA,1.9387464998289943,600.157657600008,602.1940232100897,2024-01-05 11:59:35.026265,2024-01-05 11:59:37.053826,SD018.jpg,0,10862,40-69,2024-01-05_11h50.04.205,Recall,2021.2.3,59.91805613999938,
,SD030.jpg,0,MF030.jpg,0,,,,,0,50,50,79,imgFunc,1,NA,3.933267100248486,602.2112545999698,606.2490148097277,2024-01-05 11:59:37.069786,2024-01-05 11:59:41.106791,SD030.jpg,0,10862,40-69,2024-01-05_11h50.04.205,Recall,2021.2.3,59.91805613999938,
,L_SD504.jpg,1,L_MF504.jpg,1,,,,,0,51,51,93,imgFunc,9,NA,2.4118062001653016,606.2363682999276,608.739714209456,2024-01-05 11:59:41.113774,2024-01-05 11:59:43.608543,L_SD504.jpg,1,10862,40-69,2024-01-05_11h50.04.205,Recall,2021.2.3,59.91805613999938,
,DD017.jpg,0,FF017.jpg,0,,,,,0,52,52,16,imgFunc,1,NA,1.0467028999701142,608.7455036002211,609.8959405100904,2024-01-05 11:59:43.616552,2024-01-05 11:59:44.758740,DD017.jpg,0,10862,40-69,2024-01-05_11h50.04.205,Recall,2021.2.3,59.91805613999938,
,DD010.jpg,0,FF010.jpg,0,,,,,0,53,53,9,imgFunc,1,NA,1.4336561998352408,609.8943913001567,611.4264087099582,2024-01-05 11:59:44.768713,2024-01-05 11:59:46.293157,DD010.jpg,0,10862,40-69,2024-01-05_11h50.04.205,Recall,2021.2.3,59.91805613999938,
,SD006.jpg,0,MF006.jpg,0,,,,,0,54,54,55,imgFunc,1,NA,1.066135199740529,611.4303033999167,612.5918081100099,2024-01-05 11:59:46.305092,2024-01-05 11:59:47.461319,SD006.jpg,0,10862,40-69,2024-01-05_11h50.04.205,Recall,2021.2.3,59.91805613999938,
,SD025.jpg,0,MF025.jpg,0,,,,,0,55,55,74,imgFunc,2,NA,3.0136710996739566,612.6106175999157,615.7163088098168,2024-01-05 11:59:47.475284,2024-01-05 11:59:50.579859,SD025.jpg,0,10862,40-69,2024-01-05_11h50.04.205,Recall,2021.2.3,59.91805613999938,
,L_SD506.jpg,1,L_MF506.jpg,1,,,,,0,56,56,95,imgFunc,1,NA,0.8259025001898408,615.7265766998753,616.6603435096331,2024-01-05 11:59:50.587867,2024-01-05 11:59:51.513446,L_SD506.jpg,1,10862,40-69,2024-01-05_11h50.04.205,Recall,2021.2.3,59.91805613999938,
,SD036.jpg,0,MF036.jpg,0,,,,,0,57,57,85,imgFunc,0,NA,2.996271800249815,616.6520389998332,619.7396106100641,2024-01-05 11:59:51.521426,2024-01-05 11:59:54.599904,SD036.jpg,0,10862,40-69,2024-01-05_11h50.04.205,Recall,2021.2.3,59.91805613999938,
,DD022.jpg,0,FF022.jpg,0,,,,,0,58,58,21,imgFunc,9,NA,3.5424432000145316,619.7378601999953,623.3759270100854,2024-01-05 11:59:54.606887,2024-01-05 11:59:58.235840,DD022.jpg,0,10862,40-69,2024-01-05_11h50.04.205,Recall,2021.2.3,59.91805613999938,
,L_DD508.jpg,1,L_FF508.jpg,1,,,,,0,59,59,47,imgFunc,0,NA,5.080113100353628,623.376108000055,628.56539280992,2024-01-05 11:59:58.242823,2024-01-05 12:00:03.423149,L_DD508.jpg,1,10862,40-69,2024-01-05_11h50.04.205,Recall,2021.2.3,59.91805613999938,
,SD002.jpg,0,MF002.jpg,0,,,,,0,60,60,51,imgFunc,1,NA,0.9348809998482466,628.5533635998145,629.5690582096577,2024-01-05 12:00:03.432127,2024-01-05 12:00:04.439907,SD002.jpg,0,10862,40-69,2024-01-05_11h50.04.205,Recall,2021.2.3,59.91805613999938,
,DD025.jpg,0,FF025.jpg,0,,,,,0,61,61,24,imgFunc,0,NA,1.2455422999337316,629.5705857998691,630.9046324095689,2024-01-05 12:00:04.447887,2024-01-05 12:00:05.773994,DD025.jpg,0,10862,40-69,2024-01-05_11h50.04.205,Recall,2021.2.3,59.91805613999938,
,DD020.jpg,0,FF020.jpg,0,,,,,0,62,62,19,imgFunc,9,NA,2.8115402003750205,630.9169247997925,633.8365211100318,2024-01-05 12:00:05.781978,2024-01-05 12:00:08.693248,DD020.jpg,0,10862,40-69,2024-01-05_11h50.04.205,Recall,2021.2.3,59.91805613999938,
,DD030.jpg,0,FF030.jpg,0,,,,,0,63,63,29,imgFunc,2,NA,3.683157999999821,633.8289199997671,637.6166963102296,2024-01-05 12:00:08.700230,2024-01-05 12:00:12.479283,DD030.jpg,0,10862,40-69,2024-01-05_11h50.04.205,Recall,2021.2.3,59.91805613999938,
,DD032.jpg,0,FF032.jpg,0,,,,,0,64,64,31,imgFunc,9,NA,3.319176900200546,637.6251615998335,641.034947309643,2024-01-05 12:00:12.492250,2024-01-05 12:00:15.898502,DD032.jpg,0,10862,40-69,2024-01-05_11h50.04.205,Recall,2021.2.3,59.91805613999938,
,DD029.jpg,0,FF029.jpg,0,,,,,0,65,65,28,imgFunc,2,NA,5.272330400068313,641.0401503997855,646.4118275097571,2024-01-05 12:00:15.906262,2024-01-05 12:00:21.268915,DD029.jpg,0,10862,40-69,2024-01-05_11h50.04.205,Recall,2021.2.3,59.91805613999938,
,DD007.jpg,0,FF007.jpg,0,,,,,0,66,66,6,imgFunc,1,NA,1.195219799876213,646.4132881001569,647.7124759103172,2024-01-05 12:00:21.277892,2024-01-05 12:00:22.569860,DD007.jpg,0,10862,40-69,2024-01-05_11h50.04.205,Recall,2021.2.3,59.91805613999938,
,L_SD507.jpg,1,L_MF507.jpg,1,,,,,0,67,67,96,imgFunc,1,NA,0.9218437001109123,647.7024988001212,648.721909310203,2024-01-05 12:00:22.576844,2024-01-05 12:00:23.587383,L_SD507.jpg,1,10862,40-69,2024-01-05_11h50.04.205,Recall,2021.2.3,59.91805613999938,
,SD014.jpg,0,MF014.jpg,0,,,,,0,68,68,63,imgFunc,1,NA,1.030111899599433,648.7302427999675,649.8661180101335,2024-01-05 12:00:23.594366,2024-01-05 12:00:24.721424,SD014.jpg,0,10862,40-69,2024-01-05_11h50.04.205,Recall,2021.2.3,59.91805613999938,
,SD015.jpg,0,MF015.jpg,0,,,,,0,69,69,64,imgFunc,2,NA,2.4690852998755872,649.875407599844,652.4471301101148,2024-01-05 12:00:24.736386,2024-01-05 12:00:27.306465,SD015.jpg,0,10862,40-69,2024-01-05_11h50.04.205,Recall,2021.2.3,59.91805613999938,
,SD032.jpg,0,MF032.jpg,0,,,,,0,70,70,81,imgFunc,2,NA,2.1783185000531375,652.4458357999101,654.7315489100292,2024-01-05 12:00:27.314468,2024-01-05 12:00:29.591596,SD032.jpg,0,10862,40-69,2024-01-05_11h50.04.205,Recall,2021.2.3,59.91805613999938,
,SD038.jpg,0,MF038.jpg,0,,,,,0,71,71,87,imgFunc,1,NA,2.7508716001175344,654.7216718001291,657.5590583099984,2024-01-05 12:00:29.598578,2024-01-05 12:00:32.427127,SD038.jpg,0,10862,40-69,2024-01-05_11h50.04.205,Recall,2021.2.3,59.91805613999938,
,SD001.jpg,0,MF001.jpg,0,,,,,0,72,72,50,imgFunc,0,NA,1.2412634999491274,657.5592379998416,658.8942858097143,2024-01-05 12:00:32.435108,2024-01-05 12:00:33.761283,SD001.jpg,0,10862,40-69,2024-01-05_11h50.04.205,Recall,2021.2.3,59.91805613999938,
,SD026.jpg,0,MF026.jpg,0,,,,,0,73,73,75,imgFunc,9,NA,2.8237258000299335,658.8968217000365,661.8178161098622,2024-01-05 12:00:33.768266,2024-01-05 12:00:36.680736,SD026.jpg,0,10862,40-69,2024-01-05_11h50.04.205,Recall,2021.2.3,59.91805613999938,
,SD019.jpg,0,MF019.jpg,0,,,,,0,74,74,68,imgFunc,9,NA,1.7601025002077222,661.8322129999287,663.6869526095688,2024-01-05 12:00:36.694701,2024-01-05 12:00:38.548097,SD019.jpg,0,10862,40-69,2024-01-05_11h50.04.205,Recall,2021.2.3,59.91805613999938,
,SD004.jpg,0,MF004.jpg,0,,,,,0,75,75,53,imgFunc,9,NA,2.7103571998886764,663.6817140998319,666.4857497103512,2024-01-05 12:00:38.555080,2024-01-05 12:00:41.350022,SD004.jpg,0,10862,40-69,2024-01-05_11h50.04.205,Recall,2021.2.3,59.91805613999938,
,L_DD510.jpg,1,L_FF510.jpg,1,,,,,0,76,76,49,imgFunc,0,NA,1.471483699977398,666.4809737000614,668.0506405103952,2024-01-05 12:00:41.357005,2024-01-05 12:00:42.917812,L_DD510.jpg,1,10862,40-69,2024-01-05_11h50.04.205,Recall,2021.2.3,59.91805613999938,
,SD003.jpg,0,MF003.jpg,0,,,,,0,77,77,52,imgFunc,0,NA,1.6894415002316236,668.0550758000463,669.841555910185,2024-01-05 12:00:42.924795,2024-01-05 12:00:44.702402,SD003.jpg,0,10862,40-69,2024-01-05_11h50.04.205,Recall,2021.2.3,59.91805613999938,
,DD019.jpg,0,FF019.jpg,0,,,,,0,78,78,18,imgFunc,9,NA,2.2973587000742555,669.8550904002041,672.2583672096953,2024-01-05 12:00:44.709385,2024-01-05 12:00:47.103818,DD019.jpg,0,10862,40-69,2024-01-05_11h50.04.205,Recall,2021.2.3,59.91805613999938,
,DD001.jpg,0,FF001.jpg,0,,,,,0,79,79,0,imgFunc,2,NA,2.40244930004701,672.2300562001765,674.7170452103019,2024-01-05 12:00:47.110822,2024-01-05 12:00:49.589075,DD001.jpg,0,10862,40-69,2024-01-05_11h50.04.205,Recall,2021.2.3,59.91805613999938,
,SD005.jpg,0,MF005.jpg,0,,,,,0,80,80,54,imgFunc,1,NA,0.9580410001799464,674.7224984997883,675.7744545103051,2024-01-05 12:00:49.597056,2024-01-05 12:00:50.640268,SD005.jpg,0,10862,40-69,2024-01-05_11h50.04.205,Recall,2021.2.3,59.91805613999938,
,SD010.jpg,0,MF010.jpg,0,,,,,0,81,81,59,imgFunc,0,NA,3.1873781997710466,675.7811877001077,679.0684353103861,2024-01-05 12:00:50.647251,2024-01-05 12:00:53.925523,SD010.jpg,0,10862,40-69,2024-01-05_11h50.04.205,Recall,2021.2.3,59.91805613999938,
,SD016.jpg,0,MF016.jpg,0,,,,,0,82,82,65,imgFunc,1,NA,1.8984177997335792,679.0696340999566,681.0730293099768,2024-01-05 12:00:53.932506,2024-01-05 12:00:55.926463,SD016.jpg,0,10862,40-69,2024-01-05_11h50.04.205,Recall,2021.2.3,59.91805613999938,
,L_SD502.jpg,1,L_MF502.jpg,1,,,,,0,83,83,91,imgFunc,1,NA,0.6901822998188436,681.0859897001646,681.8900930103846,2024-01-05 12:00:55.941443,2024-01-05 12:00:56.743563,L_SD502.jpg,1,10862,40-69,2024-01-05_11h50.04.205,Recall,2021.2.3,59.91805613999938,
,DD014.jpg,0,FF014.jpg,0,,,,,0,84,84,13,imgFunc,2,NA,1.7716129003092647,681.8845533998683,683.7544390098192,2024-01-05 12:00:56.751540,2024-01-05 12:00:58.612092,DD014.jpg,0,10862,40-69,2024-01-05_11h50.04.205,Recall,2021.2.3,59.91805613999938,
,SD012.jpg,0,MF012.jpg,0,,,,,0,85,85,61,imgFunc,2,NA,1.0361359999515116,683.748021400068,684.8837345102802,2024-01-05 12:00:58.619067,2024-01-05 12:00:59.746071,SD012.jpg,0,10862,40-69,2024-01-05_11h50.04.205,Recall,2021.2.3,59.91805613999938,
,SD037.jpg,0,MF037.jpg,0,,,,,0,86,86,86,imgFunc,2,NA,1.2658182997256517,684.8943735999055,686.2638187096454,2024-01-05 12:00:59.753043,2024-01-05 12:01:01.113610,SD037.jpg,0,10862,40-69,2024-01-05_11h50.04.205,Recall,2021.2.3,59.91805613999938,
,DD035.jpg,0,FF035.jpg,0,,,,,0,87,87,34,imgFunc,1,NA,1.47856289986521,686.2496604002081,687.8188719097525,2024-01-05 12:01:01.121592,2024-01-05 12:01:02.681543,DD035.jpg,0,10862,40-69,2024-01-05_11h50.04.205,Recall,2021.2.3,59.91805613999938,
,DD026.jpg,0,FF026.jpg,0,,,,,0,88,88,25,imgFunc,9,NA,2.093578000087291,687.8266111998819,690.014807109721,2024-01-05 12:01:02.696498,2024-01-05 12:01:04.882741,DD026.jpg,0,10862,40-69,2024-01-05_11h50.04.205,Recall,2021.2.3,59.91805613999938,
,SD027.jpg,0,MF027.jpg,0,,,,,0,89,89,76,imgFunc,0,NA,4.028441899921745,690.0117305000313,694.1324154101312,2024-01-05 12:01:04.890718,2024-01-05 12:01:09.002529,SD027.jpg,0,10862,40-69,2024-01-05_11h50.04.205,Recall,2021.2.3,59.91805613999938,
,SD033.jpg,0,MF033.jpg,0,,,,,0,90,90,82,imgFunc,2,NA,2.657737599685788,694.1425104001537,696.8942687106319,2024-01-05 12:01:09.010538,2024-01-05 12:01:11.754490,SD033.jpg,0,10862,40-69,2024-01-05_11h50.04.205,Recall,2021.2.3,59.91805613999938,
,L_DD507.jpg,1,L_FF507.jpg,1,,,,,0,91,91,46,imgFunc,1,NA,1.7521224999800324,696.8960609999485,698.7488743099384,2024-01-05 12:01:11.762466,2024-01-05 12:01:13.606490,L_DD507.jpg,1,10862,40-69,2024-01-05_11h50.04.205,Recall,2021.2.3,59.91805613999938,
,SD017.jpg,0,MF017.jpg,0,,,,,0,92,92,66,imgFunc,2,NA,1.099832400213927,698.7483382001519,699.95055461023,2024-01-05 12:01:13.613470,2024-01-05 12:01:14.806985,SD017.jpg,0,10862,40-69,2024-01-05_11h50.04.205,Recall,2021.2.3,59.91805613999938,
,DD023.jpg,0,FF023.jpg,0,,,,,0,93,93,22,imgFunc,0,NA,2.328580299858004,699.9517211001366,702.370900509879,2024-01-05 12:01:14.822941,2024-01-05 12:01:17.241734,DD023.jpg,0,10862,40-69,2024-01-05_11h50.04.205,Recall,2021.2.3,59.91805613999938,
,L_DD505.jpg,1,L_FF505.jpg,1,,,,,0,94,94,44,imgFunc,9,NA,3.233019200153649,702.3751881998032,705.6907164100558,2024-01-05 12:01:17.251707,2024-01-05 12:01:20.561346,L_DD505.jpg,1,10862,40-69,2024-01-05_11h50.04.205,Recall,2021.2.3,59.91805613999938,
,SD029.jpg,0,MF029.jpg,0,,,,,0,95,95,78,imgFunc,1,NA,1.0980837997049093,705.6942337998189,706.8794090100564,2024-01-05 12:01:20.569352,2024-01-05 12:01:21.745893,SD029.jpg,0,10862,40-69,2024-01-05_11h50.04.205,Recall,2021.2.3,59.91805613999938,
,DD003.jpg,0,FF003.jpg,0,,,,,0,96,96,2,imgFunc,0,NA,2.0082271001301706,706.8799478001893,708.9815049101599,2024-01-05 12:01:21.753872,2024-01-05 12:01:23.846254,DD003.jpg,0,10862,40-69,2024-01-05_11h50.04.205,Recall,2021.2.3,59.91805613999938,
,DD033.jpg,0,FF033.jpg,0,,,,,0,97,97,32,imgFunc,1,NA,1.2488469001837075,708.975347999949,710.3116539097391,2024-01-05 12:01:23.854211,2024-01-05 12:01:25.182397,DD033.jpg,0,10862,40-69,2024-01-05_11h50.04.205,Recall,2021.2.3,59.91805613999938,
,DD002.jpg,0,FF002.jpg,0,,,,,0,98,98,1,imgFunc,9,NA,4.048588499892503,710.311592400074,714.4466743101366,2024-01-05 12:01:25.190377,2024-01-05 12:01:29.316918,DD002.jpg,0,10862,40-69,2024-01-05_11h50.04.205,Recall,2021.2.3,59.91805613999938,
,L_DD503.jpg,1,L_FF503.jpg,1,,,,,0,99,99,42,imgFunc,0,NA,1.3525251001119614,714.4478079001419,715.9000895102508,2024-01-05 12:01:29.324895,2024-01-05 12:01:30.768068,L_DD503.jpg,1,10862,40-69,2024-01-05_11h50.04.205,Recall,2021.2.3,59.91805613999938,
