onset	duration	trial_type	rt	resp	gender	image_left	image_right
0.6369642000645399	3.001842400059104	decision	2.0327765999827534	left	F	FF017.jpg	FF018.jpg
4.186941400170326	1.0165499998256564	loss	n/a	n/a	n/a	FF017.jpg	FF018.jpg
11.170321700163186	3.0016314999666065	decision	1.7832288998179138	left	F	FF035.jpg	FF036.jpg
14.720600800123066	1.0162036998663098	win	n/a	n/a	n/a	FF035.jpg	FF036.jpg
21.686929400078952	3.0007652998901904	decision	1.7833229000680149	right	F	FF021.jpg	FF022.jpg
25.236912100110203	1.0165168999228626	loss	n/a	n/a	n/a	FF021.jpg	FF022.jpg
32.20341489999555	3.0008012000471354	decision	2.2832612001802772	left	M	MF025.jpg	MF026.jpg
35.75360450008884	1.0164423999376595	loss	n/a	n/a	n/a	MF025.jpg	MF026.jpg
38.5201522000134	3.0014977001119405	decision	2.0334449999500066	right	M	MF027.jpg	MF028.jpg
42.070392900146544	1.0163983998354524	loss	n/a	n/a	n/a	MF027.jpg	MF028.jpg
44.83695750008337	3.0015829999465495	decision	1.7837175999302417	left	M	MF023.jpg	MF024.jpg
48.386573400115594	1.0002196999266744	win	n/a	n/a	n/a	MF023.jpg	MF024.jpg
51.13690500007942	3.001400399953127	decision	2.0328206999693066	right	F	FF037.jpg	FF038.jpg
54.68685479997657	1.0164623002056032	win	n/a	n/a	n/a	FF037.jpg	FF038.jpg
59.55340910004452	3.000967000145465	decision	2.2833889999892563	right	M	MF011.jpg	MF012.jpg
63.1035128000658	1.01693610008806	loss	n/a	n/a	n/a	MF011.jpg	MF012.jpg
67.97017730004154	3.0009767999872565	decision	2.033450399991125	right	F	FF009.jpg	FF010.jpg
71.52013640012592	1.016528199892491	win	n/a	n/a	n/a	FF009.jpg	FF010.jpg
74.28679000004195	3.000664500053972	decision	2.032706200145185	left	F	FF027.jpg	FF028.jpg
77.83682460011914	1.000022399937734	win	n/a	n/a	n/a	FF027.jpg	FF028.jpg
82.68683829996735	3.000938600162044	decision	2.5322039001621306	left	F	FF015.jpg	FF016.jpg
86.23671140009537	1.0000571000855416	loss	n/a	n/a	n/a	FF015.jpg	FF016.jpg
93.1866791001521	3.001616699853912	decision	2.283986199880019	left	M	MF029.jpg	MF030.jpg
96.73666499997489	1.0165262999944389	loss	n/a	n/a	n/a	MF029.jpg	MF030.jpg
101.603470900096	3.0008046999573708	decision	2.2831701000686735	left	M	MF015.jpg	MF016.jpg
105.15337539999746	1.0165653000585735	win	n/a	n/a	n/a	MF015.jpg	MF016.jpg
112.11992390011437	3.00177409988828	decision	2.0335748000070453	left	M	MF007.jpg	MF008.jpg
115.66987290000543	1.0000079001765698	win	n/a	n/a	n/a	MF007.jpg	MF008.jpg
120.52005920000374	3.0006364001892507	decision	2.0330627001821995	left	M	MF017.jpg	MF018.jpg
124.07011990016326	1.0001811999827623	win	n/a	n/a	n/a	MF017.jpg	MF018.jpg
126.82012350019068	3.0014979999978095	decision	2.032577999867499	right	F	FF033.jpg	FF034.jpg
130.37083520018496	1.0154046998359263	win	n/a	n/a	n/a	FF033.jpg	FF034.jpg
133.1365859999787	3.0020434001926333	decision	2.532985300058499	right	F	FF007.jpg	FF008.jpg
136.6866020001471	1.000036499928683	loss	n/a	n/a	n/a	FF007.jpg	FF008.jpg
139.43671420007013	3.001917799934745	decision	2.032845800044015	left	F	FF023.jpg	FF024.jpg
142.9864922000561	1.0000456999987364	loss	n/a	n/a	n/a	FF023.jpg	FF024.jpg
156.2365465001203	3.00108449999243	decision	1.7835625000298023	left	M	MF009.jpg	MF010.jpg
159.78654910018668	1.01667149993591	loss	n/a	n/a	n/a	MF009.jpg	MF010.jpg
164.65336080011912	3.0011217000428587	decision	2.0332678998820484	right	F	FF001.jpg	FF002.jpg
168.20321940002032	1.0166968000121415	win	n/a	n/a	n/a	FF001.jpg	FF002.jpg
170.96998500009067	3.0006438000127673	decision	2.2822880998719484	left	M	MF019.jpg	MF020.jpg
174.51981450011954	1.0000688000582159	loss	n/a	n/a	n/a	MF019.jpg	MF020.jpg
181.4700019999873	3.001517500029877	decision	2.0324811001773924	right	F	FF031.jpg	FF032.jpg
185.01982940011658	1.016580699943006	loss	n/a	n/a	n/a	FF031.jpg	FF032.jpg
189.88643710012548	3.001095099840313	decision	2.034203900024295	left	M	MF005.jpg	MF006.jpg
193.43655510013923	1.0164464998524636	win	n/a	n/a	n/a	MF005.jpg	MF006.jpg
196.203455200186	3.0022904998622835	decision	2.0328689999878407	right	F	FF019.jpg	FF020.jpg
199.75325620011427	1.0165742000099272	win	n/a	n/a	n/a	FF019.jpg	FF020.jpg
206.7199381000828	3.0016697000246495	decision	1.7827119999565184	right	M	MF013.jpg	MF014.jpg
210.26973500009626	1.0001828998792917	loss	n/a	n/a	n/a	MF013.jpg	MF014.jpg
217.21965770004317	3.0020012001041323	decision	2.0329682999290526	left	M	MF031.jpg	MF032.jpg
220.7698133001104	1.0165375000797212	loss	n/a	n/a	n/a	MF031.jpg	MF032.jpg
225.63653020001948	3.001426000148058	decision	1.782979300012812	left	F	FF039.jpg	FF040.jpg
229.18653000006452	1.0166064000222832	loss	n/a	n/a	n/a	FF039.jpg	FF040.jpg
231.9532280000858	3.000757799949497	decision	2.283290599938482	right	F	FF005.jpg	FF006.jpg
235.50310280011036	1.016481600003317	loss	n/a	n/a	n/a	FF005.jpg	FF006.jpg
242.46982310013846	3.002381999976933	decision	1.7827947000041604	left	M	MF037.jpg	MF038.jpg
246.01987079996616	1.0166938002221286	loss	n/a	n/a	n/a	MF037.jpg	MF038.jpg
248.7863851999864	3.0011297001037747	decision	2.2825821000151336	right	M	MF039.jpg	MF040.jpg
252.3362922000233	1.0003349999897182	win	n/a	n/a	n/a	MF039.jpg	MF040.jpg
255.08644660003483	3.0001731000375003	decision	1.7830656999722123	right	M	MF033.jpg	MF034.jpg
258.63659530016594	1.016706199850887	loss	n/a	n/a	n/a	MF033.jpg	MF034.jpg
261.4029674001504	3.0016681998968124	decision	2.2836490999907255	left	F	FF013.jpg	FF014.jpg
264.95310860010795	1.0164882000535727	win	n/a	n/a	n/a	FF013.jpg	FF014.jpg
269.8197008999996	3.001312999986112	decision	2.2828385001048446	right	M	MF001.jpg	MF002.jpg
273.3695469000377	1.0001173000782728	win	n/a	n/a	n/a	MF001.jpg	MF002.jpg
276.11968820006587	3.0009405000600964	decision	2.2830576999112964	left	F	FF003.jpg	FF004.jpg
279.66975780017674	1.0165796999353915	win	n/a	n/a	n/a	FF003.jpg	FF004.jpg
284.53638250008225	3.001276799943298	decision	2.0328150000423193	left	M	MF003.jpg	MF004.jpg
288.0861758000683	1.0168057999107987	win	n/a	n/a	n/a	MF003.jpg	MF004.jpg
295.05290790018626	3.001192199997604	decision	1.7835891998838633	right	F	FF025.jpg	FF026.jpg
298.6029387000017	1.016521600075066	win	n/a	n/a	n/a	FF025.jpg	FF026.jpg
305.5695587999653	3.0020922000985593	decision	2.033915000036359	left	M	MF035.jpg	MF036.jpg
309.1194513000082	1.0000311001203954	win	n/a	n/a	n/a	MF035.jpg	MF036.jpg
311.8695898000151	3.000924700172618	decision	2.0323779000900686	left	F	FF011.jpg	FF012.jpg
315.4194521000609	1.0166798999998719	loss	n/a	n/a	n/a	FF011.jpg	FF012.jpg
318.18631310015917	3.001186199951917	decision	2.282304999884218	right	M	MF021.jpg	MF022.jpg
321.73617670009844	1.0001582000404596	win	n/a	n/a	n/a	MF021.jpg	MF022.jpg
326.5861262001563	3.001489199930802	decision	2.03331119986251	left	F	FF029.jpg	FF030.jpg
330.1361535000615	1.0166215000208467	loss	n/a	n/a	n/a	FF029.jpg	FF030.jpg
