TrialNumber,Trial,cLeft,cRight,Partner,Reciprocate,ISI,ITI,ran,order,onset,bpress,resp,resp_onset,highlow,rt,ISIpad,ISI_onset,ISI_offset,outcome_onset,outcome_offset,duration,ITI_onset,ITI_offset
1,1,2,8,2,0,5.000000e-01,8.075000e-01,1.0,0.0,4.123136,1.0,2,6.2253942,low,2.1022582,0.8977419,6.744239,9.373898,9.375779,11.378911,7.255775,11.379442,12.180897
2,2,8,2,3,1,3.500000e+00,4.037500e+00,1.0,1.0,12.189672,2.0,2,13.80796,low,1.6182868,1.3817132,14.326979,20.440414,20.442255,22.44393,10.254257,22.444317,26.477905
3,3,0,8,3,0,2,8.075000e-01,1.0,2.0,26.485363,1.0,0,28.474443,low,1.9890801,1.0109199,28.9948,33.23534,33.23546,35.236984,8.751622,35.237377,36.043556
4,4,2,4,2,1,2,8.075000e-01,1.0,3.0,36.156986,2.0,4,38.058445,high,1.901461,1.098539,38.578014,42.906815,42.90867,44.91038,8.753397,44.91077,45.714924
5,5,2,8,1,1,2,8.075000e-01,1.0,4.0,45.719086,1.0,2,47.25803,low,1.5389465,1.4610535,47.778038,52.4699,52.4719,54.47389,8.754803,54.474277,55.27792
6,6,4,2,1,1,5.000000e-01,2.422500e+00,1.0,5.0,55.28243,1.0,4,57.108135,high,1.825705,1.174295,57.628174,60.532906,60.53331,62.536037,7.2536087,62.536423,64.95573
7,7,0,4,3,0,5.000000e-01,5.652500e+00,1.0,6.0,64.96455,2.0,4,66.541466,high,1.5769161,1.4230839,67.06012,70.21577,70.21762,72.21946,7.25491,72.21984,77.86793
8,8,0,8,2,0,5.000000e-01,8.075000e-01,1.0,7.0,77.98015,1.0,0,79.641556,low,1.6614077,1.3385923,80.16223,83.231316,83.23144,85.232895,7.2527466,85.233284,86.03758
9,9,0,4,2,0,5.000000e-01,2.422500e+00,1.0,8.0,86.14964,2.0,4,87.82511,high,1.6754715,1.3245285,88.34363,91.39992,91.40165,93.403885,7.2542467,93.404274,95.8229
10,10,0,2,2,0,2,8.075000e-01,1.0,9.0,95.93462,2.0,2,97.441666,high,1.5070395,1.4929605,97.961914,102.68655,102.68707,104.688896,8.754267,104.68928,105.4929
11,11,2,8,3,1,2,8.075000e-01,1.0,10.0,105.501625,1.0,2,107.12496,low,1.6233412,1.3766588,107.64363,112.25199,112.25403,114.25571,8.754086,114.256096,115.0599
12,12,8,2,1,0,2,4.037500e+00,1.0,11.0,115.06524,2.0,2,116.658005,low,1.5927628,1.4072372,117.17796,121.81592,121.81783,123.81989,8.754655,123.82028,127.852905
13,13,4,2,3,1,5.000000e-01,8.075000e-01,1.0,12.0,127.86009,1.0,4,129.57503,high,1.7149358,1.2850642,130.09396,133.11066,133.11273,135.11534,7.255247,135.11574,135.9178
14,14,2,8,2,1,5.000000e-01,4.037500e+00,1.0,13.0,136.03041,1.0,2,137.5416,low,1.511188,1.488812,138.06142,141.28084,141.28268,143.2849,7.2544804,143.28528,147.31892
15,15,0,4,2,1,5.000000e-01,8.075000e-01,1.0,14.0,147.43195,2.0,4,149.00816,high,1.5762283,1.4237717,149.52713,152.6829,152.6833,154.68558,7.2536354,154.68596,155.48907
16,16,0,2,1,1,2,8.075000e-01,1.0,15.0,155.49355,2.0,2,156.9249,high,1.4313396,1.5686604,157.44409,162.24506,162.2471,164.24867,8.755127,164.24925,165.05093
17,17,2,8,2,0,5.000000e-01,2.422500e+00,1.0,16.0,165.1636,1.0,2,166.67488,low,1.5112733,1.4887267,167.19377,170.41382,170.41554,172.4175,7.253882,172.41788,174.8379
18,18,0,2,2,1,5.000000e-01,8.075000e-01,1.0,17.0,174.95029,2.0,2,176.441,high,1.4907132,1.5092868,176.96165,180.20091,180.20279,182.20457,7.2542844,182.20496,183.00897
19,19,4,8,3,0,2,8.075000e-01,1.0,18.0,183.01761,1.0,4,184.40765,low,1.3900476,1.6099524,184.92828,189.76859,189.7703,191.7728,8.755197,191.7732,192.575
20,20,0,8,1,1,5.000000e-01,5.652500e+00,1.0,19.0,192.5793,1.0,0,194.09093,low,1.5116396,1.4883604,194.61168,197.82965,197.82977,199.83191,7.252609,199.83229,205.48306
21,21,2,0,1,0,5.000000e-01,2.422500e+00,1.0,20.0,205.48737,1.0,2,207.30814,high,1.8207753,1.1792247,207.8278,210.73758,210.73949,212.74109,7.2537236,212.74147,215.15977
22,22,4,2,3,0,5.000000e-01,8.075000e-01,1.0,21.0,215.16795,1.0,4,216.77452,high,1.6065661,1.3934339,217.29332,220.41884,220.42056,222.42252,7.254552,222.42291,223.22498
23,23,0,8,1,0,3.500000e+00,8.075000e-01,1.0,22.0,223.2302,1.0,0,224.77464,low,1.544457,1.455543,225.29416,231.48006,231.48016,233.4819,10.2517185,233.4823,234.28758
24,24,8,2,3,0,5.000000e-01,4.037500e+00,1.0,23.0,234.29593,2.0,2,236.00797,low,1.7120298,1.2879702,236.52803,239.5469,239.54732,241.54996,7.2540326,241.55035,245.58437
25,25,8,0,2,1,2,7.267500e+00,1.0,24.0,245.69594,2.0,0,247.3576,low,1.6616637,1.3383363,247.87708,252.44693,252.44705,254.4489,8.752965,254.4493,261.71393
26,26,2,8,1,1,5.000000e-01,8.075000e-01,1.0,25.0,261.71915,1.0,2,263.34134,low,1.6221856,1.3778144,263.86023,266.9699,266.97186,268.97397,7.2548203,268.97437,269.77667
27,27,2,4,1,0,5.000000e-01,2.422500e+00,1.0,26.0,269.77982,2.0,4,271.7578,high,1.9779795,1.0220205,272.27823,275.0306,275.03253,277.0349,7.255083,277.0353,279.45258
28,28,2,0,3,1,5.000000e-01,8.075000e-01,1.0,27.0,279.46014,1.0,2,281.22427,high,1.7641526,1.2358474,281.74503,284.71194,284.71378,286.7156,7.2554603,286.71597,287.51892
29,29,8,4,1,0,2,4.037500e+00,1.0,28.0,287.5241,2.0,4,289.22424,low,1.7001476,1.2998524,289.744,294.27393,294.276,296.27792,8.753809,296.2783,300.3129
30,30,8,4,3,1,2,2.422500e+00,1.0,29.0,300.3188,2.0,4,301.85742,low,1.5386184,1.4613816,302.37817,307.0689,307.07077,309.07324,8.754436,309.0736,311.49185
31,31,4,2,2,0,2,8.075000e-01,1.0,30.0,311.60196,1.0,4,313.27408,high,1.6721131,1.3278869,313.793,318.3529,318.3546,320.35693,8.754975,320.3573,321.1599
32,32,0,8,3,1,5.000000e-01,8.075000e-01,1.0,31.0,321.1688,1.0,0,322.95715,low,1.7883673,1.2116327,323.47702,326.4189,326.41904,328.42093,7.25212,328.4213,329.22693
33,33,4,0,1,0,3.500000e+00,8.075000e-01,1.0,32.0,329.2322,1.0,4,331.1078,high,1.8755937,1.1244063,331.62805,337.4826,337.48453,339.48694,10.254759,339.48734,340.28995
34,34,2,8,1,0,2,2.422500e+00,1.0,33.0,340.29443,1.0,2,341.79102,low,1.4965976,1.5034024,342.31012,347.04495,347.04535,349.04767,8.753239,349.04803,351.46796
35,35,4,0,1,1,5.000000e-01,2.422500e+00,1.0,34.0,351.4723,1.0,4,353.42422,high,1.9519404,1.0480596,353.94403,356.72296,356.725,358.72693,7.254645,358.72733,361.14493
36,36,8,2,3,0,3.500000e+00,2.422500e+00,1.0,35.0,361.1532,2.0,2,363.14053,low,1.98733,1.01267,363.66098,369.40393,369.40564,371.40793,10.25471,371.4083,373.82593
37,37,4,8,2,0,2,8.075000e-01,1.0,36.0,373.93765,1.0,4,375.29065,low,1.3530041,1.6469959,375.81003,380.6886,380.69034,382.6929,8.755257,382.6933,383.49625
38,38,2,8,2,1,2,2.422500e+00,1.0,37.0,383.6074,1.0,2,385.04092,low,1.4335343,1.5664657,385.56003,390.35757,390.3595,392.36194,8.754537,392.3623,394.78094
39,39,8,4,1,1,5.000000e-01,8.882500e+00,1.0,38.0,394.78638,2.0,4,396.42377,low,1.6374063,1.3625937,396.9438,400.03693,400.03888,402.04068,7.2543035,402.04105,410.9198
40,40,4,8,2,1,5.000000e-01,8.075000e-01,1.0,39.0,411.0327,1.0,4,412.59097,low,1.5582731,1.4417269,413.11014,416.28357,416.28543,418.28784,7.255134,418.28824,419.09088
41,41,4,0,3,1,5.000000e-01,7.267500e+00,1.0,40.0,419.0988,1.0,4,420.94037,high,1.8416088,1.1583912,421.46106,424.34985,424.3519,426.3539,7.255134,426.3543,433.61658
42,42,2,0,3,0,5.000000e-01,2.422500e+00,1.0,41.0,433.62286,1.0,2,435.34067,high,1.7177778,1.2822222,435.85907,438.87286,438.87457,440.87653,7.253639,440.8769,443.29498
