TrialNumber,nTrial,Block,Endowment,ITI,ISI,L_Option,R_Option,ran,order,cue_Onset,endowment_onset,endowment_offset,ISI_onset,ISI_offset,decision_onset,resp,rt,resp_onset,decision_offset,trialDuration,ITIonset,ITIoffset
1,1,3,32,0.5575,1,0,16,1.0,0.0,4.6022,5.503684,5.5203214,5.5204697,6.52051,6.520702,2.0,1.7161386,8.23684,10.288115,3.7680705,10.288904,10.848525
2,2,2,32,1.365,1,0,8,1.0,1.0,11.347553,12.336636,12.353781,12.353895,13.354806,13.354959,2.0,1.5823534,14.937312,17.121023,3.7666216,17.12169,18.489136
3,3,2,32,2.98,1,0,16,1.0,2.0,18.998262,19.986567,20.003624,20.00373,21.004366,21.00451,2.0,1.6826893,22.6872,24.772251,3.7682872,24.77291,27.754635
4,4,2,32,0.5575,1,0,16,1.0,3.0,28.264235,29.253262,29.270403,29.27051,30.270018,30.27017,2.0,2.2166908,32.486862,34.03749,3.767867,34.038147,34.598522
5,5,3,32,0.5575,1,0,3,1.0,4.0,35.179436,36.086967,36.103203,36.10331,37.103573,37.103737,1.0,2.5502121,39.65395,40.87048,3.7672954,40.871143,41.430542
6,6,3,16,0.5575,1,8,0,1.0,5.0,42.016293,42.92023,42.93657,42.936676,43.936176,43.936333,1.0,1.7008703,45.6372,47.70252,3.7667463,47.70319,48.262436
7,7,3,16,1.365,1,0,2,1.0,6.0,48.849094,49.753567,49.769794,49.7699,50.770275,50.770428,2.0,2.8330462,53.603474,54.536366,3.766502,54.537045,55.902973
8,8,3,16,0.5575,1,8,0,1.0,7.0,56.47929,57.403164,57.420193,57.420303,58.41942,58.419575,1.0,1.067491,59.487064,62.186134,3.7671225,62.186817,62.74642
9,9,3,32,2.98,1,3,0,1.0,8.0,63.36394,64.23644,64.25345,64.253555,65.25325,65.253395,2.0,2.6336782,67.88708,69.02049,3.767645,69.02116,72.0025
10,10,2,32,6.21,1,2,0,1.0,9.0,72.49764,73.486435,73.50344,73.503555,74.50431,74.50446,2.0,1.799367,76.30383,78.270485,3.7665772,78.27116,84.48197
11,11,3,32,2.98,1,2,0,1.0,10.0,85.07544,85.970146,85.98674,85.986855,86.98616,86.986305,1.0,2.0167341,89.003044,90.75365,3.7679026,90.754326,93.73569
12,12,2,32,2.98,1,3,0,1.0,11.0,94.230606,95.219696,95.23678,95.23688,96.23656,96.2367,1.0,0.8836063,97.120316,100.003784,3.7676382,100.004456,102.986145
13,13,2,16,1.365,1,8,0,1.0,12.0,103.48067,104.469635,104.48673,104.48683,105.48728,105.48752,1.0,0.7994871,106.28701,109.254524,3.7675846,109.25522,110.621346
14,14,2,32,1.365,1,16,0,1.0,13.0,111.13099,112.119675,112.136696,112.13681,113.13659,113.13676,1.0,0.9164064,114.05316,116.90452,3.7683163,116.90518,118.27103
15,15,3,16,4.595,1,0,2,1.0,14.0,118.85552,119.76999,119.786285,119.78639,120.78689,120.78704,2.0,1.5165049,122.30355,124.554245,3.7677736,124.55493,129.1517
16,16,3,32,0.5575,1,8,0,1.0,15.0,129.74706,130.63673,130.65332,130.65343,131.65321,131.65337,1.0,0.7164849,132.36984,135.42038,3.7675922,135.42107,135.98146
17,17,3,32,1.365,1,0,2,1.0,16.0,136.58028,137.47005,137.4866,137.48672,138.48674,138.4869,2.0,1.2499794,139.73688,142.25421,3.7678711,142.25488,143.62102
18,18,2,32,0.5575,1,8,0,1.0,17.0,144.13072,145.11961,145.13669,145.13683,146.13763,146.13779,1.0,1.0490091,147.1868,149.90448,3.7672482,149.90515,150.46445
19,19,2,32,0.5575,1,8,0,1.0,18.0,150.96391,151.95291,151.96988,151.96999,152.9698,152.96996,1.0,0.8501575,153.8201,156.73552,3.766124,156.73619,157.29576
20,20,2,32,0.5575,1,3,0,1.0,19.0,157.79736,158.78596,158.80338,158.8035,159.80338,159.80353,1.0,0.7333618,160.5369,163.57071,3.7677279,163.57137,164.13103
21,21,3,32,4.595,1,2,0,1.0,20.0,164.70872,165.62007,165.6362,165.63632,166.63724,166.63739,1.0,0.8823612,167.51974,170.40479,3.7679787,170.40547,175.00203
22,22,2,32,1.365,1,0,2,1.0,21.0,175.49725,176.486,176.50328,176.5034,177.50337,177.50351,2.0,1.0996749,178.6032,181.27055,3.7675896,181.27122,182.6376
23,23,2,32,2.98,1,0,8,1.0,22.0,183.1471,184.13614,184.15326,184.15335,185.15335,185.1535,2.0,0.6997779,185.85327,188.92055,3.7676063,188.92122,191.90291
24,24,3,16,0.5575,1,8,0,1.0,23.0,192.47237,193.40285,193.41995,193.42006,194.41985,194.42001,1.0,0.9000921,195.3201,198.18607,3.7666056,198.18674,198.74573
25,25,3,16,0.5575,1,0,1,1.0,24.0,199.31856,200.23653,200.25279,200.2529,201.25247,201.25262,2.0,1.0674411,202.32007,205.01904,3.7669666,205.0197,205.57913
26,26,2,32,0.5575,1,2,0,1.0,25.0,206.08011,207.06947,207.08658,207.08667,208.08714,208.0873,1.0,1.0155199,209.10283,211.855,3.7682457,211.85567,212.41594
27,27,3,16,0.5575,1,0,4,1.0,26.0,212.98415,213.90271,213.91975,213.91986,214.9197,214.91985,2.0,0.8336229,215.75346,218.68716,3.767904,218.68787,219.24808
28,28,2,16,0.5575,1,0,2,1.0,27.0,219.7471,220.73611,220.7532,220.7533,221.75311,221.75327,2.0,1.0335294,222.7868,225.52057,3.7678666,225.52126,226.08098
29,29,3,16,0.5575,1,0,8,1.0,28.0,226.6452,227.56943,227.58667,227.58679,228.58641,228.58656,2.0,0.9335188,229.52008,232.35338,3.767365,232.35405,232.91342
30,30,2,32,1.365,1,2,0,1.0,29.0,233.4136,234.40266,234.41974,234.41985,235.42041,235.42056,1.0,0.9992665,236.41983,239.18687,3.7668667,239.18755,240.55379
31,31,3,16,1.365,1,4,0,1.0,30.0,241.11476,242.05316,242.06963,242.06973,243.0692,243.06935,1.0,1.0004135,244.06976,246.83623,3.7674673,246.83693,248.20366
32,32,3,32,1.365,1,2,0,1.0,31.0,248.7797,249.70264,249.71977,249.71988,250.71994,250.7201,1.0,0.9160615,251.63615,254.4866,3.7670724,254.48729,255.85405
33,33,2,16,0.5575,1,0,8,1.0,32.0,256.3647,257.35275,257.3698,257.3699,258.36996,258.37012,1.0,0.9658592,259.33597,262.13712,3.767555,262.1378,262.6978
34,34,2,32,1.365,1,8,0,1.0,33.0,263.19754,264.18597,264.2031,264.2032,265.20367,265.20383,1.0,0.6827462,265.88657,268.97205,3.7687845,268.97272,270.33936
35,35,3,16,0.5575,1,0,4,1.0,34.0,270.8451,271.8365,271.85306,271.85318,272.85367,272.85382,2.0,0.8155132,273.6693,276.62088,3.767635,276.62155,277.18076
36,36,2,32,0.5575,1,0,3,1.0,35.0,277.68042,278.66925,278.68643,278.6865,279.68658,279.68674,2.0,1.1331939,280.81995,283.45346,3.767279,283.45413,284.01303
37,37,2,16,0.5575,1,2,0,1.0,36.0,284.51373,285.50256,285.51965,285.51974,286.51935,286.5195,1.0,0.9003316,287.41983,290.28534,3.7663946,290.286,290.84576
38,38,3,32,1.365,1,0,2,1.0,37.0,291.42667,292.3361,292.35254,292.3526,293.35297,293.35312,2.0,0.850148,294.20328,297.1192,3.766657,297.1199,298.48734
39,39,3,16,0.5575,1,8,0,1.0,38.0,299.0991,299.9864,300.00296,300.00305,301.00302,301.00317,1.0,0.9000236,301.9032,304.77002,3.7673917,304.77066,305.3305
40,40,3,32,0.5575,1,3,0,1.0,39.0,305.9232,306.81967,306.8363,306.83643,307.83627,307.83643,1.0,0.7663334,308.60275,311.60352,3.7676308,311.60416,312.16367
41,41,2,16,1.365,1,8,0,1.0,40.0,312.66357,313.6526,313.66968,313.6698,314.67,314.67017,1.0,0.5996205,315.26978,318.43686,3.7672818,318.43756,319.80423
42,42,2,32,0.5575,1,3,0,1.0,41.0,320.3138,321.3026,321.3197,321.31982,322.32056,322.32074,1.0,0.6326006,322.95334,326.08746,3.7673128,326.08817,326.64795
43,43,3,16,2.98,1,4,0,1.0,42.0,327.22604,328.13626,328.15256,328.15268,329.15247,329.15262,1.0,1.0334302,330.18607,332.9195,3.7674074,332.92017,335.90134
44,44,2,32,0.5575,1,2,0,1.0,43.0,336.39694,337.38583,337.40308,337.40317,338.40268,338.40283,1.0,0.7835818,339.1864,342.17056,3.7683036,342.17123,342.7319
45,45,2,32,0.5575,1,2,0,1.0,44.0,343.22974,344.21918,344.2363,344.2364,345.23648,345.23663,1.0,0.966093,346.20273,349.00354,3.7674792,349.00424,349.5631
46,46,2,16,4.595,1,4,0,1.0,45.0,350.0637,351.05258,351.0695,351.0696,352.06918,352.06934,1.0,1.150438,353.21976,355.83582,3.767027,355.83646,360.43234
47,47,3,32,2.98,1,0,8,1.0,46.0,361.0503,361.9191,361.93616,361.93625,362.93628,362.93643,2.0,0.9501901,363.88663,366.7022,3.766342,366.70288,369.68423
48,48,3,32,1.365,1,3,0,1.0,47.0,370.28094,371.16977,371.18628,371.18637,372.18655,372.1867,1.0,0.9832152,373.16992,375.95248,3.7663434,375.9532,377.31982
