onset	duration	trial_type	response_time	Endowment	Endowment_pmod	Decision	Decision_pmod	Offer_pmod
4.501103	2	cue_nonsocial	n/a	16	-8	n/a	n/a	n/a
4.501103	2	cue_nonsocial_low	n/a	16	-11	n/a	n/a	n/a
17.096735	2	cue_social	n/a	32	5	n/a	n/a	n/a
17.096735	2	cue_social_high	n/a	32	8	n/a	n/a	n/a
23.817663	2	cue_nonsocial	n/a	32	8	n/a	n/a	n/a
23.817663	2	cue_nonsocial_high	n/a	32	5	n/a	n/a	n/a
31.467777	2	cue_nonsocial	n/a	16	-8	n/a	n/a	n/a
31.467777	2	cue_nonsocial_low	n/a	16	-11	n/a	n/a	n/a
39.201138	2	cue_social	n/a	32	5	n/a	n/a	n/a
39.201138	2	cue_social_high	n/a	32	8	n/a	n/a	n/a
46.767790	2	cue_nonsocial	n/a	32	8	n/a	n/a	n/a
46.767790	2	cue_nonsocial_high	n/a	32	5	n/a	n/a	n/a
54.417664	2	cue_nonsocial	n/a	16	-8	n/a	n/a	n/a
54.417664	2	cue_nonsocial_low	n/a	16	-11	n/a	n/a	n/a
61.344837	2	cue_social	n/a	32	5	n/a	n/a	n/a
61.344837	2	cue_social_high	n/a	32	8	n/a	n/a	n/a
68.884410	2	cue_nonsocial	n/a	16	-8	n/a	n/a	n/a
68.884410	2	cue_nonsocial_low	n/a	16	-11	n/a	n/a	n/a
75.817150	2	cue_social	n/a	32	5	n/a	n/a	n/a
75.817150	2	cue_social_high	n/a	32	8	n/a	n/a	n/a
82.570640	2	cue_social	n/a	16	-11	n/a	n/a	n/a
82.570640	2	cue_social_low	n/a	16	-8	n/a	n/a	n/a
89.486610	2	cue_social	n/a	32	5	n/a	n/a	n/a
89.486610	2	cue_social_high	n/a	32	8	n/a	n/a	n/a
96.309970	2	cue_social	n/a	16	-11	n/a	n/a	n/a
96.309970	2	cue_social_low	n/a	16	-8	n/a	n/a	n/a
103.050930	2	cue_nonsocial	n/a	16	-8	n/a	n/a	n/a
103.050930	2	cue_nonsocial_low	n/a	16	-11	n/a	n/a	n/a
110.700860	2	cue_nonsocial	n/a	32	8	n/a	n/a	n/a
110.700860	2	cue_nonsocial_high	n/a	32	5	n/a	n/a	n/a
118.435326	2	cue_social	n/a	16	-11	n/a	n/a	n/a
118.435326	2	cue_social_low	n/a	16	-8	n/a	n/a	n/a
127.697510	2	cue_social	n/a	16	-11	n/a	n/a	n/a
127.697510	2	cue_social_low	n/a	16	-8	n/a	n/a	n/a
135.250720	2	cue_nonsocial	n/a	16	-8	n/a	n/a	n/a
135.250720	2	cue_nonsocial_low	n/a	16	-11	n/a	n/a	n/a
142.178050	2	cue_social	n/a	16	-11	n/a	n/a	n/a
142.178050	2	cue_social_low	n/a	16	-8	n/a	n/a	n/a
151.350700	2	cue_nonsocial	n/a	16	-8	n/a	n/a	n/a
151.350700	2	cue_nonsocial_low	n/a	16	-11	n/a	n/a	n/a
158.185060	2	cue_nonsocial	n/a	32	8	n/a	n/a	n/a
158.185060	2	cue_nonsocial_high	n/a	32	5	n/a	n/a	n/a
165.017300	2	cue_nonsocial	n/a	16	-8	n/a	n/a	n/a
165.017300	2	cue_nonsocial_low	n/a	16	-11	n/a	n/a	n/a
174.267640	2	cue_nonsocial	n/a	32	8	n/a	n/a	n/a
174.267640	2	cue_nonsocial_high	n/a	32	5	n/a	n/a	n/a
181.185990	2	cue_social	n/a	32	5	n/a	n/a	n/a
181.185990	2	cue_social_high	n/a	32	8	n/a	n/a	n/a
190.351090	2	cue_nonsocial	n/a	32	8	n/a	n/a	n/a
190.351090	2	cue_nonsocial_high	n/a	32	5	n/a	n/a	n/a
197.183800	2	cue_nonsocial	n/a	32	8	n/a	n/a	n/a
197.183800	2	cue_nonsocial_high	n/a	32	5	n/a	n/a	n/a
204.102050	2	cue_social	n/a	32	5	n/a	n/a	n/a
204.102050	2	cue_social_high	n/a	32	8	n/a	n/a	n/a
210.918980	2	cue_social	n/a	32	5	n/a	n/a	n/a
210.918980	2	cue_social_high	n/a	32	8	n/a	n/a	n/a
220.216740	2	cue_social	n/a	32	5	n/a	n/a	n/a
220.216740	2	cue_social_high	n/a	32	8	n/a	n/a	n/a
227.820390	2	cue_social	n/a	32	5	n/a	n/a	n/a
227.820390	2	cue_social_high	n/a	32	8	n/a	n/a	n/a
235.501370	2	cue_social	n/a	16	-11	n/a	n/a	n/a
235.501370	2	cue_social_low	n/a	16	-8	n/a	n/a	n/a
246.345550	2	cue_social	n/a	32	5	n/a	n/a	n/a
246.345550	2	cue_social_high	n/a	32	8	n/a	n/a	n/a
257.233830	2	cue_social	n/a	16	-11	n/a	n/a	n/a
257.233830	2	cue_social_low	n/a	16	-8	n/a	n/a	n/a
263.966500	2	cue_nonsocial	n/a	32	8	n/a	n/a	n/a
263.966500	2	cue_nonsocial_high	n/a	32	5	n/a	n/a	n/a
270.800020	2	cue_nonsocial	n/a	16	-8	n/a	n/a	n/a
270.800020	2	cue_nonsocial_low	n/a	16	-11	n/a	n/a	n/a
277.633540	2	cue_nonsocial	n/a	32	8	n/a	n/a	n/a
277.633540	2	cue_nonsocial_high	n/a	32	5	n/a	n/a	n/a
285.354920	2	cue_social	n/a	32	5	n/a	n/a	n/a
285.354920	2	cue_social_high	n/a	32	8	n/a	n/a	n/a
294.516780	2	cue_nonsocial	n/a	32	8	n/a	n/a	n/a
294.516780	2	cue_nonsocial_high	n/a	32	5	n/a	n/a	n/a
302.166700	2	cue_nonsocial	n/a	32	8	n/a	n/a	n/a
302.166700	2	cue_nonsocial_high	n/a	32	5	n/a	n/a	n/a
309.093750	2	cue_social	n/a	32	5	n/a	n/a	n/a
309.093750	2	cue_social_high	n/a	32	8	n/a	n/a	n/a
319.953670	2	cue_social	n/a	32	5	n/a	n/a	n/a
319.953670	2	cue_social_high	n/a	32	8	n/a	n/a	n/a
329.204350	2	cue_social	n/a	16	-11	n/a	n/a	n/a
329.204350	2	cue_social_low	n/a	16	-8	n/a	n/a	n/a
335.949860	2	cue_nonsocial	n/a	16	-8	n/a	n/a	n/a
335.949860	2	cue_nonsocial_low	n/a	16	-11	n/a	n/a	n/a
342.864230	2	cue_social	n/a	32	5	n/a	n/a	n/a
342.864230	2	cue_social_high	n/a	32	8	n/a	n/a	n/a
349.616670	2	cue_nonsocial	n/a	32	8	n/a	n/a	n/a
349.616670	2	cue_nonsocial_high	n/a	32	5	n/a	n/a	n/a
356.449800	2	cue_nonsocial	n/a	16	-8	n/a	n/a	n/a
356.449800	2	cue_nonsocial_low	n/a	16	-11	n/a	n/a	n/a
363.393980	2	cue_social	n/a	32	5	n/a	n/a	n/a
363.393980	2	cue_social_high	n/a	32	8	n/a	n/a	n/a
370.933070	2	cue_nonsocial	n/a	16	-8	n/a	n/a	n/a
370.933070	2	cue_nonsocial_low	n/a	16	-11	n/a	n/a	n/a
6.506943	0.800071	dec_nonsocial_choice	0.800071	16.000000	n/a	2	-1.067708e-01	-1.067708e-01
6.506943	0.800071	dec_choice	0.800071	16.000000	n/a	2	-1.080729e-01	-1.080729e-01
6.506943	0.800071	dec_nonsocial_accept	0.800071	16.000000	n/a	2	-1.206395e-01	-1.206395e-01
6.506943	0.800071	dec_accept	0.800071	16.000000	n/a	2	-1.205357e-01	-1.205357e-01
6.506943	0.800071	dec_nonsocial_accept_low	0.800071	16.000000	n/a	2	-1.207386e-01	-1.207386e-01
18.990393	0.933360	dec_social_choice	0.933360	32.000000	n/a	8	1.822917e-02	1.822917e-02
18.990393	0.933360	dec_choice	0.933360	32.000000	n/a	8	1.953125e-02	1.953125e-02
18.990393	0.933360	dec_social_accept	0.933360	32.000000	n/a	8	4.360465e-03	4.360465e-03
18.990393	0.933360	dec_accept	0.933360	32.000000	n/a	8	4.261364e-03	4.261364e-03
18.990393	0.933360	dec_social_high	0.933360	32.000000	n/a	8	1.953125e-02	1.953125e-02
18.990393	0.933360	dec_social_accept_high	0.933360	32.000000	n/a	8	1.953125e-02	1.953125e-02
25.824165	1.365700	dec_nonsocial_choice	1.365700	32.000000	n/a	3	-1.380208e-01	-1.380208e-01
25.824165	1.365700	dec_choice	1.365700	32.000000	n/a	3	-1.393229e-01	-1.393229e-01
25.824165	1.365700	dec_nonsocial_accept	1.365700	32.000000	n/a	3	-1.518895e-01	-1.518895e-01
25.824165	1.365700	dec_accept	1.365700	32.000000	n/a	3	-1.517857e-01	-1.517857e-01
25.824165	1.365700	dec_nonsocial_accept_low	1.365700	32.000000	n/a	3	-1.519886e-01	-1.519886e-01
33.473507	1.333765	dec_nonsocial_choice	1.333765	16.000000	n/a	2	-1.067708e-01	-1.067708e-01
33.473507	1.333765	dec_choice	1.333765	16.000000	n/a	2	-1.080729e-01	-1.080729e-01
33.473507	1.333765	dec_nonsocial_accept	1.333765	16.000000	n/a	2	-1.206395e-01	-1.206395e-01
33.473507	1.333765	dec_accept	1.333765	16.000000	n/a	2	-1.205357e-01	-1.205357e-01
33.473507	1.333765	dec_nonsocial_accept_low	1.333765	16.000000	n/a	2	-1.207386e-01	-1.207386e-01
41.123680	1.049956	dec_social_choice	1.049956	32.000000	n/a	2	-1.692708e-01	-1.692708e-01
41.123680	1.049956	dec_choice	1.049956	32.000000	n/a	2	-1.679688e-01	-1.679688e-01
41.123680	1.049956	dec_social_accept	1.049956	32.000000	n/a	2	-1.831395e-01	-1.831395e-01
41.123680	1.049956	dec_accept	1.049956	32.000000	n/a	2	-1.832386e-01	-1.832386e-01
41.123680	1.049956	dec_social_accept_low	1.049956	32.000000	n/a	2	-1.679688e-01	-1.679688e-01
48.774742	1.348880	dec_nonsocial_choice	1.348880	32.000000	n/a	2	-1.692708e-01	-1.692708e-01
48.774742	1.348880	dec_choice	1.348880	32.000000	n/a	2	-1.705729e-01	-1.705729e-01
48.774742	1.348880	dec_nonsocial_accept	1.348880	32.000000	n/a	2	-1.831395e-01	-1.831395e-01
48.774742	1.348880	dec_accept	1.348880	32.000000	n/a	2	-1.830357e-01	-1.830357e-01
48.774742	1.348880	dec_nonsocial_accept_low	1.348880	32.000000	n/a	2	-1.832386e-01	-1.832386e-01
56.424603	1.865442	dec_nonsocial_choice	1.865442	16.000000	n/a	8	2.682292e-01	2.682292e-01
56.424603	1.865442	dec_choice	1.865442	16.000000	n/a	8	2.669271e-01	2.669271e-01
56.424603	1.865442	dec_nonsocial_accept	1.865442	16.000000	n/a	8	2.543605e-01	2.543605e-01
56.424603	1.865442	dec_accept	1.865442	16.000000	n/a	8	2.544643e-01	2.544643e-01
56.424603	1.865442	dec_nonsocial_high	1.865442	16.000000	n/a	8	2.669271e-01	2.669271e-01
56.424603	1.865442	dec_nonsocial_accept_high	1.865442	16.000000	n/a	8	2.544643e-01	2.544643e-01
63.256870	0.800014	dec_social_choice	0.800014	32.000000	n/a	3	-1.380208e-01	-1.380208e-01
63.256870	0.800014	dec_choice	0.800014	32.000000	n/a	3	-1.367188e-01	-1.367188e-01
63.256870	0.800014	dec_social_accept	0.800014	32.000000	n/a	3	-1.518895e-01	-1.518895e-01
63.256870	0.800014	dec_accept	0.800014	32.000000	n/a	3	-1.519886e-01	-1.519886e-01
63.256870	0.800014	dec_social_accept_low	0.800014	32.000000	n/a	3	-1.367188e-01	-1.367188e-01
70.891040	0.932647	dec_nonsocial_choice	0.932647	16.000000	n/a	1	-1.692708e-01	-1.692708e-01
70.891040	0.932647	dec_choice	0.932647	16.000000	n/a	1	-1.705729e-01	-1.705729e-01
70.891040	0.932647	dec_nonsocial_accept	0.932647	16.000000	n/a	1	-1.831395e-01	-1.831395e-01
70.891040	0.932647	dec_accept	0.932647	16.000000	n/a	1	-1.830357e-01	-1.830357e-01
70.891040	0.932647	dec_nonsocial_low	0.932647	16.000000	n/a	1	-1.705729e-01	-1.705729e-01
70.891040	0.932647	dec_nonsocial_accept_low	0.932647	16.000000	n/a	1	-1.830357e-01	-1.830357e-01
77.723660	0.616259	dec_social_choice	0.616259	32.000000	n/a	8	1.822917e-02	1.822917e-02
77.723660	0.616259	dec_choice	0.616259	32.000000	n/a	8	1.953125e-02	1.953125e-02
77.723660	0.616259	dec_social_accept	0.616259	32.000000	n/a	8	4.360465e-03	4.360465e-03
77.723660	0.616259	dec_accept	0.616259	32.000000	n/a	8	4.261364e-03	4.261364e-03
77.723660	0.616259	dec_social_high	0.616259	32.000000	n/a	8	1.953125e-02	1.953125e-02
77.723660	0.616259	dec_social_accept_high	0.616259	32.000000	n/a	8	1.953125e-02	1.953125e-02
84.556960	0.933270	dec_social_choice	0.933270	16.000000	n/a	2	-1.067708e-01	-1.067708e-01
84.556960	0.933270	dec_choice	0.933270	16.000000	n/a	2	-1.054688e-01	-1.054688e-01
84.556960	0.933270	dec_social_accept	0.933270	16.000000	n/a	2	-1.206395e-01	-1.206395e-01
84.556960	0.933270	dec_accept	0.933270	16.000000	n/a	2	-1.207386e-01	-1.207386e-01
84.556960	0.933270	dec_social_accept_low	0.933270	16.000000	n/a	2	-1.054688e-01	-1.054688e-01
91.389420	0.816793	dec_social_choice	0.816793	32.000000	n/a	8	1.822917e-02	1.822917e-02
91.389420	0.816793	dec_choice	0.816793	32.000000	n/a	8	1.953125e-02	1.953125e-02
91.389420	0.816793	dec_social_accept	0.816793	32.000000	n/a	8	4.360465e-03	4.360465e-03
91.389420	0.816793	dec_accept	0.816793	32.000000	n/a	8	4.261364e-03	4.261364e-03
91.389420	0.816793	dec_social_accept_high	0.816793	32.000000	n/a	8	1.953125e-02	1.953125e-02
98.224590	1.365541	dec_social_choice	1.365541	16.000000	n/a	8	2.682292e-01	2.682292e-01
98.224590	1.365541	dec_choice	1.365541	16.000000	n/a	8	2.695312e-01	2.695312e-01
98.224590	1.365541	dec_social_accept	1.365541	16.000000	n/a	8	2.543605e-01	2.543605e-01
98.224590	1.365541	dec_accept	1.365541	16.000000	n/a	8	2.542614e-01	2.542614e-01
98.224590	1.365541	dec_social_high	1.365541	16.000000	n/a	8	2.695312e-01	2.695312e-01
98.224590	1.365541	dec_social_accept_high	1.365541	16.000000	n/a	8	2.695312e-01	2.695312e-01
105.057850	0.848987	dec_nonsocial_choice	0.848987	16.000000	n/a	1	-1.692708e-01	-1.692708e-01
105.057850	0.848987	dec_choice	0.848987	16.000000	n/a	1	-1.705729e-01	-1.705729e-01
105.057850	0.848987	dec_nonsocial_accept	0.848987	16.000000	n/a	1	-1.831395e-01	-1.831395e-01
105.057850	0.848987	dec_accept	0.848987	16.000000	n/a	1	-1.830357e-01	-1.830357e-01
105.057850	0.848987	dec_nonsocial_low	0.848987	16.000000	n/a	1	-1.705729e-01	-1.705729e-01
105.057850	0.848987	dec_nonsocial_accept_low	0.848987	16.000000	n/a	1	-1.830357e-01	-1.830357e-01
112.706660	0.683836	dec_nonsocial_choice	0.683836	32.000000	n/a	8	1.822917e-02	1.822917e-02
112.706660	0.683836	dec_choice	0.683836	32.000000	n/a	8	1.692708e-02	1.692708e-02
112.706660	0.683836	dec_nonsocial_accept	0.683836	32.000000	n/a	8	4.360465e-03	4.360465e-03
112.706660	0.683836	dec_accept	0.683836	32.000000	n/a	8	4.464286e-03	4.464286e-03
112.706660	0.683836	dec_nonsocial_high	0.683836	32.000000	n/a	8	1.692708e-02	1.692708e-02
112.706660	0.683836	dec_nonsocial_accept_high	0.683836	32.000000	n/a	8	4.464286e-03	4.464286e-03
120.355820	1.001060	dec_social_choice	1.001060	16.000000	n/a	2	-1.067708e-01	-1.067708e-01
120.355820	1.001060	dec_choice	1.001060	16.000000	n/a	2	-1.054688e-01	-1.054688e-01
120.355820	1.001060	dec_social_accept	1.001060	16.000000	n/a	2	-1.206395e-01	-1.206395e-01
120.355820	1.001060	dec_accept	1.001060	16.000000	n/a	2	-1.207386e-01	-1.207386e-01
120.355820	1.001060	dec_social_accept_low	1.001060	16.000000	n/a	2	-1.054688e-01	-1.054688e-01
129.607710	0.665381	dec_social_choice	0.665381	16.000000	n/a	8	2.682292e-01	2.682292e-01
129.607710	0.665381	dec_choice	0.665381	16.000000	n/a	8	2.695312e-01	2.695312e-01
129.607710	0.665381	dec_social_accept	0.665381	16.000000	n/a	8	2.543605e-01	2.543605e-01
129.607710	0.665381	dec_accept	0.665381	16.000000	n/a	8	2.542614e-01	2.542614e-01
129.607710	0.665381	dec_social_high	0.665381	16.000000	n/a	8	2.695312e-01	2.695312e-01
129.607710	0.665381	dec_social_accept_high	0.665381	16.000000	n/a	8	2.695312e-01	2.695312e-01
137.257740	0.782392	dec_nonsocial_choice	0.782392	16.000000	n/a	2	-1.067708e-01	-1.067708e-01
137.257740	0.782392	dec_choice	0.782392	16.000000	n/a	2	-1.080729e-01	-1.080729e-01
137.257740	0.782392	dec_nonsocial_accept	0.782392	16.000000	n/a	2	-1.206395e-01	-1.206395e-01
137.257740	0.782392	dec_accept	0.782392	16.000000	n/a	2	-1.205357e-01	-1.205357e-01
137.257740	0.782392	dec_nonsocial_accept_low	0.782392	16.000000	n/a	2	-1.207386e-01	-1.207386e-01
144.089970	0.683429	dec_social_choice	0.683429	16.000000	n/a	2	-1.067708e-01	-1.067708e-01
144.089970	0.683429	dec_choice	0.683429	16.000000	n/a	2	-1.054688e-01	-1.054688e-01
144.089970	0.683429	dec_social_accept	0.683429	16.000000	n/a	2	-1.206395e-01	-1.206395e-01
144.089970	0.683429	dec_accept	0.683429	16.000000	n/a	2	-1.207386e-01	-1.207386e-01
144.089970	0.683429	dec_social_accept_low	0.683429	16.000000	n/a	2	-1.054688e-01	-1.054688e-01
153.356800	1.000291	dec_nonsocial_choice	1.000291	16.000000	n/a	4	1.822917e-02	1.822917e-02
153.356800	1.000291	dec_choice	1.000291	16.000000	n/a	4	1.692708e-02	1.692708e-02
153.356800	1.000291	dec_nonsocial_accept	1.000291	16.000000	n/a	4	4.360465e-03	4.360465e-03
153.356800	1.000291	dec_accept	1.000291	16.000000	n/a	4	4.464286e-03	4.464286e-03
153.356800	1.000291	dec_nonsocial_accept_high	1.000291	16.000000	n/a	4	4.261364e-03	4.261364e-03
160.190700	0.882355	dec_nonsocial_choice	0.882355	32.000000	n/a	16	2.682292e-01	2.682292e-01
160.190700	0.882355	dec_choice	0.882355	32.000000	n/a	16	2.669271e-01	2.669271e-01
160.190700	0.882355	dec_nonsocial_accept	0.882355	32.000000	n/a	16	2.543605e-01	2.543605e-01
160.190700	0.882355	dec_accept	0.882355	32.000000	n/a	16	2.544643e-01	2.544643e-01
160.190700	0.882355	dec_nonsocial_accept_high	0.882355	32.000000	n/a	16	2.542614e-01	2.542614e-01
167.023650	0.749610	dec_nonsocial_choice	0.749610	16.000000	n/a	2	-1.067708e-01	-1.067708e-01
167.023650	0.749610	dec_choice	0.749610	16.000000	n/a	2	-1.080729e-01	-1.080729e-01
167.023650	0.749610	dec_nonsocial_accept	0.749610	16.000000	n/a	2	-1.206395e-01	-1.206395e-01
167.023650	0.749610	dec_accept	0.749610	16.000000	n/a	2	-1.205357e-01	-1.205357e-01
167.023650	0.749610	dec_nonsocial_accept_low	0.749610	16.000000	n/a	2	-1.207386e-01	-1.207386e-01
176.273530	0.582997	dec_nonsocial_choice	0.582997	32.000000	n/a	16	2.682292e-01	2.682292e-01
176.273530	0.582997	dec_choice	0.582997	32.000000	n/a	16	2.669271e-01	2.669271e-01
176.273530	0.582997	dec_nonsocial_accept	0.582997	32.000000	n/a	16	2.543605e-01	2.543605e-01
176.273530	0.582997	dec_accept	0.582997	32.000000	n/a	16	2.544643e-01	2.544643e-01
176.273530	0.582997	dec_nonsocial_accept_high	0.582997	32.000000	n/a	16	2.542614e-01	2.542614e-01
183.106570	0.750277	dec_social_choice	0.750277	32.000000	n/a	8	1.822917e-02	1.822917e-02
183.106570	0.750277	dec_choice	0.750277	32.000000	n/a	8	1.953125e-02	1.953125e-02
183.106570	0.750277	dec_social_accept	0.750277	32.000000	n/a	8	4.360465e-03	4.360465e-03
183.106570	0.750277	dec_accept	0.750277	32.000000	n/a	8	4.261364e-03	4.261364e-03
183.106570	0.750277	dec_social_accept_high	0.750277	32.000000	n/a	8	1.953125e-02	1.953125e-02
192.355730	0.951299	dec_nonsocial_choice	0.951299	32.000000	n/a	8	1.822917e-02	1.822917e-02
192.355730	0.951299	dec_choice	0.951299	32.000000	n/a	8	1.692708e-02	1.692708e-02
192.355730	0.951299	dec_nonsocial_accept	0.951299	32.000000	n/a	8	4.360465e-03	4.360465e-03
192.355730	0.951299	dec_accept	0.951299	32.000000	n/a	8	4.464286e-03	4.464286e-03
192.355730	0.951299	dec_nonsocial_high	0.951299	32.000000	n/a	8	1.692708e-02	1.692708e-02
192.355730	0.951299	dec_nonsocial_accept_high	0.951299	32.000000	n/a	8	4.464286e-03	4.464286e-03
199.189880	0.750069	dec_nonsocial_choice	0.750069	32.000000	n/a	16	2.682292e-01	2.682292e-01
199.189880	0.750069	dec_choice	0.750069	32.000000	n/a	16	2.669271e-01	2.669271e-01
199.189880	0.750069	dec_nonsocial_accept	0.750069	32.000000	n/a	16	2.543605e-01	2.543605e-01
199.189880	0.750069	dec_accept	0.750069	32.000000	n/a	16	2.544643e-01	2.544643e-01
199.189880	0.750069	dec_nonsocial_accept_high	0.750069	32.000000	n/a	16	2.542614e-01	2.542614e-01
206.022280	0.701164	dec_social_choice	0.701164	32.000000	n/a	16	2.682292e-01	2.682292e-01
206.022280	0.701164	dec_choice	0.701164	32.000000	n/a	16	2.695312e-01	2.695312e-01
206.022280	0.701164	dec_social_accept	0.701164	32.000000	n/a	16	2.543605e-01	2.543605e-01
206.022280	0.701164	dec_accept	0.701164	32.000000	n/a	16	2.542614e-01	2.542614e-01
206.022280	0.701164	dec_social_accept_high	0.701164	32.000000	n/a	16	2.695312e-01	2.695312e-01
212.856500	0.850249	dec_social_choice	0.850249	32.000000	n/a	8	1.822917e-02	1.822917e-02
212.856500	0.850249	dec_choice	0.850249	32.000000	n/a	8	1.953125e-02	1.953125e-02
212.856500	0.850249	dec_social_accept	0.850249	32.000000	n/a	8	4.360465e-03	4.360465e-03
212.856500	0.850249	dec_accept	0.850249	32.000000	n/a	8	4.261364e-03	4.261364e-03
212.856500	0.850249	dec_social_high	0.850249	32.000000	n/a	8	1.953125e-02	1.953125e-02
212.856500	0.850249	dec_social_accept_high	0.850249	32.000000	n/a	8	1.953125e-02	1.953125e-02
222.106110	0.983940	dec_social_choice	0.983940	32.000000	n/a	3	-1.380208e-01	-1.380208e-01
222.106110	0.983940	dec_choice	0.983940	32.000000	n/a	3	-1.367188e-01	-1.367188e-01
222.106110	0.983940	dec_social_accept	0.983940	32.000000	n/a	3	-1.518895e-01	-1.518895e-01
222.106110	0.983940	dec_accept	0.983940	32.000000	n/a	3	-1.519886e-01	-1.519886e-01
222.106110	0.983940	dec_social_accept_low	0.983940	32.000000	n/a	3	-1.367188e-01	-1.367188e-01
229.755630	0.933963	dec_social_choice	0.933963	32.000000	n/a	3	-1.380208e-01	-1.380208e-01
229.755630	0.933963	dec_choice	0.933963	32.000000	n/a	3	-1.367188e-01	-1.367188e-01
229.755630	0.933963	dec_social_accept	0.933963	32.000000	n/a	3	-1.518895e-01	-1.518895e-01
229.755630	0.933963	dec_accept	0.933963	32.000000	n/a	3	-1.519886e-01	-1.519886e-01
229.755630	0.933963	dec_social_accept_low	0.933963	32.000000	n/a	3	-1.367188e-01	-1.367188e-01
237.406500	0.783196	dec_social_choice	0.783196	16.000000	n/a	4	1.822917e-02	1.822917e-02
237.406500	0.783196	dec_choice	0.783196	16.000000	n/a	4	1.953125e-02	1.953125e-02
237.406500	0.783196	dec_social_accept	0.783196	16.000000	n/a	4	4.360465e-03	4.360465e-03
237.406500	0.783196	dec_accept	0.783196	16.000000	n/a	4	4.261364e-03	4.261364e-03
237.406500	0.783196	dec_social_accept_high	0.783196	16.000000	n/a	4	1.953125e-02	1.953125e-02
248.271960	1.150797	dec_social_choice	1.150797	32.000000	n/a	16	2.682292e-01	2.682292e-01
248.271960	1.150797	dec_choice	1.150797	32.000000	n/a	16	2.695312e-01	2.695312e-01
248.271960	1.150797	dec_social_accept	1.150797	32.000000	n/a	16	2.543605e-01	2.543605e-01
248.271960	1.150797	dec_accept	1.150797	32.000000	n/a	16	2.542614e-01	2.542614e-01
248.271960	1.150797	dec_social_accept_high	1.150797	32.000000	n/a	16	2.695312e-01	2.695312e-01
259.138640	0.534323	dec_social_choice	0.534323	16.000000	n/a	8	2.682292e-01	2.682292e-01
259.138640	0.534323	dec_choice	0.534323	16.000000	n/a	8	2.695312e-01	2.695312e-01
259.138640	0.534323	dec_social_accept	0.534323	16.000000	n/a	8	2.543605e-01	2.543605e-01
259.138640	0.534323	dec_accept	0.534323	16.000000	n/a	8	2.542614e-01	2.542614e-01
259.138640	0.534323	dec_social_accept_high	0.534323	16.000000	n/a	8	2.695312e-01	2.695312e-01
265.973540	0.599620	dec_nonsocial_choice	0.599620	32.000000	n/a	16	2.682292e-01	2.682292e-01
265.973540	0.599620	dec_choice	0.599620	32.000000	n/a	16	2.669271e-01	2.669271e-01
265.973540	0.599620	dec_nonsocial_accept	0.599620	32.000000	n/a	16	2.543605e-01	2.543605e-01
265.973540	0.599620	dec_accept	0.599620	32.000000	n/a	16	2.544643e-01	2.544643e-01
265.973540	0.599620	dec_nonsocial_accept_high	0.599620	32.000000	n/a	16	2.542614e-01	2.542614e-01
272.806640	1.215954	dec_nonsocial_choice	1.215954	16.000000	n/a	1	-1.692708e-01	-1.692708e-01
272.806640	1.215954	dec_choice	1.215954	16.000000	n/a	1	-1.705729e-01	-1.705729e-01
272.806640	1.215954	dec_nonsocial_accept	1.215954	16.000000	n/a	1	-1.831395e-01	-1.831395e-01
272.806640	1.215954	dec_accept	1.215954	16.000000	n/a	1	-1.830357e-01	-1.830357e-01
272.806640	1.215954	dec_nonsocial_accept_low	1.215954	16.000000	n/a	1	-1.832386e-01	-1.832386e-01
279.639530	1.450153	dec_nonsocial_choice	1.450153	32.000000	n/a	2	-1.692708e-01	-1.692708e-01
279.639530	1.450153	dec_choice	1.450153	32.000000	n/a	2	-1.705729e-01	-1.705729e-01
279.639530	1.450153	dec_nonsocial_accept	1.450153	32.000000	n/a	2	-1.831395e-01	-1.831395e-01
279.639530	1.450153	dec_accept	1.450153	32.000000	n/a	2	-1.830357e-01	-1.830357e-01
279.639530	1.450153	dec_nonsocial_low	1.450153	32.000000	n/a	2	-1.705729e-01	-1.705729e-01
279.639530	1.450153	dec_nonsocial_accept_low	1.450153	32.000000	n/a	2	-1.830357e-01	-1.830357e-01
287.272520	1.000235	dec_social_choice	1.000235	32.000000	n/a	2	-1.692708e-01	-1.692708e-01
287.272520	1.000235	dec_choice	1.000235	32.000000	n/a	2	-1.679688e-01	-1.679688e-01
287.272520	1.000235	dec_social_accept	1.000235	32.000000	n/a	2	-1.831395e-01	-1.831395e-01
287.272520	1.000235	dec_accept	1.000235	32.000000	n/a	2	-1.832386e-01	-1.832386e-01
287.272520	1.000235	dec_social_low	1.000235	32.000000	n/a	2	-1.679688e-01	-1.679688e-01
287.272520	1.000235	dec_social_accept_low	1.000235	32.000000	n/a	2	-1.679688e-01	-1.679688e-01
296.523440	0.832658	dec_nonsocial_choice	0.832658	32.000000	n/a	16	2.682292e-01	2.682292e-01
296.523440	0.832658	dec_choice	0.832658	32.000000	n/a	16	2.669271e-01	2.669271e-01
296.523440	0.832658	dec_nonsocial_accept	0.832658	32.000000	n/a	16	2.543605e-01	2.543605e-01
296.523440	0.832658	dec_accept	0.832658	32.000000	n/a	16	2.544643e-01	2.544643e-01
296.523440	0.832658	dec_nonsocial_accept_high	0.832658	32.000000	n/a	16	2.542614e-01	2.542614e-01
304.172550	0.900174	dec_nonsocial_choice	0.900174	32.000000	n/a	8	1.822917e-02	1.822917e-02
304.172550	0.900174	dec_choice	0.900174	32.000000	n/a	8	1.692708e-02	1.692708e-02
304.172550	0.900174	dec_nonsocial_accept	0.900174	32.000000	n/a	8	4.360465e-03	4.360465e-03
304.172550	0.900174	dec_accept	0.900174	32.000000	n/a	8	4.464286e-03	4.464286e-03
304.172550	0.900174	dec_nonsocial_accept_high	0.900174	32.000000	n/a	8	4.261364e-03	4.261364e-03
311.006740	1.315439	dec_social_choice	1.315439	32.000000	n/a	2	-1.692708e-01	-1.692708e-01
311.006740	1.315439	dec_choice	1.315439	32.000000	n/a	2	-1.679688e-01	-1.679688e-01
311.006740	1.315439	dec_social_accept	1.315439	32.000000	n/a	2	-1.831395e-01	-1.831395e-01
311.006740	1.315439	dec_accept	1.315439	32.000000	n/a	2	-1.832386e-01	-1.832386e-01
311.006740	1.315439	dec_social_low	1.315439	32.000000	n/a	2	-1.679688e-01	-1.679688e-01
311.006740	1.315439	dec_social_accept_low	1.315439	32.000000	n/a	2	-1.679688e-01	-1.679688e-01
321.872100	1.650672	dec_social_choice	1.650672	32.000000	n/a	2	-1.692708e-01	-1.692708e-01
321.872100	1.650672	dec_choice	1.650672	32.000000	n/a	2	-1.679688e-01	-1.679688e-01
321.872100	1.650672	dec_social_accept	1.650672	32.000000	n/a	2	-1.831395e-01	-1.831395e-01
321.872100	1.650672	dec_accept	1.650672	32.000000	n/a	2	-1.832386e-01	-1.832386e-01
321.872100	1.650672	dec_social_accept_low	1.650672	32.000000	n/a	2	-1.679688e-01	-1.679688e-01
331.122470	1.283511	dec_social_choice	1.283511	16.000000	n/a	0	0	-2.317708e-01
331.122470	1.283511	dec_choice	1.283511	16.000000	n/a	0	0	-2.304688e-01
331.122470	1.283511	dec_social_reject	1.283511	16.000000	n/a	0	0	-5.000000e-02
331.122470	1.283511	dec_reject	1.283511	16.000000	n/a	0	0	0
331.122470	1.283511	dec_social_reject_low	1.283511	16.000000	n/a	1	-1.679688e-01	-2.304688e-01
337.955400	1.401507	dec_nonsocial_choice	1.401507	16.000000	n/a	0	0	-2.317708e-01
337.955400	1.401507	dec_choice	1.401507	16.000000	n/a	0	0	-2.330729e-01
337.955400	1.401507	dec_nonsocial_reject	1.401507	16.000000	n/a	0	0	1.250000e-02
337.955400	1.401507	dec_reject	1.401507	16.000000	n/a	0	0	-2.083333e-02
337.955400	1.401507	dec_nonsocial_reject_low	1.401507	16.000000	n/a	2	6.250000e-02	-6.250000e-02
344.789340	0.982719	dec_social_choice	0.982719	32.000000	n/a	16	2.682292e-01	2.682292e-01
344.789340	0.982719	dec_choice	0.982719	32.000000	n/a	16	2.695312e-01	2.695312e-01
344.789340	0.982719	dec_social_accept	0.982719	32.000000	n/a	16	2.543605e-01	2.543605e-01
344.789340	0.982719	dec_accept	0.982719	32.000000	n/a	16	2.542614e-01	2.542614e-01
344.789340	0.982719	dec_social_high	0.982719	32.000000	n/a	16	2.695312e-01	2.695312e-01
344.789340	0.982719	dec_social_accept_high	0.982719	32.000000	n/a	16	2.695312e-01	2.695312e-01
351.623320	1.249228	dec_nonsocial_choice	1.249228	32.000000	n/a	8	1.822917e-02	1.822917e-02
351.623320	1.249228	dec_choice	1.249228	32.000000	n/a	8	1.692708e-02	1.692708e-02
351.623320	1.249228	dec_nonsocial_accept	1.249228	32.000000	n/a	8	4.360465e-03	4.360465e-03
351.623320	1.249228	dec_accept	1.249228	32.000000	n/a	8	4.464286e-03	4.464286e-03
351.623320	1.249228	dec_nonsocial_high	1.249228	32.000000	n/a	8	1.692708e-02	1.692708e-02
351.623320	1.249228	dec_nonsocial_accept_high	1.249228	32.000000	n/a	8	4.464286e-03	4.464286e-03
358.455470	1.516638	dec_nonsocial_choice	1.516638	16.000000	n/a	0	0	-2.317708e-01
358.455470	1.516638	dec_choice	1.516638	16.000000	n/a	0	0	-2.330729e-01
358.455470	1.516638	dec_nonsocial_reject	1.516638	16.000000	n/a	0	0	-5.000000e-02
358.455470	1.516638	dec_reject	1.516638	16.000000	n/a	0	0	-8.333333e-02
358.455470	1.516638	dec_nonsocial_low	1.516638	16.000000	n/a	0	-2.330729e-01	-2.330729e-01
358.455470	1.516638	dec_nonsocial_reject_low	1.516638	16.000000	n/a	1	-8.333333e-02	-1.458333e-01
365.289200	1.249890	dec_social_choice	1.249890	32.000000	n/a	0	0	-2.317708e-01
365.289200	1.249890	dec_choice	1.249890	32.000000	n/a	0	0	-2.304688e-01
365.289200	1.249890	dec_social_reject	1.249890	32.000000	n/a	0	0	-5.000000e-02
365.289200	1.249890	dec_reject	1.249890	32.000000	n/a	0	0	0
365.289200	1.249890	dec_social_reject_low	1.249890	32.000000	n/a	2	-1.679688e-01	-2.304688e-01
372.938800	1.333555	dec_nonsocial_choice	1.333555	16.000000	n/a	0	0	-2.317708e-01
372.938800	1.333555	dec_choice	1.333555	16.000000	n/a	0	0	-2.330729e-01
372.938800	1.333555	dec_nonsocial_reject	1.333555	16.000000	n/a	0	0	1.375000e-01
372.938800	1.333555	dec_reject	1.333555	16.000000	n/a	0	0	1.041667e-01
372.938800	1.333555	dec_nonsocial_low	1.333555	16.000000	n/a	0	-2.330729e-01	-2.330729e-01
372.938800	1.333555	dec_nonsocial_reject_low	1.333555	16.000000	n/a	4	1.041667e-01	-1.458333e-01
