onset	duration	trial_type	response_time	Endowment	Endowment_pmod	Decision	Decision_pmod	Offer_pmod
4.500551	2	cue_nonsocial	n/a	32	5	n/a	n/a	n/a
4.500551	2	cue_nonsocial_high	n/a	32	8	n/a	n/a	n/a
15.367041	2	cue_nonsocial	n/a	32	5	n/a	n/a	n/a
15.367041	2	cue_nonsocial_high	n/a	32	8	n/a	n/a	n/a
22.200724	2	cue_nonsocial	n/a	32	5	n/a	n/a	n/a
22.200724	2	cue_nonsocial_high	n/a	32	8	n/a	n/a	n/a
31.557426	2	cue_social	n/a	16	-8	n/a	n/a	n/a
31.557426	2	cue_social_low	n/a	16	-11	n/a	n/a	n/a
38.355957	2	cue_social	n/a	16	-8	n/a	n/a	n/a
38.355957	2	cue_social_low	n/a	16	-11	n/a	n/a	n/a
45.116673	2	cue_nonsocial	n/a	32	5	n/a	n/a	n/a
45.116673	2	cue_nonsocial_high	n/a	32	8	n/a	n/a	n/a
55.983170	2	cue_nonsocial	n/a	16	-11	n/a	n/a	n/a
55.983170	2	cue_nonsocial_low	n/a	16	-8	n/a	n/a	n/a
65.233440	2	cue_nonsocial	n/a	16	-11	n/a	n/a	n/a
65.233440	2	cue_nonsocial_low	n/a	16	-8	n/a	n/a	n/a
72.949300	2	cue_social	n/a	32	8	n/a	n/a	n/a
72.949300	2	cue_social_high	n/a	32	5	n/a	n/a	n/a
79.834790	2	cue_social	n/a	16	-8	n/a	n/a	n/a
79.834790	2	cue_social_low	n/a	16	-11	n/a	n/a	n/a
86.576935	2	cue_social	n/a	32	8	n/a	n/a	n/a
86.576935	2	cue_social_high	n/a	32	5	n/a	n/a	n/a
94.257890	2	cue_social	n/a	16	-8	n/a	n/a	n/a
94.257890	2	cue_social_low	n/a	16	-11	n/a	n/a	n/a
101.102760	2	cue_social	n/a	16	-8	n/a	n/a	n/a
101.102760	2	cue_social_low	n/a	16	-11	n/a	n/a	n/a
110.282620	2	cue_nonsocial	n/a	16	-11	n/a	n/a	n/a
110.282620	2	cue_nonsocial_low	n/a	16	-8	n/a	n/a	n/a
117.116650	2	cue_nonsocial	n/a	32	5	n/a	n/a	n/a
117.116650	2	cue_nonsocial_high	n/a	32	8	n/a	n/a	n/a
124.025340	2	cue_social	n/a	32	8	n/a	n/a	n/a
124.025340	2	cue_social_high	n/a	32	5	n/a	n/a	n/a
130.783190	2	cue_nonsocial	n/a	32	5	n/a	n/a	n/a
130.783190	2	cue_nonsocial_high	n/a	32	8	n/a	n/a	n/a
138.433120	2	cue_nonsocial	n/a	32	5	n/a	n/a	n/a
138.433120	2	cue_nonsocial_high	n/a	32	8	n/a	n/a	n/a
145.332670	2	cue_social	n/a	32	8	n/a	n/a	n/a
145.332670	2	cue_social_high	n/a	32	5	n/a	n/a	n/a
157.749880	2	cue_nonsocial	n/a	16	-11	n/a	n/a	n/a
157.749880	2	cue_nonsocial_low	n/a	16	-8	n/a	n/a	n/a
165.462000	2	cue_social	n/a	32	8	n/a	n/a	n/a
165.462000	2	cue_social_high	n/a	32	5	n/a	n/a	n/a
172.309920	2	cue_social	n/a	32	8	n/a	n/a	n/a
172.309920	2	cue_social_high	n/a	32	5	n/a	n/a	n/a
179.956000	2	cue_social	n/a	16	-8	n/a	n/a	n/a
179.956000	2	cue_social_low	n/a	16	-11	n/a	n/a	n/a
190.828110	2	cue_social	n/a	32	8	n/a	n/a	n/a
190.828110	2	cue_social_high	n/a	32	5	n/a	n/a	n/a
200.073820	2	cue_social	n/a	32	8	n/a	n/a	n/a
200.073820	2	cue_social_high	n/a	32	5	n/a	n/a	n/a
207.633150	2	cue_nonsocial	n/a	32	5	n/a	n/a	n/a
207.633150	2	cue_nonsocial_high	n/a	32	8	n/a	n/a	n/a
215.351090	2	cue_social	n/a	16	-8	n/a	n/a	n/a
215.351090	2	cue_social_low	n/a	16	-11	n/a	n/a	n/a
222.998460	2	cue_social	n/a	32	8	n/a	n/a	n/a
222.998460	2	cue_social_high	n/a	32	5	n/a	n/a	n/a
230.666500	2	cue_social	n/a	16	-8	n/a	n/a	n/a
230.666500	2	cue_social_low	n/a	16	-11	n/a	n/a	n/a
239.942430	2	cue_social	n/a	16	-8	n/a	n/a	n/a
239.942430	2	cue_social_low	n/a	16	-11	n/a	n/a	n/a
246.761180	2	cue_social	n/a	32	8	n/a	n/a	n/a
246.761180	2	cue_social_high	n/a	32	5	n/a	n/a	n/a
254.317460	2	cue_nonsocial	n/a	16	-11	n/a	n/a	n/a
254.317460	2	cue_nonsocial_low	n/a	16	-8	n/a	n/a	n/a
261.149480	2	cue_nonsocial	n/a	32	5	n/a	n/a	n/a
261.149480	2	cue_nonsocial_high	n/a	32	8	n/a	n/a	n/a
267.982940	2	cue_nonsocial	n/a	32	5	n/a	n/a	n/a
267.982940	2	cue_nonsocial_high	n/a	32	8	n/a	n/a	n/a
274.867600	2	cue_social	n/a	32	8	n/a	n/a	n/a
274.867600	2	cue_social_high	n/a	32	5	n/a	n/a	n/a
281.649380	2	cue_nonsocial	n/a	32	5	n/a	n/a	n/a
281.649380	2	cue_nonsocial_high	n/a	32	8	n/a	n/a	n/a
290.898620	2	cue_nonsocial	n/a	32	5	n/a	n/a	n/a
290.898620	2	cue_nonsocial_high	n/a	32	8	n/a	n/a	n/a
297.813840	2	cue_social	n/a	16	-8	n/a	n/a	n/a
297.813840	2	cue_social_low	n/a	16	-11	n/a	n/a	n/a
305.489840	2	cue_social	n/a	16	-8	n/a	n/a	n/a
305.489840	2	cue_social_low	n/a	16	-11	n/a	n/a	n/a
312.232400	2	cue_nonsocial	n/a	16	-11	n/a	n/a	n/a
312.232400	2	cue_nonsocial_low	n/a	16	-8	n/a	n/a	n/a
319.161800	2	cue_social	n/a	32	8	n/a	n/a	n/a
319.161800	2	cue_social_high	n/a	32	5	n/a	n/a	n/a
326.715700	2	cue_nonsocial	n/a	32	5	n/a	n/a	n/a
326.715700	2	cue_nonsocial_high	n/a	32	8	n/a	n/a	n/a
334.365840	2	cue_nonsocial	n/a	16	-11	n/a	n/a	n/a
334.365840	2	cue_nonsocial_low	n/a	16	-8	n/a	n/a	n/a
341.315700	2	cue_social	n/a	16	-8	n/a	n/a	n/a
341.315700	2	cue_social_low	n/a	16	-11	n/a	n/a	n/a
348.032440	2	cue_nonsocial	n/a	32	5	n/a	n/a	n/a
348.032440	2	cue_nonsocial_high	n/a	32	8	n/a	n/a	n/a
354.865750	2	cue_nonsocial	n/a	32	5	n/a	n/a	n/a
354.865750	2	cue_nonsocial_high	n/a	32	8	n/a	n/a	n/a
361.699130	2	cue_nonsocial	n/a	32	5	n/a	n/a	n/a
361.699130	2	cue_nonsocial_high	n/a	32	8	n/a	n/a	n/a
370.948730	2	cue_nonsocial	n/a	16	-11	n/a	n/a	n/a
370.948730	2	cue_nonsocial_low	n/a	16	-8	n/a	n/a	n/a
6.506499	1.166107	dec_nonsocial_choice	1.166107	32.000000	n/a	0	0	-2.285156e-01
6.506499	1.166107	dec_choice	1.166107	32.000000	n/a	0	0	-2.278646e-01
6.506499	1.166107	dec_nonsocial_reject	1.166107	32.000000	n/a	0	0	-6.944444e-03
6.506499	1.166107	dec_reject	1.166107	32.000000	n/a	0	0	-2.083333e-02
6.506499	1.166107	dec_nonsocial_low	1.166107	32.000000	n/a	0	-2.278646e-01	-2.278646e-01
6.506499	1.166107	dec_nonsocial_reject_low	1.166107	32.000000	n/a	3	-2.083333e-02	-1.145833e-01
17.373463	0.915927	dec_nonsocial_choice	0.915927	32.000000	n/a	0	0	-2.285156e-01
17.373463	0.915927	dec_choice	0.915927	32.000000	n/a	0	0	-2.278646e-01
17.373463	0.915927	dec_nonsocial_reject	0.915927	32.000000	n/a	0	0	-3.819444e-02
17.373463	0.915927	dec_reject	0.915927	32.000000	n/a	0	0	-5.208333e-02
17.373463	0.915927	dec_nonsocial_low	0.915927	32.000000	n/a	0	-2.278646e-01	-2.278646e-01
17.373463	0.915927	dec_nonsocial_reject_low	0.915927	32.000000	n/a	2	-5.208333e-02	-1.145833e-01
24.206420	1.200310	dec_nonsocial_choice	1.200310	32.000000	n/a	16	2.714844e-01	2.714844e-01
24.206420	1.200310	dec_choice	1.200310	32.000000	n/a	16	2.721354e-01	2.721354e-01
24.206420	1.200310	dec_nonsocial_accept	1.200310	32.000000	n/a	16	1.071429e-01	1.071429e-01
24.206420	1.200310	dec_accept	1.200310	32.000000	n/a	16	8.333333e-02	8.333333e-02
24.206420	1.200310	dec_nonsocial_high	1.200310	32.000000	n/a	16	2.721354e-01	2.721354e-01
24.206420	1.200310	dec_nonsocial_accept_high	1.200310	32.000000	n/a	16	8.333333e-02	8.333333e-02
33.456650	1.099540	dec_social_choice	1.099540	16.000000	n/a	0	0	-2.285156e-01
33.456650	1.099540	dec_choice	1.099540	16.000000	n/a	0	0	-2.291667e-01
33.456650	1.099540	dec_social_reject	1.099540	16.000000	n/a	0	0	-3.819444e-02
33.456650	1.099540	dec_reject	1.099540	16.000000	n/a	0	0	-2.083333e-02
33.456650	1.099540	dec_social_reject_low	1.099540	16.000000	n/a	1	-1.666667e-01	-2.291667e-01
40.288773	1.033653	dec_social_choice	1.033653	16.000000	n/a	8	2.714844e-01	2.714844e-01
40.288773	1.033653	dec_choice	1.033653	16.000000	n/a	8	2.708333e-01	2.708333e-01
40.288773	1.033653	dec_social_accept	1.033653	16.000000	n/a	8	1.071429e-01	1.071429e-01
40.288773	1.033653	dec_accept	1.033653	16.000000	n/a	8	1.250000e-01	1.250000e-01
40.288773	1.033653	dec_social_accept_high	1.033653	16.000000	n/a	8	2.708333e-01	2.708333e-01
47.123830	0.932151	dec_nonsocial_choice	0.932151	32.000000	n/a	0	0	-2.285156e-01
47.123830	0.932151	dec_choice	0.932151	32.000000	n/a	0	0	-2.278646e-01
47.123830	0.932151	dec_nonsocial_reject	0.932151	32.000000	n/a	0	0	-3.819444e-02
47.123830	0.932151	dec_reject	0.932151	32.000000	n/a	0	0	-5.208333e-02
47.123830	0.932151	dec_nonsocial_low	0.932151	32.000000	n/a	0	-2.278646e-01	-2.278646e-01
47.123830	0.932151	dec_nonsocial_reject_low	0.932151	32.000000	n/a	2	-5.208333e-02	-1.145833e-01
57.989735	1.149819	dec_nonsocial_choice	1.149819	16.000000	n/a	8	2.714844e-01	2.714844e-01
57.989735	1.149819	dec_choice	1.149819	16.000000	n/a	8	2.721354e-01	2.721354e-01
57.989735	1.149819	dec_nonsocial_accept	1.149819	16.000000	n/a	8	1.071429e-01	1.071429e-01
57.989735	1.149819	dec_accept	1.149819	16.000000	n/a	8	8.333333e-02	8.333333e-02
57.989735	1.149819	dec_nonsocial_high	1.149819	16.000000	n/a	8	2.721354e-01	2.721354e-01
57.989735	1.149819	dec_nonsocial_accept_high	1.149819	16.000000	n/a	8	8.333333e-02	8.333333e-02
67.239240	1.216529	dec_nonsocial_choice	1.216529	16.000000	n/a	0	0	-2.285156e-01
67.239240	1.216529	dec_choice	1.216529	16.000000	n/a	0	0	-2.278646e-01
67.239240	1.216529	dec_nonsocial_reject	1.216529	16.000000	n/a	0	0	1.493056e-01
67.239240	1.216529	dec_reject	1.216529	16.000000	n/a	0	0	1.354167e-01
67.239240	1.216529	dec_nonsocial_low	1.216529	16.000000	n/a	0	-2.278646e-01	-2.278646e-01
67.239240	1.216529	dec_nonsocial_reject_low	1.216529	16.000000	n/a	4	1.354167e-01	-1.145833e-01
74.890030	0.965691	dec_social_choice	0.965691	32.000000	n/a	8	2.148438e-02	2.148438e-02
74.890030	0.965691	dec_choice	0.965691	32.000000	n/a	8	2.083333e-02	2.083333e-02
74.890030	0.965691	dec_social_accept	0.965691	32.000000	n/a	8	-1.428571e-01	-1.428571e-01
74.890030	0.965691	dec_accept	0.965691	32.000000	n/a	8	-1.250000e-01	-1.250000e-01
74.890030	0.965691	dec_social_high	0.965691	32.000000	n/a	8	2.083333e-02	2.083333e-02
74.890030	0.965691	dec_social_accept_high	0.965691	32.000000	n/a	8	2.083333e-02	2.083333e-02
81.723860	1.115018	dec_social_choice	1.115018	16.000000	n/a	0	0	-2.285156e-01
81.723860	1.115018	dec_choice	1.115018	16.000000	n/a	0	0	-2.291667e-01
81.723860	1.115018	dec_social_reject	1.115018	16.000000	n/a	0	0	-3.819444e-02
81.723860	1.115018	dec_reject	1.115018	16.000000	n/a	0	0	-2.083333e-02
81.723860	1.115018	dec_social_low	1.115018	16.000000	n/a	0	-2.291667e-01	-2.291667e-01
81.723860	1.115018	dec_social_reject_low	1.115018	16.000000	n/a	1	-1.666667e-01	-2.291667e-01
88.555290	1.267597	dec_social_choice	1.267597	32.000000	n/a	0	0	-2.285156e-01
88.555290	1.267597	dec_choice	1.267597	32.000000	n/a	0	0	-2.291667e-01
88.555290	1.267597	dec_social_reject	1.267597	32.000000	n/a	0	0	-6.944444e-03
88.555290	1.267597	dec_reject	1.267597	32.000000	n/a	0	0	1.041667e-02
88.555290	1.267597	dec_social_reject_low	1.267597	32.000000	n/a	3	-1.354167e-01	-2.291667e-01
96.205620	1.700234	dec_social_choice	1.700234	16.000000	n/a	4	2.148438e-02	2.148438e-02
96.205620	1.700234	dec_choice	1.700234	16.000000	n/a	4	2.083333e-02	2.083333e-02
96.205620	1.700234	dec_social_accept	1.700234	16.000000	n/a	4	-1.428571e-01	-1.428571e-01
96.205620	1.700234	dec_accept	1.700234	16.000000	n/a	4	-1.250000e-01	-1.250000e-01
96.205620	1.700234	dec_social_high	1.700234	16.000000	n/a	4	2.083333e-02	2.083333e-02
96.205620	1.700234	dec_social_accept_high	1.700234	16.000000	n/a	4	2.083333e-02	2.083333e-02
103.040450	1.699031	dec_social_choice	1.699031	16.000000	n/a	4	2.148438e-02	2.148438e-02
103.040450	1.699031	dec_choice	1.699031	16.000000	n/a	4	2.083333e-02	2.083333e-02
103.040450	1.699031	dec_social_accept	1.699031	16.000000	n/a	4	-1.428571e-01	-1.428571e-01
103.040450	1.699031	dec_accept	1.699031	16.000000	n/a	4	-1.250000e-01	-1.250000e-01
103.040450	1.699031	dec_social_accept_high	1.699031	16.000000	n/a	4	2.083333e-02	2.083333e-02
112.288994	1.084103	dec_nonsocial_choice	1.084103	16.000000	n/a	8	2.714844e-01	2.714844e-01
112.288994	1.084103	dec_choice	1.084103	16.000000	n/a	8	2.721354e-01	2.721354e-01
112.288994	1.084103	dec_nonsocial_accept	1.084103	16.000000	n/a	8	1.071429e-01	1.071429e-01
112.288994	1.084103	dec_accept	1.084103	16.000000	n/a	8	8.333333e-02	8.333333e-02
112.288994	1.084103	dec_nonsocial_high	1.084103	16.000000	n/a	8	2.721354e-01	2.721354e-01
112.288994	1.084103	dec_nonsocial_accept_high	1.084103	16.000000	n/a	8	8.333333e-02	8.333333e-02
119.122950	1.199677	dec_nonsocial_choice	1.199677	32.000000	n/a	8	2.148438e-02	2.148438e-02
119.122950	1.199677	dec_choice	1.199677	32.000000	n/a	8	2.213542e-02	2.213542e-02
119.122950	1.199677	dec_nonsocial_accept	1.199677	32.000000	n/a	8	-1.428571e-01	-1.428571e-01
119.122950	1.199677	dec_accept	1.199677	32.000000	n/a	8	-1.666667e-01	-1.666667e-01
119.122950	1.199677	dec_nonsocial_accept_high	1.199677	32.000000	n/a	8	-1.250000e-01	-1.250000e-01
125.955734	1.316958	dec_social_choice	1.316958	32.000000	n/a	8	2.148438e-02	2.148438e-02
125.955734	1.316958	dec_choice	1.316958	32.000000	n/a	8	2.083333e-02	2.083333e-02
125.955734	1.316958	dec_social_accept	1.316958	32.000000	n/a	8	-1.428571e-01	-1.428571e-01
125.955734	1.316958	dec_accept	1.316958	32.000000	n/a	8	-1.250000e-01	-1.250000e-01
125.955734	1.316958	dec_social_high	1.316958	32.000000	n/a	8	2.083333e-02	2.083333e-02
125.955734	1.316958	dec_social_accept_high	1.316958	32.000000	n/a	8	2.083333e-02	2.083333e-02
132.788930	1.133624	dec_nonsocial_choice	1.133624	32.000000	n/a	0	0	-2.285156e-01
132.788930	1.133624	dec_choice	1.133624	32.000000	n/a	0	0	-2.278646e-01
132.788930	1.133624	dec_nonsocial_reject	1.133624	32.000000	n/a	0	0	-6.944444e-03
132.788930	1.133624	dec_reject	1.133624	32.000000	n/a	0	0	-2.083333e-02
132.788930	1.133624	dec_nonsocial_low	1.133624	32.000000	n/a	0	-2.278646e-01	-2.278646e-01
132.788930	1.133624	dec_nonsocial_reject_low	1.133624	32.000000	n/a	3	-2.083333e-02	-1.145833e-01
140.438740	1.466732	dec_nonsocial_choice	1.466732	32.000000	n/a	8	2.148438e-02	2.148438e-02
140.438740	1.466732	dec_choice	1.466732	32.000000	n/a	8	2.213542e-02	2.213542e-02
140.438740	1.466732	dec_nonsocial_accept	1.466732	32.000000	n/a	8	-1.428571e-01	-1.428571e-01
140.438740	1.466732	dec_accept	1.466732	32.000000	n/a	8	-1.666667e-01	-1.666667e-01
140.438740	1.466732	dec_nonsocial_accept_high	1.466732	32.000000	n/a	8	-1.250000e-01	-1.250000e-01
147.273510	1.415326	dec_social_choice	1.415326	32.000000	n/a	8	2.148438e-02	2.148438e-02
147.273510	1.415326	dec_choice	1.415326	32.000000	n/a	8	2.083333e-02	2.083333e-02
147.273510	1.415326	dec_social_accept	1.415326	32.000000	n/a	8	-1.428571e-01	-1.428571e-01
147.273510	1.415326	dec_accept	1.415326	32.000000	n/a	8	-1.250000e-01	-1.250000e-01
147.273510	1.415326	dec_social_accept_high	1.415326	32.000000	n/a	8	2.083333e-02	2.083333e-02
159.754960	1.050925	dec_nonsocial_choice	1.050925	16.000000	n/a	0	0	-2.285156e-01
159.754960	1.050925	dec_choice	1.050925	16.000000	n/a	0	0	-2.278646e-01
159.754960	1.050925	dec_nonsocial_reject	1.050925	16.000000	n/a	0	0	-3.819444e-02
159.754960	1.050925	dec_reject	1.050925	16.000000	n/a	0	0	-5.208333e-02
159.754960	1.050925	dec_nonsocial_low	1.050925	16.000000	n/a	0	-2.278646e-01	-2.278646e-01
159.754960	1.050925	dec_nonsocial_reject_low	1.050925	16.000000	n/a	1	-5.208333e-02	-1.145833e-01
167.405670	1.250251	dec_social_choice	1.250251	32.000000	n/a	0	0	-2.285156e-01
167.405670	1.250251	dec_choice	1.250251	32.000000	n/a	0	0	-2.291667e-01
167.405670	1.250251	dec_social_reject	1.250251	32.000000	n/a	0	0	-6.944444e-03
167.405670	1.250251	dec_reject	1.250251	32.000000	n/a	0	0	1.041667e-02
167.405670	1.250251	dec_social_low	1.250251	32.000000	n/a	0	-2.291667e-01	-2.291667e-01
167.405670	1.250251	dec_social_reject_low	1.250251	32.000000	n/a	3	-1.354167e-01	-2.291667e-01
174.239090	1.316578	dec_social_choice	1.316578	32.000000	n/a	0	0	-2.285156e-01
174.239090	1.316578	dec_choice	1.316578	32.000000	n/a	0	0	-2.291667e-01
174.239090	1.316578	dec_social_reject	1.316578	32.000000	n/a	0	0	-3.819444e-02
174.239090	1.316578	dec_reject	1.316578	32.000000	n/a	0	0	-2.083333e-02
174.239090	1.316578	dec_social_low	1.316578	32.000000	n/a	0	-2.291667e-01	-2.291667e-01
174.239090	1.316578	dec_social_reject_low	1.316578	32.000000	n/a	2	-1.666667e-01	-2.291667e-01
181.888780	1.516909	dec_social_choice	1.516909	16.000000	n/a	0	0	-2.285156e-01
181.888780	1.516909	dec_choice	1.516909	16.000000	n/a	0	0	-2.291667e-01
181.888780	1.516909	dec_social_reject	1.516909	16.000000	n/a	0	0	-3.819444e-02
181.888780	1.516909	dec_reject	1.516909	16.000000	n/a	0	0	-2.083333e-02
181.888780	1.516909	dec_social_reject_low	1.516909	16.000000	n/a	1	-1.666667e-01	-2.291667e-01
192.755550	1.717185	dec_social_choice	1.717185	32.000000	n/a	8	2.148438e-02	2.148438e-02
192.755550	1.717185	dec_choice	1.717185	32.000000	n/a	8	2.083333e-02	2.083333e-02
192.755550	1.717185	dec_social_accept	1.717185	32.000000	n/a	8	-1.428571e-01	-1.428571e-01
192.755550	1.717185	dec_accept	1.717185	32.000000	n/a	8	-1.250000e-01	-1.250000e-01
192.755550	1.717185	dec_social_high	1.717185	32.000000	n/a	8	2.083333e-02	2.083333e-02
192.755550	1.717185	dec_social_accept_high	1.717185	32.000000	n/a	8	2.083333e-02	2.083333e-02
202.004710	1.117626	dec_social_choice	1.117626	32.000000	n/a	0	0	-2.285156e-01
202.004710	1.117626	dec_choice	1.117626	32.000000	n/a	0	0	-2.291667e-01
202.004710	1.117626	dec_social_reject	1.117626	32.000000	n/a	0	0	-6.944444e-03
202.004710	1.117626	dec_reject	1.117626	32.000000	n/a	0	0	1.041667e-02
202.004710	1.117626	dec_social_reject_low	1.117626	32.000000	n/a	3	-1.354167e-01	-2.291667e-01
209.638840	0.750112	dec_nonsocial_choice	0.750112	32.000000	n/a	0	0	-2.285156e-01
209.638840	0.750112	dec_choice	0.750112	32.000000	n/a	0	0	-2.278646e-01
209.638840	0.750112	dec_nonsocial_reject	0.750112	32.000000	n/a	0	0	-3.819444e-02
209.638840	0.750112	dec_reject	0.750112	32.000000	n/a	0	0	-5.208333e-02
209.638840	0.750112	dec_nonsocial_reject_low	0.750112	32.000000	n/a	2	-2.083333e-02	-8.333333e-02
217.289000	1.699906	dec_social_choice	1.699906	16.000000	n/a	8	2.714844e-01	2.714844e-01
217.289000	1.699906	dec_choice	1.699906	16.000000	n/a	8	2.708333e-01	2.708333e-01
217.289000	1.699906	dec_social_accept	1.699906	16.000000	n/a	8	1.071429e-01	1.071429e-01
217.289000	1.699906	dec_accept	1.699906	16.000000	n/a	8	1.250000e-01	1.250000e-01
217.289000	1.699906	dec_social_accept_high	1.699906	16.000000	n/a	8	2.708333e-01	2.708333e-01
224.938500	1.066893	dec_social_choice	1.066893	32.000000	n/a	0	0	-2.285156e-01
224.938500	1.066893	dec_choice	1.066893	32.000000	n/a	0	0	-2.291667e-01
224.938500	1.066893	dec_social_reject	1.066893	32.000000	n/a	0	0	-3.819444e-02
224.938500	1.066893	dec_reject	1.066893	32.000000	n/a	0	0	-2.083333e-02
224.938500	1.066893	dec_social_low	1.066893	32.000000	n/a	0	-2.291667e-01	-2.291667e-01
224.938500	1.066893	dec_social_reject_low	1.066893	32.000000	n/a	2	-1.666667e-01	-2.291667e-01
232.588580	1.150081	dec_social_choice	1.150081	16.000000	n/a	0	0	-2.285156e-01
232.588580	1.150081	dec_choice	1.150081	16.000000	n/a	0	0	-2.291667e-01
232.588580	1.150081	dec_social_reject	1.150081	16.000000	n/a	0	0	2.430556e-02
232.588580	1.150081	dec_reject	1.150081	16.000000	n/a	0	0	4.166667e-02
232.588580	1.150081	dec_social_low	1.150081	16.000000	n/a	0	-2.291667e-01	-2.291667e-01
232.588580	1.150081	dec_social_reject_low	1.150081	16.000000	n/a	2	-1.041667e-01	-2.291667e-01
241.838560	1.100412	dec_social_choice	1.100412	16.000000	n/a	8	2.714844e-01	2.714844e-01
241.838560	1.100412	dec_choice	1.100412	16.000000	n/a	8	2.708333e-01	2.708333e-01
241.838560	1.100412	dec_social_accept	1.100412	16.000000	n/a	8	1.071429e-01	1.071429e-01
241.838560	1.100412	dec_accept	1.100412	16.000000	n/a	8	1.250000e-01	1.250000e-01
241.838560	1.100412	dec_social_accept_high	1.100412	16.000000	n/a	8	2.708333e-01	2.708333e-01
248.671890	0.950285	dec_social_choice	0.950285	32.000000	n/a	16	2.714844e-01	2.714844e-01
248.671890	0.950285	dec_choice	0.950285	32.000000	n/a	16	2.708333e-01	2.708333e-01
248.671890	0.950285	dec_social_accept	0.950285	32.000000	n/a	16	1.071429e-01	1.071429e-01
248.671890	0.950285	dec_accept	0.950285	32.000000	n/a	16	1.250000e-01	1.250000e-01
248.671890	0.950285	dec_social_accept_high	0.950285	32.000000	n/a	16	2.708333e-01	2.708333e-01
256.322630	0.965756	dec_nonsocial_choice	0.965756	16.000000	n/a	0	0	-2.285156e-01
256.322630	0.965756	dec_choice	0.965756	16.000000	n/a	0	0	-2.278646e-01
256.322630	0.965756	dec_nonsocial_reject	0.965756	16.000000	n/a	0	0	2.430556e-02
256.322630	0.965756	dec_reject	0.965756	16.000000	n/a	0	0	1.041667e-02
256.322630	0.965756	dec_nonsocial_low	0.965756	16.000000	n/a	0	-2.278646e-01	-2.278646e-01
256.322630	0.965756	dec_nonsocial_reject_low	0.965756	16.000000	n/a	2	1.041667e-02	-1.145833e-01
263.156430	1.215327	dec_nonsocial_choice	1.215327	32.000000	n/a	16	2.714844e-01	2.714844e-01
263.156430	1.215327	dec_choice	1.215327	32.000000	n/a	16	2.721354e-01	2.721354e-01
263.156430	1.215327	dec_nonsocial_accept	1.215327	32.000000	n/a	16	1.071429e-01	1.071429e-01
263.156430	1.215327	dec_accept	1.215327	32.000000	n/a	16	8.333333e-02	8.333333e-02
263.156430	1.215327	dec_nonsocial_high	1.215327	32.000000	n/a	16	2.721354e-01	2.721354e-01
263.156430	1.215327	dec_nonsocial_accept_high	1.215327	32.000000	n/a	16	8.333333e-02	8.333333e-02
269.988160	1.016799	dec_nonsocial_choice	1.016799	32.000000	n/a	0	0	-2.285156e-01
269.988160	1.016799	dec_choice	1.016799	32.000000	n/a	0	0	-2.278646e-01
269.988160	1.016799	dec_nonsocial_reject	1.016799	32.000000	n/a	0	0	-6.944444e-03
269.988160	1.016799	dec_reject	1.016799	32.000000	n/a	0	0	-2.083333e-02
269.988160	1.016799	dec_nonsocial_reject_low	1.016799	32.000000	n/a	3	1.041667e-02	-8.333333e-02
276.822360	1.032946	dec_social_choice	1.032946	32.000000	n/a	0	0	-2.285156e-01
276.822360	1.032946	dec_choice	1.032946	32.000000	n/a	0	0	-2.291667e-01
276.822360	1.032946	dec_social_reject	1.032946	32.000000	n/a	0	0	-6.944444e-03
276.822360	1.032946	dec_reject	1.032946	32.000000	n/a	0	0	1.041667e-02
276.822360	1.032946	dec_social_reject_low	1.032946	32.000000	n/a	3	-1.354167e-01	-2.291667e-01
283.655520	0.916033	dec_nonsocial_choice	0.916033	32.000000	n/a	0	0	-2.285156e-01
283.655520	0.916033	dec_choice	0.916033	32.000000	n/a	0	0	-2.278646e-01
283.655520	0.916033	dec_nonsocial_reject	0.916033	32.000000	n/a	0	0	-6.944444e-03
283.655520	0.916033	dec_reject	0.916033	32.000000	n/a	0	0	-2.083333e-02
283.655520	0.916033	dec_nonsocial_reject_low	0.916033	32.000000	n/a	3	1.041667e-02	-8.333333e-02
292.921600	1.416763	dec_nonsocial_choice	1.416763	32.000000	n/a	8	2.148438e-02	2.148438e-02
292.921600	1.416763	dec_choice	1.416763	32.000000	n/a	8	2.213542e-02	2.213542e-02
292.921600	1.416763	dec_nonsocial_accept	1.416763	32.000000	n/a	8	-1.428571e-01	-1.428571e-01
292.921600	1.416763	dec_accept	1.416763	32.000000	n/a	8	-1.666667e-01	-1.666667e-01
292.921600	1.416763	dec_nonsocial_accept_high	1.416763	32.000000	n/a	8	-1.250000e-01	-1.250000e-01
299.755300	1.283102	dec_social_choice	1.283102	16.000000	n/a	8	2.714844e-01	2.714844e-01
299.755300	1.283102	dec_choice	1.283102	16.000000	n/a	8	2.708333e-01	2.708333e-01
299.755300	1.283102	dec_social_accept	1.283102	16.000000	n/a	8	1.071429e-01	1.071429e-01
299.755300	1.283102	dec_accept	1.283102	16.000000	n/a	8	1.250000e-01	1.250000e-01
299.755300	1.283102	dec_social_high	1.283102	16.000000	n/a	8	2.708333e-01	2.708333e-01
299.755300	1.283102	dec_social_accept_high	1.283102	16.000000	n/a	8	2.708333e-01	2.708333e-01
307.405850	0.865632	dec_social_choice	0.865632	16.000000	n/a	0	0	-2.285156e-01
307.405850	0.865632	dec_choice	0.865632	16.000000	n/a	0	0	-2.291667e-01
307.405850	0.865632	dec_social_reject	0.865632	16.000000	n/a	0	0	2.430556e-02
307.405850	0.865632	dec_reject	0.865632	16.000000	n/a	0	0	4.166667e-02
307.405850	0.865632	dec_social_reject_low	0.865632	16.000000	n/a	2	-1.041667e-01	-2.291667e-01
314.239040	1.249491	dec_nonsocial_choice	1.249491	16.000000	n/a	0	0	-2.285156e-01
314.239040	1.249491	dec_choice	1.249491	16.000000	n/a	0	0	-2.278646e-01
314.239040	1.249491	dec_nonsocial_reject	1.249491	16.000000	n/a	0	0	1.493056e-01
314.239040	1.249491	dec_reject	1.249491	16.000000	n/a	0	0	1.354167e-01
314.239040	1.249491	dec_nonsocial_low	1.249491	16.000000	n/a	0	-2.278646e-01	-2.278646e-01
314.239040	1.249491	dec_nonsocial_reject_low	1.249491	16.000000	n/a	4	1.354167e-01	-1.145833e-01
321.071380	0.866947	dec_social_choice	0.866947	32.000000	n/a	16	2.714844e-01	2.714844e-01
321.071380	0.866947	dec_choice	0.866947	32.000000	n/a	16	2.708333e-01	2.708333e-01
321.071380	0.866947	dec_social_accept	0.866947	32.000000	n/a	16	1.071429e-01	1.071429e-01
321.071380	0.866947	dec_accept	0.866947	32.000000	n/a	16	1.250000e-01	1.250000e-01
321.071380	0.866947	dec_social_high	0.866947	32.000000	n/a	16	2.708333e-01	2.708333e-01
321.071380	0.866947	dec_social_accept_high	0.866947	32.000000	n/a	16	2.708333e-01	2.708333e-01
328.721800	0.916239	dec_nonsocial_choice	0.916239	32.000000	n/a	0	0	-2.285156e-01
328.721800	0.916239	dec_choice	0.916239	32.000000	n/a	0	0	-2.278646e-01
328.721800	0.916239	dec_nonsocial_reject	0.916239	32.000000	n/a	0	0	-3.819444e-02
328.721800	0.916239	dec_reject	0.916239	32.000000	n/a	0	0	-5.208333e-02
328.721800	0.916239	dec_nonsocial_reject_low	0.916239	32.000000	n/a	2	-2.083333e-02	-8.333333e-02
336.371860	0.999878	dec_nonsocial_choice	0.999878	16.000000	n/a	0	0	-2.285156e-01
336.371860	0.999878	dec_choice	0.999878	16.000000	n/a	0	0	-2.278646e-01
336.371860	0.999878	dec_nonsocial_reject	0.999878	16.000000	n/a	0	0	-3.819444e-02
336.371860	0.999878	dec_reject	0.999878	16.000000	n/a	0	0	-5.208333e-02
336.371860	0.999878	dec_nonsocial_low	0.999878	16.000000	n/a	0	-2.278646e-01	-2.278646e-01
336.371860	0.999878	dec_nonsocial_reject_low	0.999878	16.000000	n/a	1	-5.208333e-02	-1.145833e-01
343.205140	1.283111	dec_social_choice	1.283111	16.000000	n/a	0	0	-2.285156e-01
343.205140	1.283111	dec_choice	1.283111	16.000000	n/a	0	0	-2.291667e-01
343.205140	1.283111	dec_social_reject	1.283111	16.000000	n/a	0	0	-3.819444e-02
343.205140	1.283111	dec_reject	1.283111	16.000000	n/a	0	0	-2.083333e-02
343.205140	1.283111	dec_social_reject_low	1.283111	16.000000	n/a	1	-1.666667e-01	-2.291667e-01
350.038420	1.716220	dec_nonsocial_choice	1.716220	32.000000	n/a	0	0	-2.285156e-01
350.038420	1.716220	dec_choice	1.716220	32.000000	n/a	0	0	-2.278646e-01
350.038420	1.716220	dec_nonsocial_reject	1.716220	32.000000	n/a	0	0	-6.944444e-03
350.038420	1.716220	dec_reject	1.716220	32.000000	n/a	0	0	-2.083333e-02
350.038420	1.716220	dec_nonsocial_low	1.716220	32.000000	n/a	0	-2.278646e-01	-2.278646e-01
350.038420	1.716220	dec_nonsocial_reject_low	1.716220	32.000000	n/a	3	-2.083333e-02	-1.145833e-01
356.871830	0.983220	dec_nonsocial_choice	0.983220	32.000000	n/a	16	2.714844e-01	2.714844e-01
356.871830	0.983220	dec_choice	0.983220	32.000000	n/a	16	2.721354e-01	2.721354e-01
356.871830	0.983220	dec_nonsocial_accept	0.983220	32.000000	n/a	16	1.071429e-01	1.071429e-01
356.871830	0.983220	dec_accept	0.983220	32.000000	n/a	16	8.333333e-02	8.333333e-02
356.871830	0.983220	dec_nonsocial_accept_high	0.983220	32.000000	n/a	16	1.250000e-01	1.250000e-01
363.704700	1.150339	dec_nonsocial_choice	1.150339	32.000000	n/a	16	2.714844e-01	2.714844e-01
363.704700	1.150339	dec_choice	1.150339	32.000000	n/a	16	2.721354e-01	2.721354e-01
363.704700	1.150339	dec_nonsocial_accept	1.150339	32.000000	n/a	16	1.071429e-01	1.071429e-01
363.704700	1.150339	dec_accept	1.150339	32.000000	n/a	16	8.333333e-02	8.333333e-02
363.704700	1.150339	dec_nonsocial_accept_high	1.150339	32.000000	n/a	16	1.250000e-01	1.250000e-01
372.954470	0.950430	dec_nonsocial_choice	0.950430	16.000000	n/a	0	0	-2.285156e-01
372.954470	0.950430	dec_choice	0.950430	16.000000	n/a	0	0	-2.278646e-01
372.954470	0.950430	dec_nonsocial_reject	0.950430	16.000000	n/a	0	0	1.493056e-01
372.954470	0.950430	dec_reject	0.950430	16.000000	n/a	0	0	1.354167e-01
372.954470	0.950430	dec_nonsocial_low	0.950430	16.000000	n/a	0	-2.278646e-01	-2.278646e-01
372.954470	0.950430	dec_nonsocial_reject_low	0.950430	16.000000	n/a	4	1.354167e-01	-1.145833e-01
