TrialNumber,Trialn,TrialType,Partner,Feedback,ITI,ISI,ran,order,studyStart,InitFixOnset,decision_onset,resp,resp_onset,rt,ISI_onset,isi_for_trial,ISI_offset,outcome_val,outcome_onset,outcome_offset,trialDuration,ITIonset,ITIoffset,final_fix_offset
1,1,4,2,1,8.075000e-01,8.075000e-01,1.0,0.0,2.5000045e-06,0.0087667,4.0245647,1.0,5.878839,1.8542745,5.9792438,1.6532255,7.6343856,6.0,7.63453,8.242491,4.2179255,8.242678,9.053796,--
2,2,9,3,3,8.075000e-01,1.615000e+00,1.0,1.0,--,--,9.065174,2.0,10.612161,1.5469863,10.712496,2.7680137,13.4825735,8.0,13.482688,14.088707,5.0235324,14.088863,14.898084,--
3,3,3,1,3,2.422500e+00,1.615000e+00,1.0,2.0,--,--,14.903212,1.0,16.145405,1.2421923,16.2458,3.0728078,19.319914,2.0,19.320028,19.925383,5.02217,19.92553,22.349941,--
4,4,3,1,3,2.422500e+00,8.075000e-01,1.0,3.0,--,--,22.351715,2.0,23.695795,1.3440809,23.796196,2.163419,25.961578,9.0,25.961744,26.567678,4.215965,26.567825,28.99282,--
5,5,6,2,3,8.075000e-01,8.075000e-01,1.0,4.0,--,--,29.005192,2.0,30.245337,1.2401447,30.345694,2.2673552,32.61497,8.0,32.615086,33.219147,4.213955,33.219288,34.02881,--
6,6,1,1,1,7.267500e+00,1.615000e+00,1.0,5.0,--,--,34.031647,1.0,34.962368,0.9307203,35.062706,3.3842797,38.44846,7.0,38.448574,39.05407,5.0224233,39.054214,46.323975,--
7,7,4,2,1,8.882500e+00,2.422500e+00,1.0,6.0,--,--,46.33509,1.0,47.37881,1.0437222,47.47914,4.078778,51.559967,9.0,51.560093,52.16362,5.828529,52.163765,61.048355,--
8,8,8,3,2,8.075000e-01,1.615000e+00,1.0,7.0,--,--,61.057743,2.0,62.412193,1.3544506,62.512524,2.9605494,65.47449,5.0,65.4746,66.08107,5.0233226,66.08121,66.89099,--
9,9,4,2,1,2.422500e+00,8.075000e-01,1.0,8.0,--,--,66.90171,2.0,68.562355,1.660639,68.6627,1.8468609,70.51197,1.0,70.512085,71.1179,4.216186,71.11804,73.54299,--
10,10,3,1,3,8.075000e-01,1.615000e+00,1.0,9.0,--,--,73.54579,2.0,74.680046,1.1342564,74.78039,3.1807437,77.963,8.0,77.96311,78.568115,5.022325,78.56826,79.37906,--
11,11,6,2,3,8.075000e-01,2.422500e+00,1.0,10.0,--,--,79.38986,2.0,80.72885,1.3389871,80.82918,3.7835128,84.61494,6.0,84.61505,85.21906,5.8291984,85.21921,86.0294,--
12,12,1,1,1,8.075000e-01,1.615000e+00,1.0,11.0,--,--,86.032295,1.0,86.96212,0.9298278,87.0626,3.3851721,90.44997,7.0,90.450134,91.055115,5.0228176,91.05526,91.865005,--
13,13,6,2,3,8.075000e-01,8.075000e-01,1.0,12.0,--,--,91.87591,1.0,92.812126,0.9362193,92.91246,2.5712807,95.48604,2.0,95.48615,96.09073,4.214819,96.09087,96.90023,--
14,14,9,3,3,7.267500e+00,8.075000e-01,1.0,13.0,--,--,96.90963,2.0,98.462166,1.5525312,98.5625,1.9549687,100.519005,6.0,100.51912,101.123116,4.213484,101.12326,108.39301,--
15,15,1,1,1,4.037500e+00,8.075000e-01,1.0,14.0,--,--,108.395836,2.0,110.16202,1.7661831,110.26236,1.7413169,112.00603,4.0,112.00614,112.6113,4.2154574,112.61144,116.651054,--
16,16,3,1,3,8.075000e-01,8.075000e-01,1.0,15.0,--,--,116.65283,2.0,117.69589,1.0430592,117.79627,2.4644408,120.26381,9.0,120.26392,120.86825,4.215414,120.86839,121.67803,--
17,17,1,1,1,5.652500e+00,2.422500e+00,1.0,16.0,--,--,121.67983,1.0,122.728775,1.0489408,122.829155,4.0735593,126.90482,7.0,126.90494,127.51032,5.830489,127.51047,133.16501,--
18,18,2,1,2,2.422500e+00,2.422500e+00,1.0,17.0,--,--,133.16684,1.0,133.7956,0.6287499,133.89594,4.49375,138.39207,5.0,138.3922,138.99675,5.829911,138.9969,141.42105,--
19,19,7,3,1,2.422500e+00,2.422500e+00,1.0,18.0,--,--,141.43031,2.0,142.46237,1.0320524,142.5627,4.0904474,146.65468,2.0,146.6548,147.26016,5.829844,147.2603,149.68463,--
20,20,4,2,1,8.075000e-01,2.422500e+00,1.0,19.0,--,--,149.69551,2.0,150.42883,0.7333165,150.52917,4.3891835,154.92006,3.0,154.92018,155.52538,5.829851,155.52551,156.33511,--
21,21,4,2,1,8.075000e-01,1.615000e+00,1.0,20.0,--,--,156.34547,1.0,157.07889,0.7334199,157.17923,3.5815802,160.76303,7.0,160.76314,161.3673,5.0218296,161.36745,162.177,--
22,22,9,3,3,2.422500e+00,2.422500e+00,1.0,21.0,--,--,162.18634,1.0,163.12875,0.942415,163.2291,4.180085,167.41121,4.0,167.41132,168.01617,5.8298373,168.01633,170.44185,--
23,23,9,3,3,5.652500e+00,8.075000e-01,1.0,22.0,--,--,170.45026,2.0,171.17891,0.7286606,171.2793,2.7788393,174.0602,9.0,174.0603,174.6646,4.214345,174.66473,180.3191,--
24,24,9,3,3,8.075000e-01,1.615000e+00,1.0,23.0,--,--,180.3273,1.0,181.16197,0.834668,181.26231,3.480332,184.74411,2.0,184.74422,185.34773,5.0204353,185.34789,186.15802,--
25,25,1,1,1,8.075000e-01,8.075000e-01,1.0,24.0,--,--,186.16087,2.0,186.99548,0.834609,187.09583,2.672891,189.77081,4.0,189.77092,190.37521,4.2143345,190.37535,191.18468,--
26,26,7,3,1,8.075000e-01,1.615000e+00,1.0,25.0,--,--,191.19388,2.0,192.12854,0.93467,192.22891,3.38033,195.61124,3.0,195.61136,196.21523,5.0213566,196.21538,197.02512,--
27,27,6,2,3,8.075000e-01,2.422500e+00,1.0,26.0,--,--,197.0364,2.0,197.97873,0.9423297,198.0791,4.1801705,202.26111,8.0,202.26122,202.86621,5.829809,202.86636,203.67607,--
28,28,5,2,2,4.037500e+00,8.075000e-01,1.0,27.0,--,--,203.68613,2.0,204.62874,0.9425975,204.7291,2.5649025,207.29509,5.0,207.29521,207.90024,4.2141113,207.90039,211.94011,--
29,29,3,1,3,4.037500e+00,1.615000e+00,1.0,28.0,--,--,211.94302,1.0,212.67865,0.7356262,212.779,3.5793738,216.36125,2.0,216.36136,216.96654,5.0235057,216.96667,221.00597,--
30,30,7,3,1,2.422500e+00,2.422500e+00,1.0,29.0,--,--,221.01541,0.0,223.78978,2.7743578,223.8901,2.3481424,226.24126,999.0,226.24136,226.84674,5.83133,226.8469,229.27115,--
31,31,3,1,3,8.075000e-01,2.422500e+00,1.0,30.0,--,--,229.27411,2.0,230.01204,0.7379289,230.11237,4.384571,234.49915,6.0,234.49927,235.10414,5.830025,235.10428,235.91414,--
32,32,3,1,3,4.037500e+00,1.615000e+00,1.0,31.0,--,--,235.91591,1.0,236.9621,1.0461806,237.06242,3.2688193,240.33307,4.0,240.33319,240.93675,5.0208435,240.9369,244.97606,--
33,33,6,2,3,8.075000e-01,2.422500e+00,1.0,32.0,--,--,244.98729,2.0,245.82874,0.8414555,245.92908,4.2810445,250.21225,7.0,250.21236,250.81691,5.8296247,250.81706,251.62616,--
34,34,2,1,2,8.075000e-01,1.615000e+00,1.0,33.0,--,--,251.62904,1.0,252.7636,1.1345637,252.86395,3.1804364,256.04678,5.0,256.0469,256.65118,5.0221586,256.65134,257.46115,--
35,35,9,3,3,8.075000e-01,8.075000e-01,1.0,34.0,--,--,257.47043,1.0,258.41183,0.9414169,258.51218,2.5660832,261.08017,1.0,261.08026,261.68527,4.214859,261.68542,262.49478,--
36,36,4,2,1,5.652500e+00,1.615000e+00,1.0,35.0,--,--,262.50558,2.0,263.4454,0.939829,263.54575,3.375171,266.92294,1.0,266.92307,267.52826,5.0226774,267.5284,273.18292,--
37,37,7,3,1,8.075000e-01,1.615000e+00,1.0,36.0,--,--,273.1923,2.0,274.0284,0.8361374,274.12878,3.4788625,277.6096,1.0,277.6097,278.2141,5.0218287,278.21426,279.02426,--
38,38,1,1,1,8.075000e-01,8.075000e-01,1.0,37.0,--,--,279.02707,2.0,280.16177,1.1347038,280.26215,2.3727963,282.63617,1.0,282.6363,283.2403,4.2132044,283.24045,284.04968,--
39,39,7,3,1,4.037500e+00,1.615000e+00,1.0,38.0,--,--,284.05884,2.0,284.8954,0.8365542,284.99576,3.4784458,288.47623,2.0,288.47632,289.08096,5.0221286,289.08112,293.12122,--
40,40,1,1,1,2.422500e+00,2.422500e+00,1.0,39.0,--,--,293.12405,1.0,293.8619,0.7378423,293.96222,4.384658,298.3493,8.0,298.3494,298.95413,5.830072,298.95428,301.37906,--
41,41,9,3,3,2.422500e+00,1.615000e+00,1.0,40.0,--,--,301.3883,2.0,301.81223,0.4239117,301.9126,3.8910882,305.80618,8.0,305.8063,306.41098,5.022689,306.41113,308.83633,--
42,42,4,2,1,2.422500e+00,8.075000e-01,1.0,41.0,--,--,308.84692,1.0,309.6785,0.8315589,309.77884,2.675941,312.4561,6.0,312.45618,313.0615,4.2145557,313.06165,315.4862,--
43,43,5,2,2,8.075000e-01,8.075000e-01,1.0,42.0,--,--,315.49612,2.0,316.1286,0.6324533,316.22894,2.8750467,319.1066,5.0,319.10672,319.71136,4.215225,319.71152,320.52133,--
44,44,4,2,1,5.652500e+00,8.075000e-01,1.0,43.0,--,--,320.5313,2.0,321.1619,0.6306046,321.26224,2.8768954,324.14023,3.0,324.14032,324.746,4.214697,324.74615,330.4012,--
45,45,6,2,3,2.422500e+00,2.422500e+00,1.0,44.0,--,--,330.4111,2.0,331.76187,1.3507673,331.8622,3.7717328,335.63608,7.0,335.6362,336.24478,5.833688,336.24493,338.66922,--
46,46,7,3,1,4.037500e+00,8.075000e-01,1.0,45.0,--,--,338.6785,1.0,339.41168,0.7332059,339.51202,2.7742941,342.28833,6.0,342.28845,342.89328,4.2147884,342.89343,346.93262,--
47,47,6,2,3,8.075000e-01,2.422500e+00,1.0,46.0,--,--,346.94348,2.0,347.9784,1.0348932,348.0787,4.087607,352.16827,7.0,352.1684,352.7733,5.8297987,352.77344,353.5832,--
48,48,9,3,3,2.422500e+00,2.422500e+00,1.0,47.0,--,--,353.59253,1.0,354.72842,1.1358947,354.8288,3.9866054,358.81824,1.0,358.81836,359.42874,5.8362193,359.4289,361.85324,--
49,49,1,1,1,8.075000e-01,8.075000e-01,1.0,48.0,--,--,361.85635,2.0,362.59512,0.7387691,362.69547,2.7687309,365.46527,4.0,365.4654,366.07037,4.2140036,366.07053,366.88028,--
50,50,7,3,1,8.075000e-01,2.422500e+00,1.0,49.0,--,--,366.89978,0.0,369.67535,2.7755702,369.7757,2.3469298,372.12427,999.0,372.1244,372.72836,5.8285527,372.7285,373.53827,--
51,51,7,3,1,8.075000e-01,2.422500e+00,1.0,50.0,--,--,373.54645,1.0,374.07846,0.5320245,374.1788,4.5904756,378.77127,9.0,378.77136,379.3819,5.8354535,379.38205,380.19128,--
52,52,8,3,2,8.075000e-01,2.422500e+00,1.0,51.0,--,--,380.19968,2.0,381.64496,1.4452714,381.7453,3.6772287,385.42496,5.0,385.42508,386.03024,5.830558,386.0304,386.83917,--
53,53,3,1,3,2.422500e+00,1.615000e+00,1.0,52.0,--,--,386.84204,1.0,387.4785,0.6364534,387.57883,3.6785467,391.25928,3.0,391.2594,391.8644,5.022361,391.86453,394.2893,--
54,54,6,2,3,4.037500e+00,1.615000e+00,1.0,53.0,--,--,394.30057,2.0,394.8284,0.5278164,394.9287,3.7871835,398.71774,7.0,398.71783,399.32138,5.020799,399.32153,403.3613,412.00027
