onset	duration	trial_type	response_time	Endowment	Endowment_pmod	Decision	Decision_pmod	Offer_pmod
4.570499	2	cue_social	n/a	32	7	n/a	n/a	n/a
4.570499	2	cue_social_high	n/a	32	7	n/a	n/a	n/a
12.163769	2	cue_nonsocial	n/a	32	7	n/a	n/a	n/a
12.163769	2	cue_nonsocial_high	n/a	32	7	n/a	n/a	n/a
19.057264	2	cue_social	n/a	32	7	n/a	n/a	n/a
19.057264	2	cue_social_high	n/a	32	7	n/a	n/a	n/a
28.247213	2	cue_nonsocial	n/a	32	7	n/a	n/a	n/a
28.247213	2	cue_nonsocial_high	n/a	32	7	n/a	n/a	n/a
35.080723	2	cue_nonsocial	n/a	16	-9	n/a	n/a	n/a
35.080723	2	cue_nonsocial_low	n/a	16	-9	n/a	n/a	n/a
42.010390	2	cue_social	n/a	16	-9	n/a	n/a	n/a
42.010390	2	cue_social_low	n/a	16	-9	n/a	n/a	n/a
49.563800	2	cue_nonsocial	n/a	32	7	n/a	n/a	n/a
49.563800	2	cue_nonsocial_high	n/a	32	7	n/a	n/a	n/a
62.094147	2	cue_social	n/a	16	-9	n/a	n/a	n/a
62.094147	2	cue_social_low	n/a	16	-9	n/a	n/a	n/a
68.880516	2	cue_nonsocial	n/a	16	-9	n/a	n/a	n/a
68.880516	2	cue_nonsocial_low	n/a	16	-9	n/a	n/a	n/a
76.530130	2	cue_nonsocial	n/a	32	7	n/a	n/a	n/a
76.530130	2	cue_nonsocial_high	n/a	32	7	n/a	n/a	n/a
83.363620	2	cue_nonsocial	n/a	32	7	n/a	n/a	n/a
83.363620	2	cue_nonsocial_high	n/a	32	7	n/a	n/a	n/a
91.014310	2	cue_nonsocial	n/a	16	-9	n/a	n/a	n/a
91.014310	2	cue_nonsocial_low	n/a	16	-9	n/a	n/a	n/a
97.904230	2	cue_social	n/a	16	-9	n/a	n/a	n/a
97.904230	2	cue_social_low	n/a	16	-9	n/a	n/a	n/a
107.153190	2	cue_social	n/a	16	-9	n/a	n/a	n/a
107.153190	2	cue_social_low	n/a	16	-9	n/a	n/a	n/a
113.997925	2	cue_social	n/a	16	-9	n/a	n/a	n/a
113.997925	2	cue_social_low	n/a	16	-9	n/a	n/a	n/a
120.836730	2	cue_social	n/a	32	7	n/a	n/a	n/a
120.836730	2	cue_social_high	n/a	32	7	n/a	n/a	n/a
131.646770	2	cue_nonsocial	n/a	16	-9	n/a	n/a	n/a
131.646770	2	cue_nonsocial_low	n/a	16	-9	n/a	n/a	n/a
138.480470	2	cue_nonsocial	n/a	16	-9	n/a	n/a	n/a
138.480470	2	cue_nonsocial_low	n/a	16	-9	n/a	n/a	n/a
146.130840	2	cue_nonsocial	n/a	32	7	n/a	n/a	n/a
146.130840	2	cue_nonsocial_high	n/a	32	7	n/a	n/a	n/a
153.025990	2	cue_social	n/a	32	7	n/a	n/a	n/a
153.025990	2	cue_social_high	n/a	32	7	n/a	n/a	n/a
162.266160	2	cue_social	n/a	16	-9	n/a	n/a	n/a
162.266160	2	cue_social_low	n/a	16	-9	n/a	n/a	n/a
169.047380	2	cue_nonsocial	n/a	16	-9	n/a	n/a	n/a
169.047380	2	cue_nonsocial_low	n/a	16	-9	n/a	n/a	n/a
178.296660	2	cue_nonsocial	n/a	16	-9	n/a	n/a	n/a
178.296660	2	cue_nonsocial_low	n/a	16	-9	n/a	n/a	n/a
185.197310	2	cue_social	n/a	32	7	n/a	n/a	n/a
185.197310	2	cue_social_high	n/a	32	7	n/a	n/a	n/a
192.008450	2	cue_social	n/a	32	7	n/a	n/a	n/a
192.008450	2	cue_social_high	n/a	32	7	n/a	n/a	n/a
198.860670	2	cue_social	n/a	32	7	n/a	n/a	n/a
198.860670	2	cue_social_high	n/a	32	7	n/a	n/a	n/a
208.046570	2	cue_nonsocial	n/a	16	-9	n/a	n/a	n/a
208.046570	2	cue_nonsocial_low	n/a	16	-9	n/a	n/a	n/a
217.313400	2	cue_nonsocial	n/a	32	7	n/a	n/a	n/a
217.313400	2	cue_nonsocial_high	n/a	32	7	n/a	n/a	n/a
224.963640	2	cue_nonsocial	n/a	32	7	n/a	n/a	n/a
224.963640	2	cue_nonsocial_high	n/a	32	7	n/a	n/a	n/a
231.796940	2	cue_nonsocial	n/a	16	-9	n/a	n/a	n/a
231.796940	2	cue_nonsocial_low	n/a	16	-9	n/a	n/a	n/a
239.446950	2	cue_nonsocial	n/a	32	7	n/a	n/a	n/a
239.446950	2	cue_nonsocial_high	n/a	32	7	n/a	n/a	n/a
247.096950	2	cue_nonsocial	n/a	16	-9	n/a	n/a	n/a
247.096950	2	cue_nonsocial_low	n/a	16	-9	n/a	n/a	n/a
254.025340	2	cue_social	n/a	16	-9	n/a	n/a	n/a
254.025340	2	cue_social_low	n/a	16	-9	n/a	n/a	n/a
260.780200	2	cue_nonsocial	n/a	32	7	n/a	n/a	n/a
260.780200	2	cue_nonsocial_high	n/a	32	7	n/a	n/a	n/a
267.613620	2	cue_nonsocial	n/a	32	7	n/a	n/a	n/a
267.613620	2	cue_nonsocial_high	n/a	32	7	n/a	n/a	n/a
275.302550	2	cue_social	n/a	32	7	n/a	n/a	n/a
275.302550	2	cue_social_high	n/a	32	7	n/a	n/a	n/a
282.960540	2	cue_social	n/a	32	7	n/a	n/a	n/a
282.960540	2	cue_social_high	n/a	32	7	n/a	n/a	n/a
289.794070	2	cue_social	n/a	16	-9	n/a	n/a	n/a
289.794070	2	cue_social_low	n/a	16	-9	n/a	n/a	n/a
297.436550	2	cue_social	n/a	32	7	n/a	n/a	n/a
297.436550	2	cue_social_high	n/a	32	7	n/a	n/a	n/a
305.029700	2	cue_nonsocial	n/a	32	7	n/a	n/a	n/a
305.029700	2	cue_nonsocial_high	n/a	32	7	n/a	n/a	n/a
315.949430	2	cue_social	n/a	16	-9	n/a	n/a	n/a
315.949430	2	cue_social_low	n/a	16	-9	n/a	n/a	n/a
322.772550	2	cue_social	n/a	32	7	n/a	n/a	n/a
322.772550	2	cue_social_high	n/a	32	7	n/a	n/a	n/a
329.563200	2	cue_nonsocial	n/a	32	7	n/a	n/a	n/a
329.563200	2	cue_nonsocial_high	n/a	32	7	n/a	n/a	n/a
340.487180	2	cue_social	n/a	16	-9	n/a	n/a	n/a
340.487180	2	cue_social_low	n/a	16	-9	n/a	n/a	n/a
347.318180	2	cue_social	n/a	32	7	n/a	n/a	n/a
347.318180	2	cue_social_high	n/a	32	7	n/a	n/a	n/a
354.096860	2	cue_nonsocial	n/a	32	7	n/a	n/a	n/a
354.096860	2	cue_nonsocial_high	n/a	32	7	n/a	n/a	n/a
360.980560	2	cue_social	n/a	32	7	n/a	n/a	n/a
360.980560	2	cue_social_high	n/a	32	7	n/a	n/a	n/a
370.270320	2	cue_social	n/a	32	7	n/a	n/a	n/a
370.270320	2	cue_social_high	n/a	32	7	n/a	n/a	n/a
6.520471	1.533178	dec_social_choice	1.533178	32.000000	n/a	8	2.593085e-02	2.593085e-02
6.520471	1.533178	dec_choice	1.533178	32.000000	n/a	8	1.953125e-02	1.953125e-02
6.520471	1.533178	dec_social_accept	1.533178	32.000000	n/a	8	-3.216912e-02	-3.216912e-02
6.520471	1.533178	dec_accept	1.533178	32.000000	n/a	8	-2.467105e-02	-2.467105e-02
6.520471	1.533178	dec_social_accept_high	1.533178	32.000000	n/a	8	1.953125e-02	1.953125e-02
14.171087	1.415494	dec_nonsocial_choice	1.415494	32.000000	n/a	0	0	-2.240691e-01
14.171087	1.415494	dec_choice	1.415494	32.000000	n/a	0	0	-2.173913e-01
14.171087	1.415494	dec_nonsocial_reject	1.415494	32.000000	n/a	0	0	-9.615385e-03
14.171087	1.415494	dec_reject	1.415494	32.000000	n/a	0	0	-1.562500e-02
14.171087	1.415494	dec_nonsocial_low	1.415494	32.000000	n/a	0	-2.173913e-01	-2.173913e-01
14.171087	1.415494	dec_nonsocial_reject_low	1.415494	32.000000	n/a	2	-1.562500e-02	-7.812500e-02
21.004007	1.516415	dec_social_choice	1.516415	32.000000	n/a	2	-1.615691e-01	-1.615691e-01
21.004007	1.516415	dec_choice	1.516415	32.000000	n/a	2	-1.679688e-01	-1.679688e-01
21.004007	1.516415	dec_social_accept	1.516415	32.000000	n/a	2	-2.196691e-01	-2.196691e-01
21.004007	1.516415	dec_accept	1.516415	32.000000	n/a	2	-2.121711e-01	-2.121711e-01
21.004007	1.516415	dec_social_accept_low	1.516415	32.000000	n/a	2	-1.679688e-01	-1.679688e-01
30.254364	2.382819	dec_nonsocial_choice	2.382819	32.000000	n/a	16	2.759309e-01	2.759309e-01
30.254364	2.382819	dec_choice	2.382819	32.000000	n/a	16	2.826087e-01	2.826087e-01
30.254364	2.382819	dec_nonsocial_accept	2.382819	32.000000	n/a	16	2.178309e-01	2.178309e-01
30.254364	2.382819	dec_accept	2.382819	32.000000	n/a	16	2.083333e-01	2.083333e-01
30.254364	2.382819	dec_nonsocial_accept_high	2.382819	32.000000	n/a	16	2.253289e-01	2.253289e-01
37.086540	1.967058	dec_nonsocial_choice	1.967058	16.000000	n/a	0	0	-2.240691e-01
37.086540	1.967058	dec_choice	1.967058	16.000000	n/a	0	0	-2.173913e-01
37.086540	1.967058	dec_nonsocial_reject	1.967058	16.000000	n/a	0	0	-9.615385e-03
37.086540	1.967058	dec_reject	1.967058	16.000000	n/a	0	0	-1.562500e-02
37.086540	1.967058	dec_nonsocial_low	1.967058	16.000000	n/a	0	-2.173913e-01	-2.173913e-01
37.086540	1.967058	dec_nonsocial_reject_low	1.967058	16.000000	n/a	1	-1.562500e-02	-7.812500e-02
43.920840	2.133043	dec_social_choice	2.133043	16.000000	n/a	2	-9.906915e-02	-9.906915e-02
43.920840	2.133043	dec_choice	2.133043	16.000000	n/a	2	-1.054688e-01	-1.054688e-01
43.920840	2.133043	dec_social_accept	2.133043	16.000000	n/a	2	-1.571691e-01	-1.571691e-01
43.920840	2.133043	dec_accept	2.133043	16.000000	n/a	2	-1.496711e-01	-1.496711e-01
43.920840	2.133043	dec_social_low	2.133043	16.000000	n/a	2	-1.054688e-01	-1.054688e-01
43.920840	2.133043	dec_social_accept_low	2.133043	16.000000	n/a	2	-1.054688e-01	-1.054688e-01
51.570114	2.350055	dec_nonsocial_choice	2.350055	32.000000	n/a	3	-1.303191e-01	-1.303191e-01
51.570114	2.350055	dec_choice	2.350055	32.000000	n/a	3	-1.236413e-01	-1.236413e-01
51.570114	2.350055	dec_nonsocial_accept	2.350055	32.000000	n/a	3	-1.884191e-01	-1.884191e-01
51.570114	2.350055	dec_accept	2.350055	32.000000	n/a	3	-1.979167e-01	-1.979167e-01
51.570114	2.350055	dec_nonsocial_low	2.350055	32.000000	n/a	3	-1.236413e-01	-1.236413e-01
51.570114	2.350055	dec_nonsocial_accept_low	2.350055	32.000000	n/a	3	-1.979167e-01	-1.979167e-01
64.053230	1.700487	dec_social_choice	1.700487	16.000000	n/a	8	2.759309e-01	2.759309e-01
64.053230	1.700487	dec_choice	1.700487	16.000000	n/a	8	2.695312e-01	2.695312e-01
64.053230	1.700487	dec_social_accept	1.700487	16.000000	n/a	8	2.178309e-01	2.178309e-01
64.053230	1.700487	dec_accept	1.700487	16.000000	n/a	8	2.253289e-01	2.253289e-01
64.053230	1.700487	dec_social_high	1.700487	16.000000	n/a	8	2.695312e-01	2.695312e-01
64.053230	1.700487	dec_social_accept_high	1.700487	16.000000	n/a	8	2.695312e-01	2.695312e-01
70.886870	2.016554	dec_nonsocial_choice	2.016554	16.000000	n/a	0	0	-2.240691e-01
70.886870	2.016554	dec_choice	2.016554	16.000000	n/a	0	0	-2.173913e-01
70.886870	2.016554	dec_nonsocial_reject	2.016554	16.000000	n/a	0	0	-9.615385e-03
70.886870	2.016554	dec_reject	2.016554	16.000000	n/a	0	0	-1.562500e-02
70.886870	2.016554	dec_nonsocial_low	2.016554	16.000000	n/a	0	-2.173913e-01	-2.173913e-01
70.886870	2.016554	dec_nonsocial_reject_low	2.016554	16.000000	n/a	1	-1.562500e-02	-7.812500e-02
78.537320	1.415957	dec_nonsocial_choice	1.415957	32.000000	n/a	16	2.759309e-01	2.759309e-01
78.537320	1.415957	dec_choice	1.415957	32.000000	n/a	16	2.826087e-01	2.826087e-01
78.537320	1.415957	dec_nonsocial_accept	1.415957	32.000000	n/a	16	2.178309e-01	2.178309e-01
78.537320	1.415957	dec_accept	1.415957	32.000000	n/a	16	2.083333e-01	2.083333e-01
78.537320	1.415957	dec_nonsocial_high	1.415957	32.000000	n/a	16	2.826087e-01	2.826087e-01
78.537320	1.415957	dec_nonsocial_accept_high	1.415957	32.000000	n/a	16	2.083333e-01	2.083333e-01
85.370190	2.383511	dec_nonsocial_choice	2.383511	32.000000	n/a	0	0	-2.240691e-01
85.370190	2.383511	dec_choice	2.383511	32.000000	n/a	0	0	-2.173913e-01
85.370190	2.383511	dec_nonsocial_reject	2.383511	32.000000	n/a	0	0	-9.615385e-03
85.370190	2.383511	dec_reject	2.383511	32.000000	n/a	0	0	-1.562500e-02
85.370190	2.383511	dec_nonsocial_low	2.383511	32.000000	n/a	0	-2.173913e-01	-2.173913e-01
85.370190	2.383511	dec_nonsocial_reject_low	2.383511	32.000000	n/a	2	-1.562500e-02	-7.812500e-02
93.020230	1.416431	dec_nonsocial_choice	1.416431	16.000000	n/a	4	2.593085e-02	2.593085e-02
93.020230	1.416431	dec_choice	1.416431	16.000000	n/a	4	3.260870e-02	3.260870e-02
93.020230	1.416431	dec_nonsocial_accept	1.416431	16.000000	n/a	4	-3.216912e-02	-3.216912e-02
93.020230	1.416431	dec_accept	1.416431	16.000000	n/a	4	-4.166667e-02	-4.166667e-02
93.020230	1.416431	dec_nonsocial_high	1.416431	16.000000	n/a	4	3.260870e-02	3.260870e-02
93.020230	1.416431	dec_nonsocial_accept_high	1.416431	16.000000	n/a	4	-4.166667e-02	-4.166667e-02
99.853980	1.833320	dec_social_choice	1.833320	16.000000	n/a	8	2.759309e-01	2.759309e-01
99.853980	1.833320	dec_choice	1.833320	16.000000	n/a	8	2.695312e-01	2.695312e-01
99.853980	1.833320	dec_social_accept	1.833320	16.000000	n/a	8	2.178309e-01	2.178309e-01
99.853980	1.833320	dec_accept	1.833320	16.000000	n/a	8	2.253289e-01	2.253289e-01
99.853980	1.833320	dec_social_high	1.833320	16.000000	n/a	8	2.695312e-01	2.695312e-01
99.853980	1.833320	dec_social_accept_high	1.833320	16.000000	n/a	8	2.695312e-01	2.695312e-01
109.119570	2.484171	dec_social_choice	2.484171	16.000000	n/a	0	0	-2.240691e-01
109.119570	2.484171	dec_choice	2.484171	16.000000	n/a	0	0	-2.304688e-01
109.119570	2.484171	dec_social_reject	2.484171	16.000000	n/a	0	0	-9.615385e-03
109.119570	2.484171	dec_reject	2.484171	16.000000	n/a	0	0	0
109.119570	2.484171	dec_social_reject_low	2.484171	16.000000	n/a	1	-1.679688e-01	-2.304688e-01
115.953990	2.749881	dec_social_choice	2.749881	16.000000	n/a	2	-9.906915e-02	-9.906915e-02
115.953990	2.749881	dec_choice	2.749881	16.000000	n/a	2	-1.054688e-01	-1.054688e-01
115.953990	2.749881	dec_social_accept	2.749881	16.000000	n/a	2	-1.571691e-01	-1.571691e-01
115.953990	2.749881	dec_accept	2.749881	16.000000	n/a	2	-1.496711e-01	-1.496711e-01
115.953990	2.749881	dec_social_low	2.749881	16.000000	n/a	2	-1.054688e-01	-1.054688e-01
115.953990	2.749881	dec_social_accept_low	2.749881	16.000000	n/a	2	-1.054688e-01	-1.054688e-01
122.787010	1.999965	dec_social_choice	1.999965	32.000000	n/a	0	0	-2.240691e-01
122.787010	1.999965	dec_choice	1.999965	32.000000	n/a	0	0	-2.304688e-01
122.787010	1.999965	dec_social_reject	1.999965	32.000000	n/a	0	0	-9.615385e-03
122.787010	1.999965	dec_reject	1.999965	32.000000	n/a	0	0	0
122.787010	1.999965	dec_social_reject_low	1.999965	32.000000	n/a	2	-1.679688e-01	-2.304688e-01
133.652920	1.684234	dec_nonsocial_choice	1.684234	16.000000	n/a	8	2.759309e-01	2.759309e-01
133.652920	1.684234	dec_choice	1.684234	16.000000	n/a	8	2.826087e-01	2.826087e-01
133.652920	1.684234	dec_nonsocial_accept	1.684234	16.000000	n/a	8	2.178309e-01	2.178309e-01
133.652920	1.684234	dec_accept	1.684234	16.000000	n/a	8	2.083333e-01	2.083333e-01
133.652920	1.684234	dec_nonsocial_accept_high	1.684234	16.000000	n/a	8	2.253289e-01	2.253289e-01
140.487300	2.399376	dec_nonsocial_choice	2.399376	16.000000	n/a	0	0	-2.240691e-01
140.487300	2.399376	dec_choice	2.399376	16.000000	n/a	0	0	-2.173913e-01
140.487300	2.399376	dec_nonsocial_reject	2.399376	16.000000	n/a	0	0	5.288462e-02
140.487300	2.399376	dec_reject	2.399376	16.000000	n/a	0	0	4.687500e-02
140.487300	2.399376	dec_nonsocial_low	2.399376	16.000000	n/a	0	-2.173913e-01	-2.173913e-01
140.487300	2.399376	dec_nonsocial_reject_low	2.399376	16.000000	n/a	2	4.687500e-02	-7.812500e-02
148.137070	1.349867	dec_nonsocial_choice	1.349867	32.000000	n/a	16	2.759309e-01	2.759309e-01
148.137070	1.349867	dec_choice	1.349867	32.000000	n/a	16	2.826087e-01	2.826087e-01
148.137070	1.349867	dec_nonsocial_accept	1.349867	32.000000	n/a	16	2.178309e-01	2.178309e-01
148.137070	1.349867	dec_accept	1.349867	32.000000	n/a	16	2.083333e-01	2.083333e-01
148.137070	1.349867	dec_nonsocial_accept_high	1.349867	32.000000	n/a	16	2.253289e-01	2.253289e-01
154.969850	2.533796	dec_social_choice	2.533796	32.000000	n/a	0	0	-2.240691e-01
154.969850	2.533796	dec_choice	2.533796	32.000000	n/a	0	0	-2.304688e-01
154.969850	2.533796	dec_social_reject	2.533796	32.000000	n/a	0	0	-9.615385e-03
154.969850	2.533796	dec_reject	2.533796	32.000000	n/a	0	0	0
154.969850	2.533796	dec_social_low	2.533796	32.000000	n/a	0	-2.304688e-01	-2.304688e-01
154.969850	2.533796	dec_social_reject_low	2.533796	32.000000	n/a	2	-1.679688e-01	-2.304688e-01
164.219910	2.750136	dec_social_choice	2.750136	16.000000	n/a	2	-9.906915e-02	-9.906915e-02
164.219910	2.750136	dec_choice	2.750136	16.000000	n/a	2	-1.054688e-01	-1.054688e-01
164.219910	2.750136	dec_social_accept	2.750136	16.000000	n/a	2	-1.571691e-01	-1.571691e-01
164.219910	2.750136	dec_accept	2.750136	16.000000	n/a	2	-1.496711e-01	-1.496711e-01
164.219910	2.750136	dec_social_low	2.750136	16.000000	n/a	2	-1.054688e-01	-1.054688e-01
164.219910	2.750136	dec_social_accept_low	2.750136	16.000000	n/a	2	-1.054688e-01	-1.054688e-01
171.052810	2.033927	dec_nonsocial_choice	2.033927	16.000000	n/a	4	2.593085e-02	2.593085e-02
171.052810	2.033927	dec_choice	2.033927	16.000000	n/a	4	3.260870e-02	3.260870e-02
171.052810	2.033927	dec_nonsocial_accept	2.033927	16.000000	n/a	4	-3.216912e-02	-3.216912e-02
171.052810	2.033927	dec_accept	2.033927	16.000000	n/a	4	-4.166667e-02	-4.166667e-02
171.052810	2.033927	dec_nonsocial_high	2.033927	16.000000	n/a	4	3.260870e-02	3.260870e-02
171.052810	2.033927	dec_nonsocial_accept_high	2.033927	16.000000	n/a	4	-4.166667e-02	-4.166667e-02
180.303300	1.583575	dec_nonsocial_choice	1.583575	16.000000	n/a	4	2.593085e-02	2.593085e-02
180.303300	1.583575	dec_choice	1.583575	16.000000	n/a	4	3.260870e-02	3.260870e-02
180.303300	1.583575	dec_nonsocial_accept	1.583575	16.000000	n/a	4	-3.216912e-02	-3.216912e-02
180.303300	1.583575	dec_accept	1.583575	16.000000	n/a	4	-4.166667e-02	-4.166667e-02
180.303300	1.583575	dec_nonsocial_accept_high	1.583575	16.000000	n/a	4	-2.467105e-02	-2.467105e-02
187.136230	2.401251	dec_social_choice	2.401251	32.000000	n/a	3	-1.303191e-01	-1.303191e-01
187.136230	2.401251	dec_choice	2.401251	32.000000	n/a	3	-1.367188e-01	-1.367188e-01
187.136230	2.401251	dec_social_accept	2.401251	32.000000	n/a	3	-1.884191e-01	-1.884191e-01
187.136230	2.401251	dec_accept	2.401251	32.000000	n/a	3	-1.809211e-01	-1.809211e-01
187.136230	2.401251	dec_social_low	2.401251	32.000000	n/a	3	-1.367188e-01	-1.367188e-01
187.136230	2.401251	dec_social_accept_low	2.401251	32.000000	n/a	3	-1.367188e-01	-1.367188e-01
193.970170	2.216087	dec_social_choice	2.216087	32.000000	n/a	16	2.759309e-01	2.759309e-01
193.970170	2.216087	dec_choice	2.216087	32.000000	n/a	16	2.695312e-01	2.695312e-01
193.970170	2.216087	dec_social_accept	2.216087	32.000000	n/a	16	2.178309e-01	2.178309e-01
193.970170	2.216087	dec_accept	2.216087	32.000000	n/a	16	2.253289e-01	2.253289e-01
193.970170	2.216087	dec_social_high	2.216087	32.000000	n/a	16	2.695312e-01	2.695312e-01
193.970170	2.216087	dec_social_accept_high	2.216087	32.000000	n/a	16	2.695312e-01	2.695312e-01
200.802950	2.450457	dec_social_choice	2.450457	32.000000	n/a	3	-1.303191e-01	-1.303191e-01
200.802950	2.450457	dec_choice	2.450457	32.000000	n/a	3	-1.367188e-01	-1.367188e-01
200.802950	2.450457	dec_social_accept	2.450457	32.000000	n/a	3	-1.884191e-01	-1.884191e-01
200.802950	2.450457	dec_accept	2.450457	32.000000	n/a	3	-1.809211e-01	-1.809211e-01
200.802950	2.450457	dec_social_low	2.450457	32.000000	n/a	3	-1.367188e-01	-1.367188e-01
200.802950	2.450457	dec_social_accept_low	2.450457	32.000000	n/a	3	-1.367188e-01	-1.367188e-01
210.054610	2.048766	dec_nonsocial_choice	2.048766	16.000000	n/a	2	-9.906915e-02	-9.906915e-02
210.054610	2.048766	dec_choice	2.048766	16.000000	n/a	2	-9.239130e-02	-9.239130e-02
210.054610	2.048766	dec_nonsocial_accept	2.048766	16.000000	n/a	2	-1.571691e-01	-1.571691e-01
210.054610	2.048766	dec_accept	2.048766	16.000000	n/a	2	-1.666667e-01	-1.666667e-01
210.054610	2.048766	dec_nonsocial_accept_low	2.048766	16.000000	n/a	2	-1.496711e-01	-1.496711e-01
219.320500	1.583066	dec_nonsocial_choice	1.583066	32.000000	n/a	16	2.759309e-01	2.759309e-01
219.320500	1.583066	dec_choice	1.583066	32.000000	n/a	16	2.826087e-01	2.826087e-01
219.320500	1.583066	dec_nonsocial_accept	1.583066	32.000000	n/a	16	2.178309e-01	2.178309e-01
219.320500	1.583066	dec_accept	1.583066	32.000000	n/a	16	2.083333e-01	2.083333e-01
219.320500	1.583066	dec_nonsocial_accept_high	1.583066	32.000000	n/a	16	2.253289e-01	2.253289e-01
226.970780	2.583085	dec_nonsocial_choice	2.583085	32.000000	n/a	0	0	-2.240691e-01
226.970780	2.583085	dec_choice	2.583085	32.000000	n/a	0	0	-2.173913e-01
226.970780	2.583085	dec_nonsocial_reject	2.583085	32.000000	n/a	0	0	2.163462e-02
226.970780	2.583085	dec_reject	2.583085	32.000000	n/a	0	0	1.562500e-02
226.970780	2.583085	dec_nonsocial_reject_low	2.583085	32.000000	n/a	3	3.125000e-02	-6.250000e-02
233.803270	2.083441	dec_nonsocial_choice	2.083441	16.000000	n/a	4	2.593085e-02	2.593085e-02
233.803270	2.083441	dec_choice	2.083441	16.000000	n/a	4	3.260870e-02	3.260870e-02
233.803270	2.083441	dec_nonsocial_accept	2.083441	16.000000	n/a	4	-3.216912e-02	-3.216912e-02
233.803270	2.083441	dec_accept	2.083441	16.000000	n/a	4	-4.166667e-02	-4.166667e-02
233.803270	2.083441	dec_nonsocial_accept_high	2.083441	16.000000	n/a	4	-2.467105e-02	-2.467105e-02
241.453580	1.283349	dec_nonsocial_choice	1.283349	32.000000	n/a	8	2.593085e-02	2.593085e-02
241.453580	1.283349	dec_choice	1.283349	32.000000	n/a	8	3.260870e-02	3.260870e-02
241.453580	1.283349	dec_nonsocial_accept	1.283349	32.000000	n/a	8	-3.216912e-02	-3.216912e-02
241.453580	1.283349	dec_accept	1.283349	32.000000	n/a	8	-4.166667e-02	-4.166667e-02
241.453580	1.283349	dec_nonsocial_accept_high	1.283349	32.000000	n/a	8	-2.467105e-02	-2.467105e-02
249.103790	3.766946	missed_trial	3.766946	16.000000	n/a	n/a	n/a	n/a
255.953060	1.883218	dec_social_choice	1.883218	16.000000	n/a	0	0	-2.240691e-01
255.953060	1.883218	dec_choice	1.883218	16.000000	n/a	0	0	-2.304688e-01
255.953060	1.883218	dec_social_reject	1.883218	16.000000	n/a	0	0	-9.615385e-03
255.953060	1.883218	dec_reject	1.883218	16.000000	n/a	0	0	0
255.953060	1.883218	dec_social_low	1.883218	16.000000	n/a	0	-2.304688e-01	-2.304688e-01
255.953060	1.883218	dec_social_reject_low	1.883218	16.000000	n/a	1	-1.679688e-01	-2.304688e-01
262.786870	1.949817	dec_nonsocial_choice	1.949817	32.000000	n/a	3	-1.303191e-01	-1.303191e-01
262.786870	1.949817	dec_choice	1.949817	32.000000	n/a	3	-1.236413e-01	-1.236413e-01
262.786870	1.949817	dec_nonsocial_accept	1.949817	32.000000	n/a	3	-1.884191e-01	-1.884191e-01
262.786870	1.949817	dec_accept	1.949817	32.000000	n/a	3	-1.979167e-01	-1.979167e-01
262.786870	1.949817	dec_nonsocial_low	1.949817	32.000000	n/a	3	-1.236413e-01	-1.236413e-01
262.786870	1.949817	dec_nonsocial_accept_low	1.949817	32.000000	n/a	3	-1.979167e-01	-1.979167e-01
269.619900	1.550187	dec_nonsocial_choice	1.550187	32.000000	n/a	8	2.593085e-02	2.593085e-02
269.619900	1.550187	dec_choice	1.550187	32.000000	n/a	8	3.260870e-02	3.260870e-02
269.619900	1.550187	dec_nonsocial_accept	1.550187	32.000000	n/a	8	-3.216912e-02	-3.216912e-02
269.619900	1.550187	dec_accept	1.550187	32.000000	n/a	8	-4.166667e-02	-4.166667e-02
269.619900	1.550187	dec_nonsocial_high	1.550187	32.000000	n/a	8	3.260870e-02	3.260870e-02
269.619900	1.550187	dec_nonsocial_accept_high	1.550187	32.000000	n/a	8	-4.166667e-02	-4.166667e-02
277.254120	1.182652	dec_social_choice	1.182652	32.000000	n/a	8	2.593085e-02	2.593085e-02
277.254120	1.182652	dec_choice	1.182652	32.000000	n/a	8	1.953125e-02	1.953125e-02
277.254120	1.182652	dec_social_accept	1.182652	32.000000	n/a	8	-3.216912e-02	-3.216912e-02
277.254120	1.182652	dec_accept	1.182652	32.000000	n/a	8	-2.467105e-02	-2.467105e-02
277.254120	1.182652	dec_social_high	1.182652	32.000000	n/a	8	1.953125e-02	1.953125e-02
277.254120	1.182652	dec_social_accept_high	1.182652	32.000000	n/a	8	1.953125e-02	1.953125e-02
284.903500	1.266111	dec_social_choice	1.266111	32.000000	n/a	16	2.759309e-01	2.759309e-01
284.903500	1.266111	dec_choice	1.266111	32.000000	n/a	16	2.695312e-01	2.695312e-01
284.903500	1.266111	dec_social_accept	1.266111	32.000000	n/a	16	2.178309e-01	2.178309e-01
284.903500	1.266111	dec_accept	1.266111	32.000000	n/a	16	2.253289e-01	2.253289e-01
284.903500	1.266111	dec_social_high	1.266111	32.000000	n/a	16	2.695312e-01	2.695312e-01
284.903500	1.266111	dec_social_accept_high	1.266111	32.000000	n/a	16	2.695312e-01	2.695312e-01
291.737100	2.215885	dec_social_choice	2.215885	16.000000	n/a	4	2.593085e-02	2.593085e-02
291.737100	2.215885	dec_choice	2.215885	16.000000	n/a	4	1.953125e-02	1.953125e-02
291.737100	2.215885	dec_social_accept	2.215885	16.000000	n/a	4	-3.216912e-02	-3.216912e-02
291.737100	2.215885	dec_accept	2.215885	16.000000	n/a	4	-2.467105e-02	-2.467105e-02
291.737100	2.215885	dec_social_accept_high	2.215885	16.000000	n/a	4	1.953125e-02	1.953125e-02
299.387180	1.865781	dec_social_choice	1.865781	32.000000	n/a	16	2.759309e-01	2.759309e-01
299.387180	1.865781	dec_choice	1.865781	32.000000	n/a	16	2.695312e-01	2.695312e-01
299.387180	1.865781	dec_social_accept	1.865781	32.000000	n/a	16	2.178309e-01	2.178309e-01
299.387180	1.865781	dec_accept	1.865781	32.000000	n/a	16	2.253289e-01	2.253289e-01
299.387180	1.865781	dec_social_high	1.865781	32.000000	n/a	16	2.695312e-01	2.695312e-01
299.387180	1.865781	dec_social_accept_high	1.865781	32.000000	n/a	16	2.695312e-01	2.695312e-01
307.037170	1.965922	dec_nonsocial_choice	1.965922	32.000000	n/a	0	0	-2.240691e-01
307.037170	1.965922	dec_choice	1.965922	32.000000	n/a	0	0	-2.173913e-01
307.037170	1.965922	dec_nonsocial_reject	1.965922	32.000000	n/a	0	0	2.163462e-02
307.037170	1.965922	dec_reject	1.965922	32.000000	n/a	0	0	1.562500e-02
307.037170	1.965922	dec_nonsocial_reject_low	1.965922	32.000000	n/a	3	3.125000e-02	-6.250000e-02
317.903100	1.400226	dec_social_choice	1.400226	16.000000	n/a	4	2.593085e-02	2.593085e-02
317.903100	1.400226	dec_choice	1.400226	16.000000	n/a	4	1.953125e-02	1.953125e-02
317.903100	1.400226	dec_social_accept	1.400226	16.000000	n/a	4	-3.216912e-02	-3.216912e-02
317.903100	1.400226	dec_accept	1.400226	16.000000	n/a	4	-2.467105e-02	-2.467105e-02
317.903100	1.400226	dec_social_high	1.400226	16.000000	n/a	4	1.953125e-02	1.953125e-02
317.903100	1.400226	dec_social_accept_high	1.400226	16.000000	n/a	4	1.953125e-02	1.953125e-02
324.737000	1.799618	dec_social_choice	1.799618	32.000000	n/a	8	2.593085e-02	2.593085e-02
324.737000	1.799618	dec_choice	1.799618	32.000000	n/a	8	1.953125e-02	1.953125e-02
324.737000	1.799618	dec_social_accept	1.799618	32.000000	n/a	8	-3.216912e-02	-3.216912e-02
324.737000	1.799618	dec_accept	1.799618	32.000000	n/a	8	-2.467105e-02	-2.467105e-02
324.737000	1.799618	dec_social_accept_high	1.799618	32.000000	n/a	8	1.953125e-02	1.953125e-02
331.570040	2.049720	dec_nonsocial_choice	2.049720	32.000000	n/a	2	-1.615691e-01	-1.615691e-01
331.570040	2.049720	dec_choice	2.049720	32.000000	n/a	2	-1.548913e-01	-1.548913e-01
331.570040	2.049720	dec_nonsocial_accept	2.049720	32.000000	n/a	2	-2.196691e-01	-2.196691e-01
331.570040	2.049720	dec_accept	2.049720	32.000000	n/a	2	-2.291667e-01	-2.291667e-01
331.570040	2.049720	dec_nonsocial_accept_low	2.049720	32.000000	n/a	2	-2.121711e-01	-2.121711e-01
342.436600	1.733342	dec_social_choice	1.733342	16.000000	n/a	0	0	-2.240691e-01
342.436600	1.733342	dec_choice	1.733342	16.000000	n/a	0	0	-2.304688e-01
342.436600	1.733342	dec_social_reject	1.733342	16.000000	n/a	0	0	-9.615385e-03
342.436600	1.733342	dec_reject	1.733342	16.000000	n/a	0	0	0
342.436600	1.733342	dec_social_reject_low	1.733342	16.000000	n/a	1	-1.679688e-01	-2.304688e-01
349.269200	1.500659	dec_social_choice	1.500659	32.000000	n/a	16	2.759309e-01	2.759309e-01
349.269200	1.500659	dec_choice	1.500659	32.000000	n/a	16	2.695312e-01	2.695312e-01
349.269200	1.500659	dec_social_accept	1.500659	32.000000	n/a	16	2.178309e-01	2.178309e-01
349.269200	1.500659	dec_accept	1.500659	32.000000	n/a	16	2.253289e-01	2.253289e-01
349.269200	1.500659	dec_social_high	1.500659	32.000000	n/a	16	2.695312e-01	2.695312e-01
349.269200	1.500659	dec_social_accept_high	1.500659	32.000000	n/a	16	2.695312e-01	2.695312e-01
356.103450	1.615997	dec_nonsocial_choice	1.615997	32.000000	n/a	0	0	-2.240691e-01
356.103450	1.615997	dec_choice	1.615997	32.000000	n/a	0	0	-2.173913e-01
356.103450	1.615997	dec_nonsocial_reject	1.615997	32.000000	n/a	0	0	-9.615385e-03
356.103450	1.615997	dec_reject	1.615997	32.000000	n/a	0	0	-1.562500e-02
356.103450	1.615997	dec_nonsocial_reject_low	1.615997	32.000000	n/a	2	0	-6.250000e-02
362.936070	2.050875	dec_social_choice	2.050875	32.000000	n/a	3	-1.303191e-01	-1.303191e-01
362.936070	2.050875	dec_choice	2.050875	32.000000	n/a	3	-1.367188e-01	-1.367188e-01
362.936070	2.050875	dec_social_accept	2.050875	32.000000	n/a	3	-1.884191e-01	-1.884191e-01
362.936070	2.050875	dec_accept	2.050875	32.000000	n/a	3	-1.809211e-01	-1.809211e-01
362.936070	2.050875	dec_social_low	2.050875	32.000000	n/a	3	-1.367188e-01	-1.367188e-01
362.936070	2.050875	dec_social_accept_low	2.050875	32.000000	n/a	3	-1.367188e-01	-1.367188e-01
372.186300	1.600265	dec_social_choice	1.600265	32.000000	n/a	8	2.593085e-02	2.593085e-02
372.186300	1.600265	dec_choice	1.600265	32.000000	n/a	8	1.953125e-02	1.953125e-02
372.186300	1.600265	dec_social_accept	1.600265	32.000000	n/a	8	-3.216912e-02	-3.216912e-02
372.186300	1.600265	dec_accept	1.600265	32.000000	n/a	8	-2.467105e-02	-2.467105e-02
372.186300	1.600265	dec_social_accept_high	1.600265	32.000000	n/a	8	1.953125e-02	1.953125e-02
