onset	duration	trial_type	response_time	Endowment	Endowment_pmod	Decision	Decision_pmod	Offer_pmod
4.514769	2	cue_nonsocial	n/a	16	-9	n/a	n/a	n/a
4.514769	2	cue_nonsocial_low	n/a	16	-10	n/a	n/a	n/a
12.230623	2	cue_social	n/a	16	-10	n/a	n/a	n/a
12.230623	2	cue_social_low	n/a	16	-9	n/a	n/a	n/a
19.797892	2	cue_nonsocial	n/a	32	7	n/a	n/a	n/a
19.797892	2	cue_nonsocial_high	n/a	32	6	n/a	n/a	n/a
30.734987	2	cue_social	n/a	32	6	n/a	n/a	n/a
30.734987	2	cue_social_high	n/a	32	7	n/a	n/a	n/a
37.580090	2	cue_social	n/a	32	6	n/a	n/a	n/a
37.580090	2	cue_social_high	n/a	32	7	n/a	n/a	n/a
46.747746	2	cue_nonsocial	n/a	32	7	n/a	n/a	n/a
46.747746	2	cue_nonsocial_high	n/a	32	6	n/a	n/a	n/a
53.581375	2	cue_nonsocial	n/a	32	7	n/a	n/a	n/a
53.581375	2	cue_nonsocial_high	n/a	32	6	n/a	n/a	n/a
61.301613	2	cue_social	n/a	16	-10	n/a	n/a	n/a
61.301613	2	cue_social_low	n/a	16	-9	n/a	n/a	n/a
68.109970	2	cue_social	n/a	16	-10	n/a	n/a	n/a
68.109970	2	cue_social_low	n/a	16	-9	n/a	n/a	n/a
74.898360	2	cue_social	n/a	32	6	n/a	n/a	n/a
74.898360	2	cue_social_high	n/a	32	7	n/a	n/a	n/a
84.148510	2	cue_nonsocial	n/a	32	7	n/a	n/a	n/a
84.148510	2	cue_nonsocial_high	n/a	32	6	n/a	n/a	n/a
91.798090	2	cue_nonsocial	n/a	32	7	n/a	n/a	n/a
91.798090	2	cue_nonsocial_high	n/a	32	6	n/a	n/a	n/a
98.700560	2	cue_social	n/a	32	6	n/a	n/a	n/a
98.700560	2	cue_social_high	n/a	32	7	n/a	n/a	n/a
105.552310	2	cue_social	n/a	32	6	n/a	n/a	n/a
105.552310	2	cue_social_high	n/a	32	7	n/a	n/a	n/a
112.375060	2	cue_social	n/a	32	6	n/a	n/a	n/a
112.375060	2	cue_social_high	n/a	32	7	n/a	n/a	n/a
123.164700	2	cue_nonsocial	n/a	32	7	n/a	n/a	n/a
123.164700	2	cue_nonsocial_high	n/a	32	6	n/a	n/a	n/a
134.030850	2	cue_nonsocial	n/a	16	-9	n/a	n/a	n/a
134.030850	2	cue_nonsocial_low	n/a	16	-10	n/a	n/a	n/a
141.681060	2	cue_nonsocial	n/a	32	7	n/a	n/a	n/a
141.681060	2	cue_nonsocial_high	n/a	32	6	n/a	n/a	n/a
149.330900	2	cue_nonsocial	n/a	16	-9	n/a	n/a	n/a
149.330900	2	cue_nonsocial_low	n/a	16	-10	n/a	n/a	n/a
156.981140	2	cue_nonsocial	n/a	16	-9	n/a	n/a	n/a
156.981140	2	cue_nonsocial_low	n/a	16	-10	n/a	n/a	n/a
163.879040	2	cue_social	n/a	16	-10	n/a	n/a	n/a
163.879040	2	cue_social_low	n/a	16	-9	n/a	n/a	n/a
170.701720	2	cue_social	n/a	16	-10	n/a	n/a	n/a
170.701720	2	cue_social_low	n/a	16	-9	n/a	n/a	n/a
179.897770	2	cue_nonsocial	n/a	32	7	n/a	n/a	n/a
179.897770	2	cue_nonsocial_high	n/a	32	6	n/a	n/a	n/a
186.731120	2	cue_nonsocial	n/a	16	-9	n/a	n/a	n/a
186.731120	2	cue_nonsocial_low	n/a	16	-10	n/a	n/a	n/a
193.634200	2	cue_social	n/a	32	6	n/a	n/a	n/a
193.634200	2	cue_social_high	n/a	32	7	n/a	n/a	n/a
200.414340	2	cue_nonsocial	n/a	16	-9	n/a	n/a	n/a
200.414340	2	cue_nonsocial_low	n/a	16	-10	n/a	n/a	n/a
207.248180	2	cue_nonsocial	n/a	16	-9	n/a	n/a	n/a
207.248180	2	cue_nonsocial_low	n/a	16	-10	n/a	n/a	n/a
214.947710	2	cue_social	n/a	32	6	n/a	n/a	n/a
214.947710	2	cue_social_high	n/a	32	7	n/a	n/a	n/a
221.831380	2	cue_social	n/a	32	6	n/a	n/a	n/a
221.831380	2	cue_social_high	n/a	32	7	n/a	n/a	n/a
231.059080	2	cue_social	n/a	16	-10	n/a	n/a	n/a
231.059080	2	cue_social_low	n/a	16	-9	n/a	n/a	n/a
238.734620	2	cue_social	n/a	16	-10	n/a	n/a	n/a
238.734620	2	cue_social_low	n/a	16	-9	n/a	n/a	n/a
245.464300	2	cue_nonsocial	n/a	16	-9	n/a	n/a	n/a
245.464300	2	cue_nonsocial_low	n/a	16	-10	n/a	n/a	n/a
253.161350	2	cue_social	n/a	32	6	n/a	n/a	n/a
253.161350	2	cue_social_high	n/a	32	7	n/a	n/a	n/a
259.988650	2	cue_social	n/a	32	6	n/a	n/a	n/a
259.988650	2	cue_social_high	n/a	32	7	n/a	n/a	n/a
267.580900	2	cue_nonsocial	n/a	32	7	n/a	n/a	n/a
267.580900	2	cue_nonsocial_high	n/a	32	6	n/a	n/a	n/a
274.475130	2	cue_social	n/a	32	6	n/a	n/a	n/a
274.475130	2	cue_social_high	n/a	32	7	n/a	n/a	n/a
281.300780	2	cue_social	n/a	32	6	n/a	n/a	n/a
281.300780	2	cue_social_high	n/a	32	7	n/a	n/a	n/a
290.514370	2	cue_nonsocial	n/a	16	-9	n/a	n/a	n/a
290.514370	2	cue_nonsocial_low	n/a	16	-10	n/a	n/a	n/a
298.208920	2	cue_social	n/a	32	6	n/a	n/a	n/a
298.208920	2	cue_social_high	n/a	32	7	n/a	n/a	n/a
305.057920	2	cue_social	n/a	16	-10	n/a	n/a	n/a
305.057920	2	cue_social_low	n/a	16	-9	n/a	n/a	n/a
314.263950	2	cue_nonsocial	n/a	32	7	n/a	n/a	n/a
314.263950	2	cue_nonsocial_high	n/a	32	6	n/a	n/a	n/a
321.914100	2	cue_nonsocial	n/a	32	7	n/a	n/a	n/a
321.914100	2	cue_nonsocial_high	n/a	32	6	n/a	n/a	n/a
328.747100	2	cue_nonsocial	n/a	32	7	n/a	n/a	n/a
328.747100	2	cue_nonsocial_high	n/a	32	6	n/a	n/a	n/a
335.652770	2	cue_social	n/a	32	6	n/a	n/a	n/a
335.652770	2	cue_social_high	n/a	32	7	n/a	n/a	n/a
344.830500	2	cue_nonsocial	n/a	32	7	n/a	n/a	n/a
344.830500	2	cue_nonsocial_high	n/a	32	6	n/a	n/a	n/a
357.314300	2	cue_nonsocial	n/a	16	-9	n/a	n/a	n/a
357.314300	2	cue_nonsocial_low	n/a	16	-10	n/a	n/a	n/a
364.212740	2	cue_social	n/a	16	-10	n/a	n/a	n/a
364.212740	2	cue_social_low	n/a	16	-9	n/a	n/a	n/a
370.981380	2	cue_nonsocial	n/a	16	-9	n/a	n/a	n/a
370.981380	2	cue_nonsocial_low	n/a	16	-10	n/a	n/a	n/a
6.521289	2.083177	dec_nonsocial_choice	2.083177	16.000000	n/a	4	1.795213e-02	1.795213e-02
6.521289	2.083177	dec_choice	2.083177	16.000000	n/a	4	1.494565e-02	1.494565e-02
6.521289	2.083177	dec_nonsocial_accept	2.083177	16.000000	n/a	4	0	0
6.521289	2.083177	dec_accept	2.083177	16.000000	n/a	4	-1.488095e-03	-1.488095e-03
6.521289	2.083177	dec_nonsocial_high	2.083177	16.000000	n/a	4	1.494565e-02	1.494565e-02
6.521289	2.083177	dec_nonsocial_accept_high	2.083177	16.000000	n/a	4	-1.488095e-03	-1.488095e-03
14.170990	2.350195	dec_social_choice	2.350195	16.000000	n/a	8	2.679521e-01	2.679521e-01
14.170990	2.350195	dec_choice	2.350195	16.000000	n/a	8	2.708333e-01	2.708333e-01
14.170990	2.350195	dec_social_accept	2.350195	16.000000	n/a	8	2.500000e-01	2.500000e-01
14.170990	2.350195	dec_accept	2.350195	16.000000	n/a	8	2.514881e-01	2.514881e-01
14.170990	2.350195	dec_social_high	2.350195	16.000000	n/a	8	2.708333e-01	2.708333e-01
14.170990	2.350195	dec_social_accept_high	2.350195	16.000000	n/a	8	2.708333e-01	2.708333e-01
21.804903	1.982768	dec_nonsocial_choice	1.982768	32.000000	n/a	16	2.679521e-01	2.679521e-01
21.804903	1.982768	dec_choice	1.982768	32.000000	n/a	16	2.649457e-01	2.649457e-01
21.804903	1.982768	dec_nonsocial_accept	1.982768	32.000000	n/a	16	2.500000e-01	2.500000e-01
21.804903	1.982768	dec_accept	1.982768	32.000000	n/a	16	2.485119e-01	2.485119e-01
21.804903	1.982768	dec_nonsocial_accept_high	1.982768	32.000000	n/a	16	2.514881e-01	2.514881e-01
32.671883	2.215471	dec_social_choice	2.215471	32.000000	n/a	16	2.679521e-01	2.679521e-01
32.671883	2.215471	dec_choice	2.215471	32.000000	n/a	16	2.708333e-01	2.708333e-01
32.671883	2.215471	dec_social_accept	2.215471	32.000000	n/a	16	2.500000e-01	2.500000e-01
32.671883	2.215471	dec_accept	2.215471	32.000000	n/a	16	2.514881e-01	2.514881e-01
32.671883	2.215471	dec_social_high	2.215471	32.000000	n/a	16	2.708333e-01	2.708333e-01
32.671883	2.215471	dec_social_accept_high	2.215471	32.000000	n/a	16	2.708333e-01	2.708333e-01
39.503986	2.417695	dec_social_choice	2.417695	32.000000	n/a	0	0	-2.320479e-01
39.503986	2.417695	dec_choice	2.417695	32.000000	n/a	0	0	-2.291667e-01
39.503986	2.417695	dec_social_reject	2.417695	32.000000	n/a	0	0	1.250000e-02
39.503986	2.417695	dec_reject	2.417695	32.000000	n/a	0	0	0
39.503986	2.417695	dec_social_reject_low	2.417695	32.000000	n/a	3	-1.354167e-01	-2.291667e-01
48.754112	1.716648	dec_nonsocial_choice	1.716648	32.000000	n/a	8	1.795213e-02	1.795213e-02
48.754112	1.716648	dec_choice	1.716648	32.000000	n/a	8	1.494565e-02	1.494565e-02
48.754112	1.716648	dec_nonsocial_accept	1.716648	32.000000	n/a	8	0	0
48.754112	1.716648	dec_accept	1.716648	32.000000	n/a	8	-1.488095e-03	-1.488095e-03
48.754112	1.716648	dec_nonsocial_accept_high	1.716648	32.000000	n/a	8	1.488095e-03	1.488095e-03
55.588880	2.364935	dec_nonsocial_choice	2.364935	32.000000	n/a	0	0	-2.320479e-01
55.588880	2.364935	dec_choice	2.364935	32.000000	n/a	0	0	-2.350543e-01
55.588880	2.364935	dec_nonsocial_reject	2.364935	32.000000	n/a	0	0	-1.875000e-02
55.588880	2.364935	dec_reject	2.364935	32.000000	n/a	0	0	0
55.588880	2.364935	dec_nonsocial_reject_low	2.364935	32.000000	n/a	2	-3.125000e-02	-9.375000e-02
63.237060	2.500707	dec_social_choice	2.500707	16.000000	n/a	0	0	-2.320479e-01
63.237060	2.500707	dec_choice	2.500707	16.000000	n/a	0	0	-2.291667e-01
63.237060	2.500707	dec_social_reject	2.500707	16.000000	n/a	0	0	4.375000e-02
63.237060	2.500707	dec_reject	2.500707	16.000000	n/a	0	0	3.125000e-02
63.237060	2.500707	dec_social_reject_low	2.500707	16.000000	n/a	2	-1.041667e-01	-2.291667e-01
70.070920	1.933609	dec_social_choice	1.933609	16.000000	n/a	0	0	-2.320479e-01
70.070920	1.933609	dec_choice	1.933609	16.000000	n/a	0	0	-2.291667e-01
70.070920	1.933609	dec_social_reject	1.933609	16.000000	n/a	0	0	-1.875000e-02
70.070920	1.933609	dec_reject	1.933609	16.000000	n/a	0	0	-3.125000e-02
70.070920	1.933609	dec_social_reject_low	1.933609	16.000000	n/a	1	-1.666667e-01	-2.291667e-01
76.904780	1.932988	dec_social_choice	1.932988	32.000000	n/a	3	-1.382979e-01	-1.382979e-01
76.904780	1.932988	dec_choice	1.932988	32.000000	n/a	3	-1.354167e-01	-1.354167e-01
76.904780	1.932988	dec_social_accept	1.932988	32.000000	n/a	3	-1.562500e-01	-1.562500e-01
76.904780	1.932988	dec_accept	1.932988	32.000000	n/a	3	-1.547619e-01	-1.547619e-01
76.904780	1.932988	dec_social_low	1.932988	32.000000	n/a	3	-1.354167e-01	-1.354167e-01
76.904780	1.932988	dec_social_accept_low	1.932988	32.000000	n/a	3	-1.354167e-01	-1.354167e-01
86.154560	2.016201	dec_nonsocial_choice	2.016201	32.000000	n/a	2	-1.695479e-01	-1.695479e-01
86.154560	2.016201	dec_choice	2.016201	32.000000	n/a	2	-1.725543e-01	-1.725543e-01
86.154560	2.016201	dec_nonsocial_accept	2.016201	32.000000	n/a	2	-1.875000e-01	-1.875000e-01
86.154560	2.016201	dec_accept	2.016201	32.000000	n/a	2	-1.889881e-01	-1.889881e-01
86.154560	2.016201	dec_nonsocial_accept_low	2.016201	32.000000	n/a	2	-1.860119e-01	-1.860119e-01
93.804970	2.183035	dec_nonsocial_choice	2.183035	32.000000	n/a	8	1.795213e-02	1.795213e-02
93.804970	2.183035	dec_choice	2.183035	32.000000	n/a	8	1.494565e-02	1.494565e-02
93.804970	2.183035	dec_nonsocial_accept	2.183035	32.000000	n/a	8	0	0
93.804970	2.183035	dec_accept	2.183035	32.000000	n/a	8	-1.488095e-03	-1.488095e-03
93.804970	2.183035	dec_nonsocial_high	2.183035	32.000000	n/a	8	1.494565e-02	1.494565e-02
93.804970	2.183035	dec_nonsocial_accept_high	2.183035	32.000000	n/a	8	-1.488095e-03	-1.488095e-03
100.637640	1.633593	dec_social_choice	1.633593	32.000000	n/a	2	-1.695479e-01	-1.695479e-01
100.637640	1.633593	dec_choice	1.633593	32.000000	n/a	2	-1.666667e-01	-1.666667e-01
100.637640	1.633593	dec_social_accept	1.633593	32.000000	n/a	2	-1.875000e-01	-1.875000e-01
100.637640	1.633593	dec_accept	1.633593	32.000000	n/a	2	-1.860119e-01	-1.860119e-01
100.637640	1.633593	dec_social_accept_low	1.633593	32.000000	n/a	2	-1.666667e-01	-1.666667e-01
107.470695	1.683362	dec_social_choice	1.683362	32.000000	n/a	3	-1.382979e-01	-1.382979e-01
107.470695	1.683362	dec_choice	1.683362	32.000000	n/a	3	-1.354167e-01	-1.354167e-01
107.470695	1.683362	dec_social_accept	1.683362	32.000000	n/a	3	-1.562500e-01	-1.562500e-01
107.470695	1.683362	dec_accept	1.683362	32.000000	n/a	3	-1.547619e-01	-1.547619e-01
107.470695	1.683362	dec_social_accept_low	1.683362	32.000000	n/a	3	-1.354167e-01	-1.354167e-01
114.304146	1.750488	dec_social_choice	1.750488	32.000000	n/a	16	2.679521e-01	2.679521e-01
114.304146	1.750488	dec_choice	1.750488	32.000000	n/a	16	2.708333e-01	2.708333e-01
114.304146	1.750488	dec_social_accept	1.750488	32.000000	n/a	16	2.500000e-01	2.500000e-01
114.304146	1.750488	dec_accept	1.750488	32.000000	n/a	16	2.514881e-01	2.514881e-01
114.304146	1.750488	dec_social_high	1.750488	32.000000	n/a	16	2.708333e-01	2.708333e-01
114.304146	1.750488	dec_social_accept_high	1.750488	32.000000	n/a	16	2.708333e-01	2.708333e-01
125.170750	2.066562	dec_nonsocial_choice	2.066562	32.000000	n/a	16	2.679521e-01	2.679521e-01
125.170750	2.066562	dec_choice	2.066562	32.000000	n/a	16	2.649457e-01	2.649457e-01
125.170750	2.066562	dec_nonsocial_accept	2.066562	32.000000	n/a	16	2.500000e-01	2.500000e-01
125.170750	2.066562	dec_accept	2.066562	32.000000	n/a	16	2.485119e-01	2.485119e-01
125.170750	2.066562	dec_nonsocial_accept_high	2.066562	32.000000	n/a	16	2.514881e-01	2.514881e-01
136.038160	1.432854	dec_nonsocial_choice	1.432854	16.000000	n/a	2	-1.070479e-01	-1.070479e-01
136.038160	1.432854	dec_choice	1.432854	16.000000	n/a	2	-1.100543e-01	-1.100543e-01
136.038160	1.432854	dec_nonsocial_accept	1.432854	16.000000	n/a	2	-1.250000e-01	-1.250000e-01
136.038160	1.432854	dec_accept	1.432854	16.000000	n/a	2	-1.264881e-01	-1.264881e-01
136.038160	1.432854	dec_nonsocial_accept_low	1.432854	16.000000	n/a	2	-1.235119e-01	-1.235119e-01
143.687900	1.866076	dec_nonsocial_choice	1.866076	32.000000	n/a	3	-1.382979e-01	-1.382979e-01
143.687900	1.866076	dec_choice	1.866076	32.000000	n/a	3	-1.413043e-01	-1.413043e-01
143.687900	1.866076	dec_nonsocial_accept	1.866076	32.000000	n/a	3	-1.562500e-01	-1.562500e-01
143.687900	1.866076	dec_accept	1.866076	32.000000	n/a	3	-1.577381e-01	-1.577381e-01
143.687900	1.866076	dec_nonsocial_low	1.866076	32.000000	n/a	3	-1.413043e-01	-1.413043e-01
143.687900	1.866076	dec_nonsocial_accept_low	1.866076	32.000000	n/a	3	-1.577381e-01	-1.577381e-01
151.338790	2.482414	dec_nonsocial_choice	2.482414	16.000000	n/a	1	-1.695479e-01	-1.695479e-01
151.338790	2.482414	dec_choice	2.482414	16.000000	n/a	1	-1.725543e-01	-1.725543e-01
151.338790	2.482414	dec_nonsocial_accept	2.482414	16.000000	n/a	1	-1.875000e-01	-1.875000e-01
151.338790	2.482414	dec_accept	2.482414	16.000000	n/a	1	-1.889881e-01	-1.889881e-01
151.338790	2.482414	dec_nonsocial_accept_low	2.482414	16.000000	n/a	1	-1.860119e-01	-1.860119e-01
158.987930	2.499747	dec_nonsocial_choice	2.499747	16.000000	n/a	8	2.679521e-01	2.679521e-01
158.987930	2.499747	dec_choice	2.499747	16.000000	n/a	8	2.649457e-01	2.649457e-01
158.987930	2.499747	dec_nonsocial_accept	2.499747	16.000000	n/a	8	2.500000e-01	2.500000e-01
158.987930	2.499747	dec_accept	2.499747	16.000000	n/a	8	2.485119e-01	2.485119e-01
158.987930	2.499747	dec_nonsocial_accept_high	2.499747	16.000000	n/a	8	2.514881e-01	2.514881e-01
165.820940	1.700149	dec_social_choice	1.700149	16.000000	n/a	8	2.679521e-01	2.679521e-01
165.820940	1.700149	dec_choice	1.700149	16.000000	n/a	8	2.708333e-01	2.708333e-01
165.820940	1.700149	dec_social_accept	1.700149	16.000000	n/a	8	2.500000e-01	2.500000e-01
165.820940	1.700149	dec_accept	1.700149	16.000000	n/a	8	2.514881e-01	2.514881e-01
165.820940	1.700149	dec_social_high	1.700149	16.000000	n/a	8	2.708333e-01	2.708333e-01
165.820940	1.700149	dec_social_accept_high	1.700149	16.000000	n/a	8	2.708333e-01	2.708333e-01
172.653850	2.566742	dec_social_choice	2.566742	16.000000	n/a	1	-1.695479e-01	-1.695479e-01
172.653850	2.566742	dec_choice	2.566742	16.000000	n/a	1	-1.666667e-01	-1.666667e-01
172.653850	2.566742	dec_social_accept	2.566742	16.000000	n/a	1	-1.875000e-01	-1.875000e-01
172.653850	2.566742	dec_accept	2.566742	16.000000	n/a	1	-1.860119e-01	-1.860119e-01
172.653850	2.566742	dec_social_low	2.566742	16.000000	n/a	1	-1.666667e-01	-1.666667e-01
172.653850	2.566742	dec_social_accept_low	2.566742	16.000000	n/a	1	-1.666667e-01	-1.666667e-01
181.903700	3.100546	dec_nonsocial_choice	3.100546	32.000000	n/a	8	1.795213e-02	1.795213e-02
181.903700	3.100546	dec_choice	3.100546	32.000000	n/a	8	1.494565e-02	1.494565e-02
181.903700	3.100546	dec_nonsocial_accept	3.100546	32.000000	n/a	8	0	0
181.903700	3.100546	dec_accept	3.100546	32.000000	n/a	8	-1.488095e-03	-1.488095e-03
181.903700	3.100546	dec_nonsocial_accept_high	3.100546	32.000000	n/a	8	1.488095e-03	1.488095e-03
188.737500	3.766946	missed_trial	3.766946	16.000000	n/a	n/a	n/a	n/a
195.587940	1.349664	dec_social_choice	1.349664	32.000000	n/a	3	-1.382979e-01	-1.382979e-01
195.587940	1.349664	dec_choice	1.349664	32.000000	n/a	3	-1.354167e-01	-1.354167e-01
195.587940	1.349664	dec_social_accept	1.349664	32.000000	n/a	3	-1.562500e-01	-1.562500e-01
195.587940	1.349664	dec_accept	1.349664	32.000000	n/a	3	-1.547619e-01	-1.547619e-01
195.587940	1.349664	dec_social_accept_low	1.349664	32.000000	n/a	3	-1.354167e-01	-1.354167e-01
202.420930	1.800046	dec_nonsocial_choice	1.800046	16.000000	n/a	0	0	-2.320479e-01
202.420930	1.800046	dec_choice	1.800046	16.000000	n/a	0	0	-2.350543e-01
202.420930	1.800046	dec_nonsocial_reject	1.800046	16.000000	n/a	0	0	-1.875000e-02
202.420930	1.800046	dec_reject	1.800046	16.000000	n/a	0	0	0
202.420930	1.800046	dec_nonsocial_reject_low	1.800046	16.000000	n/a	1	-3.125000e-02	-9.375000e-02
209.254010	1.700237	dec_nonsocial_choice	1.700237	16.000000	n/a	8	2.679521e-01	2.679521e-01
209.254010	1.700237	dec_choice	1.700237	16.000000	n/a	8	2.649457e-01	2.649457e-01
209.254010	1.700237	dec_nonsocial_accept	1.700237	16.000000	n/a	8	2.500000e-01	2.500000e-01
209.254010	1.700237	dec_accept	1.700237	16.000000	n/a	8	2.485119e-01	2.485119e-01
209.254010	1.700237	dec_nonsocial_high	1.700237	16.000000	n/a	8	2.649457e-01	2.649457e-01
209.254010	1.700237	dec_nonsocial_accept_high	1.700237	16.000000	n/a	8	2.485119e-01	2.485119e-01
216.904160	1.433255	dec_social_choice	1.433255	32.000000	n/a	8	1.795213e-02	1.795213e-02
216.904160	1.433255	dec_choice	1.433255	32.000000	n/a	8	2.083333e-02	2.083333e-02
216.904160	1.433255	dec_social_accept	1.433255	32.000000	n/a	8	0	0
216.904160	1.433255	dec_accept	1.433255	32.000000	n/a	8	1.488095e-03	1.488095e-03
216.904160	1.433255	dec_social_accept_high	1.433255	32.000000	n/a	8	2.083333e-02	2.083333e-02
223.737000	3.150557	dec_social_choice	3.150557	32.000000	n/a	16	2.679521e-01	2.679521e-01
223.737000	3.150557	dec_choice	3.150557	32.000000	n/a	16	2.708333e-01	2.708333e-01
223.737000	3.150557	dec_social_accept	3.150557	32.000000	n/a	16	2.500000e-01	2.500000e-01
223.737000	3.150557	dec_accept	3.150557	32.000000	n/a	16	2.514881e-01	2.514881e-01
223.737000	3.150557	dec_social_high	3.150557	32.000000	n/a	16	2.708333e-01	2.708333e-01
223.737000	3.150557	dec_social_accept_high	3.150557	32.000000	n/a	16	2.708333e-01	2.708333e-01
232.987990	1.532413	dec_social_choice	1.532413	16.000000	n/a	2	-1.070479e-01	-1.070479e-01
232.987990	1.532413	dec_choice	1.532413	16.000000	n/a	2	-1.041667e-01	-1.041667e-01
232.987990	1.532413	dec_social_accept	1.532413	16.000000	n/a	2	-1.250000e-01	-1.250000e-01
232.987990	1.532413	dec_accept	1.532413	16.000000	n/a	2	-1.235119e-01	-1.235119e-01
232.987990	1.532413	dec_social_accept_low	1.532413	16.000000	n/a	2	-1.041667e-01	-1.041667e-01
240.637680	2.132972	dec_social_choice	2.132972	16.000000	n/a	4	1.795213e-02	1.795213e-02
240.637680	2.132972	dec_choice	2.132972	16.000000	n/a	4	2.083333e-02	2.083333e-02
240.637680	2.132972	dec_social_accept	2.132972	16.000000	n/a	4	0	0
240.637680	2.132972	dec_accept	2.132972	16.000000	n/a	4	1.488095e-03	1.488095e-03
240.637680	2.132972	dec_social_accept_high	2.132972	16.000000	n/a	4	2.083333e-02	2.083333e-02
247.469960	2.034177	dec_nonsocial_choice	2.034177	16.000000	n/a	4	1.795213e-02	1.795213e-02
247.469960	2.034177	dec_choice	2.034177	16.000000	n/a	4	1.494565e-02	1.494565e-02
247.469960	2.034177	dec_nonsocial_accept	2.034177	16.000000	n/a	4	0	0
247.469960	2.034177	dec_accept	2.034177	16.000000	n/a	4	-1.488095e-03	-1.488095e-03
247.469960	2.034177	dec_nonsocial_high	2.034177	16.000000	n/a	4	1.494565e-02	1.494565e-02
247.469960	2.034177	dec_nonsocial_accept_high	2.034177	16.000000	n/a	4	-1.488095e-03	-1.488095e-03
255.104950	1.682632	dec_social_choice	1.682632	32.000000	n/a	8	1.795213e-02	1.795213e-02
255.104950	1.682632	dec_choice	1.682632	32.000000	n/a	8	2.083333e-02	2.083333e-02
255.104950	1.682632	dec_social_accept	1.682632	32.000000	n/a	8	0	0
255.104950	1.682632	dec_accept	1.682632	32.000000	n/a	8	1.488095e-03	1.488095e-03
255.104950	1.682632	dec_social_high	1.682632	32.000000	n/a	8	2.083333e-02	2.083333e-02
255.104950	1.682632	dec_social_accept_high	1.682632	32.000000	n/a	8	2.083333e-02	2.083333e-02
261.938050	1.683173	dec_social_choice	1.683173	32.000000	n/a	2	-1.695479e-01	-1.695479e-01
261.938050	1.683173	dec_choice	1.683173	32.000000	n/a	2	-1.666667e-01	-1.666667e-01
261.938050	1.683173	dec_social_accept	1.683173	32.000000	n/a	2	-1.875000e-01	-1.875000e-01
261.938050	1.683173	dec_accept	1.683173	32.000000	n/a	2	-1.860119e-01	-1.860119e-01
261.938050	1.683173	dec_social_accept_low	1.683173	32.000000	n/a	2	-1.666667e-01	-1.666667e-01
269.587070	1.650458	dec_nonsocial_choice	1.650458	32.000000	n/a	3	-1.382979e-01	-1.382979e-01
269.587070	1.650458	dec_choice	1.650458	32.000000	n/a	3	-1.413043e-01	-1.413043e-01
269.587070	1.650458	dec_nonsocial_accept	1.650458	32.000000	n/a	3	-1.562500e-01	-1.562500e-01
269.587070	1.650458	dec_accept	1.650458	32.000000	n/a	3	-1.577381e-01	-1.577381e-01
269.587070	1.650458	dec_nonsocial_low	1.650458	32.000000	n/a	3	-1.413043e-01	-1.413043e-01
269.587070	1.650458	dec_nonsocial_accept_low	1.650458	32.000000	n/a	3	-1.577381e-01	-1.577381e-01
276.421940	1.548936	dec_social_choice	1.548936	32.000000	n/a	8	1.795213e-02	1.795213e-02
276.421940	1.548936	dec_choice	1.548936	32.000000	n/a	8	2.083333e-02	2.083333e-02
276.421940	1.548936	dec_social_accept	1.548936	32.000000	n/a	8	0	0
276.421940	1.548936	dec_accept	1.548936	32.000000	n/a	8	1.488095e-03	1.488095e-03
276.421940	1.548936	dec_social_high	1.548936	32.000000	n/a	8	2.083333e-02	2.083333e-02
276.421940	1.548936	dec_social_accept_high	1.548936	32.000000	n/a	8	2.083333e-02	2.083333e-02
283.254000	1.316308	dec_social_choice	1.316308	32.000000	n/a	2	-1.695479e-01	-1.695479e-01
283.254000	1.316308	dec_choice	1.316308	32.000000	n/a	2	-1.666667e-01	-1.666667e-01
283.254000	1.316308	dec_social_accept	1.316308	32.000000	n/a	2	-1.875000e-01	-1.875000e-01
283.254000	1.316308	dec_accept	1.316308	32.000000	n/a	2	-1.860119e-01	-1.860119e-01
283.254000	1.316308	dec_social_low	1.316308	32.000000	n/a	2	-1.666667e-01	-1.666667e-01
283.254000	1.316308	dec_social_accept_low	1.316308	32.000000	n/a	2	-1.666667e-01	-1.666667e-01
292.520630	1.466233	dec_nonsocial_choice	1.466233	16.000000	n/a	2	-1.070479e-01	-1.070479e-01
292.520630	1.466233	dec_choice	1.466233	16.000000	n/a	2	-1.100543e-01	-1.100543e-01
292.520630	1.466233	dec_nonsocial_accept	1.466233	16.000000	n/a	2	-1.250000e-01	-1.250000e-01
292.520630	1.466233	dec_accept	1.466233	16.000000	n/a	2	-1.264881e-01	-1.264881e-01
292.520630	1.466233	dec_nonsocial_accept_low	1.466233	16.000000	n/a	2	-1.235119e-01	-1.235119e-01
300.170930	1.166209	dec_social_choice	1.166209	32.000000	n/a	8	1.795213e-02	1.795213e-02
300.170930	1.166209	dec_choice	1.166209	32.000000	n/a	8	2.083333e-02	2.083333e-02
300.170930	1.166209	dec_social_accept	1.166209	32.000000	n/a	8	0	0
300.170930	1.166209	dec_accept	1.166209	32.000000	n/a	8	1.488095e-03	1.488095e-03
300.170930	1.166209	dec_social_high	1.166209	32.000000	n/a	8	2.083333e-02	2.083333e-02
300.170930	1.166209	dec_social_accept_high	1.166209	32.000000	n/a	8	2.083333e-02	2.083333e-02
307.003900	1.333605	dec_social_choice	1.333605	16.000000	n/a	4	1.795213e-02	1.795213e-02
307.003900	1.333605	dec_choice	1.333605	16.000000	n/a	4	2.083333e-02	2.083333e-02
307.003900	1.333605	dec_social_accept	1.333605	16.000000	n/a	4	0	0
307.003900	1.333605	dec_accept	1.333605	16.000000	n/a	4	1.488095e-03	1.488095e-03
307.003900	1.333605	dec_social_accept_high	1.333605	16.000000	n/a	4	2.083333e-02	2.083333e-02
316.270700	1.683793	dec_nonsocial_choice	1.683793	32.000000	n/a	2	-1.695479e-01	-1.695479e-01
316.270700	1.683793	dec_choice	1.683793	32.000000	n/a	2	-1.725543e-01	-1.725543e-01
316.270700	1.683793	dec_nonsocial_accept	1.683793	32.000000	n/a	2	-1.875000e-01	-1.875000e-01
316.270700	1.683793	dec_accept	1.683793	32.000000	n/a	2	-1.889881e-01	-1.889881e-01
316.270700	1.683793	dec_nonsocial_low	1.683793	32.000000	n/a	2	-1.725543e-01	-1.725543e-01
316.270700	1.683793	dec_nonsocial_accept_low	1.683793	32.000000	n/a	2	-1.889881e-01	-1.889881e-01
323.921050	1.699861	dec_nonsocial_choice	1.699861	32.000000	n/a	2	-1.695479e-01	-1.695479e-01
323.921050	1.699861	dec_choice	1.699861	32.000000	n/a	2	-1.725543e-01	-1.725543e-01
323.921050	1.699861	dec_nonsocial_accept	1.699861	32.000000	n/a	2	-1.875000e-01	-1.875000e-01
323.921050	1.699861	dec_accept	1.699861	32.000000	n/a	2	-1.889881e-01	-1.889881e-01
323.921050	1.699861	dec_nonsocial_accept_low	1.699861	32.000000	n/a	2	-1.860119e-01	-1.860119e-01
330.755100	2.198991	dec_nonsocial_choice	2.198991	32.000000	n/a	3	-1.382979e-01	-1.382979e-01
330.755100	2.198991	dec_choice	2.198991	32.000000	n/a	3	-1.413043e-01	-1.413043e-01
330.755100	2.198991	dec_nonsocial_accept	2.198991	32.000000	n/a	3	-1.562500e-01	-1.562500e-01
330.755100	2.198991	dec_accept	2.198991	32.000000	n/a	3	-1.577381e-01	-1.577381e-01
330.755100	2.198991	dec_nonsocial_low	2.198991	32.000000	n/a	3	-1.413043e-01	-1.413043e-01
330.755100	2.198991	dec_nonsocial_accept_low	2.198991	32.000000	n/a	3	-1.577381e-01	-1.577381e-01
337.586600	1.750921	dec_social_choice	1.750921	32.000000	n/a	2	-1.695479e-01	-1.695479e-01
337.586600	1.750921	dec_choice	1.750921	32.000000	n/a	2	-1.666667e-01	-1.666667e-01
337.586600	1.750921	dec_social_accept	1.750921	32.000000	n/a	2	-1.875000e-01	-1.875000e-01
337.586600	1.750921	dec_accept	1.750921	32.000000	n/a	2	-1.860119e-01	-1.860119e-01
337.586600	1.750921	dec_social_low	1.750921	32.000000	n/a	2	-1.666667e-01	-1.666667e-01
337.586600	1.750921	dec_social_accept_low	1.750921	32.000000	n/a	2	-1.666667e-01	-1.666667e-01
346.837500	1.433182	dec_nonsocial_choice	1.433182	32.000000	n/a	8	1.795213e-02	1.795213e-02
346.837500	1.433182	dec_choice	1.433182	32.000000	n/a	8	1.494565e-02	1.494565e-02
346.837500	1.433182	dec_nonsocial_accept	1.433182	32.000000	n/a	8	0	0
346.837500	1.433182	dec_accept	1.433182	32.000000	n/a	8	-1.488095e-03	-1.488095e-03
346.837500	1.433182	dec_nonsocial_high	1.433182	32.000000	n/a	8	1.494565e-02	1.494565e-02
346.837500	1.433182	dec_nonsocial_accept_high	1.433182	32.000000	n/a	8	-1.488095e-03	-1.488095e-03
359.320700	1.700051	dec_nonsocial_choice	1.700051	16.000000	n/a	8	2.679521e-01	2.679521e-01
359.320700	1.700051	dec_choice	1.700051	16.000000	n/a	8	2.649457e-01	2.649457e-01
359.320700	1.700051	dec_nonsocial_accept	1.700051	16.000000	n/a	8	2.500000e-01	2.500000e-01
359.320700	1.700051	dec_accept	1.700051	16.000000	n/a	8	2.485119e-01	2.485119e-01
359.320700	1.700051	dec_nonsocial_accept_high	1.700051	16.000000	n/a	8	2.514881e-01	2.514881e-01
366.153930	1.549944	dec_social_choice	1.549944	16.000000	n/a	8	2.679521e-01	2.679521e-01
366.153930	1.549944	dec_choice	1.549944	16.000000	n/a	8	2.708333e-01	2.708333e-01
366.153930	1.549944	dec_social_accept	1.549944	16.000000	n/a	8	2.500000e-01	2.500000e-01
366.153930	1.549944	dec_accept	1.549944	16.000000	n/a	8	2.514881e-01	2.514881e-01
366.153930	1.549944	dec_social_high	1.549944	16.000000	n/a	8	2.708333e-01	2.708333e-01
366.153930	1.549944	dec_social_accept_high	1.549944	16.000000	n/a	8	2.708333e-01	2.708333e-01
372.987580	1.683384	dec_nonsocial_choice	1.683384	16.000000	n/a	8	2.679521e-01	2.679521e-01
372.987580	1.683384	dec_choice	1.683384	16.000000	n/a	8	2.649457e-01	2.649457e-01
372.987580	1.683384	dec_nonsocial_accept	1.683384	16.000000	n/a	8	2.500000e-01	2.500000e-01
372.987580	1.683384	dec_accept	1.683384	16.000000	n/a	8	2.485119e-01	2.485119e-01
372.987580	1.683384	dec_nonsocial_accept_high	1.683384	16.000000	n/a	8	2.514881e-01	2.514881e-01
