onset	duration	trial_type	rt	resp	gender	image_left	image_right
0.597506300080568	3.00051119993441	decision	2.0331625998951495	right	S	SD001.jpg	SD002.jpg
4.14715180010535	1.01659829984419	win	n/a	n/a	n/a	SD001.jpg	SD002.jpg
11.0972707001492	3.00177409988828	decision	1.782491099787876	left	S	SD003.jpg	SD004.jpg
14.6473999000154	1.01660940004513	loss	n/a	n/a	n/a	SD003.jpg	SD004.jpg
17.3808408000041	3.00103759998456	decision	2.549466999946162	left	S	SD005.jpg	SD006.jpg
20.9306956001092	1.01638319995254	win	n/a	n/a	n/a	SD005.jpg	SD006.jpg
23.6639306000434	3.00208749994636	decision	2.2829120000824332	left	D	DD001.jpg	DD002.jpg
27.213720300002	1.00016109994613	win	n/a	n/a	n/a	DD001.jpg	DD002.jpg
32.030438200105	3.05001829983667	decision	3.0495030998717993	left	D	DD003.jpg	DD004.jpg
35.6307433000766	1.01640530000441	loss	n/a	n/a	n/a	DD003.jpg	DD004.jpg
42.5638948001433	3.00129249994643	decision	2.0330668999813497	left	S	SD007.jpg	SD008.jpg
46.1136211999692	1.00035300012678	loss	n/a	n/a	n/a	SD007.jpg	SD008.jpg
50.9470921000466	3.00191850005649	decision	1.032808099873364	right	S	SD009.jpg	SD010.jpg
54.4971972000785	1.01697740005329	win	n/a	n/a	n/a	SD009.jpg	SD010.jpg
59.3474711999297	3.00149920000695	decision	2.532904800027609	right	D	DD005.jpg	DD006.jpg
62.8970300999936	1.0000726999715	loss	n/a	n/a	n/a	DD005.jpg	DD006.jpg
65.6307008001022	3.00105469999835	decision	2.2833508998155594	left	D	DD007.jpg	DD008.jpg
69.1806499999948	1.01647399994545	win	n/a	n/a	n/a	DD007.jpg	DD008.jpg
71.9140357000288	3.00078490003943	decision	2.7841634999495	right	D	DD009.jpg	DD010.jpg
75.4658268999774	1.01482170005329	win	n/a	n/a	n/a	DD009.jpg	DD010.jpg
78.1969196000136	3.00115770008415	decision	1.7831536000594497	right	D	DD011.jpg	DD012.jpg
81.7470174999908	1.01691860007122	loss	n/a	n/a	n/a	DD011.jpg	DD012.jpg
86.5969406000804	3.00072809983976	decision	1.2831178000196815	right	S	SD011.jpg	SD012.jpg
90.1469918000512	1.0171119000297	loss	n/a	n/a	n/a	SD011.jpg	SD012.jpg
92.8806264000013	3.00133610004559	decision	2.2828993001021445	right	S	SD013.jpg	SD014.jpg
96.4306342001073	1.0163123998791	win	n/a	n/a	n/a	SD013.jpg	SD014.jpg
103.363825700013	3.0021015999373	decision	2.532887800130993	left	S	SD015.jpg	SD016.jpg
106.913794500055	1.01656330004334	win	n/a	n/a	n/a	SD015.jpg	SD016.jpg
109.647073500091	3.0009471999947	decision	1.782450599828735	left	D	DD013.jpg	DD014.jpg
113.196799899917	1.00011660018936	win	n/a	n/a	n/a	DD013.jpg	DD014.jpg
120.113922100049	3.00010839989409	decision	2.533026099903509	right	S	SD017.jpg	SD018.jpg
123.663945900043	1.01637359987944	win	n/a	n/a	n/a	SD017.jpg	SD018.jpg
128.513947699917	3.00181080005132	decision	2.28321890020743	left	D	DD015.jpg	DD016.jpg
132.06342729996	1.00037889997475	win	n/a	n/a	n/a	DD015.jpg	DD016.jpg
136.914022400044	3.00100590009242	decision	2.7830373998731375	left	S	SD019.jpg	SD020.jpg
140.464058600133	1.01621159981005	win	n/a	n/a	n/a	SD019.jpg	SD020.jpg
145.296808100073	3.00090870005079	decision	2.0331967000383884	left	D	DD017.jpg	DD018.jpg
148.846946300007	1.00002870010212	win	n/a	n/a	n/a	DD017.jpg	DD018.jpg
162.06385980011	3.30010929983109	decision	3.2995791998691857	right	S	SD021.jpg	SD022.jpg
165.913818800123	1.01616599992849	loss	n/a	n/a	n/a	SD021.jpg	SD022.jpg
172.84691520012	3.03506809985265	decision-missed	n/a	n/a	S	SD023.jpg	SD024.jpg
176.430438900134	1.01621039980091	win	n/a	n/a	n/a	SD023.jpg	SD024.jpg
183.363794200122	3.00081499991938	decision	1.7821011999621987	right	S	SD025.jpg	SD026.jpg
186.913707700092	1.01660929992795	loss	n/a	n/a	n/a	SD025.jpg	SD026.jpg
191.74706630013	3.00100869988091	decision	2.0321137998253107	left	S	SD027.jpg	SD028.jpg
195.296947699971	1.01672450010665	loss	n/a	n/a	n/a	SD027.jpg	SD028.jpg
198.063600500114	3.00102850003168	decision	1.7823731999378651	right	D	DD019.jpg	DD020.jpg
201.613327099942	1.00032330001704	loss	n/a	n/a	n/a	DD019.jpg	DD020.jpg
204.330582299968	3.0016040999908	decision	1.5327427999582142	right	D	DD021.jpg	DD022.jpg
207.880140700145	1.01683069998398	win	n/a	n/a	n/a	DD021.jpg	DD022.jpg
214.813577600056	3.00143529986963	decision	1.532992099877447	right	S	SD029.jpg	SD030.jpg
218.363585799932	1.01644380018115	loss	n/a	n/a	n/a	SD029.jpg	SD030.jpg
225.296763099963	3.00126309995539	decision	1.7821843000128865	left	S	SD031.jpg	SD032.jpg
228.846931200009	1.00008130003698	win	n/a	n/a	n/a	SD031.jpg	SD032.jpg
233.663660699967	3.00144689995795	decision	2.2822327001485974	left	D	DD023.jpg	DD024.jpg
237.213574700058	1.01642249990255	loss	n/a	n/a	n/a	DD023.jpg	DD024.jpg
239.946514500072	3.00162160000764	decision	1.7825879999436438	left	D	DD025.jpg	DD026.jpg
243.49691700004	1.01665279990993	win	n/a	n/a	n/a	DD025.jpg	DD026.jpg
248.329887200147	3.00109659996815	decision	1.5331041999161243	right	D	DD027.jpg	DD028.jpg
251.879954400007	1.00002870010212	loss	n/a	n/a	n/a	DD027.jpg	DD028.jpg
254.596754200058	3.001316400012	decision	1.5337004999164492	left	S	SD033.jpg	SD034.jpg
258.146856100066	1.01638749986887	loss	n/a	n/a	n/a	SD033.jpg	SD034.jpg
260.896659600083	3.00203399988823	decision	1.0324207998346537	right	S	SD035.jpg	SD036.jpg
264.446869200096	1.01651789993048	loss	n/a	n/a	n/a	SD035.jpg	SD036.jpg
267.179863400059	3.00063259992748	decision	1.7831061999313533	right	S	SD037.jpg	SD038.jpg
270.730006300146	1.00012719980441	win	n/a	n/a	n/a	SD037.jpg	SD038.jpg
277.646889700089	3.00107019999996	decision	2.2821686000097543	right	D	DD029.jpg	DD030.jpg
281.196583000012	1.0002105999738	loss	n/a	n/a	n/a	DD029.jpg	DD030.jpg
283.930165100144	3.00187529996037	decision	1.032860699808225	left	D	DD031.jpg	DD032.jpg
287.479885099921	1.00012270011939	loss	n/a	n/a	n/a	DD031.jpg	DD032.jpg
292.313402900007	3.0015525999479	decision	1.532833900069818	left	D	DD033.jpg	DD034.jpg
295.86346020014	1.01645349990577	win	n/a	n/a	n/a	DD033.jpg	DD034.jpg
302.796860400122	3.00117879989557	decision	2.0321035999804735	right	S	SD039.jpg	SD040.jpg
306.34640359995	1.00015960005112	loss	n/a	n/a	n/a	SD039.jpg	SD040.jpg
313.279933199985	3.00069739995524	decision	1.0330229999963194	left	D	DD035.jpg	DD036.jpg
316.829947100021	1.01670680008829	win	n/a	n/a	n/a	DD035.jpg	DD036.jpg
319.563492400106	3.00157530000433	decision	1.78252729983069	right	D	DD037.jpg	DD038.jpg
323.113135799998	1.00007810001262	loss	n/a	n/a	n/a	DD037.jpg	DD038.jpg
325.830173800001	3.00203320011497	decision	1.2827870999462903	right	D	DD039.jpg	DD040.jpg
329.380013500107	1.01665090001188	loss	n/a	n/a	n/a	DD039.jpg	DD040.jpg
