onset	duration	trial_type	response_time	Endowment	Endowment_pmod	Decision	Decision_pmod	Offer_pmod
4.577716	2	cue_social	n/a	16	-6	n/a	n/a	n/a
4.577716	2	cue_social_low	n/a	16	-8	n/a	n/a	n/a
13.883276	2	cue_social	n/a	16	-6	n/a	n/a	n/a
13.883276	2	cue_social_low	n/a	16	-8	n/a	n/a	n/a
20.617147	2	cue_nonsocial	n/a	32	8	n/a	n/a	n/a
20.617147	2	cue_nonsocial_high	n/a	32	10	n/a	n/a	n/a
33.100292	2	cue_nonsocial	n/a	16	-8	n/a	n/a	n/a
33.100292	2	cue_nonsocial_low	n/a	16	-6	n/a	n/a	n/a
40.750103	2	cue_nonsocial	n/a	32	8	n/a	n/a	n/a
40.750103	2	cue_nonsocial_high	n/a	32	10	n/a	n/a	n/a
51.617188	2	cue_nonsocial	n/a	16	-8	n/a	n/a	n/a
51.617188	2	cue_nonsocial_low	n/a	16	-6	n/a	n/a	n/a
60.975258	2	cue_social	n/a	16	-6	n/a	n/a	n/a
60.975258	2	cue_social_low	n/a	16	-8	n/a	n/a	n/a
67.808754	2	cue_social	n/a	32	10	n/a	n/a	n/a
67.808754	2	cue_social_high	n/a	32	8	n/a	n/a	n/a
77.076000	2	cue_social	n/a	32	10	n/a	n/a	n/a
77.076000	2	cue_social_high	n/a	32	8	n/a	n/a	n/a
83.799500	2	cue_nonsocial	n/a	32	8	n/a	n/a	n/a
83.799500	2	cue_nonsocial_high	n/a	32	10	n/a	n/a	n/a
93.061930	2	cue_nonsocial	n/a	32	8	n/a	n/a	n/a
93.061930	2	cue_nonsocial_high	n/a	32	10	n/a	n/a	n/a
99.951410	2	cue_social	n/a	16	-6	n/a	n/a	n/a
99.951410	2	cue_social_low	n/a	16	-8	n/a	n/a	n/a
106.789920	2	cue_social	n/a	32	10	n/a	n/a	n/a
106.789920	2	cue_social_high	n/a	32	8	n/a	n/a	n/a
117.682976	2	cue_social	n/a	16	-6	n/a	n/a	n/a
117.682976	2	cue_social_low	n/a	16	-8	n/a	n/a	n/a
124.416140	2	cue_nonsocial	n/a	16	-8	n/a	n/a	n/a
124.416140	2	cue_nonsocial_low	n/a	16	-6	n/a	n/a	n/a
135.343840	2	cue_social	n/a	16	-6	n/a	n/a	n/a
135.343840	2	cue_social_low	n/a	16	-8	n/a	n/a	n/a
143.008530	2	cue_social	n/a	16	-6	n/a	n/a	n/a
143.008530	2	cue_social_low	n/a	16	-8	n/a	n/a	n/a
152.183870	2	cue_nonsocial	n/a	16	-8	n/a	n/a	n/a
152.183870	2	cue_nonsocial_low	n/a	16	-6	n/a	n/a	n/a
159.016710	2	cue_nonsocial	n/a	32	8	n/a	n/a	n/a
159.016710	2	cue_nonsocial_high	n/a	32	10	n/a	n/a	n/a
165.905800	2	cue_social	n/a	16	-6	n/a	n/a	n/a
165.905800	2	cue_social_low	n/a	16	-8	n/a	n/a	n/a
172.683260	2	cue_nonsocial	n/a	16	-8	n/a	n/a	n/a
172.683260	2	cue_nonsocial_low	n/a	16	-6	n/a	n/a	n/a
180.332860	2	cue_nonsocial	n/a	16	-8	n/a	n/a	n/a
180.332860	2	cue_nonsocial_low	n/a	16	-6	n/a	n/a	n/a
187.983340	2	cue_nonsocial	n/a	16	-8	n/a	n/a	n/a
187.983340	2	cue_nonsocial_low	n/a	16	-6	n/a	n/a	n/a
194.881910	2	cue_social	n/a	32	10	n/a	n/a	n/a
194.881910	2	cue_social_high	n/a	32	8	n/a	n/a	n/a
201.649780	2	cue_nonsocial	n/a	32	8	n/a	n/a	n/a
201.649780	2	cue_nonsocial_high	n/a	32	10	n/a	n/a	n/a
210.900000	2	cue_nonsocial	n/a	16	-8	n/a	n/a	n/a
210.900000	2	cue_nonsocial_low	n/a	16	-6	n/a	n/a	n/a
218.650920	2	cue_social	n/a	16	-6	n/a	n/a	n/a
218.650920	2	cue_social_low	n/a	16	-8	n/a	n/a	n/a
226.200100	2	cue_nonsocial	n/a	32	8	n/a	n/a	n/a
226.200100	2	cue_nonsocial_high	n/a	32	10	n/a	n/a	n/a
233.033460	2	cue_nonsocial	n/a	32	8	n/a	n/a	n/a
233.033460	2	cue_nonsocial_high	n/a	32	10	n/a	n/a	n/a
239.865810	2	cue_nonsocial	n/a	16	-8	n/a	n/a	n/a
239.865810	2	cue_nonsocial_low	n/a	16	-6	n/a	n/a	n/a
249.116320	2	cue_nonsocial	n/a	16	-8	n/a	n/a	n/a
249.116320	2	cue_nonsocial_low	n/a	16	-6	n/a	n/a	n/a
256.766200	2	cue_nonsocial	n/a	16	-8	n/a	n/a	n/a
256.766200	2	cue_nonsocial_low	n/a	16	-6	n/a	n/a	n/a
263.689820	2	cue_social	n/a	16	-6	n/a	n/a	n/a
263.689820	2	cue_social_low	n/a	16	-8	n/a	n/a	n/a
271.331800	2	cue_social	n/a	32	10	n/a	n/a	n/a
271.331800	2	cue_social_high	n/a	32	8	n/a	n/a	n/a
278.086900	2	cue_social	n/a	16	-6	n/a	n/a	n/a
278.086900	2	cue_social_low	n/a	16	-8	n/a	n/a	n/a
285.017850	2	cue_social	n/a	16	-6	n/a	n/a	n/a
285.017850	2	cue_social_low	n/a	16	-8	n/a	n/a	n/a
291.829600	2	cue_social	n/a	32	10	n/a	n/a	n/a
291.829600	2	cue_social_high	n/a	32	8	n/a	n/a	n/a
298.668000	2	cue_social	n/a	32	10	n/a	n/a	n/a
298.668000	2	cue_social_high	n/a	32	8	n/a	n/a	n/a
305.416600	2	cue_nonsocial	n/a	32	8	n/a	n/a	n/a
305.416600	2	cue_nonsocial_high	n/a	32	10	n/a	n/a	n/a
312.250000	2	cue_nonsocial	n/a	32	8	n/a	n/a	n/a
312.250000	2	cue_nonsocial_high	n/a	32	10	n/a	n/a	n/a
319.967740	2	cue_social	n/a	16	-6	n/a	n/a	n/a
319.967740	2	cue_social_low	n/a	16	-8	n/a	n/a	n/a
326.829740	2	cue_social	n/a	32	10	n/a	n/a	n/a
326.829740	2	cue_social_high	n/a	32	8	n/a	n/a	n/a
334.374660	2	cue_nonsocial	n/a	32	8	n/a	n/a	n/a
334.374660	2	cue_nonsocial_high	n/a	32	10	n/a	n/a	n/a
342.108200	2	cue_social	n/a	16	-6	n/a	n/a	n/a
342.108200	2	cue_social_low	n/a	16	-8	n/a	n/a	n/a
349.758150	2	cue_social	n/a	32	10	n/a	n/a	n/a
349.758150	2	cue_social_high	n/a	32	8	n/a	n/a	n/a
356.620300	2	cue_social	n/a	16	-6	n/a	n/a	n/a
356.620300	2	cue_social_low	n/a	16	-8	n/a	n/a	n/a
363.333200	2	cue_nonsocial	n/a	32	8	n/a	n/a	n/a
363.333200	2	cue_nonsocial_high	n/a	32	10	n/a	n/a	n/a
370.983500	2	cue_nonsocial	n/a	16	-8	n/a	n/a	n/a
370.983500	2	cue_nonsocial_low	n/a	16	-6	n/a	n/a	n/a
6.522537	1.433202	dec_social_choice	1.433202	16.000000	n/a	8	2.719415e-01	2.719415e-01
6.522537	1.433202	dec_choice	1.433202	16.000000	n/a	8	2.730978e-01	2.730978e-01
6.522537	1.433202	dec_social_accept	1.433202	16.000000	n/a	8	1.193182e-01	1.193182e-01
6.522537	1.433202	dec_accept	1.433202	16.000000	n/a	8	1.250000e-01	1.250000e-01
6.522537	1.433202	dec_social_high	1.433202	16.000000	n/a	8	2.730978e-01	2.730978e-01
6.522537	1.433202	dec_social_accept_high	1.433202	16.000000	n/a	8	2.730978e-01	2.730978e-01
15.789013	1.033385	dec_social_choice	1.033385	16.000000	n/a	8	2.719415e-01	2.719415e-01
15.789013	1.033385	dec_choice	1.033385	16.000000	n/a	8	2.730978e-01	2.730978e-01
15.789013	1.033385	dec_social_accept	1.033385	16.000000	n/a	8	1.193182e-01	1.193182e-01
15.789013	1.033385	dec_accept	1.033385	16.000000	n/a	8	1.250000e-01	1.250000e-01
15.789013	1.033385	dec_social_high	1.033385	16.000000	n/a	8	2.730978e-01	2.730978e-01
15.789013	1.033385	dec_social_accept_high	1.033385	16.000000	n/a	8	2.730978e-01	2.730978e-01
22.622103	1.467027	dec_nonsocial_choice	1.467027	32.000000	n/a	0	0	-2.280585e-01
22.622103	1.467027	dec_choice	1.467027	32.000000	n/a	0	0	-2.291667e-01
22.622103	1.467027	dec_nonsocial_reject	1.467027	32.000000	n/a	0	0	0
22.622103	1.467027	dec_reject	1.467027	32.000000	n/a	0	0	-2.403846e-03
22.622103	1.467027	dec_nonsocial_low	1.467027	32.000000	n/a	0	-2.291667e-01	-2.291667e-01
22.622103	1.467027	dec_nonsocial_reject_low	1.467027	32.000000	n/a	3	-2.403846e-03	-9.615385e-02
35.106136	1.132865	dec_nonsocial_choice	1.132865	16.000000	n/a	0	0	-2.280585e-01
35.106136	1.132865	dec_choice	1.132865	16.000000	n/a	0	0	-2.291667e-01
35.106136	1.132865	dec_nonsocial_reject	1.132865	16.000000	n/a	0	0	3.125000e-02
35.106136	1.132865	dec_reject	1.132865	16.000000	n/a	0	0	2.884615e-02
35.106136	1.132865	dec_nonsocial_low	1.132865	16.000000	n/a	0	-2.291667e-01	-2.291667e-01
35.106136	1.132865	dec_nonsocial_reject_low	1.132865	16.000000	n/a	2	2.884615e-02	-9.615385e-02
42.755990	1.199896	dec_nonsocial_choice	1.199896	32.000000	n/a	16	2.719415e-01	2.719415e-01
42.755990	1.199896	dec_choice	1.199896	32.000000	n/a	16	2.708333e-01	2.708333e-01
42.755990	1.199896	dec_nonsocial_accept	1.199896	32.000000	n/a	16	1.193182e-01	1.193182e-01
42.755990	1.199896	dec_accept	1.199896	32.000000	n/a	16	1.136364e-01	1.136364e-01
42.755990	1.199896	dec_nonsocial_high	1.199896	32.000000	n/a	16	2.708333e-01	2.708333e-01
42.755990	1.199896	dec_nonsocial_accept_high	1.199896	32.000000	n/a	16	1.136364e-01	1.136364e-01
53.622547	1.116053	dec_nonsocial_choice	1.116053	16.000000	n/a	0	0	-2.280585e-01
53.622547	1.116053	dec_choice	1.116053	16.000000	n/a	0	0	-2.291667e-01
53.622547	1.116053	dec_nonsocial_reject	1.116053	16.000000	n/a	0	0	3.125000e-02
53.622547	1.116053	dec_reject	1.116053	16.000000	n/a	0	0	2.884615e-02
53.622547	1.116053	dec_nonsocial_low	1.116053	16.000000	n/a	0	-2.291667e-01	-2.291667e-01
53.622547	1.116053	dec_nonsocial_reject_low	1.116053	16.000000	n/a	2	2.884615e-02	-9.615385e-02
62.872670	1.234103	dec_social_choice	1.234103	16.000000	n/a	4	2.194149e-02	2.194149e-02
62.872670	1.234103	dec_choice	1.234103	16.000000	n/a	4	2.309783e-02	2.309783e-02
62.872670	1.234103	dec_social_accept	1.234103	16.000000	n/a	4	-1.306818e-01	-1.306818e-01
62.872670	1.234103	dec_accept	1.234103	16.000000	n/a	4	-1.250000e-01	-1.250000e-01
62.872670	1.234103	dec_social_accept_high	1.234103	16.000000	n/a	4	2.309783e-02	2.309783e-02
69.706080	3.766946	missed_trial	3.766946	32.000000	n/a	n/a	n/a	n/a
78.973090	1.698775	dec_social_choice	1.698775	32.000000	n/a	0	0	-2.280585e-01
78.973090	1.698775	dec_choice	1.698775	32.000000	n/a	0	0	-2.269022e-01
78.973090	1.698775	dec_social_reject	1.698775	32.000000	n/a	0	0	0
78.973090	1.698775	dec_reject	1.698775	32.000000	n/a	0	0	2.604167e-03
78.973090	1.698775	dec_social_low	1.698775	32.000000	n/a	0	-2.269022e-01	-2.269022e-01
78.973090	1.698775	dec_social_reject_low	1.698775	32.000000	n/a	3	-1.331522e-01	-2.269022e-01
85.805824	1.899798	dec_nonsocial_choice	1.899798	32.000000	n/a	0	0	-2.280585e-01
85.805824	1.899798	dec_choice	1.899798	32.000000	n/a	0	0	-2.291667e-01
85.805824	1.899798	dec_nonsocial_reject	1.899798	32.000000	n/a	0	0	0
85.805824	1.899798	dec_reject	1.899798	32.000000	n/a	0	0	-2.403846e-03
85.805824	1.899798	dec_nonsocial_reject_low	1.899798	32.000000	n/a	3	2.604167e-03	-9.114583e-02
95.056206	1.982839	dec_nonsocial_choice	1.982839	32.000000	n/a	0	0	-2.280585e-01
95.056206	1.982839	dec_choice	1.982839	32.000000	n/a	0	0	-2.291667e-01
95.056206	1.982839	dec_nonsocial_reject	1.982839	32.000000	n/a	0	0	1.562500e-01
95.056206	1.982839	dec_reject	1.982839	32.000000	n/a	0	0	1.538462e-01
95.056206	1.982839	dec_nonsocial_low	1.982839	32.000000	n/a	0	-2.291667e-01	-2.291667e-01
95.056206	1.982839	dec_nonsocial_reject_low	1.982839	32.000000	n/a	8	1.538462e-01	-9.615385e-02
101.889130	0.800163	dec_social_choice	0.800163	16.000000	n/a	2	-1.030585e-01	-1.030585e-01
101.889130	0.800163	dec_choice	0.800163	16.000000	n/a	2	-1.019022e-01	-1.019022e-01
101.889130	0.800163	dec_social_accept	0.800163	16.000000	n/a	2	-2.556818e-01	-2.556818e-01
101.889130	0.800163	dec_accept	0.800163	16.000000	n/a	2	-2.500000e-01	-2.500000e-01
101.889130	0.800163	dec_social_accept_low	0.800163	16.000000	n/a	2	-1.019022e-01	-1.019022e-01
108.722180	1.283108	dec_social_choice	1.283108	32.000000	n/a	16	2.719415e-01	2.719415e-01
108.722180	1.283108	dec_choice	1.283108	32.000000	n/a	16	2.730978e-01	2.730978e-01
108.722180	1.283108	dec_social_accept	1.283108	32.000000	n/a	16	1.193182e-01	1.193182e-01
108.722180	1.283108	dec_accept	1.283108	32.000000	n/a	16	1.250000e-01	1.250000e-01
108.722180	1.283108	dec_social_high	1.283108	32.000000	n/a	16	2.730978e-01	2.730978e-01
108.722180	1.283108	dec_social_accept_high	1.283108	32.000000	n/a	16	2.730978e-01	2.730978e-01
119.589280	0.966296	dec_social_choice	0.966296	16.000000	n/a	8	2.719415e-01	2.719415e-01
119.589280	0.966296	dec_choice	0.966296	16.000000	n/a	8	2.730978e-01	2.730978e-01
119.589280	0.966296	dec_social_accept	0.966296	16.000000	n/a	8	1.193182e-01	1.193182e-01
119.589280	0.966296	dec_accept	0.966296	16.000000	n/a	8	1.250000e-01	1.250000e-01
119.589280	0.966296	dec_social_accept_high	0.966296	16.000000	n/a	8	2.730978e-01	2.730978e-01
126.422210	1.300303	dec_nonsocial_choice	1.300303	16.000000	n/a	0	0	-2.280585e-01
126.422210	1.300303	dec_choice	1.300303	16.000000	n/a	0	0	-2.291667e-01
126.422210	1.300303	dec_nonsocial_reject	1.300303	16.000000	n/a	0	0	-3.125000e-02
126.422210	1.300303	dec_reject	1.300303	16.000000	n/a	0	0	-3.365385e-02
126.422210	1.300303	dec_nonsocial_low	1.300303	16.000000	n/a	0	-2.291667e-01	-2.291667e-01
126.422210	1.300303	dec_nonsocial_reject_low	1.300303	16.000000	n/a	1	-3.365385e-02	-9.615385e-02
137.288160	1.001102	dec_social_choice	1.001102	16.000000	n/a	0	0	-2.280585e-01
137.288160	1.001102	dec_choice	1.001102	16.000000	n/a	0	0	-2.269022e-01
137.288160	1.001102	dec_social_reject	1.001102	16.000000	n/a	0	0	-3.125000e-02
137.288160	1.001102	dec_reject	1.001102	16.000000	n/a	0	0	-2.864583e-02
137.288160	1.001102	dec_social_reject_low	1.001102	16.000000	n/a	1	-1.644022e-01	-2.269022e-01
144.923050	0.965351	dec_social_choice	0.965351	16.000000	n/a	0	0	-2.280585e-01
144.923050	0.965351	dec_choice	0.965351	16.000000	n/a	0	0	-2.269022e-01
144.923050	0.965351	dec_social_reject	0.965351	16.000000	n/a	0	0	-3.125000e-02
144.923050	0.965351	dec_reject	0.965351	16.000000	n/a	0	0	-2.864583e-02
144.923050	0.965351	dec_social_reject_low	0.965351	16.000000	n/a	1	-1.644022e-01	-2.269022e-01
154.188400	0.983845	dec_nonsocial_choice	0.983845	16.000000	n/a	4	2.194149e-02	2.194149e-02
154.188400	0.983845	dec_choice	0.983845	16.000000	n/a	4	2.083333e-02	2.083333e-02
154.188400	0.983845	dec_nonsocial_accept	0.983845	16.000000	n/a	4	-1.306818e-01	-1.306818e-01
154.188400	0.983845	dec_accept	0.983845	16.000000	n/a	4	-1.363636e-01	-1.363636e-01
154.188400	0.983845	dec_nonsocial_accept_high	0.983845	16.000000	n/a	4	-1.250000e-01	-1.250000e-01
161.021330	1.017097	dec_nonsocial_choice	1.017097	32.000000	n/a	0	0	-2.280585e-01
161.021330	1.017097	dec_choice	1.017097	32.000000	n/a	0	0	-2.291667e-01
161.021330	1.017097	dec_nonsocial_reject	1.017097	32.000000	n/a	0	0	-3.125000e-02
161.021330	1.017097	dec_reject	1.017097	32.000000	n/a	0	0	-3.365385e-02
161.021330	1.017097	dec_nonsocial_reject_low	1.017097	32.000000	n/a	2	-2.864583e-02	-9.114583e-02
167.855320	1.383941	dec_social_choice	1.383941	16.000000	n/a	0	0	-2.280585e-01
167.855320	1.383941	dec_choice	1.383941	16.000000	n/a	0	0	-2.269022e-01
167.855320	1.383941	dec_social_reject	1.383941	16.000000	n/a	0	0	1.562500e-01
167.855320	1.383941	dec_reject	1.383941	16.000000	n/a	0	0	1.588542e-01
167.855320	1.383941	dec_social_reject_low	1.383941	16.000000	n/a	4	2.309783e-02	-2.269022e-01
174.689400	1.233156	dec_nonsocial_choice	1.233156	16.000000	n/a	4	2.194149e-02	2.194149e-02
174.689400	1.233156	dec_choice	1.233156	16.000000	n/a	4	2.083333e-02	2.083333e-02
174.689400	1.233156	dec_nonsocial_accept	1.233156	16.000000	n/a	4	-1.306818e-01	-1.306818e-01
174.689400	1.233156	dec_accept	1.233156	16.000000	n/a	4	-1.363636e-01	-1.363636e-01
174.689400	1.233156	dec_nonsocial_accept_high	1.233156	16.000000	n/a	4	-1.250000e-01	-1.250000e-01
182.339340	0.982936	dec_nonsocial_choice	0.982936	16.000000	n/a	8	2.719415e-01	2.719415e-01
182.339340	0.982936	dec_choice	0.982936	16.000000	n/a	8	2.708333e-01	2.708333e-01
182.339340	0.982936	dec_nonsocial_accept	0.982936	16.000000	n/a	8	1.193182e-01	1.193182e-01
182.339340	0.982936	dec_accept	0.982936	16.000000	n/a	8	1.136364e-01	1.136364e-01
182.339340	0.982936	dec_nonsocial_accept_high	0.982936	16.000000	n/a	8	1.250000e-01	1.250000e-01
189.988400	1.534035	dec_nonsocial_choice	1.534035	16.000000	n/a	0	0	-2.280585e-01
189.988400	1.534035	dec_choice	1.534035	16.000000	n/a	0	0	-2.291667e-01
189.988400	1.534035	dec_nonsocial_reject	1.534035	16.000000	n/a	0	0	-3.125000e-02
189.988400	1.534035	dec_reject	1.534035	16.000000	n/a	0	0	-3.365385e-02
189.988400	1.534035	dec_nonsocial_low	1.534035	16.000000	n/a	0	-2.291667e-01	-2.291667e-01
189.988400	1.534035	dec_nonsocial_reject_low	1.534035	16.000000	n/a	1	-3.365385e-02	-9.615385e-02
196.822280	1.083265	dec_social_choice	1.083265	32.000000	n/a	0	0	-2.280585e-01
196.822280	1.083265	dec_choice	1.083265	32.000000	n/a	0	0	-2.269022e-01
196.822280	1.083265	dec_social_reject	1.083265	32.000000	n/a	0	0	0
196.822280	1.083265	dec_reject	1.083265	32.000000	n/a	0	0	2.604167e-03
196.822280	1.083265	dec_social_reject_low	1.083265	32.000000	n/a	3	-1.331522e-01	-2.269022e-01
203.655400	0.900152	dec_nonsocial_choice	0.900152	32.000000	n/a	8	2.194149e-02	2.194149e-02
203.655400	0.900152	dec_choice	0.900152	32.000000	n/a	8	2.083333e-02	2.083333e-02
203.655400	0.900152	dec_nonsocial_accept	0.900152	32.000000	n/a	8	-1.306818e-01	-1.306818e-01
203.655400	0.900152	dec_accept	0.900152	32.000000	n/a	8	-1.363636e-01	-1.363636e-01
203.655400	0.900152	dec_nonsocial_accept_high	0.900152	32.000000	n/a	8	-1.250000e-01	-1.250000e-01
212.906310	0.949173	dec_nonsocial_choice	0.949173	16.000000	n/a	4	2.194149e-02	2.194149e-02
212.906310	0.949173	dec_choice	0.949173	16.000000	n/a	4	2.083333e-02	2.083333e-02
212.906310	0.949173	dec_nonsocial_accept	0.949173	16.000000	n/a	4	-1.306818e-01	-1.306818e-01
212.906310	0.949173	dec_accept	0.949173	16.000000	n/a	4	-1.363636e-01	-1.363636e-01
212.906310	0.949173	dec_nonsocial_accept_high	0.949173	16.000000	n/a	4	-1.250000e-01	-1.250000e-01
220.555770	1.133242	dec_social_choice	1.133242	16.000000	n/a	0	0	-2.280585e-01
220.555770	1.133242	dec_choice	1.133242	16.000000	n/a	0	0	-2.269022e-01
220.555770	1.133242	dec_social_reject	1.133242	16.000000	n/a	0	0	-3.125000e-02
220.555770	1.133242	dec_reject	1.133242	16.000000	n/a	0	0	-2.864583e-02
220.555770	1.133242	dec_social_low	1.133242	16.000000	n/a	0	-2.269022e-01	-2.269022e-01
220.555770	1.133242	dec_social_reject_low	1.133242	16.000000	n/a	1	-1.644022e-01	-2.269022e-01
228.204640	0.884507	dec_nonsocial_choice	0.884507	32.000000	n/a	0	0	-2.280585e-01
228.204640	0.884507	dec_choice	0.884507	32.000000	n/a	0	0	-2.291667e-01
228.204640	0.884507	dec_nonsocial_reject	0.884507	32.000000	n/a	0	0	-3.125000e-02
228.204640	0.884507	dec_reject	0.884507	32.000000	n/a	0	0	-3.365385e-02
228.204640	0.884507	dec_nonsocial_reject_low	0.884507	32.000000	n/a	2	-2.864583e-02	-9.114583e-02
235.038480	1.166231	dec_nonsocial_choice	1.166231	32.000000	n/a	0	0	-2.280585e-01
235.038480	1.166231	dec_choice	1.166231	32.000000	n/a	0	0	-2.291667e-01
235.038480	1.166231	dec_nonsocial_reject	1.166231	32.000000	n/a	0	0	0
235.038480	1.166231	dec_reject	1.166231	32.000000	n/a	0	0	-2.403846e-03
235.038480	1.166231	dec_nonsocial_low	1.166231	32.000000	n/a	0	-2.291667e-01	-2.291667e-01
235.038480	1.166231	dec_nonsocial_reject_low	1.166231	32.000000	n/a	3	-2.403846e-03	-9.615385e-02
241.872480	1.299615	dec_nonsocial_choice	1.299615	16.000000	n/a	0	0	-2.280585e-01
241.872480	1.299615	dec_choice	1.299615	16.000000	n/a	0	0	-2.291667e-01
241.872480	1.299615	dec_nonsocial_reject	1.299615	16.000000	n/a	0	0	-3.125000e-02
241.872480	1.299615	dec_reject	1.299615	16.000000	n/a	0	0	-3.365385e-02
241.872480	1.299615	dec_nonsocial_low	1.299615	16.000000	n/a	0	-2.291667e-01	-2.291667e-01
241.872480	1.299615	dec_nonsocial_reject_low	1.299615	16.000000	n/a	1	-3.365385e-02	-9.615385e-02
251.121950	0.933958	dec_nonsocial_choice	0.933958	16.000000	n/a	8	2.719415e-01	2.719415e-01
251.121950	0.933958	dec_choice	0.933958	16.000000	n/a	8	2.708333e-01	2.708333e-01
251.121950	0.933958	dec_nonsocial_accept	0.933958	16.000000	n/a	8	1.193182e-01	1.193182e-01
251.121950	0.933958	dec_accept	0.933958	16.000000	n/a	8	1.136364e-01	1.136364e-01
251.121950	0.933958	dec_nonsocial_accept_high	0.933958	16.000000	n/a	8	1.250000e-01	1.250000e-01
258.772100	1.300176	dec_nonsocial_choice	1.300176	16.000000	n/a	8	2.719415e-01	2.719415e-01
258.772100	1.300176	dec_choice	1.300176	16.000000	n/a	8	2.708333e-01	2.708333e-01
258.772100	1.300176	dec_nonsocial_accept	1.300176	16.000000	n/a	8	1.193182e-01	1.193182e-01
258.772100	1.300176	dec_accept	1.300176	16.000000	n/a	8	1.136364e-01	1.136364e-01
258.772100	1.300176	dec_nonsocial_high	1.300176	16.000000	n/a	8	2.708333e-01	2.708333e-01
258.772100	1.300176	dec_nonsocial_accept_high	1.300176	16.000000	n/a	8	1.136364e-01	1.136364e-01
265.606320	0.949002	dec_social_choice	0.949002	16.000000	n/a	4	2.194149e-02	2.194149e-02
265.606320	0.949002	dec_choice	0.949002	16.000000	n/a	4	2.309783e-02	2.309783e-02
265.606320	0.949002	dec_social_accept	0.949002	16.000000	n/a	4	-1.306818e-01	-1.306818e-01
265.606320	0.949002	dec_accept	0.949002	16.000000	n/a	4	-1.250000e-01	-1.250000e-01
265.606320	0.949002	dec_social_accept_high	0.949002	16.000000	n/a	4	2.309783e-02	2.309783e-02
273.254500	1.017528	dec_social_choice	1.017528	32.000000	n/a	0	0	-2.280585e-01
273.254500	1.017528	dec_choice	1.017528	32.000000	n/a	0	0	-2.269022e-01
273.254500	1.017528	dec_social_reject	1.017528	32.000000	n/a	0	0	0
273.254500	1.017528	dec_reject	1.017528	32.000000	n/a	0	0	2.604167e-03
273.254500	1.017528	dec_social_reject_low	1.017528	32.000000	n/a	3	-1.331522e-01	-2.269022e-01
280.089000	1.799955	dec_social_choice	1.799955	16.000000	n/a	0	0	-2.280585e-01
280.089000	1.799955	dec_choice	1.799955	16.000000	n/a	0	0	-2.269022e-01
280.089000	1.799955	dec_social_reject	1.799955	16.000000	n/a	0	0	-3.125000e-02
280.089000	1.799955	dec_reject	1.799955	16.000000	n/a	0	0	-2.864583e-02
280.089000	1.799955	dec_social_low	1.799955	16.000000	n/a	0	-2.269022e-01	-2.269022e-01
280.089000	1.799955	dec_social_reject_low	1.799955	16.000000	n/a	1	-1.644022e-01	-2.269022e-01
286.922030	1.016844	dec_social_choice	1.016844	16.000000	n/a	8	2.719415e-01	2.719415e-01
286.922030	1.016844	dec_choice	1.016844	16.000000	n/a	8	2.730978e-01	2.730978e-01
286.922030	1.016844	dec_social_accept	1.016844	16.000000	n/a	8	1.193182e-01	1.193182e-01
286.922030	1.016844	dec_accept	1.016844	16.000000	n/a	8	1.250000e-01	1.250000e-01
286.922030	1.016844	dec_social_accept_high	1.016844	16.000000	n/a	8	2.730978e-01	2.730978e-01
293.755370	1.632829	dec_social_choice	1.632829	32.000000	n/a	0	0	-2.280585e-01
293.755370	1.632829	dec_choice	1.632829	32.000000	n/a	0	0	-2.269022e-01
293.755370	1.632829	dec_social_reject	1.632829	32.000000	n/a	0	0	0
293.755370	1.632829	dec_reject	1.632829	32.000000	n/a	0	0	2.604167e-03
293.755370	1.632829	dec_social_low	1.632829	32.000000	n/a	0	-2.269022e-01	-2.269022e-01
293.755370	1.632829	dec_social_reject_low	1.632829	32.000000	n/a	3	-1.331522e-01	-2.269022e-01
300.587920	1.000888	dec_social_choice	1.000888	32.000000	n/a	0	0	-2.280585e-01
300.587920	1.000888	dec_choice	1.000888	32.000000	n/a	0	0	-2.269022e-01
300.587920	1.000888	dec_social_reject	1.000888	32.000000	n/a	0	0	0
300.587920	1.000888	dec_reject	1.000888	32.000000	n/a	0	0	2.604167e-03
300.587920	1.000888	dec_social_low	1.000888	32.000000	n/a	0	-2.269022e-01	-2.269022e-01
300.587920	1.000888	dec_social_reject_low	1.000888	32.000000	n/a	3	-1.331522e-01	-2.269022e-01
307.422400	0.765933	dec_nonsocial_choice	0.765933	32.000000	n/a	16	2.719415e-01	2.719415e-01
307.422400	0.765933	dec_choice	0.765933	32.000000	n/a	16	2.708333e-01	2.708333e-01
307.422400	0.765933	dec_nonsocial_accept	0.765933	32.000000	n/a	16	1.193182e-01	1.193182e-01
307.422400	0.765933	dec_accept	0.765933	32.000000	n/a	16	1.136364e-01	1.136364e-01
307.422400	0.765933	dec_nonsocial_accept_high	0.765933	32.000000	n/a	16	1.250000e-01	1.250000e-01
314.254600	0.766989	dec_nonsocial_choice	0.766989	32.000000	n/a	16	2.719415e-01	2.719415e-01
314.254600	0.766989	dec_choice	0.766989	32.000000	n/a	16	2.708333e-01	2.708333e-01
314.254600	0.766989	dec_nonsocial_accept	0.766989	32.000000	n/a	16	1.193182e-01	1.193182e-01
314.254600	0.766989	dec_accept	0.766989	32.000000	n/a	16	1.136364e-01	1.136364e-01
314.254600	0.766989	dec_nonsocial_accept_high	0.766989	32.000000	n/a	16	1.250000e-01	1.250000e-01
321.905550	1.616190	dec_social_choice	1.616190	16.000000	n/a	8	2.719415e-01	2.719415e-01
321.905550	1.616190	dec_choice	1.616190	16.000000	n/a	8	2.730978e-01	2.730978e-01
321.905550	1.616190	dec_social_accept	1.616190	16.000000	n/a	8	1.193182e-01	1.193182e-01
321.905550	1.616190	dec_accept	1.616190	16.000000	n/a	8	1.250000e-01	1.250000e-01
321.905550	1.616190	dec_social_high	1.616190	16.000000	n/a	8	2.730978e-01	2.730978e-01
321.905550	1.616190	dec_social_accept_high	1.616190	16.000000	n/a	8	2.730978e-01	2.730978e-01
328.738560	0.916473	dec_social_choice	0.916473	32.000000	n/a	0	0	-2.280585e-01
328.738560	0.916473	dec_choice	0.916473	32.000000	n/a	0	0	-2.269022e-01
328.738560	0.916473	dec_social_reject	0.916473	32.000000	n/a	0	0	-3.125000e-02
328.738560	0.916473	dec_reject	0.916473	32.000000	n/a	0	0	-2.864583e-02
328.738560	0.916473	dec_social_reject_low	0.916473	32.000000	n/a	2	-1.644022e-01	-2.269022e-01
336.387900	1.166841	dec_nonsocial_choice	1.166841	32.000000	n/a	0	0	-2.280585e-01
336.387900	1.166841	dec_choice	1.166841	32.000000	n/a	0	0	-2.291667e-01
336.387900	1.166841	dec_nonsocial_reject	1.166841	32.000000	n/a	0	0	0
336.387900	1.166841	dec_reject	1.166841	32.000000	n/a	0	0	-2.403846e-03
336.387900	1.166841	dec_nonsocial_low	1.166841	32.000000	n/a	0	-2.291667e-01	-2.291667e-01
336.387900	1.166841	dec_nonsocial_reject_low	1.166841	32.000000	n/a	3	-2.403846e-03	-9.615385e-02
344.038600	1.500062	dec_social_choice	1.500062	16.000000	n/a	4	2.194149e-02	2.194149e-02
344.038600	1.500062	dec_choice	1.500062	16.000000	n/a	4	2.309783e-02	2.309783e-02
344.038600	1.500062	dec_social_accept	1.500062	16.000000	n/a	4	-1.306818e-01	-1.306818e-01
344.038600	1.500062	dec_accept	1.500062	16.000000	n/a	4	-1.250000e-01	-1.250000e-01
344.038600	1.500062	dec_social_high	1.500062	16.000000	n/a	4	2.309783e-02	2.309783e-02
344.038600	1.500062	dec_social_accept_high	1.500062	16.000000	n/a	4	2.309783e-02	2.309783e-02
351.671840	0.866783	dec_social_choice	0.866783	32.000000	n/a	8	2.194149e-02	2.194149e-02
351.671840	0.866783	dec_choice	0.866783	32.000000	n/a	8	2.309783e-02	2.309783e-02
351.671840	0.866783	dec_social_accept	0.866783	32.000000	n/a	8	-1.306818e-01	-1.306818e-01
351.671840	0.866783	dec_accept	0.866783	32.000000	n/a	8	-1.250000e-01	-1.250000e-01
351.671840	0.866783	dec_social_accept_high	0.866783	32.000000	n/a	8	2.309783e-02	2.309783e-02
358.504900	1.267381	dec_social_choice	1.267381	16.000000	n/a	0	0	-2.280585e-01
358.504900	1.267381	dec_choice	1.267381	16.000000	n/a	0	0	-2.269022e-01
358.504900	1.267381	dec_social_reject	1.267381	16.000000	n/a	0	0	-3.125000e-02
358.504900	1.267381	dec_reject	1.267381	16.000000	n/a	0	0	-2.864583e-02
358.504900	1.267381	dec_social_low	1.267381	16.000000	n/a	0	-2.269022e-01	-2.269022e-01
358.504900	1.267381	dec_social_reject_low	1.267381	16.000000	n/a	1	-1.644022e-01	-2.269022e-01
365.338870	1.116433	dec_nonsocial_choice	1.116433	32.000000	n/a	8	2.194149e-02	2.194149e-02
365.338870	1.116433	dec_choice	1.116433	32.000000	n/a	8	2.083333e-02	2.083333e-02
365.338870	1.116433	dec_nonsocial_accept	1.116433	32.000000	n/a	8	-1.306818e-01	-1.306818e-01
365.338870	1.116433	dec_accept	1.116433	32.000000	n/a	8	-1.363636e-01	-1.363636e-01
365.338870	1.116433	dec_nonsocial_accept_high	1.116433	32.000000	n/a	8	-1.250000e-01	-1.250000e-01
372.989650	1.049117	dec_nonsocial_choice	1.049117	16.000000	n/a	0	0	-2.280585e-01
372.989650	1.049117	dec_choice	1.049117	16.000000	n/a	0	0	-2.291667e-01
372.989650	1.049117	dec_nonsocial_reject	1.049117	16.000000	n/a	0	0	-3.125000e-02
372.989650	1.049117	dec_reject	1.049117	16.000000	n/a	0	0	-3.365385e-02
372.989650	1.049117	dec_nonsocial_reject_low	1.049117	16.000000	n/a	1	-2.864583e-02	-9.114583e-02
