onset	duration	trial_type	response_time	Endowment	Endowment_pmod	Decision	Decision_pmod	Offer_pmod
4.507400	2	cue_nonsocial	n/a	16	-7	n/a	n/a	n/a
4.507400	2	cue_nonsocial_low	n/a	16	-7	n/a	n/a	n/a
11.340166	2	cue_nonsocial	n/a	32	9	n/a	n/a	n/a
11.340166	2	cue_nonsocial_high	n/a	32	9	n/a	n/a	n/a
20.606619	2	cue_nonsocial	n/a	32	9	n/a	n/a	n/a
20.606619	2	cue_nonsocial_high	n/a	32	9	n/a	n/a	n/a
28.256342	2	cue_nonsocial	n/a	16	-7	n/a	n/a	n/a
28.256342	2	cue_nonsocial_low	n/a	16	-7	n/a	n/a	n/a
35.203730	2	cue_social	n/a	16	-7	n/a	n/a	n/a
35.203730	2	cue_social_low	n/a	16	-7	n/a	n/a	n/a
42.027813	2	cue_social	n/a	16	-7	n/a	n/a	n/a
42.027813	2	cue_social_low	n/a	16	-7	n/a	n/a	n/a
49.572956	2	cue_nonsocial	n/a	32	9	n/a	n/a	n/a
49.572956	2	cue_nonsocial_high	n/a	32	9	n/a	n/a	n/a
58.839450	2	cue_nonsocial	n/a	16	-7	n/a	n/a	n/a
58.839450	2	cue_nonsocial_low	n/a	16	-7	n/a	n/a	n/a
65.674150	2	cue_nonsocial	n/a	16	-7	n/a	n/a	n/a
65.674150	2	cue_nonsocial_low	n/a	16	-7	n/a	n/a	n/a
73.401306	2	cue_social	n/a	16	-7	n/a	n/a	n/a
73.401306	2	cue_social_low	n/a	16	-7	n/a	n/a	n/a
85.806320	2	cue_nonsocial	n/a	32	9	n/a	n/a	n/a
85.806320	2	cue_nonsocial_high	n/a	32	9	n/a	n/a	n/a
93.543365	2	cue_social	n/a	32	9	n/a	n/a	n/a
93.543365	2	cue_social_high	n/a	32	9	n/a	n/a	n/a
100.398790	2	cue_social	n/a	16	-7	n/a	n/a	n/a
100.398790	2	cue_social_low	n/a	16	-7	n/a	n/a	n/a
107.123660	2	cue_nonsocial	n/a	32	9	n/a	n/a	n/a
107.123660	2	cue_nonsocial_high	n/a	32	9	n/a	n/a	n/a
116.374565	2	cue_nonsocial	n/a	16	-7	n/a	n/a	n/a
116.374565	2	cue_nonsocial_low	n/a	16	-7	n/a	n/a	n/a
123.206856	2	cue_nonsocial	n/a	16	-7	n/a	n/a	n/a
123.206856	2	cue_nonsocial_low	n/a	16	-7	n/a	n/a	n/a
132.456950	2	cue_nonsocial	n/a	16	-7	n/a	n/a	n/a
132.456950	2	cue_nonsocial_low	n/a	16	-7	n/a	n/a	n/a
139.290190	2	cue_nonsocial	n/a	16	-7	n/a	n/a	n/a
139.290190	2	cue_nonsocial_low	n/a	16	-7	n/a	n/a	n/a
147.024200	2	cue_social	n/a	16	-7	n/a	n/a	n/a
147.024200	2	cue_social_low	n/a	16	-7	n/a	n/a	n/a
153.797120	2	cue_social	n/a	32	9	n/a	n/a	n/a
153.797120	2	cue_social_high	n/a	32	9	n/a	n/a	n/a
160.607240	2	cue_social	n/a	16	-7	n/a	n/a	n/a
160.607240	2	cue_social_low	n/a	16	-7	n/a	n/a	n/a
168.256380	2	cue_nonsocial	n/a	32	9	n/a	n/a	n/a
168.256380	2	cue_nonsocial_high	n/a	32	9	n/a	n/a	n/a
179.122910	2	cue_nonsocial	n/a	32	9	n/a	n/a	n/a
179.122910	2	cue_nonsocial_high	n/a	32	9	n/a	n/a	n/a
186.058940	2	cue_social	n/a	16	-7	n/a	n/a	n/a
186.058940	2	cue_social_low	n/a	16	-7	n/a	n/a	n/a
195.313390	2	cue_social	n/a	16	-7	n/a	n/a	n/a
195.313390	2	cue_social_low	n/a	16	-7	n/a	n/a	n/a
202.138150	2	cue_social	n/a	32	9	n/a	n/a	n/a
202.138150	2	cue_social_high	n/a	32	9	n/a	n/a	n/a
208.874010	2	cue_nonsocial	n/a	32	9	n/a	n/a	n/a
208.874010	2	cue_nonsocial_high	n/a	32	9	n/a	n/a	n/a
215.786400	2	cue_social	n/a	32	9	n/a	n/a	n/a
215.786400	2	cue_social_high	n/a	32	9	n/a	n/a	n/a
222.539380	2	cue_nonsocial	n/a	16	-7	n/a	n/a	n/a
222.539380	2	cue_nonsocial_low	n/a	16	-7	n/a	n/a	n/a
231.859160	2	cue_social	n/a	16	-7	n/a	n/a	n/a
231.859160	2	cue_social_low	n/a	16	-7	n/a	n/a	n/a
239.440260	2	cue_nonsocial	n/a	16	-7	n/a	n/a	n/a
239.440260	2	cue_nonsocial_low	n/a	16	-7	n/a	n/a	n/a
246.355620	2	cue_social	n/a	16	-7	n/a	n/a	n/a
246.355620	2	cue_social_low	n/a	16	-7	n/a	n/a	n/a
253.200290	2	cue_social	n/a	32	9	n/a	n/a	n/a
253.200290	2	cue_social_high	n/a	32	9	n/a	n/a	n/a
260.831200	2	cue_social	n/a	16	-7	n/a	n/a	n/a
260.831200	2	cue_social_low	n/a	16	-7	n/a	n/a	n/a
267.665100	2	cue_social	n/a	16	-7	n/a	n/a	n/a
267.665100	2	cue_social_low	n/a	16	-7	n/a	n/a	n/a
274.422820	2	cue_nonsocial	n/a	16	-7	n/a	n/a	n/a
274.422820	2	cue_nonsocial_low	n/a	16	-7	n/a	n/a	n/a
281.351000	2	cue_social	n/a	16	-7	n/a	n/a	n/a
281.351000	2	cue_social_low	n/a	16	-7	n/a	n/a	n/a
292.124300	2	cue_nonsocial	n/a	16	-7	n/a	n/a	n/a
292.124300	2	cue_nonsocial_low	n/a	16	-7	n/a	n/a	n/a
299.011470	2	cue_social	n/a	32	9	n/a	n/a	n/a
299.011470	2	cue_social_high	n/a	32	9	n/a	n/a	n/a
306.606480	2	cue_nonsocial	n/a	16	-7	n/a	n/a	n/a
306.606480	2	cue_nonsocial_low	n/a	16	-7	n/a	n/a	n/a
317.558470	2	cue_social	n/a	32	9	n/a	n/a	n/a
317.558470	2	cue_social_high	n/a	32	9	n/a	n/a	n/a
324.306500	2	cue_nonsocial	n/a	32	9	n/a	n/a	n/a
324.306500	2	cue_nonsocial_high	n/a	32	9	n/a	n/a	n/a
332.065920	2	cue_social	n/a	32	9	n/a	n/a	n/a
332.065920	2	cue_social_high	n/a	32	9	n/a	n/a	n/a
339.666630	2	cue_social	n/a	32	9	n/a	n/a	n/a
339.666630	2	cue_social_high	n/a	32	9	n/a	n/a	n/a
347.329700	2	cue_social	n/a	32	9	n/a	n/a	n/a
347.329700	2	cue_social_high	n/a	32	9	n/a	n/a	n/a
354.895780	2	cue_social	n/a	32	9	n/a	n/a	n/a
354.895780	2	cue_social_high	n/a	32	9	n/a	n/a	n/a
361.740500	2	cue_nonsocial	n/a	32	9	n/a	n/a	n/a
361.740500	2	cue_nonsocial_high	n/a	32	9	n/a	n/a	n/a
368.572900	2	cue_nonsocial	n/a	16	-7	n/a	n/a	n/a
368.572900	2	cue_nonsocial_low	n/a	16	-7	n/a	n/a	n/a
6.512732	1.733092	dec_nonsocial_choice	1.733092	16.000000	n/a	8	2.708333e-01	2.708333e-01
6.512732	1.733092	dec_choice	1.733092	16.000000	n/a	8	2.708333e-01	2.708333e-01
6.512732	1.733092	dec_nonsocial_accept	1.733092	16.000000	n/a	8	1.526442e-01	1.526442e-01
6.512732	1.733092	dec_accept	1.733092	16.000000	n/a	8	1.674107e-01	1.674107e-01
6.512732	1.733092	dec_nonsocial_high	1.733092	16.000000	n/a	8	2.708333e-01	2.708333e-01
6.512732	1.733092	dec_nonsocial_accept_high	1.733092	16.000000	n/a	8	1.674107e-01	1.674107e-01
13.346371	2.382665	dec_nonsocial_choice	2.382665	32.000000	n/a	3	-1.354167e-01	-1.354167e-01
13.346371	2.382665	dec_choice	2.382665	32.000000	n/a	3	-1.354167e-01	-1.354167e-01
13.346371	2.382665	dec_nonsocial_accept	2.382665	32.000000	n/a	3	-2.536058e-01	-2.536058e-01
13.346371	2.382665	dec_accept	2.382665	32.000000	n/a	3	-2.388393e-01	-2.388393e-01
13.346371	2.382665	dec_nonsocial_accept_low	2.382665	32.000000	n/a	3	-2.708333e-01	-2.708333e-01
22.612590	2.132595	dec_nonsocial_choice	2.132595	32.000000	n/a	8	2.083333e-02	2.083333e-02
22.612590	2.132595	dec_choice	2.132595	32.000000	n/a	8	2.083333e-02	2.083333e-02
22.612590	2.132595	dec_nonsocial_accept	2.132595	32.000000	n/a	8	-9.735577e-02	-9.735577e-02
22.612590	2.132595	dec_accept	2.132595	32.000000	n/a	8	-8.258929e-02	-8.258929e-02
22.612590	2.132595	dec_nonsocial_high	2.132595	32.000000	n/a	8	2.083333e-02	2.083333e-02
22.612590	2.132595	dec_nonsocial_accept_high	2.132595	32.000000	n/a	8	-8.258929e-02	-8.258929e-02
30.263361	1.665380	dec_nonsocial_choice	1.665380	16.000000	n/a	0	0	-2.291667e-01
30.263361	1.665380	dec_choice	1.665380	16.000000	n/a	0	0	-2.291667e-01
30.263361	1.665380	dec_nonsocial_reject	1.665380	16.000000	n/a	0	0	-2.698864e-02
30.263361	1.665380	dec_reject	1.665380	16.000000	n/a	0	0	-2.187500e-02
30.263361	1.665380	dec_nonsocial_low	1.665380	16.000000	n/a	0	-2.291667e-01	-2.291667e-01
30.263361	1.665380	dec_nonsocial_reject_low	1.665380	16.000000	n/a	1	-2.187500e-02	-8.437500e-02
37.095710	2.500294	dec_social_choice	2.500294	16.000000	n/a	0	0	-2.291667e-01
37.095710	2.500294	dec_choice	2.500294	16.000000	n/a	0	0	-2.291667e-01
37.095710	2.500294	dec_social_reject	2.500294	16.000000	n/a	0	0	-2.698864e-02
37.095710	2.500294	dec_reject	2.500294	16.000000	n/a	0	0	-3.125000e-02
37.095710	2.500294	dec_social_reject_low	2.500294	16.000000	n/a	1	-1.666667e-01	-2.291667e-01
43.929940	1.033349	dec_social_choice	1.033349	16.000000	n/a	8	2.708333e-01	2.708333e-01
43.929940	1.033349	dec_choice	1.033349	16.000000	n/a	8	2.708333e-01	2.708333e-01
43.929940	1.033349	dec_social_accept	1.033349	16.000000	n/a	8	1.526442e-01	1.526442e-01
43.929940	1.033349	dec_accept	1.033349	16.000000	n/a	8	1.354167e-01	1.354167e-01
43.929940	1.033349	dec_social_accept_high	1.033349	16.000000	n/a	8	2.708333e-01	2.708333e-01
51.579052	2.249919	dec_nonsocial_choice	2.249919	32.000000	n/a	0	0	-2.291667e-01
51.579052	2.249919	dec_choice	2.249919	32.000000	n/a	0	0	-2.291667e-01
51.579052	2.249919	dec_nonsocial_reject	2.249919	32.000000	n/a	0	0	-2.698864e-02
51.579052	2.249919	dec_reject	2.249919	32.000000	n/a	0	0	-2.187500e-02
51.579052	2.249919	dec_nonsocial_reject_low	2.249919	32.000000	n/a	2	-3.125000e-02	-9.375000e-02
60.846733	0.932795	dec_nonsocial_choice	0.932795	16.000000	n/a	0	0	-2.291667e-01
60.846733	0.932795	dec_choice	0.932795	16.000000	n/a	0	0	-2.291667e-01
60.846733	0.932795	dec_nonsocial_reject	0.932795	16.000000	n/a	0	0	3.551136e-02
60.846733	0.932795	dec_reject	0.932795	16.000000	n/a	0	0	4.062500e-02
60.846733	0.932795	dec_nonsocial_reject_low	0.932795	16.000000	n/a	2	3.125000e-02	-9.375000e-02
67.679344	1.565365	dec_nonsocial_choice	1.565365	16.000000	n/a	4	2.083333e-02	2.083333e-02
67.679344	1.565365	dec_choice	1.565365	16.000000	n/a	4	2.083333e-02	2.083333e-02
67.679344	1.565365	dec_nonsocial_accept	1.565365	16.000000	n/a	4	-9.735577e-02	-9.735577e-02
67.679344	1.565365	dec_accept	1.565365	16.000000	n/a	4	-8.258929e-02	-8.258929e-02
67.679344	1.565365	dec_nonsocial_accept_high	1.565365	16.000000	n/a	4	-1.145833e-01	-1.145833e-01
75.328040	2.033866	dec_social_choice	2.033866	16.000000	n/a	0	0	-2.291667e-01
75.328040	2.033866	dec_choice	2.033866	16.000000	n/a	0	0	-2.291667e-01
75.328040	2.033866	dec_social_reject	2.033866	16.000000	n/a	0	0	1.605114e-01
75.328040	2.033866	dec_reject	2.033866	16.000000	n/a	0	0	1.562500e-01
75.328040	2.033866	dec_social_low	2.033866	16.000000	n/a	0	-2.291667e-01	-2.291667e-01
75.328040	2.033866	dec_social_reject_low	2.033866	16.000000	n/a	4	2.083333e-02	-2.291667e-01
87.812780	1.450136	dec_nonsocial_choice	1.450136	32.000000	n/a	16	2.708333e-01	2.708333e-01
87.812780	1.450136	dec_choice	1.450136	32.000000	n/a	16	2.708333e-01	2.708333e-01
87.812780	1.450136	dec_nonsocial_accept	1.450136	32.000000	n/a	16	1.526442e-01	1.526442e-01
87.812780	1.450136	dec_accept	1.450136	32.000000	n/a	16	1.674107e-01	1.674107e-01
87.812780	1.450136	dec_nonsocial_high	1.450136	32.000000	n/a	16	2.708333e-01	2.708333e-01
87.812780	1.450136	dec_nonsocial_accept_high	1.450136	32.000000	n/a	16	1.674107e-01	1.674107e-01
95.461784	1.317275	dec_social_choice	1.317275	32.000000	n/a	0	0	-2.291667e-01
95.461784	1.317275	dec_choice	1.317275	32.000000	n/a	0	0	-2.291667e-01
95.461784	1.317275	dec_social_reject	1.317275	32.000000	n/a	0	0	4.261364e-03
95.461784	1.317275	dec_reject	1.317275	32.000000	n/a	0	0	0
95.461784	1.317275	dec_social_low	1.317275	32.000000	n/a	0	-2.291667e-01	-2.291667e-01
95.461784	1.317275	dec_social_reject_low	1.317275	32.000000	n/a	3	-1.354167e-01	-2.291667e-01
102.296280	1.349189	dec_social_choice	1.349189	16.000000	n/a	0	0	-2.291667e-01
102.296280	1.349189	dec_choice	1.349189	16.000000	n/a	0	0	-2.291667e-01
102.296280	1.349189	dec_social_reject	1.349189	16.000000	n/a	0	0	-2.698864e-02
102.296280	1.349189	dec_reject	1.349189	16.000000	n/a	0	0	-3.125000e-02
102.296280	1.349189	dec_social_low	1.349189	16.000000	n/a	0	-2.291667e-01	-2.291667e-01
102.296280	1.349189	dec_social_reject_low	1.349189	16.000000	n/a	1	-1.666667e-01	-2.291667e-01
109.129234	1.415770	dec_nonsocial_choice	1.415770	32.000000	n/a	8	2.083333e-02	2.083333e-02
109.129234	1.415770	dec_choice	1.415770	32.000000	n/a	8	2.083333e-02	2.083333e-02
109.129234	1.415770	dec_nonsocial_accept	1.415770	32.000000	n/a	8	-9.735577e-02	-9.735577e-02
109.129234	1.415770	dec_accept	1.415770	32.000000	n/a	8	-8.258929e-02	-8.258929e-02
109.129234	1.415770	dec_nonsocial_accept_high	1.415770	32.000000	n/a	8	-1.145833e-01	-1.145833e-01
118.378880	1.233551	dec_nonsocial_choice	1.233551	16.000000	n/a	0	0	-2.291667e-01
118.378880	1.233551	dec_choice	1.233551	16.000000	n/a	0	0	-2.291667e-01
118.378880	1.233551	dec_nonsocial_reject	1.233551	16.000000	n/a	0	0	-2.698864e-02
118.378880	1.233551	dec_reject	1.233551	16.000000	n/a	0	0	-2.187500e-02
118.378880	1.233551	dec_nonsocial_low	1.233551	16.000000	n/a	0	-2.291667e-01	-2.291667e-01
118.378880	1.233551	dec_nonsocial_reject_low	1.233551	16.000000	n/a	1	-2.187500e-02	-8.437500e-02
125.212840	1.649555	dec_nonsocial_choice	1.649555	16.000000	n/a	4	2.083333e-02	2.083333e-02
125.212840	1.649555	dec_choice	1.649555	16.000000	n/a	4	2.083333e-02	2.083333e-02
125.212840	1.649555	dec_nonsocial_accept	1.649555	16.000000	n/a	4	-9.735577e-02	-9.735577e-02
125.212840	1.649555	dec_accept	1.649555	16.000000	n/a	4	-8.258929e-02	-8.258929e-02
125.212840	1.649555	dec_nonsocial_accept_high	1.649555	16.000000	n/a	4	-1.145833e-01	-1.145833e-01
134.463000	1.182851	dec_nonsocial_choice	1.182851	16.000000	n/a	8	2.708333e-01	2.708333e-01
134.463000	1.182851	dec_choice	1.182851	16.000000	n/a	8	2.708333e-01	2.708333e-01
134.463000	1.182851	dec_nonsocial_accept	1.182851	16.000000	n/a	8	1.526442e-01	1.526442e-01
134.463000	1.182851	dec_accept	1.182851	16.000000	n/a	8	1.674107e-01	1.674107e-01
134.463000	1.182851	dec_nonsocial_high	1.182851	16.000000	n/a	8	2.708333e-01	2.708333e-01
134.463000	1.182851	dec_nonsocial_accept_high	1.182851	16.000000	n/a	8	1.674107e-01	1.674107e-01
141.294970	1.200765	dec_nonsocial_choice	1.200765	16.000000	n/a	0	0	-2.291667e-01
141.294970	1.200765	dec_choice	1.200765	16.000000	n/a	0	0	-2.291667e-01
141.294970	1.200765	dec_nonsocial_reject	1.200765	16.000000	n/a	0	0	3.551136e-02
141.294970	1.200765	dec_reject	1.200765	16.000000	n/a	0	0	4.062500e-02
141.294970	1.200765	dec_nonsocial_low	1.200765	16.000000	n/a	0	-2.291667e-01	-2.291667e-01
141.294970	1.200765	dec_nonsocial_reject_low	1.200765	16.000000	n/a	2	4.062500e-02	-8.437500e-02
148.944900	1.068043	dec_social_choice	1.068043	16.000000	n/a	4	2.083333e-02	2.083333e-02
148.944900	1.068043	dec_choice	1.068043	16.000000	n/a	4	2.083333e-02	2.083333e-02
148.944900	1.068043	dec_social_accept	1.068043	16.000000	n/a	4	-9.735577e-02	-9.735577e-02
148.944900	1.068043	dec_accept	1.068043	16.000000	n/a	4	-1.145833e-01	-1.145833e-01
148.944900	1.068043	dec_social_high	1.068043	16.000000	n/a	4	2.083333e-02	2.083333e-02
148.944900	1.068043	dec_social_accept_high	1.068043	16.000000	n/a	4	2.083333e-02	2.083333e-02
155.778030	1.533863	dec_social_choice	1.533863	32.000000	n/a	8	2.083333e-02	2.083333e-02
155.778030	1.533863	dec_choice	1.533863	32.000000	n/a	8	2.083333e-02	2.083333e-02
155.778030	1.533863	dec_social_accept	1.533863	32.000000	n/a	8	-9.735577e-02	-9.735577e-02
155.778030	1.533863	dec_accept	1.533863	32.000000	n/a	8	-1.145833e-01	-1.145833e-01
155.778030	1.533863	dec_social_high	1.533863	32.000000	n/a	8	2.083333e-02	2.083333e-02
155.778030	1.533863	dec_social_accept_high	1.533863	32.000000	n/a	8	2.083333e-02	2.083333e-02
162.613130	1.015840	dec_social_choice	1.015840	16.000000	n/a	2	-1.041667e-01	-1.041667e-01
162.613130	1.015840	dec_choice	1.015840	16.000000	n/a	2	-1.041667e-01	-1.041667e-01
162.613130	1.015840	dec_social_accept	1.015840	16.000000	n/a	2	-2.223558e-01	-2.223558e-01
162.613130	1.015840	dec_accept	1.015840	16.000000	n/a	2	-2.395833e-01	-2.395833e-01
162.613130	1.015840	dec_social_low	1.015840	16.000000	n/a	2	-1.041667e-01	-1.041667e-01
162.613130	1.015840	dec_social_accept_low	1.015840	16.000000	n/a	2	-1.041667e-01	-1.041667e-01
170.261890	1.683651	dec_nonsocial_choice	1.683651	32.000000	n/a	0	0	-2.291667e-01
170.261890	1.683651	dec_choice	1.683651	32.000000	n/a	0	0	-2.291667e-01
170.261890	1.683651	dec_nonsocial_reject	1.683651	32.000000	n/a	0	0	4.261364e-03
170.261890	1.683651	dec_reject	1.683651	32.000000	n/a	0	0	9.375000e-03
170.261890	1.683651	dec_nonsocial_reject_low	1.683651	32.000000	n/a	3	0	-9.375000e-02
181.128940	0.883838	dec_nonsocial_choice	0.883838	32.000000	n/a	0	0	-2.291667e-01
181.128940	0.883838	dec_choice	0.883838	32.000000	n/a	0	0	-2.291667e-01
181.128940	0.883838	dec_nonsocial_reject	0.883838	32.000000	n/a	0	0	4.261364e-03
181.128940	0.883838	dec_reject	0.883838	32.000000	n/a	0	0	9.375000e-03
181.128940	0.883838	dec_nonsocial_reject_low	0.883838	32.000000	n/a	3	0	-9.375000e-02
187.961720	0.883951	dec_social_choice	0.883951	16.000000	n/a	0	0	-2.291667e-01
187.961720	0.883951	dec_choice	0.883951	16.000000	n/a	0	0	-2.291667e-01
187.961720	0.883951	dec_social_reject	0.883951	16.000000	n/a	0	0	3.551136e-02
187.961720	0.883951	dec_reject	0.883951	16.000000	n/a	0	0	3.125000e-02
187.961720	0.883951	dec_social_reject_low	0.883951	16.000000	n/a	2	-1.041667e-01	-2.291667e-01
197.212500	1.350024	dec_social_choice	1.350024	16.000000	n/a	8	2.708333e-01	2.708333e-01
197.212500	1.350024	dec_choice	1.350024	16.000000	n/a	8	2.708333e-01	2.708333e-01
197.212500	1.350024	dec_social_accept	1.350024	16.000000	n/a	8	1.526442e-01	1.526442e-01
197.212500	1.350024	dec_accept	1.350024	16.000000	n/a	8	1.354167e-01	1.354167e-01
197.212500	1.350024	dec_social_accept_high	1.350024	16.000000	n/a	8	2.708333e-01	2.708333e-01
204.046050	1.215818	dec_social_choice	1.215818	32.000000	n/a	8	2.083333e-02	2.083333e-02
204.046050	1.215818	dec_choice	1.215818	32.000000	n/a	8	2.083333e-02	2.083333e-02
204.046050	1.215818	dec_social_accept	1.215818	32.000000	n/a	8	-9.735577e-02	-9.735577e-02
204.046050	1.215818	dec_accept	1.215818	32.000000	n/a	8	-1.145833e-01	-1.145833e-01
204.046050	1.215818	dec_social_accept_high	1.215818	32.000000	n/a	8	2.083333e-02	2.083333e-02
210.879100	1.049786	dec_nonsocial_choice	1.049786	32.000000	n/a	16	2.708333e-01	2.708333e-01
210.879100	1.049786	dec_choice	1.049786	32.000000	n/a	16	2.708333e-01	2.708333e-01
210.879100	1.049786	dec_nonsocial_accept	1.049786	32.000000	n/a	16	1.526442e-01	1.526442e-01
210.879100	1.049786	dec_accept	1.049786	32.000000	n/a	16	1.674107e-01	1.674107e-01
210.879100	1.049786	dec_nonsocial_accept_high	1.049786	32.000000	n/a	16	1.354167e-01	1.354167e-01
217.711100	1.083993	dec_social_choice	1.083993	32.000000	n/a	16	2.708333e-01	2.708333e-01
217.711100	1.083993	dec_choice	1.083993	32.000000	n/a	16	2.708333e-01	2.708333e-01
217.711100	1.083993	dec_social_accept	1.083993	32.000000	n/a	16	1.526442e-01	1.526442e-01
217.711100	1.083993	dec_accept	1.083993	32.000000	n/a	16	1.354167e-01	1.354167e-01
217.711100	1.083993	dec_social_accept_high	1.083993	32.000000	n/a	16	2.708333e-01	2.708333e-01
224.546110	1.333084	dec_nonsocial_choice	1.333084	16.000000	n/a	0	0	-2.291667e-01
224.546110	1.333084	dec_choice	1.333084	16.000000	n/a	0	0	-2.291667e-01
224.546110	1.333084	dec_nonsocial_reject	1.333084	16.000000	n/a	0	0	-2.698864e-02
224.546110	1.333084	dec_reject	1.333084	16.000000	n/a	0	0	-2.187500e-02
224.546110	1.333084	dec_nonsocial_low	1.333084	16.000000	n/a	0	-2.291667e-01	-2.291667e-01
224.546110	1.333084	dec_nonsocial_reject_low	1.333084	16.000000	n/a	1	-2.187500e-02	-8.437500e-02
233.795210	1.216593	dec_social_choice	1.216593	16.000000	n/a	4	2.083333e-02	2.083333e-02
233.795210	1.216593	dec_choice	1.216593	16.000000	n/a	4	2.083333e-02	2.083333e-02
233.795210	1.216593	dec_social_accept	1.216593	16.000000	n/a	4	-9.735577e-02	-9.735577e-02
233.795210	1.216593	dec_accept	1.216593	16.000000	n/a	4	-1.145833e-01	-1.145833e-01
233.795210	1.216593	dec_social_high	1.216593	16.000000	n/a	4	2.083333e-02	2.083333e-02
233.795210	1.216593	dec_social_accept_high	1.216593	16.000000	n/a	4	2.083333e-02	2.083333e-02
241.446040	1.249300	dec_nonsocial_choice	1.249300	16.000000	n/a	0	0	-2.291667e-01
241.446040	1.249300	dec_choice	1.249300	16.000000	n/a	0	0	-2.291667e-01
241.446040	1.249300	dec_nonsocial_reject	1.249300	16.000000	n/a	0	0	-2.698864e-02
241.446040	1.249300	dec_reject	1.249300	16.000000	n/a	0	0	-2.187500e-02
241.446040	1.249300	dec_nonsocial_low	1.249300	16.000000	n/a	0	-2.291667e-01	-2.291667e-01
241.446040	1.249300	dec_nonsocial_reject_low	1.249300	16.000000	n/a	1	-2.187500e-02	-8.437500e-02
248.279020	1.316762	dec_social_choice	1.316762	16.000000	n/a	8	2.708333e-01	2.708333e-01
248.279020	1.316762	dec_choice	1.316762	16.000000	n/a	8	2.708333e-01	2.708333e-01
248.279020	1.316762	dec_social_accept	1.316762	16.000000	n/a	8	1.526442e-01	1.526442e-01
248.279020	1.316762	dec_accept	1.316762	16.000000	n/a	8	1.354167e-01	1.354167e-01
248.279020	1.316762	dec_social_accept_high	1.316762	16.000000	n/a	8	2.708333e-01	2.708333e-01
255.112490	1.616396	dec_social_choice	1.616396	32.000000	n/a	0	0	-2.291667e-01
255.112490	1.616396	dec_choice	1.616396	32.000000	n/a	0	0	-2.291667e-01
255.112490	1.616396	dec_social_reject	1.616396	32.000000	n/a	0	0	4.261364e-03
255.112490	1.616396	dec_reject	1.616396	32.000000	n/a	0	0	0
255.112490	1.616396	dec_social_reject_low	1.616396	32.000000	n/a	3	-1.354167e-01	-2.291667e-01
262.762120	1.017127	dec_social_choice	1.017127	16.000000	n/a	0	0	-2.291667e-01
262.762120	1.017127	dec_choice	1.017127	16.000000	n/a	0	0	-2.291667e-01
262.762120	1.017127	dec_social_reject	1.017127	16.000000	n/a	0	0	-2.698864e-02
262.762120	1.017127	dec_reject	1.017127	16.000000	n/a	0	0	-3.125000e-02
262.762120	1.017127	dec_social_reject_low	1.017127	16.000000	n/a	1	-1.666667e-01	-2.291667e-01
269.594670	0.967385	dec_social_choice	0.967385	16.000000	n/a	0	0	-2.291667e-01
269.594670	0.967385	dec_choice	0.967385	16.000000	n/a	0	0	-2.291667e-01
269.594670	0.967385	dec_social_reject	0.967385	16.000000	n/a	0	0	-2.698864e-02
269.594670	0.967385	dec_reject	0.967385	16.000000	n/a	0	0	-3.125000e-02
269.594670	0.967385	dec_social_reject_low	0.967385	16.000000	n/a	1	-1.666667e-01	-2.291667e-01
276.428200	1.000971	dec_nonsocial_choice	1.000971	16.000000	n/a	8	2.708333e-01	2.708333e-01
276.428200	1.000971	dec_choice	1.000971	16.000000	n/a	8	2.708333e-01	2.708333e-01
276.428200	1.000971	dec_nonsocial_accept	1.000971	16.000000	n/a	8	1.526442e-01	1.526442e-01
276.428200	1.000971	dec_accept	1.000971	16.000000	n/a	8	1.674107e-01	1.674107e-01
276.428200	1.000971	dec_nonsocial_high	1.000971	16.000000	n/a	8	2.708333e-01	2.708333e-01
276.428200	1.000971	dec_nonsocial_accept_high	1.000971	16.000000	n/a	8	1.674107e-01	1.674107e-01
283.262180	1.133607	dec_social_choice	1.133607	16.000000	n/a	8	2.708333e-01	2.708333e-01
283.262180	1.133607	dec_choice	1.133607	16.000000	n/a	8	2.708333e-01	2.708333e-01
283.262180	1.133607	dec_social_accept	1.133607	16.000000	n/a	8	1.526442e-01	1.526442e-01
283.262180	1.133607	dec_accept	1.133607	16.000000	n/a	8	1.354167e-01	1.354167e-01
283.262180	1.133607	dec_social_high	1.133607	16.000000	n/a	8	2.708333e-01	2.708333e-01
283.262180	1.133607	dec_social_accept_high	1.133607	16.000000	n/a	8	2.708333e-01	2.708333e-01
294.129760	1.865737	dec_nonsocial_choice	1.865737	16.000000	n/a	4	2.083333e-02	2.083333e-02
294.129760	1.865737	dec_choice	1.865737	16.000000	n/a	4	2.083333e-02	2.083333e-02
294.129760	1.865737	dec_nonsocial_accept	1.865737	16.000000	n/a	4	-9.735577e-02	-9.735577e-02
294.129760	1.865737	dec_accept	1.865737	16.000000	n/a	4	-8.258929e-02	-8.258929e-02
294.129760	1.865737	dec_nonsocial_accept_high	1.865737	16.000000	n/a	4	-1.145833e-01	-1.145833e-01
300.963170	1.615341	dec_social_choice	1.615341	32.000000	n/a	16	2.708333e-01	2.708333e-01
300.963170	1.615341	dec_choice	1.615341	32.000000	n/a	16	2.708333e-01	2.708333e-01
300.963170	1.615341	dec_social_accept	1.615341	32.000000	n/a	16	1.526442e-01	1.526442e-01
300.963170	1.615341	dec_accept	1.615341	32.000000	n/a	16	1.354167e-01	1.354167e-01
300.963170	1.615341	dec_social_accept_high	1.615341	32.000000	n/a	16	2.708333e-01	2.708333e-01
308.612180	1.466212	dec_nonsocial_choice	1.466212	16.000000	n/a	4	2.083333e-02	2.083333e-02
308.612180	1.466212	dec_choice	1.466212	16.000000	n/a	4	2.083333e-02	2.083333e-02
308.612180	1.466212	dec_nonsocial_accept	1.466212	16.000000	n/a	4	-9.735577e-02	-9.735577e-02
308.612180	1.466212	dec_accept	1.466212	16.000000	n/a	4	-8.258929e-02	-8.258929e-02
308.612180	1.466212	dec_nonsocial_accept_high	1.466212	16.000000	n/a	4	-1.145833e-01	-1.145833e-01
319.478240	1.117248	dec_social_choice	1.117248	32.000000	n/a	0	0	-2.291667e-01
319.478240	1.117248	dec_choice	1.117248	32.000000	n/a	0	0	-2.291667e-01
319.478240	1.117248	dec_social_reject	1.117248	32.000000	n/a	0	0	4.261364e-03
319.478240	1.117248	dec_reject	1.117248	32.000000	n/a	0	0	0
319.478240	1.117248	dec_social_low	1.117248	32.000000	n/a	0	-2.291667e-01	-2.291667e-01
319.478240	1.117248	dec_social_reject_low	1.117248	32.000000	n/a	3	-1.354167e-01	-2.291667e-01
326.312130	1.166292	dec_nonsocial_choice	1.166292	32.000000	n/a	0	0	-2.291667e-01
326.312130	1.166292	dec_choice	1.166292	32.000000	n/a	0	0	-2.291667e-01
326.312130	1.166292	dec_nonsocial_reject	1.166292	32.000000	n/a	0	0	4.261364e-03
326.312130	1.166292	dec_reject	1.166292	32.000000	n/a	0	0	9.375000e-03
326.312130	1.166292	dec_nonsocial_low	1.166292	32.000000	n/a	0	-2.291667e-01	-2.291667e-01
326.312130	1.166292	dec_nonsocial_reject_low	1.166292	32.000000	n/a	3	9.375000e-03	-8.437500e-02
333.961850	1.267283	dec_social_choice	1.267283	32.000000	n/a	0	0	-2.291667e-01
333.961850	1.267283	dec_choice	1.267283	32.000000	n/a	0	0	-2.291667e-01
333.961850	1.267283	dec_social_reject	1.267283	32.000000	n/a	0	0	-2.698864e-02
333.961850	1.267283	dec_reject	1.267283	32.000000	n/a	0	0	-3.125000e-02
333.961850	1.267283	dec_social_reject_low	1.267283	32.000000	n/a	2	-1.666667e-01	-2.291667e-01
341.612180	1.266314	dec_social_choice	1.266314	32.000000	n/a	0	0	-2.291667e-01
341.612180	1.266314	dec_choice	1.266314	32.000000	n/a	0	0	-2.291667e-01
341.612180	1.266314	dec_social_reject	1.266314	32.000000	n/a	0	0	4.261364e-03
341.612180	1.266314	dec_reject	1.266314	32.000000	n/a	0	0	0
341.612180	1.266314	dec_social_low	1.266314	32.000000	n/a	0	-2.291667e-01	-2.291667e-01
341.612180	1.266314	dec_social_reject_low	1.266314	32.000000	n/a	3	-1.354167e-01	-2.291667e-01
349.262050	1.350212	dec_social_choice	1.350212	32.000000	n/a	0	0	-2.291667e-01
349.262050	1.350212	dec_choice	1.350212	32.000000	n/a	0	0	-2.291667e-01
349.262050	1.350212	dec_social_reject	1.350212	32.000000	n/a	0	0	-2.698864e-02
349.262050	1.350212	dec_reject	1.350212	32.000000	n/a	0	0	-3.125000e-02
349.262050	1.350212	dec_social_low	1.350212	32.000000	n/a	0	-2.291667e-01	-2.291667e-01
349.262050	1.350212	dec_social_reject_low	1.350212	32.000000	n/a	2	-1.666667e-01	-2.291667e-01
356.912700	1.265453	dec_social_choice	1.265453	32.000000	n/a	8	2.083333e-02	2.083333e-02
356.912700	1.265453	dec_choice	1.265453	32.000000	n/a	8	2.083333e-02	2.083333e-02
356.912700	1.265453	dec_social_accept	1.265453	32.000000	n/a	8	-9.735577e-02	-9.735577e-02
356.912700	1.265453	dec_accept	1.265453	32.000000	n/a	8	-1.145833e-01	-1.145833e-01
356.912700	1.265453	dec_social_accept_high	1.265453	32.000000	n/a	8	2.083333e-02	2.083333e-02
363.745270	0.783499	dec_nonsocial_choice	0.783499	32.000000	n/a	2	-1.666667e-01	-1.666667e-01
363.745270	0.783499	dec_choice	0.783499	32.000000	n/a	2	-1.666667e-01	-1.666667e-01
363.745270	0.783499	dec_nonsocial_accept	0.783499	32.000000	n/a	2	-2.848558e-01	-2.848558e-01
363.745270	0.783499	dec_accept	0.783499	32.000000	n/a	2	-2.700893e-01	-2.700893e-01
363.745270	0.783499	dec_nonsocial_low	0.783499	32.000000	n/a	2	-1.666667e-01	-1.666667e-01
363.745270	0.783499	dec_nonsocial_accept_low	0.783499	32.000000	n/a	2	-2.700893e-01	-2.700893e-01
370.579440	0.849574	dec_nonsocial_choice	0.849574	16.000000	n/a	8	2.708333e-01	2.708333e-01
370.579440	0.849574	dec_choice	0.849574	16.000000	n/a	8	2.708333e-01	2.708333e-01
370.579440	0.849574	dec_nonsocial_accept	0.849574	16.000000	n/a	8	1.526442e-01	1.526442e-01
370.579440	0.849574	dec_accept	0.849574	16.000000	n/a	8	1.674107e-01	1.674107e-01
370.579440	0.849574	dec_nonsocial_accept_high	0.849574	16.000000	n/a	8	1.354167e-01	1.354167e-01
