onset	duration	trial_type	rt	resp
0.0004012999124825001	0.7442148998379707	fixation_1	999	999
0.7447023997083306	3.006293599959463	face	2.568913800176233	3
3.7510471995919943	0.7442148998379707	fixation_2	999	999
4.294469699729234	1.0165082002058625	feedback win	999	999
5.310981099959463	5.316915299743414	ITI	999	999
10.633615099824965	0.7103185001760721	fixation_1	999	999
11.344025599770248	3.0059046000242233	face	1.7995985001325607	3
14.349982399959117	0.7103185001760721	fixation_2	999	999
14.893432699609548	1.0163348000496626	feedback loss	999	999
15.90977089991793	1.1179549000225961	ITI	999	999
17.03229139978066	0.7105847001075745	fixation_1	999	999
17.742961899843067	3.0059953997842968	face	2.5666164997965097	3
20.749007299542427	0.7105847001075745	fixation_2	999	999
21.292237599845976	1.0000788001343608	feedback win	999	999
22.292319999542087	1.117875300347805	ITI	999	999
23.414967799559236	0.7271949001587927	fixation_1	999	999
24.14224849967286	3.0063753998838365	face	2.299781700130552	2
27.14867899985984	0.7271949001587927	fixation_2	999	999
27.69182669976726	1.0165240000933409	feedback win	999	999
28.70835409965366	3.2161285001784563	ITI	999	999
31.929594799876213	0.7615478998050094	fixation_1	999	999
32.69123029988259	3.0066939000971615	face	2.5659317998215556	2
35.697975899558514	0.7615478998050094	fixation_2	999	999
36.24071679962799	1.0167821999639273	feedback loss	999	999
37.2575034997426	5.316757000051439	ITI	999	999
42.57894719997421	0.7442781999707222	fixation_1	999	999
43.323309199884534	3.006192999891937	face	2.5649677999317646	3
46.32955339970067	0.7442781999707222	fixation_2	999	999
46.8729745997116	1.0165240000933409	feedback loss	999	999
47.88950209971517	3.2166782999411225	ITI	999	999
51.110889699775726	0.7114284997805953	fixation_1	999	999
51.82240579975769	3.005994699895382	face	2.299786999821663	2
54.828452799934894	0.7114284997805953	fixation_2	999	999
55.37214749958366	1.0164453000761569	feedback win	999	999
56.388596299570054	3.2166716000065207	ITI	999	999
59.610123599879444	0.7112404000945389	fixation_1	999	999
60.321448899805546	3.0049509000964463	face	2.8166541000828147	2
63.326453499961644	0.7112404000945389	fixation_2	999	999
63.87095559993759	1.0169453998096287	feedback loss	999	999
64.88790429988876	1.1175528997555375	ITI	999	999
66.01032459968701	0.7271495000459254	fixation_1	999	999
66.7375959996134	3.0054641999304295	face	2.3003402003087103	3
69.74311249982566	0.7271495000459254	fixation_2	999	999
70.28702359972522	1.0164494002237916	feedback win	999	999
71.30347619997337	1.1178313996642828	ITI	999	999
72.42617079988122	0.7271035998128355	fixation_1	999	999
73.15337189985439	3.0060286996886134	face	2.0498925000429153	3
76.15945569984615	0.7271035998128355	fixation_2	999	999
76.70283389976248	1.016409299802035	feedback win	999	999
77.71924649970606	1.118433800060302	ITI	999	999
78.84261009981856	0.7266104998998344	fixation_1	999	999
79.56930899992585	3.0055796997621655	face	2.299300199840218	3
82.5749420998618	0.7266104998998344	fixation_2	999	999
83.1185689996928	1.0002105999737978	feedback loss	999	999
84.11878299992532	3.216562499757856	ITI	999	999
87.3403654997237	0.6946016000583768	fixation_1	999	999
88.03505269996822	3.006293599959463	face	2.299999399576336	3
91.04139779973775	0.6946016000583768	fixation_2	999	999
91.58453819993883	1.0164108998142183	feedback loss	999	999
92.60095249954611	1.1179297002963722	ITI	999	999
93.72386149968952	0.7267243000678718	fixation_1	999	999
94.45067069958895	3.005173500161618	face	1.8000199003145099	2
97.45592989958823	0.7267243000678718	fixation_2	999	999
98.00035319989547	1.016768400091678	feedback win	999	999
99.01712499978021	5.316657799761742	ITI	999	999
104.33887029998004	0.7440366996452212	fixation_1	999	999
105.08299559960142	3.005805500317365	face	2.2997790002264082	2
108.08885369962081	0.7440366996452212	fixation_2	999	999
108.63250179961324	1.0000454001128674	feedback win	999	999
109.63255099998787	1.1178089999593794	ITI	999	999
110.75540859997272	0.7266751998104155	fixation_1	999	999
111.48216969985515	3.005558999720961	face	2.0497535998001695	3
114.48778099985793	0.7266751998104155	fixation_2	999	999
115.03178639989346	1.016533199697733	feedback win	999	999
116.04832289973274	5.316655000206083	ITI	999	999
121.37009889958426	0.7442578002810478	fixation_1	999	999
122.11445179954171	3.005057600326836	face	2.816328000277281	3
125.11955969966948	0.7442578002810478	fixation_2	999	999
125.66379369981587	1.016443199943751	feedback win	999	999
126.68024039966986	3.2179040000773966	ITI	999	999
129.9032858996652	0.7266461001709104	fixation_1	999	999
130.63001979980618	3.005888700019568	face	2.5649615000002086	2
133.63595959963277	0.7266461001709104	fixation_2	999	999
134.17972799995914	1.016482099890709	feedback win	999	999
135.19622819963843	3.216709400061518	ITI	999	999
138.41811939980835	0.6942738997749984	fixation_1	999	999
139.11248029954731	3.0058650001883507	face	2.5508054001256824	2
142.118396199774	0.6942738997749984	fixation_2	999	999
142.66224819980562	1.0162892998196185	feedback win	999	999
143.67855519987643	3.216713299974799	ITI	999	999
146.90048659965396	0.760933700017631	fixation_1	999	999
147.66150579974055	3.321529199834913	face	3.316416600253433	3
150.98311579972506	0.760933700017631	fixation_2	999	999
151.52779169986024	1.0164290997199714	feedback win	999	999
152.5442242999561	11.61677229963243	ITI	999	999
164.16622159956023	0.7597922002896667	fixation_1	999	999
164.92610829975456	3.3214214998297393	face	3.3163442998193204	2
168.24760209955275	0.7597922002896667	fixation_2	999	999
168.79237659974024	1.0000133998692036	feedback loss	999	999
169.79239339986816	5.316477899905294	ITI	999	999
175.11425279965624	0.794070000294596	fixation_1	999	999
175.9084097999148	3.0051865000277758	face	2.8163834996521473	2
178.9136487999931	0.794070000294596	fixation_2	999	999
179.4578421995975	1.0163863999769092	feedback win	999	999
180.47423189971596	5.316712200175971	ITI	999	999
185.7962419996038	0.7604391002096236	fixation_1	999	999
186.55676779989153	3.005981700029224	face	2.5668931999243796	2
189.56280279997736	0.7604391002096236	fixation_2	999	999
190.1066830996424	1.0164140001870692	feedback loss	999	999
191.12310069985688	3.2169913998804986	ITI	999	999
194.3455004999414	0.7104189000092447	fixation_1	999	999
195.05603689979762	3.0056186001747847	face	2.2997767999768257	2
198.06170719955117	0.7104189000092447	fixation_2	999	999
198.60555919958279	1.0165246999822557	feedback loss	999	999
199.62208729982376	1.1179968998767436	ITI	999	999
200.7456524996087	0.7595488000661135	fixation_1	999	999
201.50532039999962	3.0057626999914646	face	2.2998103997670114	2
204.51113759959117	0.7595488000661135	fixation_2	999	999
205.05494859954342	1.0162862003780901	feedback loss	999	999
206.07123849960044	1.1175071001052856	ITI	999	999
207.19418679969385	0.7269065999425948	fixation_1	999	999
207.92117789993063	3.005032899789512	face	2.8168028998188674	2
210.92627899954095	0.7269065999425948	fixation_2	999	999
211.47062319982797	1.0000414000824094	feedback win	999	999
212.4706682995893	5.317125200293958	ITI	999	999
217.7932858997956	0.7766648000106215	fixation_1	999	999
218.57003599964082	3.005279100034386	face	2.8157277000136673	3
221.5753689999692	0.7766648000106215	fixation_2	999	999
222.11964719975367	1.0165146999061108	feedback loss	999	999
223.1361652999185	5.316753599792719	ITI	999	999
228.45872619980946	0.8100510998629034	fixation_1	999	999
229.2688799998723	3.005826700013131	face	2.0497177001088858	3
232.27475769957528	0.8100510998629034	fixation_2	999	999
232.8184761996381	1.0163771002553403	feedback win	999	999
233.8348566996865	3.2168088001199067	ITI	999	999
237.05730679957196	0.7105848002247512	fixation_1	999	999
237.7679895996116	3.3224858003668487	face	3.3172651999630034	2
241.09054909972474	0.7105848002247512	fixation_2	999	999
241.6340360995382	1.0164299001917243	feedback loss	999	999
242.65046939998865	1.1179185998626053	ITI	999	999
243.77406629966572	0.7096458002924919	fixation_1	999	999
244.4837975995615	3.0063101002015173	face	2.298990000039339	2
247.49015879957005	0.7096458002924919	fixation_2	999	999
248.03338379971683	1.0164254000410438	feedback win	999	999
249.04981259955093	3.216874100267887	ITI	999	999
252.27249509980902	0.7269326997920871	fixation_1	999	999
252.99952189996839	3.0052612996660173	face	2.816377999726683	2
256.00483399955556	0.7269326997920871	fixation_2	999	999
256.54906409978867	1.0166966998949647	feedback loss	999	999
257.565763999708	1.1176559999585152	ITI	999	999
258.68959159962833	0.7257067002356052	fixation_1	999	999
259.4154350999743	3.005671799648553	face	2.049731899984181	2
262.4211597996764	0.7257067002356052	fixation_2	999	999
262.9649007995613	1.0164547003805637	feedback loss	999	999
263.9813588997349	1.1179488999769092	ITI	999	999
265.1052636997774	0.709254200104624	fixation_1	999	999
265.81461069965735	3.0058956001885235	face	2.2997447000816464	2
268.82055929955095	0.709254200104624	fixation_2	999	999
269.3640901995823	1.0165493004024029	feedback loss	999	999
270.38064289977774	1.1178747001104057	ITI	999	999
271.50447709998116	0.7092478997074068	fixation_1	999	999
272.2138104997575	3.0059744999744	face	2.2998699001036584	2
275.21983589977026	0.7092478997074068	fixation_2	999	999
275.7636632998474	1.0163982999511063	feedback win	999	999
276.78006489994004	5.3177436999976635	ITI	999	999
282.1036086999811	0.775656099896878	fixation_1	999	999
282.8793480996974	3.3215609001927078	face	3.316513600293547	3
286.20098639978096	0.775656099896878	fixation_2	999	999
286.74558229977265	1.0164157999679446	feedback loss	999	999
287.76200139988214	1.1181267998181283	ITI	999	999
288.88600649964064	0.7425258001312613	fixation_1	999	999
289.62864009989426	3.005117400083691	face	2.8164484999142587	3
292.6338090999052	0.7425258001312613	fixation_2	999	999
293.1782410996966	1.0165023002773523	feedback loss	999	999
294.1947468998842	3.216819299850613	ITI	999	999
297.4177268999629	0.7600424997508526	fixation_1	999	999
298.17786119971424	3.071058100089431	face	3.0660812999121845	3
301.24899219954386	0.7600424997508526	fixation_2	999	999
301.79375779954717	1.0164028001017869	feedback win	999	999
302.81016369955614	5.316786700394005	ITI	999	999
308.13295089965686	0.7099518002942204	fixation_1	999	999
308.84298749966547	3.0057419002987444	face	2.566513600293547	2
311.8487805998884	0.7099518002942204	fixation_2	999	999
312.3925150996074	1.0000893003307283	feedback loss	999	999
313.3926075999625	5.316564399749041	ITI	999	999
318.7153455996886	0.7597833001054823	fixation_1	999	999
319.4752043997869	3.071267900057137	face	3.066180999856442	2
322.546591299586	0.7597833001054823	fixation_2	999	999
323.0912097999826	1.0167628997005522	feedback win	999	999
324.1079760999419	1.117631099652499	ITI	999	999
325.23160899989307	0.7429319997318089	fixation_1	999	999
325.9746252996847	3.0057481001131237	face	2.549517000094056	3
328.9804277997464	0.7429319997318089	fixation_2	999	999
329.52399979997426	1.016289099585265	feedback loss	999	999
330.54029229981825	1.1172585999593139	ITI	999	999
331.6635607997887	0.7265527998097241	fixation_1	999	999
332.3902008999139	3.321033099666238	face	3.316037700045854	3
335.7113099996932	0.7265527998097241	fixation_2	999	999
336.2565537998453	1.0165316998027265	feedback loss	999	999
337.27308899955824	5.316756600048393	ITI	999	999
