instrText,stimDoor,stimDoorLure,stimFace,stimFaceLure,Instructions.thisRepN,Instructions.thisTrialN,Instructions.thisN,Instructions.thisIndex,Trials.thisRepN,Trials.thisTrialN,Trials.thisN,Trials.thisIndex,Func,Keys,Text,RespTime,Onset,Offset,SystemTime_Start,SystemTime_Stop,Stim,Lure,Participant*,Age,date,expName,psychopyVersion,frameRate,
"In the earlier Feedback Games, you chose which doors contained a prize, and which peers liked you. 

You then saw positive or negative feedback (green check mark or red X) from the door or peer you selected.

You will now see a series of doors and peers, some of which you saw during the earlier Feedback Games, and some that you have never seen before.

Please press the spacebar to continue.",,,,,0,0,0,0,,,,,instrFunc,space,"In the earlier Feedback Games, you chose which doors contained a prize, and which peers liked you. 

You then saw positive or negative feedback (green check mark or red X) from the door or peer you selected.

You will now see a series of doors and peers, some of which you saw during the earlier Feedback Games, and some that you have never seen before.

Please press the spacebar to continue.",19.468278900254518,13.149913900066167,32.69721960090101,2023-05-02 12:18:02.985823,2023-05-02 12:18:22.517749,,,10541,40-69,2023-05-02_12h18.00.647,Recall,2021.2.3,59.92653021216026,
"For doors/peers that you remember selecting and getting feedback from, your job is to RECALL what feedback you received. 

Press '1' if you recall positive feedback. 

Press '2' if you recall negative feedback

Press the spacebar to continue.",,,,,0,1,1,1,,,,,instrFunc,space,"For doors/peers that you remember selecting and getting feedback from, your job is to RECALL what feedback you received. 

Press '1' if you recall positive feedback. 

Press '2' if you recall negative feedback

Press the spacebar to continue.",17.848812100011855,32.665283699985594,50.574837469961494,2023-05-02 12:18:22.518723,2023-05-02 12:18:40.412859,,,10541,40-69,2023-05-02_12h18.00.647,Recall,2021.2.3,59.92653021216026,
"For doors/peers that you don't remember getting feedback from, your job is to PREDICT what feedback you WOULD HAVE received.

Press '9' if you predict positive feedback.

Press '0' if you predict negative feedback. 

Please press the spacebar to continue.",,,,,0,2,2,2,,,,,instrFunc,space,"For doors/peers that you don't remember getting feedback from, your job is to PREDICT what feedback you WOULD HAVE received.

Press '9' if you predict positive feedback.

Press '0' if you predict negative feedback. 

Please press the spacebar to continue.",16.626840100158006,50.559118600096554,67.23564476985484,2023-05-02 12:18:40.413830,2023-05-02 12:18:57.074834,,,10541,40-69,2023-05-02_12h18.00.647,Recall,2021.2.3,59.92653021216026,
"This task is self-paced, and the prompts will always stay on the screen so that you know which buttons to press.

On the next screen we will show you what those prompts look like, so that you know exactly what to expect. 

You will start with either doors or peers, and then switch halfway through. 

Please press the spacebar to continue.",,,,,0,3,3,3,,,,,instrFunc,space,"This task is self-paced, and the prompts will always stay on the screen so that you know which buttons to press.

On the next screen we will show you what those prompts look like, so that you know exactly what to expect. 

You will start with either doors or peers, and then switch halfway through. 

Please press the spacebar to continue.",16.583113700151443,67.21884449990466,83.84557757014409,2023-05-02 12:18:57.075838,2023-05-02 12:19:13.687197,,,10541,40-69,2023-05-02_12h18.00.647,Recall,2021.2.3,59.92653021216026,
,,,,,,,,,,,,,imgtextFunc,space,"Here is what the screen will look like while you make your ratings.
The green circles remind you to press 1 or 9 for positive feedback.
The red circles remind you to press 2 or 0 for positive feedback.









Please let the experimenter know if you have any questions.

Whenever you're ready, press the spacebar to start the task.",31.09877120004967,83.99140780000016,115.27850566990674,2023-05-02 12:19:13.697147,2023-05-02 12:19:44.977526,,,10541,40-69,2023-05-02_12h18.00.647,Recall,2021.2.3,59.92653021216026,
,DD016.jpg,0,FF016.jpg,0,,,,,0,0,0,15,imgFunc,2,NA,11.42497539985925,115.2488922001794,126.80867900978774,2023-05-02 12:19:45.018392,2023-05-02 12:19:56.568775,FF016.jpg,0,10541,40-69,2023-05-02_12h18.00.647,Recall,2021.2.3,59.92653021216026,
,L_SD508.jpg,1,L_MF508.jpg,1,,,,,0,1,1,97,imgFunc,0,NA,3.6048268997110426,126.80506440019235,130.53959477040917,2023-05-02 12:19:56.577780,2023-05-02 12:20:00.304647,L_MF508.jpg,1,10541,40-69,2023-05-02_12h18.00.647,Recall,2021.2.3,59.92653021216026,
,DD025.jpg,0,FF025.jpg,0,,,,,0,2,2,24,imgFunc,2,NA,6.287037500180304,130.51479960000142,136.90345847047865,2023-05-02 12:20:00.312618,2023-05-02 12:20:06.692446,FF025.jpg,0,10541,40-69,2023-05-02_12h18.00.647,Recall,2021.2.3,59.92653021216026,
,SD020.jpg,0,MF020.jpg,0,,,,,0,3,3,69,imgFunc,1,NA,2.3251593997702003,136.9166775001213,139.3416571705602,2023-05-02 12:20:06.705415,2023-05-02 12:20:09.127294,MF020.jpg,0,10541,40-69,2023-05-02_12h18.00.647,Recall,2021.2.3,59.92653021216026,
,SD030.jpg,0,MF030.jpg,0,,,,,0,4,4,79,imgFunc,9,NA,2.578467099927366,139.3273064000532,141.99766346998513,2023-05-02 12:20:09.135247,2023-05-02 12:20:11.796290,MF030.jpg,0,10541,40-69,2023-05-02_12h18.00.647,Recall,2021.2.3,59.92653021216026,
,DD024.jpg,0,FF024.jpg,0,,,,,0,5,5,23,imgFunc,2,NA,2.5490631996653974,142.02070809993893,144.68718066997826,2023-05-02 12:20:11.805264,2023-05-02 12:20:14.465070,FF024.jpg,0,10541,40-69,2023-05-02_12h18.00.647,Recall,2021.2.3,59.92653021216026,
,DD038.jpg,0,FF038.jpg,0,,,,,0,6,6,37,imgFunc,1,NA,1.718115400057286,144.6837157001719,146.51968007022515,2023-05-02 12:20:14.472050,2023-05-02 12:20:16.298864,FF038.jpg,0,10541,40-69,2023-05-02_12h18.00.647,Recall,2021.2.3,59.92653021216026,
,SD033.jpg,0,MF033.jpg,0,,,,,0,7,7,82,imgFunc,9,NA,5.655542699620128,146.51419600006193,152.27467377018183,2023-05-02 12:20:16.312826,2023-05-02 12:20:22.070501,MF033.jpg,0,10541,40-69,2023-05-02_12h18.00.647,Recall,2021.2.3,59.92653021216026,
,SD006.jpg,0,MF006.jpg,0,,,,,0,8,8,55,imgFunc,2,NA,2.276648699771613,152.2772061000578,154.644478070084,2023-05-02 12:20:22.078477,2023-05-02 12:20:24.438204,MF006.jpg,0,10541,40-69,2023-05-02_12h18.00.647,Recall,2021.2.3,59.92653021216026,
,SD008.jpg,0,MF008.jpg,0,,,,,0,9,9,57,imgFunc,2,NA,1.3261564001441002,154.65167800011113,156.0873996699229,2023-05-02 12:20:24.446178,2023-05-02 12:20:25.873125,MF008.jpg,0,10541,40-69,2023-05-02_12h18.00.647,Recall,2021.2.3,59.92653021216026,
,DD003.jpg,0,FF003.jpg,0,,,,,0,10,10,2,imgFunc,2,NA,2.727378800045699,156.09043399989605,158.92727346997708,2023-05-02 12:20:25.880106,2023-05-02 12:20:28.707931,FF003.jpg,0,10541,40-69,2023-05-02_12h18.00.647,Recall,2021.2.3,59.92653021216026,
,SD009.jpg,0,MF009.jpg,0,,,,,0,11,11,58,imgFunc,1,NA,1.5776574998162687,158.92014640010893,160.60595817072317,2023-05-02 12:20:28.715909,2023-05-02 12:20:30.392795,MF009.jpg,0,10541,40-69,2023-05-02_12h18.00.647,Recall,2021.2.3,59.92653021216026,
,DD004.jpg,0,FF004.jpg,0,,,,,0,12,12,3,imgFunc,2,NA,4.239626300055534,160.61023760028183,164.95021097082645,2023-05-02 12:20:30.407785,2023-05-02 12:20:34.746394,FF004.jpg,0,10541,40-69,2023-05-02_12h18.00.647,Recall,2021.2.3,59.92653021216026,
,L_DD504.jpg,1,L_FF504.jpg,1,,,,,0,13,13,43,imgFunc,0,NA,2.6746608996763825,164.95109459990636,167.71986716985703,2023-05-02 12:20:34.754372,2023-05-02 12:20:37.514495,L_FF504.jpg,1,10541,40-69,2023-05-02_12h18.00.647,Recall,2021.2.3,59.92653021216026,
,DD031.jpg,0,FF031.jpg,0,,,,,0,14,14,30,imgFunc,1,NA,2.6570087000727654,167.7207984002307,170.47383737005293,2023-05-02 12:20:37.522474,2023-05-02 12:20:40.266392,FF031.jpg,0,10541,40-69,2023-05-02_12h18.00.647,Recall,2021.2.3,59.92653021216026,
,SD018.jpg,0,MF018.jpg,0,,,,,0,15,15,67,imgFunc,9,NA,2.494185700081289,170.47558289999142,173.07904127053916,2023-05-02 12:20:40.273372,2023-05-02 12:20:42.867979,MF018.jpg,0,10541,40-69,2023-05-02_12h18.00.647,Recall,2021.2.3,59.92653021216026,
,SD026.jpg,0,MF026.jpg,0,,,,,0,16,16,75,imgFunc,2,NA,2.2026324002072215,173.08713479992002,175.4066390702501,2023-05-02 12:20:42.875956,2023-05-02 12:20:45.186386,MF026.jpg,0,10541,40-69,2023-05-02_12h18.00.647,Recall,2021.2.3,59.92653021216026,
,DD040.jpg,0,FF040.jpg,0,,,,,0,17,17,39,imgFunc,0,NA,6.516901399940252,175.41285890014842,182.0491833393462,2023-05-02 12:20:45.204366,2023-05-02 12:20:51.824809,FF040.jpg,0,10541,40-69,2023-05-02_12h18.00.647,Recall,2021.2.3,59.92653021216026,
,L_SD503.jpg,1,L_MF503.jpg,1,,,,,0,18,18,92,imgFunc,0,NA,2.922092199791223,182.03958200011402,185.07461877027526,2023-05-02 12:20:51.832788,2023-05-02 12:20:54.860543,L_MF503.jpg,1,10541,40-69,2023-05-02_12h18.00.647,Recall,2021.2.3,59.92653021216026,
,DD002.jpg,0,FF002.jpg,0,,,,,0,19,19,1,imgFunc,0,NA,1.6718424004502594,185.08189530018717,186.8660981701687,2023-05-02 12:20:54.868544,2023-05-02 12:20:56.644954,FF002.jpg,0,10541,40-69,2023-05-02_12h18.00.647,Recall,2021.2.3,59.92653021216026,
,SD011.jpg,0,MF011.jpg,0,,,,,0,20,20,60,imgFunc,2,NA,2.205542600248009,186.85223329998553,189.15519317006692,2023-05-02 12:20:56.651910,2023-05-02 12:20:58.946600,MF011.jpg,0,10541,40-69,2023-05-02_12h18.00.647,Recall,2021.2.3,59.92653021216026,
,SD021.jpg,0,MF021.jpg,0,,,,,0,21,21,70,imgFunc,1,NA,2.8987257997505367,189.16702819988132,192.18698266986758,2023-05-02 12:20:58.953610,2023-05-02 12:21:01.964754,MF021.jpg,0,10541,40-69,2023-05-02_12h18.00.647,Recall,2021.2.3,59.92653021216026,
,DD012.jpg,0,FF012.jpg,0,,,,,0,22,22,11,imgFunc,0,NA,2.5570979001931846,192.1647585001774,194.81770197069272,2023-05-02 12:21:01.972729,2023-05-02 12:21:04.617245,FF012.jpg,0,10541,40-69,2023-05-02_12h18.00.647,Recall,2021.2.3,59.92653021216026,
,DD006.jpg,0,FF006.jpg,0,,,,,0,23,23,5,imgFunc,9,NA,3.717665100004524,194.8200590000488,198.6403557700105,2023-05-02 12:21:04.625194,2023-05-02 12:21:08.436330,FF006.jpg,0,10541,40-69,2023-05-02_12h18.00.647,Recall,2021.2.3,59.92653021216026,
,SD007.jpg,0,MF007.jpg,0,,,,,0,24,24,56,imgFunc,9,NA,2.071674000006169,198.64208870008588,200.81194977043197,2023-05-02 12:21:08.444307,2023-05-02 12:21:10.604573,MF007.jpg,0,10541,40-69,2023-05-02_12h18.00.647,Recall,2021.2.3,59.92653021216026,
,SD040.jpg,0,MF040.jpg,0,,,,,0,25,25,89,imgFunc,0,NA,2.178447499871254,200.82347609987482,203.1098546697758,2023-05-02 12:21:10.612554,2023-05-02 12:21:12.890462,MF040.jpg,0,10541,40-69,2023-05-02_12h18.00.647,Recall,2021.2.3,59.92653021216026,
,L_DD501.jpg,1,L_FF501.jpg,1,,,,,0,26,26,40,imgFunc,0,NA,1.7006724001839757,203.1090414999053,204.91341686993837,2023-05-02 12:21:12.904453,2023-05-02 12:21:14.707712,L_FF501.jpg,1,10541,40-69,2023-05-02_12h18.00.647,Recall,2021.2.3,59.92653021216026,
,DD001.jpg,0,FF001.jpg,0,,,,,0,27,27,0,imgFunc,2,NA,3.206309299916029,204.90741130011156,208.21131947031245,2023-05-02 12:21:14.714721,2023-05-02 12:21:18.010520,FF001.jpg,0,10541,40-69,2023-05-02_12h18.00.647,Recall,2021.2.3,59.92653021216026,
,SD015.jpg,0,MF015.jpg,0,,,,,0,28,28,64,imgFunc,9,NA,5.59644449967891,208.22127560013905,213.92643367033452,2023-05-02 12:21:18.017501,2023-05-02 12:21:23.714346,MF015.jpg,0,10541,40-69,2023-05-02_12h18.00.647,Recall,2021.2.3,59.92653021216026,
,L_DD502.jpg,1,L_FF502.jpg,1,,,,,0,29,29,41,imgFunc,0,NA,1.3115376001223922,213.93022850016132,215.3462737700902,2023-05-02 12:21:23.723327,2023-05-02 12:21:25.131759,L_FF502.jpg,1,10541,40-69,2023-05-02_12h18.00.647,Recall,2021.2.3,59.92653021216026,
,DD028.jpg,0,FF028.jpg,0,,,,,0,30,30,27,imgFunc,2,NA,1.4929893999360502,215.34911390021443,216.95114047033712,2023-05-02 12:21:25.139713,2023-05-02 12:21:26.733464,FF028.jpg,0,10541,40-69,2023-05-02_12h18.00.647,Recall,2021.2.3,59.92653021216026,
,DD035.jpg,0,FF035.jpg,0,,,,,0,31,31,34,imgFunc,2,NA,2.0785324000753462,216.94719769991934,219.11811667028815,2023-05-02 12:21:26.748423,2023-05-02 12:21:28.917663,FF035.jpg,0,10541,40-69,2023-05-02_12h18.00.647,Recall,2021.2.3,59.92653021216026,
,L_SD510.jpg,1,L_MF510.jpg,1,,,,,0,32,32,99,imgFunc,9,NA,2.7870072997175157,219.12679070001468,222.0140375699848,2023-05-02 12:21:28.925644,2023-05-02 12:21:31.803074,L_MF510.jpg,1,10541,40-69,2023-05-02_12h18.00.647,Recall,2021.2.3,59.92653021216026,
,SD022.jpg,0,MF022.jpg,0,,,,,0,33,33,71,imgFunc,9,NA,3.5516015999019146,222.0100642000325,225.66335017001256,2023-05-02 12:21:31.811027,2023-05-02 12:21:35.455603,MF022.jpg,0,10541,40-69,2023-05-02_12h18.00.647,Recall,2021.2.3,59.92653021216026,
,SD013.jpg,0,MF013.jpg,0,,,,,0,34,34,62,imgFunc,2,NA,1.7268626000732183,225.65901160007343,227.47803457034752,2023-05-02 12:21:35.463554,2023-05-02 12:21:37.274206,MF013.jpg,0,10541,40-69,2023-05-02_12h18.00.647,Recall,2021.2.3,59.92653021216026,
,SD025.jpg,0,MF025.jpg,0,,,,,0,35,35,74,imgFunc,0,NA,2.4818000998347998,227.49590100022033,230.09891827078536,2023-05-02 12:21:37.281187,2023-05-02 12:21:39.875429,MF025.jpg,0,10541,40-69,2023-05-02_12h18.00.647,Recall,2021.2.3,59.92653021216026,
,DD005.jpg,0,FF005.jpg,0,,,,,0,36,36,4,imgFunc,2,NA,2.270811799913645,230.08285830030218,232.45269887056202,2023-05-02 12:21:39.883406,2023-05-02 12:21:42.244130,FF005.jpg,0,10541,40-69,2023-05-02_12h18.00.647,Recall,2021.2.3,59.92653021216026,
,DD020.jpg,0,FF020.jpg,0,,,,,0,37,37,19,imgFunc,1,NA,4.674702300224453,232.446951800026,237.2176220701076,2023-05-02 12:21:42.252108,2023-05-02 12:21:47.013913,FF020.jpg,0,10541,40-69,2023-05-02_12h18.00.647,Recall,2021.2.3,59.92653021216026,
,DD021.jpg,0,FF021.jpg,0,,,,,0,38,38,20,imgFunc,2,NA,3.356306899804622,237.22136100009084,240.67279887013137,2023-05-02 12:21:47.022888,2023-05-02 12:21:50.466189,FF021.jpg,0,10541,40-69,2023-05-02_12h18.00.647,Recall,2021.2.3,59.92653021216026,
,SD031.jpg,0,MF031.jpg,0,,,,,0,39,39,80,imgFunc,0,NA,2.205603400245309,240.68404700001702,243.00349607039243,2023-05-02 12:21:50.474167,2023-05-02 12:21:52.784746,MF031.jpg,0,10541,40-69,2023-05-02_12h18.00.647,Recall,2021.2.3,59.92653021216026,
,DD032.jpg,0,FF032.jpg,0,,,,,0,40,40,31,imgFunc,0,NA,7.215212599840015,243.0025682002306,250.31051377020776,2023-05-02 12:21:52.800706,2023-05-02 12:22:00.106827,FF032.jpg,0,10541,40-69,2023-05-02_12h18.00.647,Recall,2021.2.3,59.92653021216026,
,SD010.jpg,0,MF010.jpg,0,,,,,0,41,41,59,imgFunc,0,NA,1.470919500105083,250.33874589996412,251.9238024703227,2023-05-02 12:22:00.122813,2023-05-02 12:22:01.708464,MF010.jpg,0,10541,40-69,2023-05-02_12h18.00.647,Recall,2021.2.3,59.92653021216026,
,DD011.jpg,0,FF011.jpg,0,,,,,0,42,42,10,imgFunc,1,NA,1.9162014001049101,251.9094595001079,253.92859977018088,2023-05-02 12:22:01.715445,2023-05-02 12:22:03.726424,FF011.jpg,0,10541,40-69,2023-05-02_12h18.00.647,Recall,2021.2.3,59.92653021216026,
,DD027.jpg,0,FF027.jpg,0,,,,,0,43,43,26,imgFunc,9,NA,2.453180900309235,253.94060329999775,256.50921777030453,2023-05-02 12:22:03.734375,2023-05-02 12:22:06.294623,FF027.jpg,0,10541,40-69,2023-05-02_12h18.00.647,Recall,2021.2.3,59.92653021216026,
,L_SD509.jpg,1,L_MF509.jpg,1,,,,,0,44,44,98,imgFunc,0,NA,3.8501798999495804,256.51150069991127,260.46381887048483,2023-05-02 12:22:06.303599,2023-05-02 12:22:10.247480,L_MF509.jpg,1,10541,40-69,2023-05-02_12h18.00.647,Recall,2021.2.3,59.92653021216026,
,DD008.jpg,0,FF008.jpg,0,,,,,0,45,45,7,imgFunc,9,NA,1.5017409003339708,260.4678211999126,262.0719822701067,2023-05-02 12:22:10.262416,2023-05-02 12:22:11.865168,FF008.jpg,0,10541,40-69,2023-05-02_12h18.00.647,Recall,2021.2.3,59.92653021216026,
,SD003.jpg,0,MF003.jpg,0,,,,,0,46,46,52,imgFunc,1,NA,2.121310000307858,262.0642647999339,264.2837270703167,2023-05-02 12:22:11.873149,2023-05-02 12:22:14.083863,MF003.jpg,0,10541,40-69,2023-05-02_12h18.00.647,Recall,2021.2.3,59.92653021216026,
,SD027.jpg,0,MF027.jpg,0,,,,,0,47,47,76,imgFunc,2,NA,2.7576174000278115,264.28399190027267,267.136973970104,2023-05-02 12:22:14.091811,2023-05-02 12:22:16.935444,MF027.jpg,0,10541,40-69,2023-05-02_12h18.00.647,Recall,2021.2.3,59.92653021216026,
,SD004.jpg,0,MF004.jpg,0,,,,,0,48,48,53,imgFunc,2,NA,0.9379330999217927,267.1436165999621,268.17849167017266,2023-05-02 12:22:16.943394,2023-05-02 12:22:17.969657,MF004.jpg,0,10541,40-69,2023-05-02_12h18.00.647,Recall,2021.2.3,59.92653021216026,
,SD002.jpg,0,MF002.jpg,0,,,,,0,49,49,51,imgFunc,0,NA,4.716908299829811,268.2049190001562,273.058505570516,2023-05-02 12:22:17.977635,2023-05-02 12:22:22.823726,MF002.jpg,0,10541,40-69,2023-05-02_12h18.00.647,Recall,2021.2.3,59.92653021216026,
,DD017.jpg,0,FF017.jpg,0,,,,,0,50,50,16,imgFunc,0,NA,1.7702525998465717,273.03136590030044,274.8978315703571,2023-05-02 12:22:22.832715,2023-05-02 12:22:24.690890,FF017.jpg,0,10541,40-69,2023-05-02_12h18.00.647,Recall,2021.2.3,59.92653021216026,
,L_SD505.jpg,1,L_MF505.jpg,1,,,,,0,51,51,94,imgFunc,0,NA,2.367919099982828,274.8976819999516,277.36727456981316,2023-05-02 12:22:24.698868,2023-05-02 12:22:27.159670,L_MF505.jpg,1,10541,40-69,2023-05-02_12h18.00.647,Recall,2021.2.3,59.92653021216026,
,DD030.jpg,0,FF030.jpg,0,,,,,0,52,52,29,imgFunc,0,NA,1.795787500217557,277.3658890002407,279.26812017010525,2023-05-02 12:22:27.167623,2023-05-02 12:22:29.061015,FF030.jpg,0,10541,40-69,2023-05-02_12h18.00.647,Recall,2021.2.3,59.92653021216026,
,L_DD505.jpg,1,L_FF505.jpg,1,,,,,0,53,53,44,imgFunc,9,NA,2.804560699965805,279.2851959001273,282.2047412702814,2023-05-02 12:22:29.068992,2023-05-02 12:22:31.980160,L_FF505.jpg,1,10541,40-69,2023-05-02_12h18.00.647,Recall,2021.2.3,59.92653021216026,
,L_DD503.jpg,1,L_FF503.jpg,1,,,,,0,54,54,42,imgFunc,0,NA,1.8324306001886725,282.20113170007244,284.1377138700336,2023-05-02 12:22:31.995118,2023-05-02 12:22:33.931602,L_FF503.jpg,1,10541,40-69,2023-05-02_12h18.00.647,Recall,2021.2.3,59.92653021216026,
,DD019.jpg,0,FF019.jpg,0,,,,,0,55,55,18,imgFunc,0,NA,1.2600341001525521,284.1336938999593,285.48641077056527,2023-05-02 12:22:33.938583,2023-05-02 12:22:35.282154,FF019.jpg,0,10541,40-69,2023-05-02_12h18.00.647,Recall,2021.2.3,59.92653021216026,
,SD035.jpg,0,MF035.jpg,0,,,,,0,56,56,84,imgFunc,0,NA,3.820674499962479,285.48489210009575,289.4061370701529,2023-05-02 12:22:35.289135,2023-05-02 12:22:39.201228,MF035.jpg,0,10541,40-69,2023-05-02_12h18.00.647,Recall,2021.2.3,59.92653021216026,
,L_DD510.jpg,1,L_FF510.jpg,1,,,,,0,57,57,49,imgFunc,0,NA,2.1000366997905076,289.40553170023486,291.6086085708812,2023-05-02 12:22:39.209180,2023-05-02 12:22:41.403543,L_FF510.jpg,1,10541,40-69,2023-05-02_12h18.00.647,Recall,2021.2.3,59.92653021216026,
,DD023.jpg,0,FF023.jpg,0,,,,,0,58,58,22,imgFunc,0,NA,1.6342329997569323,291.6073722001165,293.3433493701741,2023-05-02 12:22:41.410524,2023-05-02 12:22:43.137128,FF023.jpg,0,10541,40-69,2023-05-02_12h18.00.647,Recall,2021.2.3,59.92653021216026,
,SD034.jpg,0,MF034.jpg,0,,,,,0,59,59,83,imgFunc,9,NA,1.4624589001759887,293.3471300001256,294.900934970472,2023-05-02 12:22:43.153082,2023-05-02 12:22:44.705209,MF034.jpg,0,10541,40-69,2023-05-02_12h18.00.647,Recall,2021.2.3,59.92653021216026,
,L_SD506.jpg,1,L_MF506.jpg,1,,,,,0,60,60,95,imgFunc,9,NA,1.082156500313431,294.90343580022454,296.0728072701022,2023-05-02 12:22:44.713165,2023-05-02 12:22:45.873250,L_MF506.jpg,1,10541,40-69,2023-05-02_12h18.00.647,Recall,2021.2.3,59.92653021216026,
,DD013.jpg,0,FF013.jpg,0,,,,,0,61,61,12,imgFunc,9,NA,5.082586899865419,296.07092590024695,301.2425652705133,2023-05-02 12:22:45.881205,2023-05-02 12:22:51.043512,FF013.jpg,0,10541,40-69,2023-05-02_12h18.00.647,Recall,2021.2.3,59.92653021216026,
,SD032.jpg,0,MF032.jpg,0,,,,,0,62,62,81,imgFunc,9,NA,1.796125200111419,301.24549830006436,303.12892227061093,2023-05-02 12:22:51.052463,2023-05-02 12:22:52.928217,MF032.jpg,0,10541,40-69,2023-05-02_12h18.00.647,Recall,2021.2.3,59.92653021216026,
,SD014.jpg,0,MF014.jpg,0,,,,,0,63,63,63,imgFunc,0,NA,2.8656441001221538,303.13587180012837,306.10572587000206,2023-05-02 12:22:52.936199,2023-05-02 12:22:55.896903,MF014.jpg,0,10541,40-69,2023-05-02_12h18.00.647,Recall,2021.2.3,59.92653021216026,
,DD037.jpg,0,FF037.jpg,0,,,,,0,64,64,36,imgFunc,9,NA,2.0024170000106096,306.0951193999499,308.1981157702394,2023-05-02 12:22:55.904884,2023-05-02 12:22:57.998240,FF037.jpg,0,10541,40-69,2023-05-02_12h18.00.647,Recall,2021.2.3,59.92653021216026,
,L_SD507.jpg,1,L_MF507.jpg,1,,,,,0,65,65,96,imgFunc,9,NA,7.771344999782741,308.1981804999523,316.0720952702686,2023-05-02 12:22:58.006218,2023-05-02 12:23:05.871024,L_MF507.jpg,1,10541,40-69,2023-05-02_12h18.00.647,Recall,2021.2.3,59.92653021216026,
,DD033.jpg,0,FF033.jpg,0,,,,,0,66,66,32,imgFunc,0,NA,1.7213973999023438,316.08810959989205,317.9220333704725,2023-05-02 12:23:05.878970,2023-05-02 12:23:07.705634,FF033.jpg,0,10541,40-69,2023-05-02_12h18.00.647,Recall,2021.2.3,59.92653021216026,
,L_DD509.jpg,1,L_FF509.jpg,1,,,,,0,67,67,48,imgFunc,0,NA,1.2860418003983796,317.90745740011334,319.2928322702646,2023-05-02 12:23:07.713581,2023-05-02 12:23:09.090066,L_FF509.jpg,1,10541,40-69,2023-05-02_12h18.00.647,Recall,2021.2.3,59.92653021216026,
,L_SD501.jpg,1,L_MF501.jpg,1,,,,,0,68,68,90,imgFunc,0,NA,3.1888596997596323,319.3007936999202,322.57451887009665,2023-05-02 12:23:09.104029,2023-05-02 12:23:12.375897,L_MF501.jpg,1,10541,40-69,2023-05-02_12h18.00.647,Recall,2021.2.3,59.92653021216026,
,SD036.jpg,0,MF036.jpg,0,,,,,0,69,69,85,imgFunc,0,NA,2.652374300174415,322.57322520017624,325.3260266701691,2023-05-02 12:23:12.382902,2023-05-02 12:23:15.127258,MF036.jpg,0,10541,40-69,2023-05-02_12h18.00.647,Recall,2021.2.3,59.92653021216026,
,SD016.jpg,0,MF016.jpg,0,,,,,0,70,70,65,imgFunc,0,NA,1.866694699972868,325.32691479986534,327.2958256700076,2023-05-02 12:23:15.135239,2023-05-02 12:23:17.095490,MF016.jpg,0,10541,40-69,2023-05-02_12h18.00.647,Recall,2021.2.3,59.92653021216026,
,DD014.jpg,0,FF014.jpg,0,,,,,0,71,71,13,imgFunc,9,NA,1.6605822001583874,327.30106909992173,329.0699979700148,2023-05-02 12:23:17.103445,2023-05-02 12:23:18.862886,FF014.jpg,0,10541,40-69,2023-05-02_12h18.00.647,Recall,2021.2.3,59.92653021216026,
,DD009.jpg,0,FF009.jpg,0,,,,,0,72,72,8,imgFunc,0,NA,1.6490307999774814,329.06446600006893,330.8168918704614,2023-05-02 12:23:18.870863,2023-05-02 12:23:20.614584,FF009.jpg,0,10541,40-69,2023-05-02_12h18.00.647,Recall,2021.2.3,59.92653021216026,
,SD024.jpg,0,MF024.jpg,0,,,,,0,73,73,73,imgFunc,0,NA,3.9743042001500726,330.82717789988965,334.8992693698965,2023-05-02 12:23:20.629549,2023-05-02 12:23:24.701138,MF024.jpg,0,10541,40-69,2023-05-02_12h18.00.647,Recall,2021.2.3,59.92653021216026,
,SD001.jpg,0,MF001.jpg,0,,,,,0,74,74,50,imgFunc,0,NA,1.742180099710822,334.8993144999258,336.7355160699226,2023-05-02 12:23:24.708119,2023-05-02 12:23:26.535383,MF001.jpg,0,10541,40-69,2023-05-02_12h18.00.647,Recall,2021.2.3,59.92653021216026,
,DD022.jpg,0,FF022.jpg,0,,,,,0,75,75,21,imgFunc,0,NA,2.0029278001748025,336.7346001002006,338.8372776703909,2023-05-02 12:23:26.543360,2023-05-02 12:23:28.637094,FF022.jpg,0,10541,40-69,2023-05-02_12h18.00.647,Recall,2021.2.3,59.92653021216026,
,L_DD507.jpg,1,L_FF507.jpg,1,,,,,0,76,76,46,imgFunc,9,NA,1.4828821001574397,338.85458869999275,340.4568691700697,2023-05-02 12:23:28.645047,2023-05-02 12:23:30.238648,L_FF507.jpg,1,10541,40-69,2023-05-02_12h18.00.647,Recall,2021.2.3,59.92653021216026,
,SD012.jpg,0,MF012.jpg,0,,,,,0,77,77,61,imgFunc,0,NA,1.8741262997500598,340.44737010030076,342.4335575699806,2023-05-02 12:23:30.245629,2023-05-02 12:23:32.222913,MF012.jpg,0,10541,40-69,2023-05-02_12h18.00.647,Recall,2021.2.3,59.92653021216026,
,SD017.jpg,0,MF017.jpg,0,,,,,0,78,78,66,imgFunc,0,NA,1.7288719997741282,342.42463649995625,344.24441577028483,2023-05-02 12:23:32.229897,2023-05-02 12:23:34.041064,MF017.jpg,0,10541,40-69,2023-05-02_12h18.00.647,Recall,2021.2.3,59.92653021216026,
,SD019.jpg,0,MF019.jpg,0,,,,,0,79,79,68,imgFunc,0,NA,3.019593399949372,344.2381362002343,347.35828026989475,2023-05-02 12:23:34.049046,2023-05-02 12:23:37.159930,MF019.jpg,0,10541,40-69,2023-05-02_12h18.00.647,Recall,2021.2.3,59.92653021216026,
,DD018.jpg,0,FF018.jpg,0,,,,,0,80,80,17,imgFunc,0,NA,1.4806191995739937,347.3609410999343,348.92956307018176,2023-05-02 12:23:37.167901,2023-05-02 12:23:38.727723,FF018.jpg,0,10541,40-69,2023-05-02_12h18.00.647,Recall,2021.2.3,59.92653021216026,
,DD036.jpg,0,FF036.jpg,0,,,,,0,81,81,35,imgFunc,0,NA,3.0371557003818452,348.93229989986867,352.06904946966097,2023-05-02 12:23:38.735691,2023-05-02 12:23:41.863300,FF036.jpg,0,10541,40-69,2023-05-02_12h18.00.647,Recall,2021.2.3,59.92653021216026,
,L_DD506.jpg,1,L_FF506.jpg,1,,,,,0,82,82,45,imgFunc,9,NA,1.8637258000671864,352.08203040016815,354.0562569703907,2023-05-02 12:23:41.876236,2023-05-02 12:23:43.847843,L_FF506.jpg,1,10541,40-69,2023-05-02_12h18.00.647,Recall,2021.2.3,59.92653021216026,
,DD015.jpg,0,FF015.jpg,0,,,,,0,83,83,14,imgFunc,9,NA,2.391663799993694,354.05779749993235,356.56063757045195,2023-05-02 12:23:43.855796,2023-05-02 12:23:46.350190,FF015.jpg,0,10541,40-69,2023-05-02_12h18.00.647,Recall,2021.2.3,59.92653021216026,
,DD007.jpg,0,FF007.jpg,0,,,,,0,84,84,6,imgFunc,9,NA,2.201353400014341,356.55207420000806,358.8545544706285,2023-05-02 12:23:46.357171,2023-05-02 12:23:48.651305,FF007.jpg,0,10541,40-69,2023-05-02_12h18.00.647,Recall,2021.2.3,59.92653021216026,
,SD005.jpg,0,MF005.jpg,0,,,,,0,85,85,54,imgFunc,0,NA,1.4504621997475624,358.8549513001926,360.4068160704337,2023-05-02 12:23:48.659281,2023-05-02 12:23:50.202526,MF005.jpg,0,10541,40-69,2023-05-02_12h18.00.647,Recall,2021.2.3,59.92653021216026,
,L_SD502.jpg,1,L_MF502.jpg,1,,,,,0,86,86,91,imgFunc,0,NA,1.3536024000495672,360.40785040007904,361.86034906981513,2023-05-02 12:23:50.210504,2023-05-02 12:23:51.653733,L_MF502.jpg,1,10541,40-69,2023-05-02_12h18.00.647,Recall,2021.2.3,59.92653021216026,
,SD028.jpg,0,MF028.jpg,0,,,,,0,87,87,77,imgFunc,0,NA,1.9326360998675227,361.87683159997687,363.91408796980977,2023-05-02 12:23:51.668666,2023-05-02 12:23:53.704902,MF028.jpg,0,10541,40-69,2023-05-02_12h18.00.647,Recall,2021.2.3,59.92653021216026,
,SD037.jpg,0,MF037.jpg,0,,,,,0,88,88,86,imgFunc,0,NA,3.4989645001478493,363.9104673000984,367.5146994702518,2023-05-02 12:23:53.712877,2023-05-02 12:23:57.308009,MF037.jpg,0,10541,40-69,2023-05-02_12h18.00.647,Recall,2021.2.3,59.92653021216026,
,DD010.jpg,0,FF010.jpg,0,,,,,0,89,89,9,imgFunc,9,NA,1.5397243001498282,367.50971020013094,369.1451104702428,2023-05-02 12:23:57.315022,2023-05-02 12:23:58.941768,FF010.jpg,0,10541,40-69,2023-05-02_12h18.00.647,Recall,2021.2.3,59.92653021216026,
,L_DD508.jpg,1,L_FF508.jpg,1,,,,,0,90,90,47,imgFunc,0,NA,1.3493226999416947,369.1642209002748,370.61932357074693,2023-05-02 12:23:58.956724,2023-05-02 12:24:00.409859,L_FF508.jpg,1,10541,40-69,2023-05-02_12h18.00.647,Recall,2021.2.3,59.92653021216026,
,DD039.jpg,0,FF039.jpg,0,,,,,0,91,91,38,imgFunc,0,NA,1.6959600001573563,370.61746270023286,372.4193167705089,2023-05-02 12:24:00.417807,2023-05-02 12:24:02.211418,FF039.jpg,0,10541,40-69,2023-05-02_12h18.00.647,Recall,2021.2.3,59.92653021216026,
,DD029.jpg,0,FF029.jpg,0,,,,,0,92,92,28,imgFunc,0,NA,5.363405399955809,372.4299015002325,377.88668627105653,2023-05-02 12:24:02.226377,2023-05-02 12:24:07.682151,FF029.jpg,0,10541,40-69,2023-05-02_12h18.00.647,Recall,2021.2.3,59.92653021216026,
,SD039.jpg,0,MF039.jpg,0,,,,,0,93,93,88,imgFunc,0,NA,1.1249453001655638,377.89247530000284,379.12444867007434,2023-05-02 12:24:07.691114,2023-05-02 12:24:08.915717,MF039.jpg,0,10541,40-69,2023-05-02_12h18.00.647,Recall,2021.2.3,59.92653021216026,
,DD026.jpg,0,FF026.jpg,0,,,,,0,94,94,25,imgFunc,0,NA,3.4020567000843585,379.11936479993165,382.6231053699739,2023-05-02 12:24:08.923698,2023-05-02 12:24:12.418201,FF026.jpg,0,10541,40-69,2023-05-02_12h18.00.647,Recall,2021.2.3,59.92653021216026,
,DD034.jpg,0,FF034.jpg,0,,,,,0,95,95,33,imgFunc,0,NA,1.806419299915433,382.62708320003003,384.52995597058907,2023-05-02 12:24:12.426176,2023-05-02 12:24:14.319854,FF034.jpg,0,10541,40-69,2023-05-02_12h18.00.647,Recall,2021.2.3,59.92653021216026,
,SD038.jpg,0,MF038.jpg,0,,,,,0,96,96,87,imgFunc,9,NA,2.110039799939841,384.53944480000064,386.7592082703486,2023-05-02 12:24:14.327854,2023-05-02 12:24:16.537958,MF038.jpg,0,10541,40-69,2023-05-02_12h18.00.647,Recall,2021.2.3,59.92653021216026,
,SD023.jpg,0,MF023.jpg,0,,,,,0,97,97,72,imgFunc,0,NA,4.718209499958903,386.74720219988376,391.5597927700728,2023-05-02 12:24:16.549930,2023-05-02 12:24:21.358109,MF023.jpg,0,10541,40-69,2023-05-02_12h18.00.647,Recall,2021.2.3,59.92653021216026,
,L_SD504.jpg,1,L_MF504.jpg,1,,,,,0,98,98,93,imgFunc,9,NA,2.980160499922931,391.5653099999763,394.6494266698137,2023-05-02 12:24:21.367060,2023-05-02 12:24:24.444013,L_MF504.jpg,1,10541,40-69,2023-05-02_12h18.00.647,Recall,2021.2.3,59.92653021216026,
,SD029.jpg,0,MF029.jpg,0,,,,,0,99,99,78,imgFunc,9,NA,2.9990220996551216,394.65037070028484,397.7536660702899,2023-05-02 12:24:24.450996,2023-05-02 12:24:27.546252,MF029.jpg,0,10541,40-69,2023-05-02_12h18.00.647,Recall,2021.2.3,59.92653021216026,
,,,,,,,,,,,,,instrFunc,space,"Great work! 

 Now you will switch to the other image type.

 Press the spacebar whenever you are ready to start.",2.3458024002611637,397.6796317999251,400.0617937701754,2023-05-02 12:24:27.546252,2023-05-02 12:24:29.912938,,,10541,40-69,2023-05-02_12h18.00.647,Recall,2021.2.3,59.92653021216026,
,DD017.jpg,0,FF017.jpg,0,,,,,0,0,0,16,imgFunc,1,NA,4.619420999661088,400.13393629994243,404.8464781399816,2023-05-02 12:24:29.942863,2023-05-02 12:24:34.651373,DD017.jpg,0,10541,40-69,2023-05-02_12h18.00.647,Recall,2021.2.3,59.92653021216026,
,L_DD502.jpg,1,L_FF502.jpg,1,,,,,0,1,1,41,imgFunc,9,NA,2.832223900128156,404.84926509996876,407.76502556959167,2023-05-02 12:24:34.661318,2023-05-02 12:24:37.569956,L_DD502.jpg,1,10541,40-69,2023-05-02_12h18.00.647,Recall,2021.2.3,59.92653021216026,
,SD006.jpg,0,MF006.jpg,0,,,,,0,2,2,55,imgFunc,1,NA,1.709934499580413,407.77160650026053,409.5741497701965,2023-05-02 12:24:37.577939,2023-05-02 12:24:39.371446,SD006.jpg,0,10541,40-69,2023-05-02_12h18.00.647,Recall,2021.2.3,59.92653021216026,
,SD015.jpg,0,MF015.jpg,0,,,,,0,3,3,64,imgFunc,2,NA,2.559709799941629,409.5696624000557,412.21401077043265,2023-05-02 12:24:39.383413,2023-05-02 12:24:42.023233,SD015.jpg,0,10541,40-69,2023-05-02_12h18.00.647,Recall,2021.2.3,59.92653021216026,
,DD025.jpg,0,FF025.jpg,0,,,,,0,4,4,24,imgFunc,9,NA,2.1302626002579927,412.2150930999778,414.4349675704725,2023-05-02 12:24:42.030191,2023-05-02 12:24:44.241581,DD025.jpg,0,10541,40-69,2023-05-02_12h18.00.647,Recall,2021.2.3,59.92653021216026,
,L_DD504.jpg,1,L_FF504.jpg,1,,,,,0,5,5,43,imgFunc,0,NA,1.760753700044006,414.4406801001169,416.2934987703338,2023-05-02 12:24:44.248593,2023-05-02 12:24:46.092645,L_DD504.jpg,1,10541,40-69,2023-05-02_12h18.00.647,Recall,2021.2.3,59.92653021216026,
,DD018.jpg,0,FF018.jpg,0,,,,,0,6,6,17,imgFunc,2,NA,1.9946222002618015,416.2867143000476,418.37268217047676,2023-05-02 12:24:46.100623,2023-05-02 12:24:48.177460,DD018.jpg,0,10541,40-69,2023-05-02_12h18.00.647,Recall,2021.2.3,59.92653021216026,
,SD008.jpg,0,MF008.jpg,0,,,,,0,7,7,57,imgFunc,9,NA,2.0670695998705924,418.3743384000845,420.5274916701019,2023-05-02 12:24:48.185414,2023-05-02 12:24:50.328961,SD008.jpg,0,10541,40-69,2023-05-02_12h18.00.647,Recall,2021.2.3,59.92653021216026,
,SD011.jpg,0,MF011.jpg,0,,,,,0,8,8,60,imgFunc,1,NA,1.5773037998005748,420.5200342000462,422.189591569826,2023-05-02 12:24:50.336939,2023-05-02 12:24:51.997512,SD011.jpg,0,10541,40-69,2023-05-02_12h18.00.647,Recall,2021.2.3,59.92653021216026,
,DD006.jpg,0,FF006.jpg,0,,,,,0,9,9,5,imgFunc,1,NA,1.5876167002134025,422.18977659987286,423.8592969700694,2023-05-02 12:24:52.004493,2023-05-02 12:24:53.664581,DD006.jpg,0,10541,40-69,2023-05-02_12h18.00.647,Recall,2021.2.3,59.92653021216026,
,SD004.jpg,0,MF004.jpg,0,,,,,0,10,10,53,imgFunc,0,NA,1.932820299640298,423.86054020002484,425.87983327079564,2023-05-02 12:24:53.672558,2023-05-02 12:24:55.682934,SD004.jpg,0,10541,40-69,2023-05-02_12h18.00.647,Recall,2021.2.3,59.92653021216026,
,DD016.jpg,0,FF016.jpg,0,,,,,0,11,11,15,imgFunc,9,NA,4.340812399983406,425.8846283000894,430.3224824699573,2023-05-02 12:24:55.689891,2023-05-02 12:25:00.119175,DD016.jpg,0,10541,40-69,2023-05-02_12h18.00.647,Recall,2021.2.3,59.92653021216026,
,SD014.jpg,0,MF014.jpg,0,,,,,0,12,12,63,imgFunc,2,NA,3.48765160003677,430.32971120020375,433.90431107068434,2023-05-02 12:25:00.133137,2023-05-02 12:25:03.705486,SD014.jpg,0,10541,40-69,2023-05-02_12h18.00.647,Recall,2021.2.3,59.92653021216026,
,DD019.jpg,0,FF019.jpg,0,,,,,0,13,13,18,imgFunc,0,NA,1.7807100000791252,433.9007105999626,435.77029117010534,2023-05-02 12:25:03.712466,2023-05-02 12:25:05.572964,DD019.jpg,0,10541,40-69,2023-05-02_12h18.00.647,Recall,2021.2.3,59.92653021216026,
,SD013.jpg,0,MF013.jpg,0,,,,,0,14,14,62,imgFunc,0,NA,2.6118720998056233,435.76543760020286,438.4684766703285,2023-05-02 12:25:05.580944,2023-05-02 12:25:08.275075,SD013.jpg,0,10541,40-69,2023-05-02_12h18.00.647,Recall,2021.2.3,59.92653021216026,
,SD019.jpg,0,MF019.jpg,0,,,,,0,15,15,68,imgFunc,2,NA,2.5552241997793317,438.4701046999544,441.1235762704164,2023-05-02 12:25:08.283053,2023-05-02 12:25:10.927172,SD019.jpg,0,10541,40-69,2023-05-02_12h18.00.647,Recall,2021.2.3,59.92653021216026,
,DD027.jpg,0,FF027.jpg,0,,,,,0,16,16,26,imgFunc,1,NA,1.1732657998800278,441.12409130018204,442.392941870261,2023-05-02 12:25:10.935124,2023-05-02 12:25:12.194932,DD027.jpg,0,10541,40-69,2023-05-02_12h18.00.647,Recall,2021.2.3,59.92653021216026,
,L_DD507.jpg,1,L_FF507.jpg,1,,,,,0,17,17,46,imgFunc,0,NA,1.2832369999960065,442.39804780017585,443.7681769700721,2023-05-02 12:25:12.209923,2023-05-02 12:25:13.579265,L_DD507.jpg,1,10541,40-69,2023-05-02_12h18.00.647,Recall,2021.2.3,59.92653021216026,
,SD002.jpg,0,MF002.jpg,0,,,,,0,18,18,51,imgFunc,9,NA,1.4159957999363542,443.76931830029935,445.2722426704131,2023-05-02 12:25:13.586222,2023-05-02 12:25:15.079712,SD002.jpg,0,10541,40-69,2023-05-02_12h18.00.647,Recall,2021.2.3,59.92653021216026,
,L_SD507.jpg,1,L_MF507.jpg,1,,,,,0,19,19,96,imgFunc,0,NA,2.8821025998331606,445.2712272000499,448.24132597027346,2023-05-02 12:25:15.087666,2023-05-02 12:25:18.048795,L_SD507.jpg,1,10541,40-69,2023-05-02_12h18.00.647,Recall,2021.2.3,59.92653021216026,
,L_DD501.jpg,1,L_FF501.jpg,1,,,,,0,20,20,40,imgFunc,9,NA,2.4861703999340534,448.2431736001745,450.81186007056385,2023-05-02 12:25:18.056748,2023-05-02 12:25:20.617496,L_DD501.jpg,1,10541,40-69,2023-05-02_12h18.00.647,Recall,2021.2.3,59.92653021216026,
,DD030.jpg,0,FF030.jpg,0,,,,,0,21,21,29,imgFunc,0,NA,2.341035900171846,450.8122551999986,453.2489052703604,2023-05-02 12:25:20.624453,2023-05-02 12:25:23.052134,DD030.jpg,0,10541,40-69,2023-05-02_12h18.00.647,Recall,2021.2.3,59.92653021216026,
,SD021.jpg,0,MF021.jpg,0,,,,,0,22,22,70,imgFunc,1,NA,1.5366370999254286,453.2567512001842,454.8786607696675,2023-05-02 12:25:23.067088,2023-05-02 12:25:24.687452,SD021.jpg,0,10541,40-69,2023-05-02_12h18.00.647,Recall,2021.2.3,59.92653021216026,
,SD036.jpg,0,MF036.jpg,0,,,,,0,23,23,85,imgFunc,2,NA,2.447114400099963,454.88216930022463,457.418607770931,2023-05-02 12:25:24.694427,2023-05-02 12:25:27.222051,SD036.jpg,0,10541,40-69,2023-05-02_12h18.00.647,Recall,2021.2.3,59.92653021216026,
,DD031.jpg,0,FF031.jpg,0,,,,,0,24,24,30,imgFunc,0,NA,2.286278599873185,457.4190152999945,459.8058848702349,2023-05-02 12:25:27.229032,2023-05-02 12:25:29.607414,DD031.jpg,0,10541,40-69,2023-05-02_12h18.00.647,Recall,2021.2.3,59.92653021216026,
,L_DD510.jpg,1,L_FF510.jpg,1,,,,,0,25,25,49,imgFunc,9,NA,2.741261300165206,459.8039918001741,462.6410684706643,2023-05-02 12:25:29.614397,2023-05-02 12:25:32.442633,L_DD510.jpg,1,10541,40-69,2023-05-02_12h18.00.647,Recall,2021.2.3,59.92653021216026,
,SD035.jpg,0,MF035.jpg,0,,,,,0,26,26,84,imgFunc,9,NA,4.716265099588782,462.6449636002071,467.46671866998076,2023-05-02 12:25:32.449617,2023-05-02 12:25:37.262372,SD035.jpg,0,10541,40-69,2023-05-02_12h18.00.647,Recall,2021.2.3,59.92653021216026,
,SD018.jpg,0,MF018.jpg,0,,,,,0,27,27,67,imgFunc,9,NA,2.9413887998089194,467.4598763003014,470.4924352709204,2023-05-02 12:25:37.272342,2023-05-02 12:25:40.297766,SD018.jpg,0,10541,40-69,2023-05-02_12h18.00.647,Recall,2021.2.3,59.92653021216026,
,DD013.jpg,0,FF013.jpg,0,,,,,0,28,28,12,imgFunc,1,NA,3.029397000093013,470.491845600307,473.6114760702476,2023-05-02 12:25:40.305745,2023-05-02 12:25:43.416897,DD013.jpg,0,10541,40-69,2023-05-02_12h18.00.647,Recall,2021.2.3,59.92653021216026,
,SD028.jpg,0,MF028.jpg,0,,,,,0,29,29,77,imgFunc,9,NA,1.818375799804926,473.6148296999745,475.534576470498,2023-05-02 12:25:43.424876,2023-05-02 12:25:45.334649,SD028.jpg,0,10541,40-69,2023-05-02_12h18.00.647,Recall,2021.2.3,59.92653021216026,
,SD025.jpg,0,MF025.jpg,0,,,,,0,30,30,74,imgFunc,1,NA,1.2066501998342574,475.53060150006786,476.8330553704873,2023-05-02 12:25:45.342632,2023-05-02 12:25:46.636177,SD025.jpg,0,10541,40-69,2023-05-02_12h18.00.647,Recall,2021.2.3,59.92653021216026,
,SD039.jpg,0,MF039.jpg,0,,,,,0,31,31,88,imgFunc,0,NA,1.9401628002524376,476.845072099939,478.88618017034605,2023-05-02 12:25:46.649120,2023-05-02 12:25:48.687074,SD039.jpg,0,10541,40-69,2023-05-02_12h18.00.647,Recall,2021.2.3,59.92653021216026,
,SD038.jpg,0,MF038.jpg,0,,,,,0,32,32,87,imgFunc,1,NA,1.6193010001443326,478.87798450002447,480.5809955704026,2023-05-02 12:25:48.695058,2023-05-02 12:25:50.388777,SD038.jpg,0,10541,40-69,2023-05-02_12h18.00.647,Recall,2021.2.3,59.92653021216026,
,SD024.jpg,0,MF024.jpg,0,,,,,0,33,33,73,imgFunc,9,NA,2.2433680002577603,480.581896699965,482.9182387702167,2023-05-02 12:25:50.396737,2023-05-02 12:25:52.724001,SD024.jpg,0,10541,40-69,2023-05-02_12h18.00.647,Recall,2021.2.3,59.92653021216026,
,SD026.jpg,0,MF026.jpg,0,,,,,0,34,34,75,imgFunc,0,NA,2.5898410002700984,482.9233853998594,485.61046347022057,2023-05-02 12:25:52.730981,2023-05-02 12:25:55.409374,SD026.jpg,0,10541,40-69,2023-05-02_12h18.00.647,Recall,2021.2.3,59.92653021216026,
,L_DD505.jpg,1,L_FF505.jpg,1,,,,,0,35,35,44,imgFunc,9,NA,2.1056934003718197,485.6075095999986,487.81031546974555,2023-05-02 12:25:55.416346,2023-05-02 12:25:57.610938,L_DD505.jpg,1,10541,40-69,2023-05-02_12h18.00.647,Recall,2021.2.3,59.92653021216026,
,L_SD502.jpg,1,L_MF502.jpg,1,,,,,0,36,36,91,imgFunc,0,NA,1.410278500057757,487.8229600000195,489.3282108702697,2023-05-02 12:25:57.624926,2023-05-02 12:25:59.128111,L_SD502.jpg,1,10541,40-69,2023-05-02_12h18.00.647,Recall,2021.2.3,59.92653021216026,
,DD007.jpg,0,FF007.jpg,0,,,,,0,37,37,6,imgFunc,2,NA,1.780321499798447,489.32495500007644,491.1943282703869,2023-05-02 12:25:59.136065,2023-05-02 12:26:00.996129,DD007.jpg,0,10541,40-69,2023-05-02_12h18.00.647,Recall,2021.2.3,59.92653021216026,
,DD038.jpg,0,FF038.jpg,0,,,,,0,38,38,37,imgFunc,9,NA,2.413575700018555,491.1876377002336,493.69101877044886,2023-05-02 12:26:01.004111,2023-05-02 12:26:03.498238,DD038.jpg,0,10541,40-69,2023-05-02_12h18.00.647,Recall,2021.2.3,59.92653021216026,
,DD015.jpg,0,FF015.jpg,0,,,,,0,39,39,14,imgFunc,0,NA,2.132782000117004,493.69248339999467,495.9124238700606,2023-05-02 12:26:03.505194,2023-05-02 12:26:05.716845,DD015.jpg,0,10541,40-69,2023-05-02_12h18.00.647,Recall,2021.2.3,59.92653021216026,
,DD022.jpg,0,FF022.jpg,0,,,,,0,40,40,21,imgFunc,9,NA,4.8874618001282215,495.9137516999617,500.90210697008297,2023-05-02 12:26:05.723826,2023-05-02 12:26:10.703309,DD022.jpg,0,10541,40-69,2023-05-02_12h18.00.647,Recall,2021.2.3,59.92653021216026,
,DD034.jpg,0,FF034.jpg,0,,,,,0,41,41,33,imgFunc,1,NA,1.3328057997860014,500.9324344000779,502.3836486400105,2023-05-02 12:26:10.720239,2023-05-02 12:26:12.154414,DD034.jpg,0,10541,40-69,2023-05-02_12h18.00.647,Recall,2021.2.3,59.92653021216026,
,SD030.jpg,0,MF030.jpg,0,,,,,0,42,42,79,imgFunc,0,NA,1.1334637999534607,502.35574309993535,503.59159257030115,2023-05-02 12:26:12.161395,2023-05-02 12:26:13.388310,SD030.jpg,0,10541,40-69,2023-05-02_12h18.00.647,Recall,2021.2.3,59.92653021216026,
,SD003.jpg,0,MF003.jpg,0,,,,,0,43,43,52,imgFunc,9,NA,1.649340699892491,503.58393009984866,505.31986956996843,2023-05-02 12:26:13.396290,2023-05-02 12:26:15.122949,SD003.jpg,0,10541,40-69,2023-05-02_12h18.00.647,Recall,2021.2.3,59.92653021216026,
,SD029.jpg,0,MF029.jpg,0,,,,,0,44,44,78,imgFunc,0,NA,3.3945970004424453,505.3185976999812,508.8059171703644,2023-05-02 12:26:15.130927,2023-05-02 12:26:18.609160,SD029.jpg,0,10541,40-69,2023-05-02_12h18.00.647,Recall,2021.2.3,59.92653021216026,
,SD040.jpg,0,MF040.jpg,0,,,,,0,45,45,89,imgFunc,9,NA,3.1577205997891724,508.8194774999283,512.0893797697499,2023-05-02 12:26:18.616170,2023-05-02 12:26:21.877697,SD040.jpg,0,10541,40-69,2023-05-02_12h18.00.647,Recall,2021.2.3,59.92653021216026,
,DD001.jpg,0,FF001.jpg,0,,,,,0,46,46,0,imgFunc,0,NA,2.2578662000596523,512.0793595002033,514.4320210702717,2023-05-02 12:26:21.885686,2023-05-02 12:26:24.230041,DD001.jpg,0,10541,40-69,2023-05-02_12h18.00.647,Recall,2021.2.3,59.92653021216026,
,DD024.jpg,0,FF024.jpg,0,,,,,0,47,47,23,imgFunc,9,NA,2.4055638001300395,514.4276128001511,516.9305337709375,2023-05-02 12:26:24.237049,2023-05-02 12:26:26.731859,DD024.jpg,0,10541,40-69,2023-05-02_12h18.00.647,Recall,2021.2.3,59.92653021216026,
,DD012.jpg,0,FF012.jpg,0,,,,,0,48,48,11,imgFunc,0,NA,1.4255893998779356,516.9275921001099,518.4465588703752,2023-05-02 12:26:26.738840,2023-05-02 12:26:28.248666,DD012.jpg,0,10541,40-69,2023-05-02_12h18.00.647,Recall,2021.2.3,59.92653021216026,
,L_SD508.jpg,1,L_MF508.jpg,1,,,,,0,49,49,97,imgFunc,0,NA,1.7618701001629233,518.4473826000467,520.299871370662,2023-05-02 12:26:28.256645,2023-05-02 12:26:30.100630,L_SD508.jpg,1,10541,40-69,2023-05-02_12h18.00.647,Recall,2021.2.3,59.92653021216026,
,DD004.jpg,0,FF004.jpg,0,,,,,0,50,50,3,imgFunc,1,NA,1.592988799791783,520.3042068001814,521.9783109705895,2023-05-02 12:26:30.113597,2023-05-02 12:26:31.785539,DD004.jpg,0,10541,40-69,2023-05-02_12h18.00.647,Recall,2021.2.3,59.92653021216026,
,DD039.jpg,0,FF039.jpg,0,,,,,0,51,51,38,imgFunc,9,NA,1.712436500005424,521.9767263000831,523.7794565702789,2023-05-02 12:26:31.792520,2023-05-02 12:26:33.586447,DD039.jpg,0,10541,40-69,2023-05-02_12h18.00.647,Recall,2021.2.3,59.92653021216026,
,DD028.jpg,0,FF028.jpg,0,,,,,0,52,52,27,imgFunc,0,NA,2.376544199883938,523.7766467998736,526.2469822699204,2023-05-02 12:26:33.593427,2023-05-02 12:26:36.055178,DD028.jpg,0,10541,40-69,2023-05-02_12h18.00.647,Recall,2021.2.3,59.92653021216026,
,DD040.jpg,0,FF040.jpg,0,,,,,0,53,53,39,imgFunc,0,NA,2.001013900153339,526.2482382999733,528.3346569705755,2023-05-02 12:26:36.062173,2023-05-02 12:26:38.139469,DD040.jpg,0,10541,40-69,2023-05-02_12h18.00.647,Recall,2021.2.3,59.92653021216026,
,SD012.jpg,0,MF012.jpg,0,,,,,0,54,54,61,imgFunc,9,NA,3.2549077002331614,528.3382794000208,531.691880769562,2023-05-02 12:26:38.147451,2023-05-02 12:26:41.491413,SD012.jpg,0,10541,40-69,2023-05-02_12h18.00.647,Recall,2021.2.3,59.92653021216026,
,SD020.jpg,0,MF020.jpg,0,,,,,0,55,55,69,imgFunc,0,NA,1.353240200318396,531.7039290000685,533.1586467698216,2023-05-02 12:26:41.506370,2023-05-02 12:26:42.959520,SD020.jpg,0,10541,40-69,2023-05-02_12h18.00.647,Recall,2021.2.3,59.92653021216026,
,SD007.jpg,0,MF007.jpg,0,,,,,0,56,56,56,imgFunc,9,NA,3.21834330027923,533.1508109001443,536.4544180706143,2023-05-02 12:26:42.967473,2023-05-02 12:26:46.261957,SD007.jpg,0,10541,40-69,2023-05-02_12h18.00.647,Recall,2021.2.3,59.92653021216026,
,DD005.jpg,0,FF005.jpg,0,,,,,0,57,57,4,imgFunc,0,NA,1.325259099714458,536.4598419000395,537.8789430703036,2023-05-02 12:26:46.269934,2023-05-02 12:26:47.679566,DD005.jpg,0,10541,40-69,2023-05-02_12h18.00.647,Recall,2021.2.3,59.92653021216026,
,DD011.jpg,0,FF011.jpg,0,,,,,0,58,58,10,imgFunc,9,NA,4.961476299911737,537.879685100168,542.9343403703533,2023-05-02 12:26:47.687518,2023-05-02 12:26:52.733767,DD011.jpg,0,10541,40-69,2023-05-02_12h18.00.647,Recall,2021.2.3,59.92653021216026,
,L_SD510.jpg,1,L_MF510.jpg,1,,,,,0,59,59,99,imgFunc,0,NA,1.2875980003736913,542.9535161000676,544.3538304702379,2023-05-02 12:26:52.741744,2023-05-02 12:26:54.134595,L_SD510.jpg,1,10541,40-69,2023-05-02_12h18.00.647,Recall,2021.2.3,59.92653021216026,
,DD033.jpg,0,FF033.jpg,0,,,,,0,60,60,32,imgFunc,9,NA,1.8078923001885414,544.3452376001514,546.2505065700971,2023-05-02 12:26:54.149554,2023-05-02 12:26:56.052955,DD033.jpg,0,10541,40-69,2023-05-02_12h18.00.647,Recall,2021.2.3,59.92653021216026,
,SD023.jpg,0,MF023.jpg,0,,,,,0,61,61,72,imgFunc,1,NA,1.3065792000852525,546.2465484002605,547.6485836706124,2023-05-02 12:26:56.059931,2023-05-02 12:26:57.453401,SD023.jpg,0,10541,40-69,2023-05-02_12h18.00.647,Recall,2021.2.3,59.92653021216026,
,DD003.jpg,0,FF003.jpg,0,,,,,0,62,62,2,imgFunc,0,NA,1.2765869996510446,547.6527146999724,549.0212293700315,2023-05-02 12:26:57.461382,2023-05-02 12:26:58.821728,DD003.jpg,0,10541,40-69,2023-05-02_12h18.00.647,Recall,2021.2.3,59.92653021216026,
,SD027.jpg,0,MF027.jpg,0,,,,,0,63,63,76,imgFunc,0,NA,2.3429700997658074,549.0181673001498,551.4547951701097,2023-05-02 12:26:58.828736,2023-05-02 12:27:01.256381,SD027.jpg,0,10541,40-69,2023-05-02_12h18.00.647,Recall,2021.2.3,59.92653021216026,
,DD008.jpg,0,FF008.jpg,0,,,,,0,64,64,7,imgFunc,9,NA,4.202057899907231,551.4630811000243,555.7672400702722,2023-05-02 12:27:01.264336,2023-05-02 12:27:05.559326,DD008.jpg,0,10541,40-69,2023-05-02_12h18.00.647,Recall,2021.2.3,59.92653021216026,
,SD010.jpg,0,MF010.jpg,0,,,,,0,65,65,59,imgFunc,0,NA,2.0163950002752244,555.7527850000188,557.8552966699935,2023-05-02 12:27:05.567301,2023-05-02 12:27:07.660595,SD010.jpg,0,10541,40-69,2023-05-02_12h18.00.647,Recall,2021.2.3,59.92653021216026,
,L_SD501.jpg,1,L_MF501.jpg,1,,,,,0,66,66,90,imgFunc,0,NA,1.715072900056839,557.8540898002684,559.656491370406,2023-05-02 12:27:07.668575,2023-05-02 12:27:09.462082,L_SD501.jpg,1,10541,40-69,2023-05-02_12h18.00.647,Recall,2021.2.3,59.92653021216026,
,L_SD503.jpg,1,L_MF503.jpg,1,,,,,0,67,67,92,imgFunc,0,NA,1.2420704998075962,559.6550523000769,560.9905297704972,2023-05-02 12:27:09.470035,2023-05-02 12:27:10.796623,L_SD503.jpg,1,10541,40-69,2023-05-02_12h18.00.647,Recall,2021.2.3,59.92653021216026,
,DD036.jpg,0,FF036.jpg,0,,,,,0,68,68,35,imgFunc,9,NA,2.0779760000295937,560.9953796002083,563.164878570009,2023-05-02 12:27:10.803604,2023-05-02 12:27:12.964751,DD036.jpg,0,10541,40-69,2023-05-02_12h18.00.647,Recall,2021.2.3,59.92653021216026,
,DD037.jpg,0,FF037.jpg,0,,,,,0,69,69,36,imgFunc,0,NA,1.948452599812299,563.1727197999135,565.2142187696882,2023-05-02 12:27:12.977719,2023-05-02 12:27:15.016003,DD037.jpg,0,10541,40-69,2023-05-02_12h18.00.647,Recall,2021.2.3,59.92653021216026,
,L_DD509.jpg,1,L_FF509.jpg,1,,,,,0,70,70,48,imgFunc,0,NA,0.9784400998614728,565.2066794000566,566.2756334701553,2023-05-02 12:27:15.023955,2023-05-02 12:27:16.083131,L_DD509.jpg,1,10541,40-69,2023-05-02_12h18.00.647,Recall,2021.2.3,59.92653021216026,
,SD009.jpg,0,MF009.jpg,0,,,,,0,71,71,58,imgFunc,0,NA,2.099034999962896,566.278414899949,568.4655028707348,2023-05-02 12:27:16.091109,2023-05-02 12:27:18.268131,SD009.jpg,0,10541,40-69,2023-05-02_12h18.00.647,Recall,2021.2.3,59.92653021216026,
,SD001.jpg,0,MF001.jpg,0,,,,,0,72,72,50,imgFunc,9,NA,1.3868268998339772,568.4702717000619,569.9561640699394,2023-05-02 12:27:18.276110,2023-05-02 12:27:19.753186,SD001.jpg,0,10541,40-69,2023-05-02_12h18.00.647,Recall,2021.2.3,59.92653021216026,
,L_SD509.jpg,1,L_MF509.jpg,1,,,,,0,73,73,98,imgFunc,0,NA,1.15659169992432,569.9485210999846,571.2012449698523,2023-05-02 12:27:19.760151,2023-05-02 12:27:21.004003,L_SD509.jpg,1,10541,40-69,2023-05-02_12h18.00.647,Recall,2021.2.3,59.92653021216026,
,DD026.jpg,0,FF026.jpg,0,,,,,0,74,74,25,imgFunc,9,NA,0.9925859998911619,571.2085017003119,572.2962272702716,2023-05-02 12:27:21.017938,2023-05-02 12:27:22.104690,DD026.jpg,0,10541,40-69,2023-05-02_12h18.00.647,Recall,2021.2.3,59.92653021216026,
,L_SD505.jpg,1,L_MF505.jpg,1,,,,,0,75,75,94,imgFunc,9,NA,1.5101915998384356,572.2989558000118,573.9018079703674,2023-05-02 12:27:22.111699,2023-05-02 12:27:23.706197,L_SD505.jpg,1,10541,40-69,2023-05-02_12h18.00.647,Recall,2021.2.3,59.92653021216026,
,DD035.jpg,0,FF035.jpg,0,,,,,0,76,76,34,imgFunc,0,NA,2.2430745996534824,573.9019380998798,576.2385056703351,2023-05-02 12:27:23.713178,2023-05-02 12:27:26.041016,DD035.jpg,0,10541,40-69,2023-05-02_12h18.00.647,Recall,2021.2.3,59.92653021216026,
,DD029.jpg,0,FF029.jpg,0,,,,,0,77,77,28,imgFunc,0,NA,1.133355800062418,576.236051000189,577.4556327699684,2023-05-02 12:27:26.047997,2023-05-02 12:27:27.258071,DD029.jpg,0,10541,40-69,2023-05-02_12h18.00.647,Recall,2021.2.3,59.92653021216026,
,DD002.jpg,0,FF002.jpg,0,,,,,0,78,78,1,imgFunc,0,NA,0.8842541999183595,577.4608273999766,578.4460511701182,2023-05-02 12:27:27.266049,2023-05-02 12:27:28.242475,DD002.jpg,0,10541,40-69,2023-05-02_12h18.00.647,Recall,2021.2.3,59.92653021216026,
,DD023.jpg,0,FF023.jpg,0,,,,,0,79,79,22,imgFunc,0,NA,2.248816499952227,578.4482498001307,580.787373770494,2023-05-02 12:27:28.256408,2023-05-02 12:27:30.594334,DD023.jpg,0,10541,40-69,2023-05-02_12h18.00.647,Recall,2021.2.3,59.92653021216026,
,SD017.jpg,0,MF017.jpg,0,,,,,0,80,80,66,imgFunc,9,NA,2.7630964000709355,580.790067799855,583.6437894701958,2023-05-02 12:27:30.601343,2023-05-02 12:27:33.446337,SD017.jpg,0,10541,40-69,2023-05-02_12h18.00.647,Recall,2021.2.3,59.92653021216026,
,DD021.jpg,0,FF021.jpg,0,,,,,0,81,81,20,imgFunc,0,NA,1.9328451002947986,583.6442288001999,585.680658670608,2023-05-02 12:27:33.453317,2023-05-02 12:27:35.481054,DD021.jpg,0,10541,40-69,2023-05-02_12h18.00.647,Recall,2021.2.3,59.92653021216026,
,SD032.jpg,0,MF032.jpg,0,,,,,0,82,82,81,imgFunc,0,NA,1.3167285998351872,585.6764060999267,587.0789594701491,2023-05-02 12:27:35.488025,2023-05-02 12:27:36.881929,SD032.jpg,0,10541,40-69,2023-05-02_12h18.00.647,Recall,2021.2.3,59.92653021216026,
,SD033.jpg,0,MF033.jpg,0,,,,,0,83,83,82,imgFunc,0,NA,1.9067529002204537,587.0863482002169,589.0892757698894,2023-05-02 12:27:36.888910,2023-05-02 12:27:38.883358,SD033.jpg,0,10541,40-69,2023-05-02_12h18.00.647,Recall,2021.2.3,59.92653021216026,
,DD032.jpg,0,FF032.jpg,0,,,,,0,84,84,31,imgFunc,9,NA,2.27818589983508,589.0748812998645,591.4448009701446,2023-05-02 12:27:38.890316,2023-05-02 12:27:41.251805,DD032.jpg,0,10541,40-69,2023-05-02_12h18.00.647,Recall,2021.2.3,59.92653021216026,
,SD016.jpg,0,MF016.jpg,0,,,,,0,85,85,65,imgFunc,9,NA,2.1084838998503983,591.444558700081,593.6480996706523,2023-05-02 12:27:41.258786,2023-05-02 12:27:43.453035,SD016.jpg,0,10541,40-69,2023-05-02_12h18.00.647,Recall,2021.2.3,59.92653021216026,
,DD009.jpg,0,FF009.jpg,0,,,,,0,86,86,8,imgFunc,0,NA,0.7997481003403664,593.6494998000562,594.551382670179,2023-05-02 12:27:43.460989,2023-05-02 12:27:44.353234,DD009.jpg,0,10541,40-69,2023-05-02_12h18.00.647,Recall,2021.2.3,59.92653021216026,
,SD005.jpg,0,MF005.jpg,0,,,,,0,87,87,54,imgFunc,0,NA,1.1787175997160375,594.5503549999557,595.8196275699884,2023-05-02 12:27:44.361212,2023-05-02 12:27:45.621014,SD005.jpg,0,10541,40-69,2023-05-02_12h18.00.647,Recall,2021.2.3,59.92653021216026,
,L_DD508.jpg,1,L_FF508.jpg,1,,,,,0,88,88,47,imgFunc,9,NA,1.6591839999891818,595.8298166003078,597.5878723701462,2023-05-02 12:27:45.633982,2023-05-02 12:27:47.389317,L_DD508.jpg,1,10541,40-69,2023-05-02_12h18.00.647,Recall,2021.2.3,59.92653021216026,
,DD020.jpg,0,FF020.jpg,0,,,,,0,89,89,19,imgFunc,9,NA,1.0915657002478838,597.589525999967,598.7757123704068,2023-05-02 12:27:47.396282,2023-05-02 12:27:48.573178,DD020.jpg,0,10541,40-69,2023-05-02_12h18.00.647,Recall,2021.2.3,59.92653021216026,
,SD031.jpg,0,MF031.jpg,0,,,,,0,90,90,80,imgFunc,0,NA,1.4815665995702147,598.7675116001628,600.3368332702667,2023-05-02 12:27:48.581144,2023-05-02 12:27:50.141538,SD031.jpg,0,10541,40-69,2023-05-02_12h18.00.647,Recall,2021.2.3,59.92653021216026,
,SD022.jpg,0,MF022.jpg,0,,,,,0,91,91,71,imgFunc,9,NA,1.0201111999340355,600.3409405001439,601.4602592703886,2023-05-02 12:27:50.148520,2023-05-02 12:27:51.258632,SD022.jpg,0,10541,40-69,2023-05-02_12h18.00.647,Recall,2021.2.3,59.92653021216026,
,L_SD506.jpg,1,L_MF506.jpg,1,,,,,0,92,92,95,imgFunc,0,NA,0.6629616999998689,601.4661070001312,602.2346205702052,2023-05-02 12:27:51.266611,2023-05-02 12:27:52.026557,L_SD506.jpg,1,10541,40-69,2023-05-02_12h18.00.647,Recall,2021.2.3,59.92653021216026,
,DD014.jpg,0,FF014.jpg,0,,,,,0,93,93,13,imgFunc,9,NA,1.400986900087446,602.2400783998892,603.7449372699484,2023-05-02 12:27:52.040521,2023-05-02 12:27:53.543416,DD014.jpg,0,10541,40-69,2023-05-02_12h18.00.647,Recall,2021.2.3,59.92653021216026,
,DD010.jpg,0,FF010.jpg,0,,,,,0,94,94,9,imgFunc,9,NA,1.092321699950844,603.7407085001469,604.9256968703121,2023-05-02 12:27:53.551394,2023-05-02 12:27:54.727615,DD010.jpg,0,10541,40-69,2023-05-02_12h18.00.647,Recall,2021.2.3,59.92653021216026,
,L_DD503.jpg,1,L_FF503.jpg,1,,,,,0,95,95,42,imgFunc,9,NA,1.4615688002668321,604.9234346998855,606.4763118699193,2023-05-02 12:27:54.735596,2023-05-02 12:27:56.279506,L_DD503.jpg,1,10541,40-69,2023-05-02_12h18.00.647,Recall,2021.2.3,59.92653021216026,
,L_SD504.jpg,1,L_MF504.jpg,1,,,,,0,96,96,93,imgFunc,0,NA,1.388043100014329,606.4850170998834,607.9712503701448,2023-05-02 12:27:56.286515,2023-05-02 12:27:57.763573,L_SD504.jpg,1,10541,40-69,2023-05-02_12h18.00.647,Recall,2021.2.3,59.92653021216026,
,SD034.jpg,0,MF034.jpg,0,,,,,0,97,97,83,imgFunc,9,NA,1.2378660002723336,607.9631357002072,609.2991754701361,2023-05-02 12:27:57.770561,2023-05-02 12:27:59.097267,SD034.jpg,0,10541,40-69,2023-05-02_12h18.00.647,Recall,2021.2.3,59.92653021216026,
,L_DD506.jpg,1,L_FF506.jpg,1,,,,,0,98,98,45,imgFunc,9,NA,1.0756760998629034,609.3175376001745,610.4874670696445,2023-05-02 12:27:59.113179,2023-05-02 12:28:00.282249,L_DD506.jpg,1,10541,40-69,2023-05-02_12h18.00.647,Recall,2021.2.3,59.92653021216026,
,SD037.jpg,0,MF037.jpg,0,,,,,0,99,99,86,imgFunc,0,NA,0.8168043000623584,610.4801893001422,611.3988926704042,2023-05-02 12:28:00.289229,2023-05-02 12:28:01.198828,SD037.jpg,0,10541,40-69,2023-05-02_12h18.00.647,Recall,2021.2.3,59.92653021216026,
