onset	duration	trial_type	response_time	Endowment	Endowment_pmod	Decision	Decision_pmod	Offer_pmod
4.570897	2	cue_social	n/a	16	-7	n/a	n/a	n/a
4.570897	2	cue_social_low	n/a	16	-7	n/a	n/a	n/a
12.164191	2	cue_nonsocial	n/a	32	9	n/a	n/a	n/a
12.164191	2	cue_nonsocial_high	n/a	32	9	n/a	n/a	n/a
19.892876	2	cue_social	n/a	32	9	n/a	n/a	n/a
19.892876	2	cue_social_high	n/a	32	9	n/a	n/a	n/a
29.106266	2	cue_social	n/a	32	9	n/a	n/a	n/a
29.106266	2	cue_social_high	n/a	32	9	n/a	n/a	n/a
41.563713	2	cue_nonsocial	n/a	32	9	n/a	n/a	n/a
41.563713	2	cue_nonsocial_high	n/a	32	9	n/a	n/a	n/a
48.397835	2	cue_nonsocial	n/a	32	9	n/a	n/a	n/a
48.397835	2	cue_nonsocial_high	n/a	32	9	n/a	n/a	n/a
57.744556	2	cue_social	n/a	16	-7	n/a	n/a	n/a
57.744556	2	cue_social_low	n/a	16	-7	n/a	n/a	n/a
64.497550	2	cue_nonsocial	n/a	16	-7	n/a	n/a	n/a
64.497550	2	cue_nonsocial_low	n/a	16	-7	n/a	n/a	n/a
71.397934	2	cue_social	n/a	32	9	n/a	n/a	n/a
71.397934	2	cue_social_high	n/a	32	9	n/a	n/a	n/a
82.261030	2	cue_social	n/a	16	-7	n/a	n/a	n/a
82.261030	2	cue_social_low	n/a	16	-7	n/a	n/a	n/a
89.030910	2	cue_nonsocial	n/a	16	-7	n/a	n/a	n/a
89.030910	2	cue_nonsocial_low	n/a	16	-7	n/a	n/a	n/a
95.864120	2	cue_nonsocial	n/a	16	-7	n/a	n/a	n/a
95.864120	2	cue_nonsocial_low	n/a	16	-7	n/a	n/a	n/a
103.564090	2	cue_social	n/a	16	-7	n/a	n/a	n/a
103.564090	2	cue_social_low	n/a	16	-7	n/a	n/a	n/a
114.484470	2	cue_social	n/a	32	9	n/a	n/a	n/a
114.484470	2	cue_social_high	n/a	32	9	n/a	n/a	n/a
122.014660	2	cue_nonsocial	n/a	32	9	n/a	n/a	n/a
122.014660	2	cue_nonsocial_high	n/a	32	9	n/a	n/a	n/a
128.894300	2	cue_social	n/a	32	9	n/a	n/a	n/a
128.894300	2	cue_social_high	n/a	32	9	n/a	n/a	n/a
136.559200	2	cue_social	n/a	32	9	n/a	n/a	n/a
136.559200	2	cue_social_high	n/a	32	9	n/a	n/a	n/a
143.391860	2	cue_social	n/a	16	-7	n/a	n/a	n/a
143.391860	2	cue_social_low	n/a	16	-7	n/a	n/a	n/a
152.597090	2	cue_nonsocial	n/a	32	9	n/a	n/a	n/a
152.597090	2	cue_nonsocial_high	n/a	32	9	n/a	n/a	n/a
159.486560	2	cue_social	n/a	16	-7	n/a	n/a	n/a
159.486560	2	cue_social_low	n/a	16	-7	n/a	n/a	n/a
166.321800	2	cue_social	n/a	16	-7	n/a	n/a	n/a
166.321800	2	cue_social_low	n/a	16	-7	n/a	n/a	n/a
173.097640	2	cue_nonsocial	n/a	16	-7	n/a	n/a	n/a
173.097640	2	cue_nonsocial_low	n/a	16	-7	n/a	n/a	n/a
179.987500	2	cue_social	n/a	16	-7	n/a	n/a	n/a
179.987500	2	cue_social_low	n/a	16	-7	n/a	n/a	n/a
187.634060	2	cue_social	n/a	16	-7	n/a	n/a	n/a
187.634060	2	cue_social_low	n/a	16	-7	n/a	n/a	n/a
194.413990	2	cue_nonsocial	n/a	16	-7	n/a	n/a	n/a
194.413990	2	cue_nonsocial_low	n/a	16	-7	n/a	n/a	n/a
203.664140	2	cue_nonsocial	n/a	32	9	n/a	n/a	n/a
203.664140	2	cue_nonsocial_high	n/a	32	9	n/a	n/a	n/a
210.551420	2	cue_social	n/a	16	-7	n/a	n/a	n/a
210.551420	2	cue_social_low	n/a	16	-7	n/a	n/a	n/a
217.330610	2	cue_nonsocial	n/a	16	-7	n/a	n/a	n/a
217.330610	2	cue_nonsocial_low	n/a	16	-7	n/a	n/a	n/a
225.022640	2	cue_social	n/a	16	-7	n/a	n/a	n/a
225.022640	2	cue_social_low	n/a	16	-7	n/a	n/a	n/a
231.874400	2	cue_social	n/a	32	9	n/a	n/a	n/a
231.874400	2	cue_social_high	n/a	32	9	n/a	n/a	n/a
241.080750	2	cue_nonsocial	n/a	32	9	n/a	n/a	n/a
241.080750	2	cue_nonsocial_high	n/a	32	9	n/a	n/a	n/a
247.967360	2	cue_social	n/a	32	9	n/a	n/a	n/a
247.967360	2	cue_social_high	n/a	32	9	n/a	n/a	n/a
255.564100	2	cue_nonsocial	n/a	16	-7	n/a	n/a	n/a
255.564100	2	cue_nonsocial_low	n/a	16	-7	n/a	n/a	n/a
263.252500	2	cue_social	n/a	32	9	n/a	n/a	n/a
263.252500	2	cue_social_high	n/a	32	9	n/a	n/a	n/a
270.879240	2	cue_social	n/a	16	-7	n/a	n/a	n/a
270.879240	2	cue_social_low	n/a	16	-7	n/a	n/a	n/a
278.513760	2	cue_nonsocial	n/a	16	-7	n/a	n/a	n/a
278.513760	2	cue_nonsocial_low	n/a	16	-7	n/a	n/a	n/a
287.780600	2	cue_nonsocial	n/a	16	-7	n/a	n/a	n/a
287.780600	2	cue_nonsocial_low	n/a	16	-7	n/a	n/a	n/a
295.430450	2	cue_nonsocial	n/a	32	9	n/a	n/a	n/a
295.430450	2	cue_nonsocial_high	n/a	32	9	n/a	n/a	n/a
306.297180	2	cue_nonsocial	n/a	16	-7	n/a	n/a	n/a
306.297180	2	cue_nonsocial_low	n/a	16	-7	n/a	n/a	n/a
313.206850	2	cue_social	n/a	32	9	n/a	n/a	n/a
313.206850	2	cue_social_high	n/a	32	9	n/a	n/a	n/a
319.963470	2	cue_nonsocial	n/a	32	9	n/a	n/a	n/a
319.963470	2	cue_nonsocial_high	n/a	32	9	n/a	n/a	n/a
329.261470	2	cue_social	n/a	16	-7	n/a	n/a	n/a
329.261470	2	cue_social_low	n/a	16	-7	n/a	n/a	n/a
336.047240	2	cue_nonsocial	n/a	16	-7	n/a	n/a	n/a
336.047240	2	cue_nonsocial_low	n/a	16	-7	n/a	n/a	n/a
342.879850	2	cue_nonsocial	n/a	32	9	n/a	n/a	n/a
342.879850	2	cue_nonsocial_high	n/a	32	9	n/a	n/a	n/a
349.714080	2	cue_nonsocial	n/a	16	-7	n/a	n/a	n/a
349.714080	2	cue_nonsocial_low	n/a	16	-7	n/a	n/a	n/a
356.546900	2	cue_nonsocial	n/a	16	-7	n/a	n/a	n/a
356.546900	2	cue_nonsocial_low	n/a	16	-7	n/a	n/a	n/a
363.437130	2	cue_social	n/a	32	9	n/a	n/a	n/a
363.437130	2	cue_social_high	n/a	32	9	n/a	n/a	n/a
371.030670	2	cue_nonsocial	n/a	16	-7	n/a	n/a	n/a
371.030670	2	cue_nonsocial_low	n/a	16	-7	n/a	n/a	n/a
6.520679	0.900259	dec_social_choice	0.900259	16.000000	n/a	0	0	-2.317708e-01
6.520679	0.900259	dec_choice	0.900259	16.000000	n/a	0	0	-2.317708e-01
6.520679	0.900259	dec_social_reject	0.900259	16.000000	n/a	0	0	4.326923e-02
6.520679	0.900259	dec_reject	0.900259	16.000000	n/a	0	0	3.645833e-02
6.520679	0.900259	dec_social_low	0.900259	16.000000	n/a	0	-2.317708e-01	-2.317708e-01
6.520679	0.900259	dec_social_reject_low	0.900259	16.000000	n/a	2	-1.067708e-01	-2.317708e-01
14.171050	0.566279	dec_nonsocial_choice	0.566279	32.000000	n/a	2	-1.692708e-01	-1.692708e-01
14.171050	0.566279	dec_choice	0.566279	32.000000	n/a	2	-1.692708e-01	-1.692708e-01
14.171050	0.566279	dec_nonsocial_accept	0.566279	32.000000	n/a	2	-2.170139e-01	-2.170139e-01
14.171050	0.566279	dec_accept	0.566279	32.000000	n/a	2	-1.692708e-01	-1.692708e-01
14.171050	0.566279	dec_nonsocial_accept_low	0.566279	32.000000	n/a	2	-3.125000e-01	-3.125000e-01
21.820160	0.750815	dec_social_choice	0.750815	32.000000	n/a	16	2.682292e-01	2.682292e-01
21.820160	0.750815	dec_choice	0.750815	32.000000	n/a	16	2.682292e-01	2.682292e-01
21.820160	0.750815	dec_social_accept	0.750815	32.000000	n/a	16	2.204861e-01	2.204861e-01
21.820160	0.750815	dec_accept	0.750815	32.000000	n/a	16	1.250000e-01	1.250000e-01
21.820160	0.750815	dec_social_accept_high	0.750815	32.000000	n/a	16	2.682292e-01	2.682292e-01
31.086658	0.801111	dec_social_choice	0.801111	32.000000	n/a	0	0	-2.317708e-01
31.086658	0.801111	dec_choice	0.801111	32.000000	n/a	0	0	-2.317708e-01
31.086658	0.801111	dec_social_reject	0.801111	32.000000	n/a	0	0	-1.923077e-02
31.086658	0.801111	dec_reject	0.801111	32.000000	n/a	0	0	-2.604167e-02
31.086658	0.801111	dec_social_reject_low	0.801111	32.000000	n/a	2	-1.692708e-01	-2.317708e-01
43.571693	0.649169	dec_nonsocial_choice	0.649169	32.000000	n/a	16	2.682292e-01	2.682292e-01
43.571693	0.649169	dec_choice	0.649169	32.000000	n/a	16	2.682292e-01	2.682292e-01
43.571693	0.649169	dec_nonsocial_accept	0.649169	32.000000	n/a	16	2.204861e-01	2.204861e-01
43.571693	0.649169	dec_accept	0.649169	32.000000	n/a	16	2.682292e-01	2.682292e-01
43.571693	0.649169	dec_nonsocial_accept_high	0.649169	32.000000	n/a	16	1.250000e-01	1.250000e-01
50.405056	0.682670	dec_nonsocial_choice	0.682670	32.000000	n/a	16	2.682292e-01	2.682292e-01
50.405056	0.682670	dec_choice	0.682670	32.000000	n/a	16	2.682292e-01	2.682292e-01
50.405056	0.682670	dec_nonsocial_accept	0.682670	32.000000	n/a	16	2.204861e-01	2.204861e-01
50.405056	0.682670	dec_accept	0.682670	32.000000	n/a	16	2.682292e-01	2.682292e-01
50.405056	0.682670	dec_nonsocial_accept_high	0.682670	32.000000	n/a	16	1.250000e-01	1.250000e-01
59.670130	0.683668	dec_social_choice	0.683668	16.000000	n/a	8	2.682292e-01	2.682292e-01
59.670130	0.683668	dec_choice	0.683668	16.000000	n/a	8	2.682292e-01	2.682292e-01
59.670130	0.683668	dec_social_accept	0.683668	16.000000	n/a	8	2.204861e-01	2.204861e-01
59.670130	0.683668	dec_accept	0.683668	16.000000	n/a	8	1.250000e-01	1.250000e-01
59.670130	0.683668	dec_social_accept_high	0.683668	16.000000	n/a	8	2.682292e-01	2.682292e-01
66.504210	0.983528	dec_nonsocial_choice	0.983528	16.000000	n/a	1	-1.692708e-01	-1.692708e-01
66.504210	0.983528	dec_choice	0.983528	16.000000	n/a	1	-1.692708e-01	-1.692708e-01
66.504210	0.983528	dec_nonsocial_accept	0.983528	16.000000	n/a	1	-2.170139e-01	-2.170139e-01
66.504210	0.983528	dec_accept	0.983528	16.000000	n/a	1	-1.692708e-01	-1.692708e-01
66.504210	0.983528	dec_nonsocial_accept_low	0.983528	16.000000	n/a	1	-3.125000e-01	-3.125000e-01
73.337105	0.933432	dec_social_choice	0.933432	32.000000	n/a	0	0	-2.317708e-01
73.337105	0.933432	dec_choice	0.933432	32.000000	n/a	0	0	-2.317708e-01
73.337105	0.933432	dec_social_reject	0.933432	32.000000	n/a	0	0	-1.923077e-02
73.337105	0.933432	dec_reject	0.933432	32.000000	n/a	0	0	-2.604167e-02
73.337105	0.933432	dec_social_low	0.933432	32.000000	n/a	0	-2.317708e-01	-2.317708e-01
73.337105	0.933432	dec_social_reject_low	0.933432	32.000000	n/a	2	-1.692708e-01	-2.317708e-01
84.204110	1.233516	dec_social_choice	1.233516	16.000000	n/a	0	0	-2.317708e-01
84.204110	1.233516	dec_choice	1.233516	16.000000	n/a	0	0	-2.317708e-01
84.204110	1.233516	dec_social_reject	1.233516	16.000000	n/a	0	0	-1.923077e-02
84.204110	1.233516	dec_reject	1.233516	16.000000	n/a	0	0	-2.604167e-02
84.204110	1.233516	dec_social_low	1.233516	16.000000	n/a	0	-2.317708e-01	-2.317708e-01
84.204110	1.233516	dec_social_reject_low	1.233516	16.000000	n/a	1	-1.692708e-01	-2.317708e-01
91.038110	1.099520	dec_nonsocial_choice	1.099520	16.000000	n/a	4	1.822917e-02	1.822917e-02
91.038110	1.099520	dec_choice	1.099520	16.000000	n/a	4	1.822917e-02	1.822917e-02
91.038110	1.099520	dec_nonsocial_accept	1.099520	16.000000	n/a	4	-2.951389e-02	-2.951389e-02
91.038110	1.099520	dec_accept	1.099520	16.000000	n/a	4	1.822917e-02	1.822917e-02
91.038110	1.099520	dec_nonsocial_accept_high	1.099520	16.000000	n/a	4	-1.250000e-01	-1.250000e-01
97.871090	0.949961	dec_nonsocial_choice	0.949961	16.000000	n/a	8	2.682292e-01	2.682292e-01
97.871090	0.949961	dec_choice	0.949961	16.000000	n/a	8	2.682292e-01	2.682292e-01
97.871090	0.949961	dec_nonsocial_accept	0.949961	16.000000	n/a	8	2.204861e-01	2.204861e-01
97.871090	0.949961	dec_accept	0.949961	16.000000	n/a	8	2.682292e-01	2.682292e-01
97.871090	0.949961	dec_nonsocial_accept_high	0.949961	16.000000	n/a	8	1.250000e-01	1.250000e-01
105.521230	0.916069	dec_social_choice	0.916069	16.000000	n/a	0	0	-2.317708e-01
105.521230	0.916069	dec_choice	0.916069	16.000000	n/a	0	0	-2.317708e-01
105.521230	0.916069	dec_social_reject	0.916069	16.000000	n/a	0	0	-1.923077e-02
105.521230	0.916069	dec_reject	0.916069	16.000000	n/a	0	0	-2.604167e-02
105.521230	0.916069	dec_social_low	0.916069	16.000000	n/a	0	-2.317708e-01	-2.317708e-01
105.521230	0.916069	dec_social_reject_low	0.916069	16.000000	n/a	1	-1.692708e-01	-2.317708e-01
116.386314	1.151421	dec_social_choice	1.151421	32.000000	n/a	16	2.682292e-01	2.682292e-01
116.386314	1.151421	dec_choice	1.151421	32.000000	n/a	16	2.682292e-01	2.682292e-01
116.386314	1.151421	dec_social_accept	1.151421	32.000000	n/a	16	2.204861e-01	2.204861e-01
116.386314	1.151421	dec_accept	1.151421	32.000000	n/a	16	1.250000e-01	1.250000e-01
116.386314	1.151421	dec_social_high	1.151421	32.000000	n/a	16	2.682292e-01	2.682292e-01
116.386314	1.151421	dec_social_accept_high	1.151421	32.000000	n/a	16	2.682292e-01	2.682292e-01
124.020280	0.866762	dec_nonsocial_choice	0.866762	32.000000	n/a	2	-1.692708e-01	-1.692708e-01
124.020280	0.866762	dec_choice	0.866762	32.000000	n/a	2	-1.692708e-01	-1.692708e-01
124.020280	0.866762	dec_nonsocial_accept	0.866762	32.000000	n/a	2	-2.170139e-01	-2.170139e-01
124.020280	0.866762	dec_accept	0.866762	32.000000	n/a	2	-1.692708e-01	-1.692708e-01
124.020280	0.866762	dec_nonsocial_low	0.866762	32.000000	n/a	2	-1.692708e-01	-1.692708e-01
124.020280	0.866762	dec_nonsocial_accept_low	0.866762	32.000000	n/a	2	-1.692708e-01	-1.692708e-01
130.854160	1.183537	dec_social_choice	1.183537	32.000000	n/a	8	1.822917e-02	1.822917e-02
130.854160	1.183537	dec_choice	1.183537	32.000000	n/a	8	1.822917e-02	1.822917e-02
130.854160	1.183537	dec_social_accept	1.183537	32.000000	n/a	8	-2.951389e-02	-2.951389e-02
130.854160	1.183537	dec_accept	1.183537	32.000000	n/a	8	-1.250000e-01	-1.250000e-01
130.854160	1.183537	dec_social_high	1.183537	32.000000	n/a	8	1.822917e-02	1.822917e-02
130.854160	1.183537	dec_social_accept_high	1.183537	32.000000	n/a	8	1.822917e-02	1.822917e-02
138.504030	1.265861	dec_social_choice	1.265861	32.000000	n/a	8	1.822917e-02	1.822917e-02
138.504030	1.265861	dec_choice	1.265861	32.000000	n/a	8	1.822917e-02	1.822917e-02
138.504030	1.265861	dec_social_accept	1.265861	32.000000	n/a	8	-2.951389e-02	-2.951389e-02
138.504030	1.265861	dec_accept	1.265861	32.000000	n/a	8	-1.250000e-01	-1.250000e-01
138.504030	1.265861	dec_social_accept_high	1.265861	32.000000	n/a	8	1.822917e-02	1.822917e-02
145.338150	1.065471	dec_social_choice	1.065471	16.000000	n/a	4	1.822917e-02	1.822917e-02
145.338150	1.065471	dec_choice	1.065471	16.000000	n/a	4	1.822917e-02	1.822917e-02
145.338150	1.065471	dec_social_accept	1.065471	16.000000	n/a	4	-2.951389e-02	-2.951389e-02
145.338150	1.065471	dec_accept	1.065471	16.000000	n/a	4	-1.250000e-01	-1.250000e-01
145.338150	1.065471	dec_social_high	1.065471	16.000000	n/a	4	1.822917e-02	1.822917e-02
145.338150	1.065471	dec_social_accept_high	1.065471	16.000000	n/a	4	1.822917e-02	1.822917e-02
154.604160	1.550117	dec_nonsocial_choice	1.550117	32.000000	n/a	2	-1.692708e-01	-1.692708e-01
154.604160	1.550117	dec_choice	1.550117	32.000000	n/a	2	-1.692708e-01	-1.692708e-01
154.604160	1.550117	dec_nonsocial_accept	1.550117	32.000000	n/a	2	-2.170139e-01	-2.170139e-01
154.604160	1.550117	dec_accept	1.550117	32.000000	n/a	2	-1.692708e-01	-1.692708e-01
154.604160	1.550117	dec_nonsocial_accept_low	1.550117	32.000000	n/a	2	-3.125000e-01	-3.125000e-01
161.438250	0.848910	dec_social_choice	0.848910	16.000000	n/a	8	2.682292e-01	2.682292e-01
161.438250	0.848910	dec_choice	0.848910	16.000000	n/a	8	2.682292e-01	2.682292e-01
161.438250	0.848910	dec_social_accept	0.848910	16.000000	n/a	8	2.204861e-01	2.204861e-01
161.438250	0.848910	dec_accept	0.848910	16.000000	n/a	8	1.250000e-01	1.250000e-01
161.438250	0.848910	dec_social_accept_high	0.848910	16.000000	n/a	8	2.682292e-01	2.682292e-01
168.271010	0.865873	dec_social_choice	0.865873	16.000000	n/a	8	2.682292e-01	2.682292e-01
168.271010	0.865873	dec_choice	0.865873	16.000000	n/a	8	2.682292e-01	2.682292e-01
168.271010	0.865873	dec_social_accept	0.865873	16.000000	n/a	8	2.204861e-01	2.204861e-01
168.271010	0.865873	dec_accept	0.865873	16.000000	n/a	8	1.250000e-01	1.250000e-01
168.271010	0.865873	dec_social_accept_high	0.865873	16.000000	n/a	8	2.682292e-01	2.682292e-01
175.105160	1.064899	dec_nonsocial_choice	1.064899	16.000000	n/a	2	-1.067708e-01	-1.067708e-01
175.105160	1.064899	dec_choice	1.064899	16.000000	n/a	2	-1.067708e-01	-1.067708e-01
175.105160	1.064899	dec_nonsocial_accept	1.064899	16.000000	n/a	2	-1.545139e-01	-1.545139e-01
175.105160	1.064899	dec_accept	1.064899	16.000000	n/a	2	-1.067708e-01	-1.067708e-01
175.105160	1.064899	dec_nonsocial_accept_low	1.064899	16.000000	n/a	2	-2.500000e-01	-2.500000e-01
181.936800	1.016890	dec_social_choice	1.016890	16.000000	n/a	4	1.822917e-02	1.822917e-02
181.936800	1.016890	dec_choice	1.016890	16.000000	n/a	4	1.822917e-02	1.822917e-02
181.936800	1.016890	dec_social_accept	1.016890	16.000000	n/a	4	-2.951389e-02	-2.951389e-02
181.936800	1.016890	dec_accept	1.016890	16.000000	n/a	4	-1.250000e-01	-1.250000e-01
181.936800	1.016890	dec_social_high	1.016890	16.000000	n/a	4	1.822917e-02	1.822917e-02
181.936800	1.016890	dec_social_accept_high	1.016890	16.000000	n/a	4	1.822917e-02	1.822917e-02
189.587220	1.533476	dec_social_choice	1.533476	16.000000	n/a	0	0	-2.317708e-01
189.587220	1.533476	dec_choice	1.533476	16.000000	n/a	0	0	-2.317708e-01
189.587220	1.533476	dec_social_reject	1.533476	16.000000	n/a	0	0	4.326923e-02
189.587220	1.533476	dec_reject	1.533476	16.000000	n/a	0	0	3.645833e-02
189.587220	1.533476	dec_social_reject_low	1.533476	16.000000	n/a	2	-1.067708e-01	-2.317708e-01
196.420760	0.950105	dec_nonsocial_choice	0.950105	16.000000	n/a	2	-1.067708e-01	-1.067708e-01
196.420760	0.950105	dec_choice	0.950105	16.000000	n/a	2	-1.067708e-01	-1.067708e-01
196.420760	0.950105	dec_nonsocial_accept	0.950105	16.000000	n/a	2	-1.545139e-01	-1.545139e-01
196.420760	0.950105	dec_accept	0.950105	16.000000	n/a	2	-1.067708e-01	-1.067708e-01
196.420760	0.950105	dec_nonsocial_low	0.950105	16.000000	n/a	2	-1.067708e-01	-1.067708e-01
196.420760	0.950105	dec_nonsocial_accept_low	0.950105	16.000000	n/a	2	-1.067708e-01	-1.067708e-01
205.671190	1.182966	dec_nonsocial_choice	1.182966	32.000000	n/a	3	-1.380208e-01	-1.380208e-01
205.671190	1.182966	dec_choice	1.182966	32.000000	n/a	3	-1.380208e-01	-1.380208e-01
205.671190	1.182966	dec_nonsocial_accept	1.182966	32.000000	n/a	3	-1.857639e-01	-1.857639e-01
205.671190	1.182966	dec_accept	1.182966	32.000000	n/a	3	-1.380208e-01	-1.380208e-01
205.671190	1.182966	dec_nonsocial_low	1.182966	32.000000	n/a	3	-1.380208e-01	-1.380208e-01
205.671190	1.182966	dec_nonsocial_accept_low	1.182966	32.000000	n/a	3	-1.380208e-01	-1.380208e-01
212.504410	1.316045	dec_social_choice	1.316045	16.000000	n/a	0	0	-2.317708e-01
212.504410	1.316045	dec_choice	1.316045	16.000000	n/a	0	0	-2.317708e-01
212.504410	1.316045	dec_social_reject	1.316045	16.000000	n/a	0	0	4.326923e-02
212.504410	1.316045	dec_reject	1.316045	16.000000	n/a	0	0	3.645833e-02
212.504410	1.316045	dec_social_reject_low	1.316045	16.000000	n/a	2	-1.067708e-01	-2.317708e-01
219.337220	0.983451	dec_nonsocial_choice	0.983451	16.000000	n/a	4	1.822917e-02	1.822917e-02
219.337220	0.983451	dec_choice	0.983451	16.000000	n/a	4	1.822917e-02	1.822917e-02
219.337220	0.983451	dec_nonsocial_accept	0.983451	16.000000	n/a	4	-2.951389e-02	-2.951389e-02
219.337220	0.983451	dec_accept	0.983451	16.000000	n/a	4	1.822917e-02	1.822917e-02
219.337220	0.983451	dec_nonsocial_high	0.983451	16.000000	n/a	4	1.822917e-02	1.822917e-02
219.337220	0.983451	dec_nonsocial_accept_high	0.983451	16.000000	n/a	4	1.822917e-02	1.822917e-02
226.988220	1.265503	dec_social_choice	1.265503	16.000000	n/a	4	1.822917e-02	1.822917e-02
226.988220	1.265503	dec_choice	1.265503	16.000000	n/a	4	1.822917e-02	1.822917e-02
226.988220	1.265503	dec_social_accept	1.265503	16.000000	n/a	4	-2.951389e-02	-2.951389e-02
226.988220	1.265503	dec_accept	1.265503	16.000000	n/a	4	-1.250000e-01	-1.250000e-01
226.988220	1.265503	dec_social_high	1.265503	16.000000	n/a	4	1.822917e-02	1.822917e-02
226.988220	1.265503	dec_social_accept_high	1.265503	16.000000	n/a	4	1.822917e-02	1.822917e-02
233.821210	1.415382	dec_social_choice	1.415382	32.000000	n/a	0	0	-2.317708e-01
233.821210	1.415382	dec_choice	1.415382	32.000000	n/a	0	0	-2.317708e-01
233.821210	1.415382	dec_social_reject	1.415382	32.000000	n/a	0	0	-1.923077e-02
233.821210	1.415382	dec_reject	1.415382	32.000000	n/a	0	0	-2.604167e-02
233.821210	1.415382	dec_social_low	1.415382	32.000000	n/a	0	-2.317708e-01	-2.317708e-01
233.821210	1.415382	dec_social_reject_low	1.415382	32.000000	n/a	2	-1.692708e-01	-2.317708e-01
243.087250	1.083529	dec_nonsocial_choice	1.083529	32.000000	n/a	8	1.822917e-02	1.822917e-02
243.087250	1.083529	dec_choice	1.083529	32.000000	n/a	8	1.822917e-02	1.822917e-02
243.087250	1.083529	dec_nonsocial_accept	1.083529	32.000000	n/a	8	-2.951389e-02	-2.951389e-02
243.087250	1.083529	dec_accept	1.083529	32.000000	n/a	8	1.822917e-02	1.822917e-02
243.087250	1.083529	dec_nonsocial_accept_high	1.083529	32.000000	n/a	8	-1.250000e-01	-1.250000e-01
249.921260	1.115487	dec_social_choice	1.115487	32.000000	n/a	0	0	-2.317708e-01
249.921260	1.115487	dec_choice	1.115487	32.000000	n/a	0	0	-2.317708e-01
249.921260	1.115487	dec_social_reject	1.115487	32.000000	n/a	0	0	-1.923077e-02
249.921260	1.115487	dec_reject	1.115487	32.000000	n/a	0	0	-2.604167e-02
249.921260	1.115487	dec_social_low	1.115487	32.000000	n/a	0	-2.317708e-01	-2.317708e-01
249.921260	1.115487	dec_social_reject_low	1.115487	32.000000	n/a	2	-1.692708e-01	-2.317708e-01
257.570470	1.416513	dec_nonsocial_choice	1.416513	16.000000	n/a	2	-1.067708e-01	-1.067708e-01
257.570470	1.416513	dec_choice	1.416513	16.000000	n/a	2	-1.067708e-01	-1.067708e-01
257.570470	1.416513	dec_nonsocial_accept	1.416513	16.000000	n/a	2	-1.545139e-01	-1.545139e-01
257.570470	1.416513	dec_accept	1.416513	16.000000	n/a	2	-1.067708e-01	-1.067708e-01
257.570470	1.416513	dec_nonsocial_low	1.416513	16.000000	n/a	2	-1.067708e-01	-1.067708e-01
257.570470	1.416513	dec_nonsocial_accept_low	1.416513	16.000000	n/a	2	-1.067708e-01	-1.067708e-01
265.220180	1.583918	dec_social_choice	1.583918	32.000000	n/a	0	0	-2.317708e-01
265.220180	1.583918	dec_choice	1.583918	32.000000	n/a	0	0	-2.317708e-01
265.220180	1.583918	dec_social_reject	1.583918	32.000000	n/a	0	0	1.201923e-02
265.220180	1.583918	dec_reject	1.583918	32.000000	n/a	0	0	5.208333e-03
265.220180	1.583918	dec_social_reject_low	1.583918	32.000000	n/a	3	-1.380208e-01	-2.317708e-01
272.871280	1.082660	dec_social_choice	1.082660	16.000000	n/a	0	0	-2.317708e-01
272.871280	1.082660	dec_choice	1.082660	16.000000	n/a	0	0	-2.317708e-01
272.871280	1.082660	dec_social_reject	1.082660	16.000000	n/a	0	0	4.326923e-02
272.871280	1.082660	dec_reject	1.082660	16.000000	n/a	0	0	3.645833e-02
272.871280	1.082660	dec_social_reject_low	1.082660	16.000000	n/a	2	-1.067708e-01	-2.317708e-01
280.520230	1.166764	dec_nonsocial_choice	1.166764	16.000000	n/a	1	-1.692708e-01	-1.692708e-01
280.520230	1.166764	dec_choice	1.166764	16.000000	n/a	1	-1.692708e-01	-1.692708e-01
280.520230	1.166764	dec_nonsocial_accept	1.166764	16.000000	n/a	1	-2.170139e-01	-2.170139e-01
280.520230	1.166764	dec_accept	1.166764	16.000000	n/a	1	-1.692708e-01	-1.692708e-01
280.520230	1.166764	dec_nonsocial_low	1.166764	16.000000	n/a	1	-1.692708e-01	-1.692708e-01
280.520230	1.166764	dec_nonsocial_accept_low	1.166764	16.000000	n/a	1	-1.692708e-01	-1.692708e-01
289.788270	1.182348	dec_nonsocial_choice	1.182348	16.000000	n/a	4	1.822917e-02	1.822917e-02
289.788270	1.182348	dec_choice	1.182348	16.000000	n/a	4	1.822917e-02	1.822917e-02
289.788270	1.182348	dec_nonsocial_accept	1.182348	16.000000	n/a	4	-2.951389e-02	-2.951389e-02
289.788270	1.182348	dec_accept	1.182348	16.000000	n/a	4	1.822917e-02	1.822917e-02
289.788270	1.182348	dec_nonsocial_high	1.182348	16.000000	n/a	4	1.822917e-02	1.822917e-02
289.788270	1.182348	dec_nonsocial_accept_high	1.182348	16.000000	n/a	4	1.822917e-02	1.822917e-02
297.437260	1.750144	dec_nonsocial_choice	1.750144	32.000000	n/a	3	-1.380208e-01	-1.380208e-01
297.437260	1.750144	dec_choice	1.750144	32.000000	n/a	3	-1.380208e-01	-1.380208e-01
297.437260	1.750144	dec_nonsocial_accept	1.750144	32.000000	n/a	3	-1.857639e-01	-1.857639e-01
297.437260	1.750144	dec_accept	1.750144	32.000000	n/a	3	-1.380208e-01	-1.380208e-01
297.437260	1.750144	dec_nonsocial_low	1.750144	32.000000	n/a	3	-1.380208e-01	-1.380208e-01
297.437260	1.750144	dec_nonsocial_accept_low	1.750144	32.000000	n/a	3	-1.380208e-01	-1.380208e-01
308.303440	0.683991	dec_nonsocial_choice	0.683991	16.000000	n/a	8	2.682292e-01	2.682292e-01
308.303440	0.683991	dec_choice	0.683991	16.000000	n/a	8	2.682292e-01	2.682292e-01
308.303440	0.683991	dec_nonsocial_accept	0.683991	16.000000	n/a	8	2.204861e-01	2.204861e-01
308.303440	0.683991	dec_accept	0.683991	16.000000	n/a	8	2.682292e-01	2.682292e-01
308.303440	0.683991	dec_nonsocial_accept_high	0.683991	16.000000	n/a	8	1.250000e-01	1.250000e-01
315.136300	1.201024	dec_social_choice	1.201024	32.000000	n/a	8	1.822917e-02	1.822917e-02
315.136300	1.201024	dec_choice	1.201024	32.000000	n/a	8	1.822917e-02	1.822917e-02
315.136300	1.201024	dec_social_accept	1.201024	32.000000	n/a	8	-2.951389e-02	-2.951389e-02
315.136300	1.201024	dec_accept	1.201024	32.000000	n/a	8	-1.250000e-01	-1.250000e-01
315.136300	1.201024	dec_social_high	1.201024	32.000000	n/a	8	1.822917e-02	1.822917e-02
315.136300	1.201024	dec_social_accept_high	1.201024	32.000000	n/a	8	1.822917e-02	1.822917e-02
321.970000	1.333770	dec_nonsocial_choice	1.333770	32.000000	n/a	8	1.822917e-02	1.822917e-02
321.970000	1.333770	dec_choice	1.333770	32.000000	n/a	8	1.822917e-02	1.822917e-02
321.970000	1.333770	dec_nonsocial_accept	1.333770	32.000000	n/a	8	-2.951389e-02	-2.951389e-02
321.970000	1.333770	dec_accept	1.333770	32.000000	n/a	8	1.822917e-02	1.822917e-02
321.970000	1.333770	dec_nonsocial_accept_high	1.333770	32.000000	n/a	8	-1.250000e-01	-1.250000e-01
331.219800	0.767143	dec_social_choice	0.767143	16.000000	n/a	8	2.682292e-01	2.682292e-01
331.219800	0.767143	dec_choice	0.767143	16.000000	n/a	8	2.682292e-01	2.682292e-01
331.219800	0.767143	dec_social_accept	0.767143	16.000000	n/a	8	2.204861e-01	2.204861e-01
331.219800	0.767143	dec_accept	0.767143	16.000000	n/a	8	1.250000e-01	1.250000e-01
331.219800	0.767143	dec_social_accept_high	0.767143	16.000000	n/a	8	2.682292e-01	2.682292e-01
338.054140	0.999796	dec_nonsocial_choice	0.999796	16.000000	n/a	4	1.822917e-02	1.822917e-02
338.054140	0.999796	dec_choice	0.999796	16.000000	n/a	4	1.822917e-02	1.822917e-02
338.054140	0.999796	dec_nonsocial_accept	0.999796	16.000000	n/a	4	-2.951389e-02	-2.951389e-02
338.054140	0.999796	dec_accept	0.999796	16.000000	n/a	4	1.822917e-02	1.822917e-02
338.054140	0.999796	dec_nonsocial_accept_high	0.999796	16.000000	n/a	4	-1.250000e-01	-1.250000e-01
344.887450	1.065989	dec_nonsocial_choice	1.065989	32.000000	n/a	16	2.682292e-01	2.682292e-01
344.887450	1.065989	dec_choice	1.065989	32.000000	n/a	16	2.682292e-01	2.682292e-01
344.887450	1.065989	dec_nonsocial_accept	1.065989	32.000000	n/a	16	2.204861e-01	2.204861e-01
344.887450	1.065989	dec_accept	1.065989	32.000000	n/a	16	2.682292e-01	2.682292e-01
344.887450	1.065989	dec_nonsocial_high	1.065989	32.000000	n/a	16	2.682292e-01	2.682292e-01
344.887450	1.065989	dec_nonsocial_accept_high	1.065989	32.000000	n/a	16	2.682292e-01	2.682292e-01
351.720430	1.033706	dec_nonsocial_choice	1.033706	16.000000	n/a	1	-1.692708e-01	-1.692708e-01
351.720430	1.033706	dec_choice	1.033706	16.000000	n/a	1	-1.692708e-01	-1.692708e-01
351.720430	1.033706	dec_nonsocial_accept	1.033706	16.000000	n/a	1	-2.170139e-01	-2.170139e-01
351.720430	1.033706	dec_accept	1.033706	16.000000	n/a	1	-1.692708e-01	-1.692708e-01
351.720430	1.033706	dec_nonsocial_accept_low	1.033706	16.000000	n/a	1	-3.125000e-01	-3.125000e-01
358.553400	0.550598	dec_nonsocial_choice	0.550598	16.000000	n/a	2	-1.067708e-01	-1.067708e-01
358.553400	0.550598	dec_choice	0.550598	16.000000	n/a	2	-1.067708e-01	-1.067708e-01
358.553400	0.550598	dec_nonsocial_accept	0.550598	16.000000	n/a	2	-1.545139e-01	-1.545139e-01
358.553400	0.550598	dec_accept	0.550598	16.000000	n/a	2	-1.067708e-01	-1.067708e-01
358.553400	0.550598	dec_nonsocial_accept_low	0.550598	16.000000	n/a	2	-2.500000e-01	-2.500000e-01
365.387400	0.932985	dec_social_choice	0.932985	32.000000	n/a	0	0	-2.317708e-01
365.387400	0.932985	dec_choice	0.932985	32.000000	n/a	0	0	-2.317708e-01
365.387400	0.932985	dec_social_reject	0.932985	32.000000	n/a	0	0	1.201923e-02
365.387400	0.932985	dec_reject	0.932985	32.000000	n/a	0	0	5.208333e-03
365.387400	0.932985	dec_social_low	0.932985	32.000000	n/a	0	-2.317708e-01	-2.317708e-01
365.387400	0.932985	dec_social_reject_low	0.932985	32.000000	n/a	3	-1.380208e-01	-2.317708e-01
373.037400	0.965768	dec_nonsocial_choice	0.965768	16.000000	n/a	8	2.682292e-01	2.682292e-01
373.037400	0.965768	dec_choice	0.965768	16.000000	n/a	8	2.682292e-01	2.682292e-01
373.037400	0.965768	dec_nonsocial_accept	0.965768	16.000000	n/a	8	2.204861e-01	2.204861e-01
373.037400	0.965768	dec_accept	0.965768	16.000000	n/a	8	2.682292e-01	2.682292e-01
373.037400	0.965768	dec_nonsocial_high	0.965768	16.000000	n/a	8	2.682292e-01	2.682292e-01
373.037400	0.965768	dec_nonsocial_accept_high	0.965768	16.000000	n/a	8	2.682292e-01	2.682292e-01
