onset	duration	trial_type	response_time	Endowment	Endowment_pmod	Decision	Decision_pmod	Offer_pmod
4.515052	2	cue_nonsocial	n/a	16	-7	n/a	n/a	n/a
4.515052	2	cue_nonsocial_low	n/a	16	-7	n/a	n/a	n/a
12.164943	2	cue_nonsocial	n/a	16	-7	n/a	n/a	n/a
12.164943	2	cue_nonsocial_low	n/a	16	-7	n/a	n/a	n/a
18.998268	2	cue_nonsocial	n/a	16	-7	n/a	n/a	n/a
18.998268	2	cue_nonsocial_low	n/a	16	-7	n/a	n/a	n/a
25.831524	2	cue_nonsocial	n/a	32	9	n/a	n/a	n/a
25.831524	2	cue_nonsocial_high	n/a	32	9	n/a	n/a	n/a
33.560307	2	cue_social	n/a	16	-7	n/a	n/a	n/a
33.560307	2	cue_social_low	n/a	16	-7	n/a	n/a	n/a
40.298244	2	cue_nonsocial	n/a	16	-7	n/a	n/a	n/a
40.298244	2	cue_nonsocial_low	n/a	16	-7	n/a	n/a	n/a
48.020496	2	cue_social	n/a	32	9	n/a	n/a	n/a
48.020496	2	cue_social_high	n/a	32	9	n/a	n/a	n/a
57.301890	2	cue_social	n/a	16	-7	n/a	n/a	n/a
57.301890	2	cue_social_low	n/a	16	-7	n/a	n/a	n/a
66.537370	2	cue_social	n/a	32	9	n/a	n/a	n/a
66.537370	2	cue_social_high	n/a	32	9	n/a	n/a	n/a
74.174080	2	cue_social	n/a	16	-7	n/a	n/a	n/a
74.174080	2	cue_social_low	n/a	16	-7	n/a	n/a	n/a
81.748120	2	cue_nonsocial	n/a	16	-7	n/a	n/a	n/a
81.748120	2	cue_nonsocial_low	n/a	16	-7	n/a	n/a	n/a
91.084080	2	cue_social	n/a	32	9	n/a	n/a	n/a
91.084080	2	cue_social_high	n/a	32	9	n/a	n/a	n/a
103.580185	2	cue_social	n/a	32	9	n/a	n/a	n/a
103.580185	2	cue_social_high	n/a	32	9	n/a	n/a	n/a
110.331566	2	cue_nonsocial	n/a	32	9	n/a	n/a	n/a
110.331566	2	cue_nonsocial_high	n/a	32	9	n/a	n/a	n/a
117.981520	2	cue_nonsocial	n/a	32	9	n/a	n/a	n/a
117.981520	2	cue_nonsocial_high	n/a	32	9	n/a	n/a	n/a
128.848100	2	cue_nonsocial	n/a	32	9	n/a	n/a	n/a
128.848100	2	cue_nonsocial_high	n/a	32	9	n/a	n/a	n/a
135.761720	2	cue_social	n/a	16	-7	n/a	n/a	n/a
135.761720	2	cue_social_low	n/a	16	-7	n/a	n/a	n/a
146.642910	2	cue_social	n/a	16	-7	n/a	n/a	n/a
146.642910	2	cue_social_low	n/a	16	-7	n/a	n/a	n/a
154.198090	2	cue_nonsocial	n/a	16	-7	n/a	n/a	n/a
154.198090	2	cue_nonsocial_low	n/a	16	-7	n/a	n/a	n/a
161.116840	2	cue_social	n/a	16	-7	n/a	n/a	n/a
161.116840	2	cue_social_low	n/a	16	-7	n/a	n/a	n/a
167.864730	2	cue_nonsocial	n/a	32	9	n/a	n/a	n/a
167.864730	2	cue_nonsocial_high	n/a	32	9	n/a	n/a	n/a
174.773970	2	cue_social	n/a	16	-7	n/a	n/a	n/a
174.773970	2	cue_social_low	n/a	16	-7	n/a	n/a	n/a
181.637680	2	cue_social	n/a	16	-7	n/a	n/a	n/a
181.637680	2	cue_social_low	n/a	16	-7	n/a	n/a	n/a
189.290120	2	cue_social	n/a	16	-7	n/a	n/a	n/a
189.290120	2	cue_social_low	n/a	16	-7	n/a	n/a	n/a
196.014600	2	cue_nonsocial	n/a	16	-7	n/a	n/a	n/a
196.014600	2	cue_nonsocial_low	n/a	16	-7	n/a	n/a	n/a
202.848160	2	cue_nonsocial	n/a	16	-7	n/a	n/a	n/a
202.848160	2	cue_nonsocial_low	n/a	16	-7	n/a	n/a	n/a
213.795990	2	cue_social	n/a	32	9	n/a	n/a	n/a
213.795990	2	cue_social_high	n/a	32	9	n/a	n/a	n/a
221.429960	2	cue_social	n/a	16	-7	n/a	n/a	n/a
221.429960	2	cue_social_low	n/a	16	-7	n/a	n/a	n/a
228.198000	2	cue_nonsocial	n/a	32	9	n/a	n/a	n/a
228.198000	2	cue_nonsocial_high	n/a	32	9	n/a	n/a	n/a
235.155330	2	cue_social	n/a	32	9	n/a	n/a	n/a
235.155330	2	cue_social_high	n/a	32	9	n/a	n/a	n/a
244.280790	2	cue_nonsocial	n/a	16	-7	n/a	n/a	n/a
244.280790	2	cue_nonsocial_low	n/a	16	-7	n/a	n/a	n/a
251.114600	2	cue_nonsocial	n/a	32	9	n/a	n/a	n/a
251.114600	2	cue_nonsocial_high	n/a	32	9	n/a	n/a	n/a
257.948100	2	cue_nonsocial	n/a	16	-7	n/a	n/a	n/a
257.948100	2	cue_nonsocial_low	n/a	16	-7	n/a	n/a	n/a
264.839660	2	cue_social	n/a	16	-7	n/a	n/a	n/a
264.839660	2	cue_social_low	n/a	16	-7	n/a	n/a	n/a
272.431180	2	cue_nonsocial	n/a	16	-7	n/a	n/a	n/a
272.431180	2	cue_nonsocial_low	n/a	16	-7	n/a	n/a	n/a
280.138670	2	cue_social	n/a	32	9	n/a	n/a	n/a
280.138670	2	cue_social_high	n/a	32	9	n/a	n/a	n/a
286.914640	2	cue_nonsocial	n/a	32	9	n/a	n/a	n/a
286.914640	2	cue_nonsocial_high	n/a	32	9	n/a	n/a	n/a
296.181370	2	cue_nonsocial	n/a	16	-7	n/a	n/a	n/a
296.181370	2	cue_nonsocial_low	n/a	16	-7	n/a	n/a	n/a
303.065120	2	cue_social	n/a	16	-7	n/a	n/a	n/a
303.065120	2	cue_social_low	n/a	16	-7	n/a	n/a	n/a
310.716700	2	cue_social	n/a	16	-7	n/a	n/a	n/a
310.716700	2	cue_social_low	n/a	16	-7	n/a	n/a	n/a
317.552730	2	cue_social	n/a	32	9	n/a	n/a	n/a
317.552730	2	cue_social_high	n/a	32	9	n/a	n/a	n/a
326.764370	2	cue_nonsocial	n/a	32	9	n/a	n/a	n/a
326.764370	2	cue_nonsocial_high	n/a	32	9	n/a	n/a	n/a
333.648040	2	cue_social	n/a	32	9	n/a	n/a	n/a
333.648040	2	cue_social_high	n/a	32	9	n/a	n/a	n/a
340.431200	2	cue_nonsocial	n/a	16	-7	n/a	n/a	n/a
340.431200	2	cue_nonsocial_low	n/a	16	-7	n/a	n/a	n/a
349.763340	2	cue_social	n/a	32	9	n/a	n/a	n/a
349.763340	2	cue_social_high	n/a	32	9	n/a	n/a	n/a
356.514430	2	cue_nonsocial	n/a	16	-7	n/a	n/a	n/a
356.514430	2	cue_nonsocial_low	n/a	16	-7	n/a	n/a	n/a
363.422520	2	cue_social	n/a	32	9	n/a	n/a	n/a
363.422520	2	cue_social_high	n/a	32	9	n/a	n/a	n/a
370.997740	2	cue_nonsocial	n/a	32	9	n/a	n/a	n/a
370.997740	2	cue_nonsocial_high	n/a	32	9	n/a	n/a	n/a
6.522033	1.849894	dec_nonsocial_choice	1.849894	16.000000	n/a	1	-1.699219e-01	-1.699219e-01
6.522033	1.849894	dec_choice	1.849894	16.000000	n/a	1	-1.692708e-01	-1.692708e-01
6.522033	1.849894	dec_nonsocial_accept	1.849894	16.000000	n/a	1	-2.170139e-01	-2.170139e-01
6.522033	1.849894	dec_accept	1.849894	16.000000	n/a	1	-1.692708e-01	-1.692708e-01
6.522033	1.849894	dec_nonsocial_low	1.849894	16.000000	n/a	1	-1.692708e-01	-1.692708e-01
6.522033	1.849894	dec_nonsocial_accept_low	1.849894	16.000000	n/a	1	-1.692708e-01	-1.692708e-01
14.171911	1.415896	dec_nonsocial_choice	1.415896	16.000000	n/a	4	1.757812e-02	1.757812e-02
14.171911	1.415896	dec_choice	1.415896	16.000000	n/a	4	1.822917e-02	1.822917e-02
14.171911	1.415896	dec_nonsocial_accept	1.415896	16.000000	n/a	4	-2.951389e-02	-2.951389e-02
14.171911	1.415896	dec_accept	1.415896	16.000000	n/a	4	1.822917e-02	1.822917e-02
14.171911	1.415896	dec_nonsocial_accept_high	1.415896	16.000000	n/a	4	-1.250000e-01	-1.250000e-01
21.005081	1.399909	dec_nonsocial_choice	1.399909	16.000000	n/a	2	-1.074219e-01	-1.074219e-01
21.005081	1.399909	dec_choice	1.399909	16.000000	n/a	2	-1.067708e-01	-1.067708e-01
21.005081	1.399909	dec_nonsocial_accept	1.399909	16.000000	n/a	2	-1.545139e-01	-1.545139e-01
21.005081	1.399909	dec_accept	1.399909	16.000000	n/a	2	-1.067708e-01	-1.067708e-01
21.005081	1.399909	dec_nonsocial_low	1.399909	16.000000	n/a	2	-1.067708e-01	-1.067708e-01
21.005081	1.399909	dec_nonsocial_accept_low	1.399909	16.000000	n/a	2	-1.067708e-01	-1.067708e-01
27.838009	1.000179	dec_nonsocial_choice	1.000179	32.000000	n/a	16	2.675781e-01	2.675781e-01
27.838009	1.000179	dec_choice	1.000179	32.000000	n/a	16	2.682292e-01	2.682292e-01
27.838009	1.000179	dec_nonsocial_accept	1.000179	32.000000	n/a	16	2.204861e-01	2.204861e-01
27.838009	1.000179	dec_accept	1.000179	32.000000	n/a	16	2.682292e-01	2.682292e-01
27.838009	1.000179	dec_nonsocial_high	1.000179	32.000000	n/a	16	2.682292e-01	2.682292e-01
27.838009	1.000179	dec_nonsocial_accept_high	1.000179	32.000000	n/a	16	2.682292e-01	2.682292e-01
35.471040	1.101100	dec_social_choice	1.101100	16.000000	n/a	8	2.675781e-01	2.675781e-01
35.471040	1.101100	dec_choice	1.101100	16.000000	n/a	8	2.669271e-01	2.669271e-01
35.471040	1.101100	dec_social_accept	1.101100	16.000000	n/a	8	2.204861e-01	2.204861e-01
35.471040	1.101100	dec_accept	1.101100	16.000000	n/a	8	1.250000e-01	1.250000e-01
35.471040	1.101100	dec_social_accept_high	1.101100	16.000000	n/a	8	2.669271e-01	2.669271e-01
42.306046	0.832213	dec_nonsocial_choice	0.832213	16.000000	n/a	4	1.757812e-02	1.757812e-02
42.306046	0.832213	dec_choice	0.832213	16.000000	n/a	4	1.822917e-02	1.822917e-02
42.306046	0.832213	dec_nonsocial_accept	0.832213	16.000000	n/a	4	-2.951389e-02	-2.951389e-02
42.306046	0.832213	dec_accept	0.832213	16.000000	n/a	4	1.822917e-02	1.822917e-02
42.306046	0.832213	dec_nonsocial_accept_high	0.832213	16.000000	n/a	4	-1.250000e-01	-1.250000e-01
49.954190	1.100921	dec_social_choice	1.100921	32.000000	n/a	0	0	-2.324219e-01
49.954190	1.100921	dec_choice	1.100921	32.000000	n/a	0	0	-2.330729e-01
49.954190	1.100921	dec_social_reject	1.100921	32.000000	n/a	0	0	-2.163462e-02
49.954190	1.100921	dec_reject	1.100921	32.000000	n/a	0	0	-2.864583e-02
49.954190	1.100921	dec_social_reject_low	1.100921	32.000000	n/a	2	-1.705729e-01	-2.330729e-01
59.205223	1.415828	dec_social_choice	1.415828	16.000000	n/a	0	0	-2.324219e-01
59.205223	1.415828	dec_choice	1.415828	16.000000	n/a	0	0	-2.330729e-01
59.205223	1.415828	dec_social_reject	1.415828	16.000000	n/a	0	0	4.086538e-02
59.205223	1.415828	dec_reject	1.415828	16.000000	n/a	0	0	3.385417e-02
59.205223	1.415828	dec_social_low	1.415828	16.000000	n/a	0	-2.330729e-01	-2.330729e-01
59.205223	1.415828	dec_social_reject_low	1.415828	16.000000	n/a	2	-1.080729e-01	-2.330729e-01
68.456055	1.165084	dec_social_choice	1.165084	32.000000	n/a	8	1.757812e-02	1.757812e-02
68.456055	1.165084	dec_choice	1.165084	32.000000	n/a	8	1.692708e-02	1.692708e-02
68.456055	1.165084	dec_social_accept	1.165084	32.000000	n/a	8	-2.951389e-02	-2.951389e-02
68.456055	1.165084	dec_accept	1.165084	32.000000	n/a	8	-1.250000e-01	-1.250000e-01
68.456055	1.165084	dec_social_high	1.165084	32.000000	n/a	8	1.692708e-02	1.692708e-02
68.456055	1.165084	dec_social_accept_high	1.165084	32.000000	n/a	8	1.692708e-02	1.692708e-02
76.104050	1.051291	dec_social_choice	1.051291	16.000000	n/a	0	0	-2.324219e-01
76.104050	1.051291	dec_choice	1.051291	16.000000	n/a	0	0	-2.330729e-01
76.104050	1.051291	dec_social_reject	1.051291	16.000000	n/a	0	0	-2.163462e-02
76.104050	1.051291	dec_reject	1.051291	16.000000	n/a	0	0	-2.864583e-02
76.104050	1.051291	dec_social_low	1.051291	16.000000	n/a	0	-2.330729e-01	-2.330729e-01
76.104050	1.051291	dec_social_reject_low	1.051291	16.000000	n/a	1	-1.705729e-01	-2.330729e-01
83.755170	0.865904	dec_nonsocial_choice	0.865904	16.000000	n/a	1	-1.699219e-01	-1.699219e-01
83.755170	0.865904	dec_choice	0.865904	16.000000	n/a	1	-1.692708e-01	-1.692708e-01
83.755170	0.865904	dec_nonsocial_accept	0.865904	16.000000	n/a	1	-2.170139e-01	-2.170139e-01
83.755170	0.865904	dec_accept	0.865904	16.000000	n/a	1	-1.692708e-01	-1.692708e-01
83.755170	0.865904	dec_nonsocial_accept_low	0.865904	16.000000	n/a	1	-3.125000e-01	-3.125000e-01
93.022170	1.265622	dec_social_choice	1.265622	32.000000	n/a	0	0	-2.324219e-01
93.022170	1.265622	dec_choice	1.265622	32.000000	n/a	0	0	-2.330729e-01
93.022170	1.265622	dec_social_reject	1.265622	32.000000	n/a	0	0	9.615385e-03
93.022170	1.265622	dec_reject	1.265622	32.000000	n/a	0	0	2.604167e-03
93.022170	1.265622	dec_social_reject_low	1.265622	32.000000	n/a	3	-1.393229e-01	-2.330729e-01
105.504310	0.950824	dec_social_choice	0.950824	32.000000	n/a	0	0	-2.324219e-01
105.504310	0.950824	dec_choice	0.950824	32.000000	n/a	0	0	-2.330729e-01
105.504310	0.950824	dec_social_reject	0.950824	32.000000	n/a	0	0	-2.163462e-02
105.504310	0.950824	dec_reject	0.950824	32.000000	n/a	0	0	-2.864583e-02
105.504310	0.950824	dec_social_reject_low	0.950824	32.000000	n/a	2	-1.705729e-01	-2.330729e-01
112.339160	1.065434	dec_nonsocial_choice	1.065434	32.000000	n/a	2	-1.699219e-01	-1.699219e-01
112.339160	1.065434	dec_choice	1.065434	32.000000	n/a	2	-1.692708e-01	-1.692708e-01
112.339160	1.065434	dec_nonsocial_accept	1.065434	32.000000	n/a	2	-2.170139e-01	-2.170139e-01
112.339160	1.065434	dec_accept	1.065434	32.000000	n/a	2	-1.692708e-01	-1.692708e-01
112.339160	1.065434	dec_nonsocial_low	1.065434	32.000000	n/a	2	-1.692708e-01	-1.692708e-01
112.339160	1.065434	dec_nonsocial_accept_low	1.065434	32.000000	n/a	2	-1.692708e-01	-1.692708e-01
119.988080	1.383605	dec_nonsocial_choice	1.383605	32.000000	n/a	3	-1.386719e-01	-1.386719e-01
119.988080	1.383605	dec_choice	1.383605	32.000000	n/a	3	-1.380208e-01	-1.380208e-01
119.988080	1.383605	dec_nonsocial_accept	1.383605	32.000000	n/a	3	-1.857639e-01	-1.857639e-01
119.988080	1.383605	dec_accept	1.383605	32.000000	n/a	3	-1.380208e-01	-1.380208e-01
119.988080	1.383605	dec_nonsocial_accept_low	1.383605	32.000000	n/a	3	-2.812500e-01	-2.812500e-01
130.855900	0.882337	dec_nonsocial_choice	0.882337	32.000000	n/a	8	1.757812e-02	1.757812e-02
130.855900	0.882337	dec_choice	0.882337	32.000000	n/a	8	1.822917e-02	1.822917e-02
130.855900	0.882337	dec_nonsocial_accept	0.882337	32.000000	n/a	8	-2.951389e-02	-2.951389e-02
130.855900	0.882337	dec_accept	0.882337	32.000000	n/a	8	1.822917e-02	1.822917e-02
130.855900	0.882337	dec_nonsocial_accept_high	0.882337	32.000000	n/a	8	-1.250000e-01	-1.250000e-01
137.687560	1.067252	dec_social_choice	1.067252	16.000000	n/a	4	1.757812e-02	1.757812e-02
137.687560	1.067252	dec_choice	1.067252	16.000000	n/a	4	1.692708e-02	1.692708e-02
137.687560	1.067252	dec_social_accept	1.067252	16.000000	n/a	4	-2.951389e-02	-2.951389e-02
137.687560	1.067252	dec_accept	1.067252	16.000000	n/a	4	-1.250000e-01	-1.250000e-01
137.687560	1.067252	dec_social_accept_high	1.067252	16.000000	n/a	4	1.692708e-02	1.692708e-02
148.554550	1.150437	dec_social_choice	1.150437	16.000000	n/a	0	0	-2.324219e-01
148.554550	1.150437	dec_choice	1.150437	16.000000	n/a	0	0	-2.330729e-01
148.554550	1.150437	dec_social_reject	1.150437	16.000000	n/a	0	0	4.086538e-02
148.554550	1.150437	dec_reject	1.150437	16.000000	n/a	0	0	3.385417e-02
148.554550	1.150437	dec_social_reject_low	1.150437	16.000000	n/a	2	-1.080729e-01	-2.330729e-01
156.205230	1.065989	dec_nonsocial_choice	1.065989	16.000000	n/a	1	-1.699219e-01	-1.699219e-01
156.205230	1.065989	dec_choice	1.065989	16.000000	n/a	1	-1.692708e-01	-1.692708e-01
156.205230	1.065989	dec_nonsocial_accept	1.065989	16.000000	n/a	1	-2.170139e-01	-2.170139e-01
156.205230	1.065989	dec_accept	1.065989	16.000000	n/a	1	-1.692708e-01	-1.692708e-01
156.205230	1.065989	dec_nonsocial_accept_low	1.065989	16.000000	n/a	1	-3.125000e-01	-3.125000e-01
163.037200	1.217901	dec_social_choice	1.217901	16.000000	n/a	0	0	-2.324219e-01
163.037200	1.217901	dec_choice	1.217901	16.000000	n/a	0	0	-2.330729e-01
163.037200	1.217901	dec_social_reject	1.217901	16.000000	n/a	0	0	4.086538e-02
163.037200	1.217901	dec_reject	1.217901	16.000000	n/a	0	0	3.385417e-02
163.037200	1.217901	dec_social_reject_low	1.217901	16.000000	n/a	2	-1.080729e-01	-2.330729e-01
169.871890	1.183192	dec_nonsocial_choice	1.183192	32.000000	n/a	16	2.675781e-01	2.675781e-01
169.871890	1.183192	dec_choice	1.183192	32.000000	n/a	16	2.682292e-01	2.682292e-01
169.871890	1.183192	dec_nonsocial_accept	1.183192	32.000000	n/a	16	2.204861e-01	2.204861e-01
169.871890	1.183192	dec_accept	1.183192	32.000000	n/a	16	2.682292e-01	2.682292e-01
169.871890	1.183192	dec_nonsocial_accept_high	1.183192	32.000000	n/a	16	1.250000e-01	1.250000e-01
176.705170	1.116192	dec_social_choice	1.116192	16.000000	n/a	0	0	-2.324219e-01
176.705170	1.116192	dec_choice	1.116192	16.000000	n/a	0	0	-2.330729e-01
176.705170	1.116192	dec_social_reject	1.116192	16.000000	n/a	0	0	-2.163462e-02
176.705170	1.116192	dec_reject	1.116192	16.000000	n/a	0	0	-2.864583e-02
176.705170	1.116192	dec_social_reject_low	1.116192	16.000000	n/a	1	-1.705729e-01	-2.330729e-01
183.538160	1.066046	dec_social_choice	1.066046	16.000000	n/a	0	0	-2.324219e-01
183.538160	1.066046	dec_choice	1.066046	16.000000	n/a	0	0	-2.330729e-01
183.538160	1.066046	dec_social_reject	1.066046	16.000000	n/a	0	0	-2.163462e-02
183.538160	1.066046	dec_reject	1.066046	16.000000	n/a	0	0	-2.864583e-02
183.538160	1.066046	dec_social_low	1.066046	16.000000	n/a	0	-2.330729e-01	-2.330729e-01
183.538160	1.066046	dec_social_reject_low	1.066046	16.000000	n/a	1	-1.705729e-01	-2.330729e-01
191.189160	0.932298	dec_social_choice	0.932298	16.000000	n/a	4	1.757812e-02	1.757812e-02
191.189160	0.932298	dec_choice	0.932298	16.000000	n/a	4	1.692708e-02	1.692708e-02
191.189160	0.932298	dec_social_accept	0.932298	16.000000	n/a	4	-2.951389e-02	-2.951389e-02
191.189160	0.932298	dec_accept	0.932298	16.000000	n/a	4	-1.250000e-01	-1.250000e-01
191.189160	0.932298	dec_social_accept_high	0.932298	16.000000	n/a	4	1.692708e-02	1.692708e-02
198.021290	0.700040	dec_nonsocial_choice	0.700040	16.000000	n/a	8	2.675781e-01	2.675781e-01
198.021290	0.700040	dec_choice	0.700040	16.000000	n/a	8	2.682292e-01	2.682292e-01
198.021290	0.700040	dec_nonsocial_accept	0.700040	16.000000	n/a	8	2.204861e-01	2.204861e-01
198.021290	0.700040	dec_accept	0.700040	16.000000	n/a	8	2.682292e-01	2.682292e-01
198.021290	0.700040	dec_nonsocial_accept_high	0.700040	16.000000	n/a	8	1.250000e-01	1.250000e-01
204.854280	1.216622	dec_nonsocial_choice	1.216622	16.000000	n/a	2	-1.074219e-01	-1.074219e-01
204.854280	1.216622	dec_choice	1.216622	16.000000	n/a	2	-1.067708e-01	-1.067708e-01
204.854280	1.216622	dec_nonsocial_accept	1.216622	16.000000	n/a	2	-1.545139e-01	-1.545139e-01
204.854280	1.216622	dec_accept	1.216622	16.000000	n/a	2	-1.067708e-01	-1.067708e-01
204.854280	1.216622	dec_nonsocial_accept_low	1.216622	16.000000	n/a	2	-2.500000e-01	-2.500000e-01
215.720200	0.750977	dec_social_choice	0.750977	32.000000	n/a	16	2.675781e-01	2.675781e-01
215.720200	0.750977	dec_choice	0.750977	32.000000	n/a	16	2.669271e-01	2.669271e-01
215.720200	0.750977	dec_social_accept	0.750977	32.000000	n/a	16	2.204861e-01	2.204861e-01
215.720200	0.750977	dec_accept	0.750977	32.000000	n/a	16	1.250000e-01	1.250000e-01
215.720200	0.750977	dec_social_accept_high	0.750977	32.000000	n/a	16	2.669271e-01	2.669271e-01
223.372210	1.082753	dec_social_choice	1.082753	16.000000	n/a	4	1.757812e-02	1.757812e-02
223.372210	1.082753	dec_choice	1.082753	16.000000	n/a	4	1.692708e-02	1.692708e-02
223.372210	1.082753	dec_social_accept	1.082753	16.000000	n/a	4	-2.951389e-02	-2.951389e-02
223.372210	1.082753	dec_accept	1.082753	16.000000	n/a	4	-1.250000e-01	-1.250000e-01
223.372210	1.082753	dec_social_accept_high	1.082753	16.000000	n/a	4	1.692708e-02	1.692708e-02
230.204200	0.766621	dec_nonsocial_choice	0.766621	32.000000	n/a	16	2.675781e-01	2.675781e-01
230.204200	0.766621	dec_choice	0.766621	32.000000	n/a	16	2.682292e-01	2.682292e-01
230.204200	0.766621	dec_nonsocial_accept	0.766621	32.000000	n/a	16	2.204861e-01	2.204861e-01
230.204200	0.766621	dec_accept	0.766621	32.000000	n/a	16	2.682292e-01	2.682292e-01
230.204200	0.766621	dec_nonsocial_accept_high	0.766621	32.000000	n/a	16	1.250000e-01	1.250000e-01
237.037280	0.817578	dec_social_choice	0.817578	32.000000	n/a	0	0	-2.324219e-01
237.037280	0.817578	dec_choice	0.817578	32.000000	n/a	0	0	-2.330729e-01
237.037280	0.817578	dec_social_reject	0.817578	32.000000	n/a	0	0	-2.163462e-02
237.037280	0.817578	dec_reject	0.817578	32.000000	n/a	0	0	-2.864583e-02
237.037280	0.817578	dec_social_reject_low	0.817578	32.000000	n/a	2	-1.705729e-01	-2.330729e-01
246.288220	1.033181	dec_nonsocial_choice	1.033181	16.000000	n/a	4	1.757812e-02	1.757812e-02
246.288220	1.033181	dec_choice	1.033181	16.000000	n/a	4	1.822917e-02	1.822917e-02
246.288220	1.033181	dec_nonsocial_accept	1.033181	16.000000	n/a	4	-2.951389e-02	-2.951389e-02
246.288220	1.033181	dec_accept	1.033181	16.000000	n/a	4	1.822917e-02	1.822917e-02
246.288220	1.033181	dec_nonsocial_accept_high	1.033181	16.000000	n/a	4	-1.250000e-01	-1.250000e-01
253.121230	1.200010	dec_nonsocial_choice	1.200010	32.000000	n/a	8	1.757812e-02	1.757812e-02
253.121230	1.200010	dec_choice	1.200010	32.000000	n/a	8	1.822917e-02	1.822917e-02
253.121230	1.200010	dec_nonsocial_accept	1.200010	32.000000	n/a	8	-2.951389e-02	-2.951389e-02
253.121230	1.200010	dec_accept	1.200010	32.000000	n/a	8	1.822917e-02	1.822917e-02
253.121230	1.200010	dec_nonsocial_high	1.200010	32.000000	n/a	8	1.822917e-02	1.822917e-02
253.121230	1.200010	dec_nonsocial_accept_high	1.200010	32.000000	n/a	8	1.822917e-02	1.822917e-02
259.954930	0.733230	dec_nonsocial_choice	0.733230	16.000000	n/a	8	2.675781e-01	2.675781e-01
259.954930	0.733230	dec_choice	0.733230	16.000000	n/a	8	2.682292e-01	2.682292e-01
259.954930	0.733230	dec_nonsocial_accept	0.733230	16.000000	n/a	8	2.204861e-01	2.204861e-01
259.954930	0.733230	dec_accept	0.733230	16.000000	n/a	8	2.682292e-01	2.682292e-01
259.954930	0.733230	dec_nonsocial_accept_high	0.733230	16.000000	n/a	8	1.250000e-01	1.250000e-01
266.788240	1.215940	dec_social_choice	1.215940	16.000000	n/a	0	0	-2.324219e-01
266.788240	1.215940	dec_choice	1.215940	16.000000	n/a	0	0	-2.330729e-01
266.788240	1.215940	dec_social_reject	1.215940	16.000000	n/a	0	0	4.086538e-02
266.788240	1.215940	dec_reject	1.215940	16.000000	n/a	0	0	3.385417e-02
266.788240	1.215940	dec_social_low	1.215940	16.000000	n/a	0	-2.330729e-01	-2.330729e-01
266.788240	1.215940	dec_social_reject_low	1.215940	16.000000	n/a	2	-1.080729e-01	-2.330729e-01
274.438300	1.183123	dec_nonsocial_choice	1.183123	16.000000	n/a	1	-1.699219e-01	-1.699219e-01
274.438300	1.183123	dec_choice	1.183123	16.000000	n/a	1	-1.692708e-01	-1.692708e-01
274.438300	1.183123	dec_nonsocial_accept	1.183123	16.000000	n/a	1	-2.170139e-01	-2.170139e-01
274.438300	1.183123	dec_accept	1.183123	16.000000	n/a	1	-1.692708e-01	-1.692708e-01
274.438300	1.183123	dec_nonsocial_low	1.183123	16.000000	n/a	1	-1.692708e-01	-1.692708e-01
274.438300	1.183123	dec_nonsocial_accept_low	1.183123	16.000000	n/a	1	-1.692708e-01	-1.692708e-01
282.088400	0.865825	dec_social_choice	0.865825	32.000000	n/a	16	2.675781e-01	2.675781e-01
282.088400	0.865825	dec_choice	0.865825	32.000000	n/a	16	2.669271e-01	2.669271e-01
282.088400	0.865825	dec_social_accept	0.865825	32.000000	n/a	16	2.204861e-01	2.204861e-01
282.088400	0.865825	dec_accept	0.865825	32.000000	n/a	16	1.250000e-01	1.250000e-01
282.088400	0.865825	dec_social_high	0.865825	32.000000	n/a	16	2.669271e-01	2.669271e-01
282.088400	0.865825	dec_social_accept_high	0.865825	32.000000	n/a	16	2.669271e-01	2.669271e-01
288.921880	1.465770	dec_nonsocial_choice	1.465770	32.000000	n/a	16	2.675781e-01	2.675781e-01
288.921880	1.465770	dec_choice	1.465770	32.000000	n/a	16	2.682292e-01	2.682292e-01
288.921880	1.465770	dec_nonsocial_accept	1.465770	32.000000	n/a	16	2.204861e-01	2.204861e-01
288.921880	1.465770	dec_accept	1.465770	32.000000	n/a	16	2.682292e-01	2.682292e-01
288.921880	1.465770	dec_nonsocial_accept_high	1.465770	32.000000	n/a	16	1.250000e-01	1.250000e-01
298.188200	1.165889	dec_nonsocial_choice	1.165889	16.000000	n/a	2	-1.074219e-01	-1.074219e-01
298.188200	1.165889	dec_choice	1.165889	16.000000	n/a	2	-1.067708e-01	-1.067708e-01
298.188200	1.165889	dec_nonsocial_accept	1.165889	16.000000	n/a	2	-1.545139e-01	-1.545139e-01
298.188200	1.165889	dec_accept	1.165889	16.000000	n/a	2	-1.067708e-01	-1.067708e-01
298.188200	1.165889	dec_nonsocial_accept_low	1.165889	16.000000	n/a	2	-2.500000e-01	-2.500000e-01
305.022250	1.032226	dec_social_choice	1.032226	16.000000	n/a	4	1.757812e-02	1.757812e-02
305.022250	1.032226	dec_choice	1.032226	16.000000	n/a	4	1.692708e-02	1.692708e-02
305.022250	1.032226	dec_social_accept	1.032226	16.000000	n/a	4	-2.951389e-02	-2.951389e-02
305.022250	1.032226	dec_accept	1.032226	16.000000	n/a	4	-1.250000e-01	-1.250000e-01
305.022250	1.032226	dec_social_high	1.032226	16.000000	n/a	4	1.692708e-02	1.692708e-02
305.022250	1.032226	dec_social_accept_high	1.032226	16.000000	n/a	4	1.692708e-02	1.692708e-02
312.670350	1.017275	dec_social_choice	1.017275	16.000000	n/a	0	0	-2.324219e-01
312.670350	1.017275	dec_choice	1.017275	16.000000	n/a	0	0	-2.330729e-01
312.670350	1.017275	dec_social_reject	1.017275	16.000000	n/a	0	0	4.086538e-02
312.670350	1.017275	dec_reject	1.017275	16.000000	n/a	0	0	3.385417e-02
312.670350	1.017275	dec_social_low	1.017275	16.000000	n/a	0	-2.330729e-01	-2.330729e-01
312.670350	1.017275	dec_social_reject_low	1.017275	16.000000	n/a	2	-1.080729e-01	-2.330729e-01
319.505400	0.915550	dec_social_choice	0.915550	32.000000	n/a	16	2.675781e-01	2.675781e-01
319.505400	0.915550	dec_choice	0.915550	32.000000	n/a	16	2.669271e-01	2.669271e-01
319.505400	0.915550	dec_social_accept	0.915550	32.000000	n/a	16	2.204861e-01	2.204861e-01
319.505400	0.915550	dec_accept	0.915550	32.000000	n/a	16	1.250000e-01	1.250000e-01
319.505400	0.915550	dec_social_high	0.915550	32.000000	n/a	16	2.669271e-01	2.669271e-01
319.505400	0.915550	dec_social_accept_high	0.915550	32.000000	n/a	16	2.669271e-01	2.669271e-01
328.770900	1.366711	dec_nonsocial_choice	1.366711	32.000000	n/a	3	-1.386719e-01	-1.386719e-01
328.770900	1.366711	dec_choice	1.366711	32.000000	n/a	3	-1.380208e-01	-1.380208e-01
328.770900	1.366711	dec_nonsocial_accept	1.366711	32.000000	n/a	3	-1.857639e-01	-1.857639e-01
328.770900	1.366711	dec_accept	1.366711	32.000000	n/a	3	-1.380208e-01	-1.380208e-01
328.770900	1.366711	dec_nonsocial_accept_low	1.366711	32.000000	n/a	3	-2.812500e-01	-2.812500e-01
335.603400	0.817322	dec_social_choice	0.817322	32.000000	n/a	8	1.757812e-02	1.757812e-02
335.603400	0.817322	dec_choice	0.817322	32.000000	n/a	8	1.692708e-02	1.692708e-02
335.603400	0.817322	dec_social_accept	0.817322	32.000000	n/a	8	-2.951389e-02	-2.951389e-02
335.603400	0.817322	dec_accept	0.817322	32.000000	n/a	8	-1.250000e-01	-1.250000e-01
335.603400	0.817322	dec_social_accept_high	0.817322	32.000000	n/a	8	1.692708e-02	1.692708e-02
342.437380	0.883985	dec_nonsocial_choice	0.883985	16.000000	n/a	2	-1.074219e-01	-1.074219e-01
342.437380	0.883985	dec_choice	0.883985	16.000000	n/a	2	-1.067708e-01	-1.067708e-01
342.437380	0.883985	dec_nonsocial_accept	0.883985	16.000000	n/a	2	-1.545139e-01	-1.545139e-01
342.437380	0.883985	dec_accept	0.883985	16.000000	n/a	2	-1.067708e-01	-1.067708e-01
342.437380	0.883985	dec_nonsocial_low	0.883985	16.000000	n/a	2	-1.067708e-01	-1.067708e-01
342.437380	0.883985	dec_nonsocial_accept_low	0.883985	16.000000	n/a	2	-1.067708e-01	-1.067708e-01
351.687300	0.783450	dec_social_choice	0.783450	32.000000	n/a	16	2.675781e-01	2.675781e-01
351.687300	0.783450	dec_choice	0.783450	32.000000	n/a	16	2.669271e-01	2.669271e-01
351.687300	0.783450	dec_social_accept	0.783450	32.000000	n/a	16	2.204861e-01	2.204861e-01
351.687300	0.783450	dec_accept	0.783450	32.000000	n/a	16	1.250000e-01	1.250000e-01
351.687300	0.783450	dec_social_high	0.783450	32.000000	n/a	16	2.669271e-01	2.669271e-01
351.687300	0.783450	dec_social_accept_high	0.783450	32.000000	n/a	16	2.669271e-01	2.669271e-01
358.521400	0.815966	dec_nonsocial_choice	0.815966	16.000000	n/a	1	-1.699219e-01	-1.699219e-01
358.521400	0.815966	dec_choice	0.815966	16.000000	n/a	1	-1.692708e-01	-1.692708e-01
358.521400	0.815966	dec_nonsocial_accept	0.815966	16.000000	n/a	1	-2.170139e-01	-2.170139e-01
358.521400	0.815966	dec_accept	0.815966	16.000000	n/a	1	-1.692708e-01	-1.692708e-01
358.521400	0.815966	dec_nonsocial_accept_low	0.815966	16.000000	n/a	1	-3.125000e-01	-3.125000e-01
365.354340	0.900475	dec_social_choice	0.900475	32.000000	n/a	16	2.675781e-01	2.675781e-01
365.354340	0.900475	dec_choice	0.900475	32.000000	n/a	16	2.669271e-01	2.669271e-01
365.354340	0.900475	dec_social_accept	0.900475	32.000000	n/a	16	2.204861e-01	2.204861e-01
365.354340	0.900475	dec_accept	0.900475	32.000000	n/a	16	1.250000e-01	1.250000e-01
365.354340	0.900475	dec_social_accept_high	0.900475	32.000000	n/a	16	2.669271e-01	2.669271e-01
373.004360	0.783565	dec_nonsocial_choice	0.783565	32.000000	n/a	8	1.757812e-02	1.757812e-02
373.004360	0.783565	dec_choice	0.783565	32.000000	n/a	8	1.822917e-02	1.822917e-02
373.004360	0.783565	dec_nonsocial_accept	0.783565	32.000000	n/a	8	-2.951389e-02	-2.951389e-02
373.004360	0.783565	dec_accept	0.783565	32.000000	n/a	8	1.822917e-02	1.822917e-02
373.004360	0.783565	dec_nonsocial_high	0.783565	32.000000	n/a	8	1.822917e-02	1.822917e-02
373.004360	0.783565	dec_nonsocial_accept_high	0.783565	32.000000	n/a	8	1.822917e-02	1.822917e-02
