TrialNumber,Trial,cLeft,cRight,Partner,Reciprocate,ISI,ITI,ran,order,onset,bpress,resp,resp_onset,highlow,rt,ISIpad,ISI_onset,ISI_offset,outcome_onset,outcome_offset,duration,ITI_onset,ITI_offset
1,1,4,2,2,1,5.000000e-01,2.422500e+00,1.0,0.0,4.1205482,1.0,4,5.756989,high,1.6364408,1.3635592,6.2782955,9.370289,9.373538,11.375942,7.255394,11.376404,13.794301
2,2,2,4,3,0,2,7.267500e+00,1.0,1.0,13.952033,1.0,2,15.324036,low,1.372003,1.627997,15.8437605,20.70204,20.704601,22.706738,8.754704,22.707127,29.969479
3,3,4,8,3,0,2,2.422500e+00,1.0,2.0,30.116167,2.0,8,31.890528,high,1.7743607,1.2256393,32.410046,36.86673,36.86713,38.86934,8.753172,38.869747,41.28893
4,4,0,2,3,1,5.000000e-01,5.652500e+00,1.0,3.0,41.43381,1.0,0,43.54071,low,2.1068976,0.8931023,44.059315,46.684605,46.684723,48.686073,7.2522616,48.686455,54.33694
5,5,0,8,1,0,5.000000e-01,2.422500e+00,1.0,4.0,54.34306,2.0,8,56.50675,high,2.1636887,0.8363114,57.025986,59.593636,59.595608,61.597935,7.254877,61.598316,64.01592
6,6,4,2,1,0,5.000000e-01,8.075000e-01,1.0,5.0,64.02041,1.0,4,65.723495,high,1.7030908,1.2969092,66.243065,69.2704,69.2708,71.27282,7.2524166,71.2732,72.07894
7,7,2,8,3,1,2,8.075000e-01,1.0,6.0,72.22603,2.0,8,73.97361,high,1.7475878,1.2524122,74.49412,78.97715,78.97906,80.98091,8.754889,80.98129,81.78354
8,8,2,0,1,0,5.000000e-01,8.075000e-01,1.0,7.0,81.7877,2.0,0,83.540344,low,1.752648,1.247352,84.060196,87.03799,87.03811,89.03994,7.252244,89.04032,89.84594
9,9,8,0,3,1,5.000000e-01,4.037500e+00,1.0,8.0,89.990074,1.0,8,91.70715,high,1.7170742,1.2829258,92.2259,95.24092,95.241325,97.24344,7.253363,97.24382,101.27894
10,10,8,4,2,1,5.000000e-01,8.075000e-01,1.0,9.0,101.387695,1.0,8,102.84032,high,1.4526243,1.5473757,103.3591,106.63896,106.64086,108.642975,7.25528,108.64337,109.44547
11,11,2,8,3,1,5.000000e-01,8.075000e-01,1.0,10.0,109.59314,2.0,8,111.30705,high,1.713911,1.286089,111.82761,114.84435,114.846245,116.848946,7.2558064,116.84933,117.65095
12,12,2,4,1,1,2,8.075000e-01,1.0,11.0,117.655685,2.0,4,119.49018,high,1.8344914,1.1655086,120.011086,124.4066,124.40865,126.41005,8.754361,126.41043,127.213776
13,13,8,4,1,0,3.500000e+00,2.422500e+00,1.0,12.0,127.21718,1.0,8,129.19046,high,1.9732822,1.0267178,129.71013,135.46756,135.46947,137.47197,10.254798,137.47235,139.88982
14,14,2,8,1,1,2,5.652500e+00,1.0,13.0,139.89418,1.0,2,141.90652,low,2.012349,0.987651,142.42705,146.64409,146.64604,148.64792,8.753745,148.6483,154.29662
15,15,2,8,3,0,2,8.075000e-01,1.0,14.0,154.43983,2.0,8,156.35716,high,1.917333,1.082667,156.87724,161.18991,161.1917,163.19395,8.754122,163.19434,163.99754
16,16,8,2,3,0,5.000000e-01,8.075000e-01,1.0,15.0,164.14175,1.0,8,166.2736,high,2.1318402,0.8681598,166.79301,169.39296,169.3934,171.39595,7.2541823,171.39632,172.19962
17,17,4,2,3,1,2,2.422500e+00,1.0,16.0,172.34291,1.0,4,174.27362,high,1.9307218,1.0692782,174.79298,179.09361,179.09549,181.09795,8.755044,181.09833,183.51553
18,18,0,2,3,0,5.000000e-01,2.422500e+00,1.0,17.0,183.65921,2.0,2,185.64021,high,1.9810008,1.0189992,186.15933,188.90996,188.91179,190.91362,7.254405,190.914,193.33208
19,19,2,8,2,0,5.000000e-01,8.075000e-01,1.0,18.0,193.4395,2.0,8,195.30713,high,1.8676299,1.1323701,195.82602,198.6901,198.69182,200.69377,7.254271,200.69415,201.49736
20,20,0,2,1,1,3.500000e+00,8.075000e-01,1.0,19.0,201.50334,2.0,2,203.44035,high,1.9370109,1.0629891,203.96013,209.75508,209.75725,211.76056,10.257219,211.76094,212.56195
21,21,4,0,1,0,5.000000e-01,4.037500e+00,1.0,20.0,212.56633,1.0,4,214.22284,high,1.656501,1.343499,214.74219,217.8177,217.81964,219.82301,7.256676,219.82338,223.85362
22,22,8,4,3,1,5.000000e-01,2.422500e+00,1.0,21.0,223.99895,2.0,4,225.92378,low,1.9248267,1.0751733,226.4426,229.24986,229.25179,231.25352,7.254576,231.2539,233.67181
23,23,0,2,2,1,2,8.075000e-01,1.0,22.0,233.7813,2.0,2,235.65663,high,1.8753246,1.1246754,236.17606,240.5318,240.53369,242.53607,8.75477,242.53645,243.33994
24,24,4,0,1,1,5.000000e-01,8.075000e-01,1.0,23.0,243.34587,2.0,0,245.15681,low,1.810948,1.189052,245.6763,248.59651,248.59663,250.59886,7.2529855,250.59924,251.40355
25,25,4,0,2,0,2,8.075000e-01,1.0,24.0,251.51028,1.0,4,252.94022,high,1.4299325,1.5700675,253.46016,258.26096,258.2627,260.26462,8.754325,260.26498,261.06808
26,26,2,8,2,1,5.000000e-01,4.037500e+00,1.0,25.0,261.17572,2.0,8,262.99008,high,1.8143615,1.1856385,263.50967,266.4267,266.42856,268.43088,7.255144,268.43124,272.46384
27,27,8,0,2,0,2,8.075000e-01,1.0,26.0,272.57166,1.0,8,274.0403,high,1.4686286,1.5313714,274.5588,279.3229,279.32465,281.32697,8.755291,281.32736,282.13025
28,28,0,4,2,1,5.000000e-01,8.075000e-01,1.0,27.0,282.2386,2.0,4,283.85687,high,1.618287,1.381713,284.37506,287.48843,287.49026,289.49194,7.253363,289.49234,290.29694
29,29,4,2,2,0,5.000000e-01,2.422500e+00,1.0,28.0,290.40485,2.0,2,292.08975,low,1.6849099,1.3150901,292.61072,295.65463,295.65637,297.6586,7.2537627,297.659,300.07693
30,30,4,0,3,0,2,8.075000e-01,1.0,29.0,300.2226,1.0,4,301.74017,high,1.5176038,1.4823962,302.25885,306.97293,306.9747,308.977,8.754402,308.97736,309.78094
31,31,2,8,1,1,5.000000e-01,8.075000e-01,1.0,30.0,309.7868,1.0,2,311.32346,low,1.5366467,1.4633533,311.84207,315.03687,315.03882,317.041,7.2541733,317.04135,317.84506
32,32,0,8,1,1,3.500000e+00,7.267500e+00,1.0,31.0,317.84842,2.0,8,319.79013,high,1.9417046,1.0582954,320.30908,326.09894,326.09933,328.1016,10.253188,328.102,335.36694
33,33,8,0,2,1,2,8.075000e-01,1.0,32.0,335.47614,1.0,8,337.02274,high,1.54662,1.45338,337.54324,342.22693,342.22885,344.23062,8.754478,344.231,345.0341
34,34,8,4,1,1,2,8.075000e-01,1.0,33.0,345.0384,2.0,4,346.85657,low,1.8181971,1.1818029,347.3755,351.7884,351.79034,353.79184,8.753455,353.7922,354.59708
35,35,8,0,3,0,2,8.075000e-01,1.0,34.0,354.74213,1.0,8,356.2564,high,1.5142941,1.4857059,356.77515,361.49295,361.49475,363.49734,8.755217,363.49774,364.29996
36,36,8,2,1,0,2,8.882500e+00,1.0,35.0,364.30463,2.0,2,366.03958,low,1.7349399,1.2650601,366.55978,371.05594,371.05807,373.05994,8.755302,373.0603,381.93765
37,37,8,2,2,1,5.000000e-01,4.037500e+00,1.0,36.0,382.04425,2.0,2,383.77325,low,1.7290101,1.2709899,384.29193,387.29456,387.29642,389.29803,7.253783,389.2984,393.3317
38,38,2,0,2,0,3.500000e+00,2.422500e+00,1.0,37.0,393.44003,1.0,2,395.02332,high,1.5832859,1.4167141,395.54184,401.6906,401.69235,403.69595,10.255926,403.69635,406.1127
39,39,4,8,2,0,5.000000e-01,2.422500e+00,1.0,38.0,406.22195,2.0,8,407.82324,high,1.6012845,1.3987155,408.34317,411.4722,411.4726,413.47476,7.2528014,413.47516,415.89484
40,40,2,8,1,0,5.000000e-01,8.075000e-01,1.0,39.0,415.89905,2.0,8,418.32318,high,2.4241338,0.5758663,418.84308,421.14908,421.151,423.15292,7.2538905,423.15332,423.95706
41,41,0,4,3,1,5.000000e-01,4.037500e+00,1.0,40.0,424.10294,2.0,4,425.7232,high,1.6202674,1.3797326,426.2426,429.35287,429.35477,431.35696,7.254022,431.35733,435.391
42,42,8,2,2,0,5.000000e-01,2.422500e+00,1.0,41.0,435.50055,1.0,8,437.17322,high,1.6726733,1.3273267,437.69205,440.7511,440.7528,442.7548,7.2542305,442.75516,445.17395
