instrText,stimDoor,stimDoorLure,stimFace,stimFaceLure,Instructions.thisRepN,Instructions.thisTrialN,Instructions.thisN,Instructions.thisIndex,Trials.thisRepN,Trials.thisTrialN,Trials.thisN,Trials.thisIndex,Func,Keys,Text,RespTime,Onset,Offset,SystemTime_Start,SystemTime_Stop,Stim,Lure,Participant*,Age,date,expName,psychopyVersion,frameRate,
"In the earlier Feedback Games, you chose which doors contained a prize, and which peers liked you. 

You then saw positive or negative feedback (green check mark or red X) from the door or peer you selected.

You will now see a series of doors and peers, some of which you saw during the earlier Feedback Games, and some that you have never seen before.

Please press the spacebar to continue.",,,,,0,0,0,0,,,,,instrFunc,space,"In the earlier Feedback Games, you chose which doors contained a prize, and which peers liked you. 

You then saw positive or negative feedback (green check mark or red X) from the door or peer you selected.

You will now see a series of doors and peers, some of which you saw during the earlier Feedback Games, and some that you have never seen before.

Please press the spacebar to continue.",19.85188820026815,26.211235699709505,46.10495924483985,2024-03-06 15:20:12.643357,2024-03-06 15:20:32.537554,,,10952,30-49,2024-03-06_15h20.08.152,Recall,2021.2.3,59.92875676541863,
"For doors/peers that you remember selecting and getting feedback from, your job is to RECALL what feedback you received. 

Press '1' if you recall positive feedback. 

Press '2' if you recall negative feedback

Press the spacebar to continue.",,,,,0,1,1,1,,,,,instrFunc,space,"For doors/peers that you remember selecting and getting feedback from, your job is to RECALL what feedback you received. 

Press '1' if you recall positive feedback. 

Press '2' if you recall negative feedback

Press the spacebar to continue.",21.3533071000129,46.093813499901444,67.50623587984592,2024-03-06 15:20:32.538575,2024-03-06 15:20:53.935917,,,10952,30-49,2024-03-06_15h20.08.152,Recall,2021.2.3,59.92875676541863,
"For doors/peers that you don't remember getting feedback from, your job is to PREDICT what feedback you WOULD HAVE received.

Press '9' if you predict positive feedback.

Press '0' if you predict negative feedback. 

Please press the spacebar to continue.",,,,,0,2,2,2,,,,,instrFunc,space,"For doors/peers that you don't remember getting feedback from, your job is to PREDICT what feedback you WOULD HAVE received.

Press '9' if you predict positive feedback.

Press '0' if you predict negative feedback. 

Please press the spacebar to continue.",15.674479700159281,67.49230640009046,83.21786727989092,2024-03-06 15:20:53.936918,2024-03-06 15:21:09.647012,,,10952,30-49,2024-03-06_15h20.08.152,Recall,2021.2.3,59.92875676541863,
"This task is self-paced, and the prompts will always stay on the screen so that you know which buttons to press.

On the next screen we will show you what those prompts look like, so that you know exactly what to expect. 

You will start with either doors or peers, and then switch halfway through. 

Please press the spacebar to continue.",,,,,0,3,3,3,,,,,instrFunc,space,"This task is self-paced, and the prompts will always stay on the screen so that you know which buttons to press.

On the next screen we will show you what those prompts look like, so that you know exactly what to expect. 

You will start with either doors or peers, and then switch halfway through. 

Please press the spacebar to continue.",13.727614600211382,83.19959540013224,96.97432577982545,2024-03-06 15:21:09.647979,2024-03-06 15:21:23.407350,,,10952,30-49,2024-03-06_15h20.08.152,Recall,2021.2.3,59.92875676541863,
,,,,,,,,,,,,,imgtextFunc,space,"Here is what the screen will look like while you make your ratings.
The green circles remind you to press 1 or 9 for positive feedback.
The red circles remind you to press 2 or 0 for negative feedback.









Please let the experimenter know if you have any questions.

Whenever you're ready, press the spacebar to start the task.",24.244568800088018,97.11460680002347,121.5425269799307,2024-03-06 15:21:23.419158,2024-03-06 15:21:47.842618,,,10952,30-49,2024-03-06_15h20.08.152,Recall,2021.2.3,59.92875676541863,
,L_SD501.jpg,1,L_MF501.jpg,1,,,,,0,0,0,90,imgFunc,0,NA,7.061696699820459,121.52149759978056,128.70396523969248,2024-03-06 15:21:47.886805,2024-03-06 15:21:55.063962,L_SD501.jpg,1,10952,30-49,2024-03-06_15h20.08.152,Recall,2021.2.3,59.92875676541863,
,L_DD501.jpg,1,L_FF501.jpg,1,,,,,0,1,1,40,imgFunc,1,NA,3.7402130998671055,128.68265589978546,132.51401227992028,2024-03-06 15:21:55.074414,2024-03-06 15:21:58.899486,L_DD501.jpg,1,10952,30-49,2024-03-06_15h20.08.152,Recall,2021.2.3,59.92875676541863,
,SD011.jpg,0,MF011.jpg,0,,,,,0,2,2,60,imgFunc,2,NA,2.8067189999856055,132.52010380011052,135.43956997990608,2024-03-06 15:21:58.907431,2024-03-06 15:22:01.819006,SD011.jpg,0,10952,30-49,2024-03-06_15h20.08.152,Recall,2021.2.3,59.92875676541863,
,DD008.jpg,0,FF008.jpg,0,,,,,0,3,3,7,imgFunc,9,NA,3.6149381999857724,135.44011319987476,139.14913597982377,2024-03-06 15:22:01.831995,2024-03-06 15:22:05.538192,DD008.jpg,0,10952,30-49,2024-03-06_15h20.08.152,Recall,2021.2.3,59.92875676541863,
,SD030.jpg,0,MF030.jpg,0,,,,,0,4,4,79,imgFunc,2,NA,3.396980999968946,139.15388999972492,142.65726367989555,2024-03-06 15:22:05.545197,2024-03-06 15:22:09.040425,SD030.jpg,0,10952,30-49,2024-03-06_15h20.08.152,Recall,2021.2.3,59.92875676541863,
,SD001.jpg,0,MF001.jpg,0,,,,,0,5,5,50,imgFunc,1,NA,2.5328416996635497,142.65013800002635,145.2699932800606,2024-03-06 15:22:09.048396,2024-03-06 15:22:11.659447,SD001.jpg,0,10952,30-49,2024-03-06_15h20.08.152,Recall,2021.2.3,59.92875676541863,
,L_DD502.jpg,1,L_FF502.jpg,1,,,,,0,6,6,41,imgFunc,9,NA,3.8838515002280474,145.26724459975958,149.2379111801274,2024-03-06 15:22:11.666430,2024-03-06 15:22:15.628982,L_DD502.jpg,1,10952,30-49,2024-03-06_15h20.08.152,Recall,2021.2.3,59.92875676541863,
,SD032.jpg,0,MF032.jpg,0,,,,,0,7,7,81,imgFunc,1,NA,6.149139600340277,149.25787879992276,155.49926958000287,2024-03-06 15:22:15.643945,2024-03-06 15:22:21.883451,SD032.jpg,0,10952,30-49,2024-03-06_15h20.08.152,Recall,2021.2.3,59.92875676541863,
,SD020.jpg,0,MF020.jpg,0,,,,,0,8,8,69,imgFunc,2,NA,4.2161854999139905,155.50304869981483,159.82054538000375,2024-03-06 15:22:21.892429,2024-03-06 15:22:26.202982,SD020.jpg,0,10952,30-49,2024-03-06_15h20.08.152,Recall,2021.2.3,59.92875676541863,
,L_DD509.jpg,1,L_FF509.jpg,1,,,,,0,9,9,48,imgFunc,1,NA,1.7863652999512851,159.82893149973825,161.73111577983946,2024-03-06 15:22:26.210962,2024-03-06 15:22:28.104493,L_DD509.jpg,1,10952,30-49,2024-03-06_15h20.08.152,Recall,2021.2.3,59.92875676541863,
,L_SD502.jpg,1,L_MF502.jpg,1,,,,,0,10,10,91,imgFunc,0,NA,8.451809199992567,161.73125990014523,170.28930748067796,2024-03-06 15:22:28.111476,2024-03-06 15:22:36.660945,L_SD502.jpg,1,10952,30-49,2024-03-06_15h20.08.152,Recall,2021.2.3,59.92875676541863,
,DD004.jpg,0,FF004.jpg,0,,,,,0,11,11,3,imgFunc,9,NA,5.2612200002186,170.2980331000872,175.68322567967698,2024-03-06 15:22:36.669923,2024-03-06 15:22:42.048053,DD004.jpg,0,10952,30-49,2024-03-06_15h20.08.152,Recall,2021.2.3,59.92875676541863,
,DD011.jpg,0,FF011.jpg,0,,,,,0,12,12,10,imgFunc,1,NA,5.791366800200194,175.69577499991283,181.6162500595674,2024-03-06 15:22:42.064012,2024-03-06 15:22:47.968616,DD011.jpg,0,10952,30-49,2024-03-06_15h20.08.152,Recall,2021.2.3,59.92875676541863,
,DD036.jpg,0,FF036.jpg,0,,,,,0,13,13,35,imgFunc,1,NA,2.9522592001594603,181.5827025999315,184.63319757999852,2024-03-06 15:22:47.977593,2024-03-06 15:22:51.021041,DD036.jpg,0,10952,30-49,2024-03-06_15h20.08.152,Recall,2021.2.3,59.92875676541863,
,L_SD509.jpg,1,L_MF509.jpg,1,,,,,0,14,14,98,imgFunc,0,NA,3.1591559001244605,184.6399910999462,187.9102280801162,2024-03-06 15:22:51.029021,2024-03-06 15:22:54.290235,L_SD509.jpg,1,10952,30-49,2024-03-06_15h20.08.152,Recall,2021.2.3,59.92875676541863,
,DD033.jpg,0,FF033.jpg,0,,,,,0,15,15,32,imgFunc,9,NA,2.5800525001250207,187.91502159973606,190.60123097943142,2024-03-06 15:22:54.298216,2024-03-06 15:22:56.975461,DD033.jpg,0,10952,30-49,2024-03-06_15h20.08.152,Recall,2021.2.3,59.92875676541863,
,L_DD504.jpg,1,L_FF504.jpg,1,,,,,0,16,16,43,imgFunc,9,NA,6.666731299832463,190.60446659987792,197.394089079462,2024-03-06 15:22:56.982444,2024-03-06 15:23:03.763765,L_DD504.jpg,1,10952,30-49,2024-03-06_15h20.08.152,Recall,2021.2.3,59.92875676541863,
,SD012.jpg,0,MF012.jpg,0,,,,,0,17,17,61,imgFunc,0,NA,1.8077044999226928,197.41516460012645,199.35020348010585,2024-03-06 15:23:03.779724,2024-03-06 15:23:05.715212,SD012.jpg,0,10952,30-49,2024-03-06_15h20.08.152,Recall,2021.2.3,59.92875676541863,
,DD017.jpg,0,FF017.jpg,0,,,,,0,18,18,16,imgFunc,0,NA,5.95550539996475,199.32366599980742,205.3796048797667,2024-03-06 15:23:05.722195,2024-03-06 15:23:11.769385,DD017.jpg,0,10952,30-49,2024-03-06_15h20.08.152,Recall,2021.2.3,59.92875676541863,
,DD032.jpg,0,FF032.jpg,0,,,,,0,19,19,31,imgFunc,1,NA,2.4370255996473134,205.38612999999896,207.91818627994508,2024-03-06 15:23:11.779361,2024-03-06 15:23:14.304718,DD032.jpg,0,10952,30-49,2024-03-06_15h20.08.152,Recall,2021.2.3,59.92875676541863,
,DD030.jpg,0,FF030.jpg,0,,,,,0,20,20,29,imgFunc,1,NA,1.787177899852395,207.9319851999171,209.83264757925645,2024-03-06 15:23:14.312699,2024-03-06 15:23:16.206294,DD030.jpg,0,10952,30-49,2024-03-06_15h20.08.152,Recall,2021.2.3,59.92875676541863,
,DD027.jpg,0,FF027.jpg,0,,,,,0,21,21,26,imgFunc,2,NA,2.096345600206405,209.8388757999055,212.05638797953725,2024-03-06 15:23:16.214274,2024-03-06 15:23:18.424271,DD027.jpg,0,10952,30-49,2024-03-06_15h20.08.152,Recall,2021.2.3,59.92875676541863,
,SD028.jpg,0,MF028.jpg,0,,,,,0,22,22,77,imgFunc,2,NA,2.3217253000475466,212.03754259971902,214.45492037991062,2024-03-06 15:23:18.433249,2024-03-06 15:23:20.842632,SD028.jpg,0,10952,30-49,2024-03-06_15h20.08.152,Recall,2021.2.3,59.92875676541863,
,DD013.jpg,0,FF013.jpg,0,,,,,0,23,23,12,imgFunc,9,NA,5.091091100126505,214.45217279996723,219.6406350801699,2024-03-06 15:23:20.849615,2024-03-06 15:23:26.029776,DD013.jpg,0,10952,30-49,2024-03-06_15h20.08.152,Recall,2021.2.3,59.92875676541863,
,SD004.jpg,0,MF004.jpg,0,,,,,0,24,24,53,imgFunc,0,NA,3.716949400026351,219.65025730011985,223.4670711797662,2024-03-06 15:23:26.038754,2024-03-06 15:23:29.849026,SD004.jpg,0,10952,30-49,2024-03-06_15h20.08.152,Recall,2021.2.3,59.92875676541863,
,SD021.jpg,0,MF021.jpg,0,,,,,0,25,25,70,imgFunc,9,NA,5.9426504001021385,223.47263190010563,229.52535407990217,2024-03-06 15:23:29.858004,2024-03-06 15:23:35.903407,SD021.jpg,0,10952,30-49,2024-03-06_15h20.08.152,Recall,2021.2.3,59.92875676541863,
,SD023.jpg,0,MF023.jpg,0,,,,,0,26,26,72,imgFunc,1,NA,2.03564010001719,229.54766219994053,231.70259117987007,2024-03-06 15:23:35.918369,2024-03-06 15:23:38.071856,SD023.jpg,0,10952,30-49,2024-03-06_15h20.08.152,Recall,2021.2.3,59.92875676541863,
,SD022.jpg,0,MF022.jpg,0,,,,,0,27,27,71,imgFunc,2,NA,1.5236245999112725,231.6832574000582,233.30226228013635,2024-03-06 15:23:38.078840,2024-03-06 15:23:39.689036,SD022.jpg,0,10952,30-49,2024-03-06_15h20.08.152,Recall,2021.2.3,59.92875676541863,
,DD018.jpg,0,FF018.jpg,0,,,,,0,28,28,17,imgFunc,1,NA,2.3059940999373794,233.30124519998208,235.7043614797294,2024-03-06 15:23:39.697017,2024-03-06 15:23:42.091148,DD018.jpg,0,10952,30-49,2024-03-06_15h20.08.152,Recall,2021.2.3,59.92875676541863,
,SD018.jpg,0,MF018.jpg,0,,,,,0,29,29,67,imgFunc,0,NA,9.653234699741006,235.70598520012572,245.46491768024862,2024-03-06 15:23:42.098135,2024-03-06 15:23:51.847901,SD018.jpg,0,10952,30-49,2024-03-06_15h20.08.152,Recall,2021.2.3,59.92875676541863,
,SD016.jpg,0,MF016.jpg,0,,,,,0,30,30,65,imgFunc,1,NA,4.217150300275534,245.47785210004076,249.810944379773,2024-03-06 15:23:51.857898,2024-03-06 15:23:56.184591,SD016.jpg,0,10952,30-49,2024-03-06_15h20.08.152,Recall,2021.2.3,59.92875676541863,
,L_DD505.jpg,1,L_FF505.jpg,1,,,,,0,31,31,44,imgFunc,0,NA,5.075775099918246,249.81920589972287,255.02088095946237,2024-03-06 15:23:56.201576,2024-03-06 15:24:01.388382,L_DD505.jpg,1,10952,30-49,2024-03-06_15h20.08.152,Recall,2021.2.3,59.92875676541863,
,DD014.jpg,0,FF014.jpg,0,,,,,0,32,32,13,imgFunc,1,NA,4.932966699823737,255.0022013997659,260.0373591799289,2024-03-06 15:24:01.397357,2024-03-06 15:24:06.425509,DD014.jpg,0,10952,30-49,2024-03-06_15h20.08.152,Recall,2021.2.3,59.92875676541863,
,DD029.jpg,0,FF029.jpg,0,,,,,0,33,33,28,imgFunc,0,NA,7.323312200140208,260.05981059977785,267.4968826798722,2024-03-06 15:24:06.434487,2024-03-06 15:24:13.864177,DD029.jpg,0,10952,30-49,2024-03-06_15h20.08.152,Recall,2021.2.3,59.92875676541863,
,DD015.jpg,0,FF015.jpg,0,,,,,0,34,34,14,imgFunc,1,NA,1.9365599998272955,267.4946773997508,269.5447148797102,2024-03-06 15:24:13.873155,2024-03-06 15:24:15.915820,DD015.jpg,0,10952,30-49,2024-03-06_15h20.08.152,Recall,2021.2.3,59.92875676541863,
,SD040.jpg,0,MF040.jpg,0,,,,,0,35,35,89,imgFunc,1,NA,1.5464442996308208,269.532748399768,271.18552607949823,2024-03-06 15:24:15.922803,2024-03-06 15:24:17.566803,SD040.jpg,0,10952,30-49,2024-03-06_15h20.08.152,Recall,2021.2.3,59.92875676541863,
,DD021.jpg,0,FF021.jpg,0,,,,,0,36,36,20,imgFunc,1,NA,1.5727478000335395,271.1945245000534,272.8654768797569,2024-03-06 15:24:17.581765,2024-03-06 15:24:19.251359,DD021.jpg,0,10952,30-49,2024-03-06_15h20.08.152,Recall,2021.2.3,59.92875676541863,
,DD020.jpg,0,FF020.jpg,0,,,,,0,37,37,19,imgFunc,9,NA,2.719249499961734,272.8640231001191,275.68282148009166,2024-03-06 15:24:19.259339,2024-03-06 15:24:22.070364,DD020.jpg,0,10952,30-49,2024-03-06_15h20.08.152,Recall,2021.2.3,59.92875676541863,
,SD014.jpg,0,MF014.jpg,0,,,,,0,38,38,63,imgFunc,2,NA,2.7334390999749303,275.68173420010135,278.518549580127,2024-03-06 15:24:22.077347,2024-03-06 15:24:24.905585,SD014.jpg,0,10952,30-49,2024-03-06_15h20.08.152,Recall,2021.2.3,59.92875676541863,
,DD023.jpg,0,FF023.jpg,0,,,,,0,39,39,22,imgFunc,0,NA,2.7229558997787535,278.5163143998943,281.3360699801706,2024-03-06 15:24:24.912579,2024-03-06 15:24:27.724337,DD023.jpg,0,10952,30-49,2024-03-06_15h20.08.152,Recall,2021.2.3,59.92875676541863,
,L_SD510.jpg,1,L_MF510.jpg,1,,,,,0,40,40,99,imgFunc,0,NA,2.5293115000240505,281.3497799998149,283.98599797999486,2024-03-06 15:24:27.731322,2024-03-06 15:24:30.359450,L_SD510.jpg,1,10952,30-49,2024-03-06_15h20.08.152,Recall,2021.2.3,59.92875676541863,
,SD024.jpg,0,MF024.jpg,0,,,,,0,41,41,73,imgFunc,2,NA,3.2055902001447976,283.96976629970595,287.27318558003753,2024-03-06 15:24:30.367432,2024-03-06 15:24:33.662000,SD024.jpg,0,10952,30-49,2024-03-06_15h20.08.152,Recall,2021.2.3,59.92875676541863,
,SD037.jpg,0,MF037.jpg,0,,,,,0,42,42,86,imgFunc,2,NA,1.7953838999383152,287.27585119986907,289.1786752799526,2024-03-06 15:24:33.668983,2024-03-06 15:24:35.563132,SD037.jpg,0,10952,30-49,2024-03-06_15h20.08.152,Recall,2021.2.3,59.92875676541863,
,L_DD506.jpg,1,L_FF506.jpg,1,,,,,0,43,43,45,imgFunc,0,NA,1.4659647000953555,289.1732498998754,290.74296248005703,2024-03-06 15:24:35.570116,2024-03-06 15:24:37.131206,L_DD506.jpg,1,10952,30-49,2024-03-06_15h20.08.152,Recall,2021.2.3,59.92875676541863,
,DD034.jpg,0,FF034.jpg,0,,,,,0,44,44,33,imgFunc,1,NA,4.0548519003205,290.74446769990027,294.89883567998186,2024-03-06 15:24:37.138189,2024-03-06 15:24:41.284068,DD034.jpg,0,10952,30-49,2024-03-06_15h20.08.152,Recall,2021.2.3,59.92875676541863,
,SD013.jpg,0,MF013.jpg,0,,,,,0,45,45,62,imgFunc,0,NA,2.3151095998473465,294.90804979996756,297.31469577969983,2024-03-06 15:24:41.298066,2024-03-06 15:24:43.702575,SD013.jpg,0,10952,30-49,2024-03-06_15h20.08.152,Recall,2021.2.3,59.92875676541863,
,SD017.jpg,0,MF017.jpg,0,,,,,0,46,46,66,imgFunc,1,NA,1.6728769997134805,297.31045550014824,299.07913258019835,2024-03-06 15:24:43.710583,2024-03-06 15:24:45.470172,SD017.jpg,0,10952,30-49,2024-03-06_15h20.08.152,Recall,2021.2.3,59.92875676541863,
,SD027.jpg,0,MF027.jpg,0,,,,,0,47,47,76,imgFunc,0,NA,3.25807339977473,299.0772040998563,302.43113937973976,2024-03-06 15:24:45.477179,2024-03-06 15:24:48.822729,SD027.jpg,0,10952,30-49,2024-03-06_15h20.08.152,Recall,2021.2.3,59.92875676541863,
,DD031.jpg,0,FF031.jpg,0,,,,,0,48,48,30,imgFunc,9,NA,1.5968116000294685,302.4424707000144,304.14491517981514,2024-03-06 15:24:48.829712,2024-03-06 15:24:50.523818,DD031.jpg,0,10952,30-49,2024-03-06_15h20.08.152,Recall,2021.2.3,59.92875676541863,
,SD009.jpg,0,MF009.jpg,0,,,,,0,49,49,58,imgFunc,1,NA,1.6190283000469208,304.14022559998557,305.85879438044503,2024-03-06 15:24:50.531821,2024-03-06 15:24:52.241884,SD009.jpg,0,10952,30-49,2024-03-06_15h20.08.152,Recall,2021.2.3,59.92875676541863,
,SD008.jpg,0,MF008.jpg,0,,,,,0,50,50,57,imgFunc,1,NA,1.0795753998681903,305.87168999994174,307.0581261799671,2024-03-06 15:24:52.256876,2024-03-06 15:24:53.442560,SD008.jpg,0,10952,30-49,2024-03-06_15h20.08.152,Recall,2021.2.3,59.92875676541863,
,L_DD503.jpg,1,L_FF503.jpg,1,,,,,0,51,51,42,imgFunc,0,NA,1.1688834996894002,307.05442530009896,308.3159538800828,2024-03-06 15:24:53.453560,2024-03-06 15:24:54.710174,L_DD503.jpg,1,10952,30-49,2024-03-06_15h20.08.152,Recall,2021.2.3,59.92875676541863,
,L_SD503.jpg,1,L_MF503.jpg,1,,,,,0,52,52,92,imgFunc,1,NA,7.593697899952531,308.31763319997117,316.00779028004035,2024-03-06 15:24:54.718015,2024-03-06 15:25:02.399075,L_SD503.jpg,1,10952,30-49,2024-03-06_15h20.08.152,Recall,2021.2.3,59.92875676541863,
,L_DD507.jpg,1,L_FF507.jpg,1,,,,,0,53,53,46,imgFunc,1,NA,1.5973885003477335,316.0179471001029,317.7173025798984,2024-03-06 15:25:02.408065,2024-03-06 15:25:04.100338,L_DD507.jpg,1,10952,30-49,2024-03-06_15h20.08.152,Recall,2021.2.3,59.92875676541863,
,SD010.jpg,0,MF010.jpg,0,,,,,0,54,54,59,imgFunc,2,NA,2.134531599935144,317.7206553998403,319.955783479847,2024-03-06 15:25:04.108340,2024-03-06 15:25:06.335498,SD010.jpg,0,10952,30-49,2024-03-06_15h20.08.152,Recall,2021.2.3,59.92875676541863,
,SD035.jpg,0,MF035.jpg,0,,,,,0,55,55,84,imgFunc,2,NA,1.1121966000646353,319.95893379999325,321.17674545990303,2024-03-06 15:25:06.352455,2024-03-06 15:25:07.553348,SD035.jpg,0,10952,30-49,2024-03-06_15h20.08.152,Recall,2021.2.3,59.92875676541863,
,SD007.jpg,0,MF007.jpg,0,,,,,0,56,56,56,imgFunc,0,NA,2.1028883000835776,321.1680283998139,323.3683788799681,2024-03-06 15:25:07.561358,2024-03-06 15:25:09.754400,SD007.jpg,0,10952,30-49,2024-03-06_15h20.08.152,Recall,2021.2.3,59.92875676541863,
,DD022.jpg,0,FF022.jpg,0,,,,,0,57,57,21,imgFunc,0,NA,2.0984570998698473,323.3645568001084,325.5674950797111,2024-03-06 15:25:09.762403,2024-03-06 15:25:11.956367,DD022.jpg,0,10952,30-49,2024-03-06_15h20.08.152,Recall,2021.2.3,59.92875676541863,
,DD003.jpg,0,FF003.jpg,0,,,,,0,58,58,2,imgFunc,9,NA,1.0863017002120614,325.5606196997687,326.7464913800359,2024-03-06 15:25:11.963351,2024-03-06 15:25:13.140156,DD003.jpg,0,10952,30-49,2024-03-06_15h20.08.152,Recall,2021.2.3,59.92875676541863,
,SD015.jpg,0,MF015.jpg,0,,,,,0,59,59,64,imgFunc,9,NA,1.0366919999942183,326.75448769982904,327.88964077970013,2024-03-06 15:25:13.148159,2024-03-06 15:25:14.274328,SD015.jpg,0,10952,30-49,2024-03-06_15h20.08.152,Recall,2021.2.3,59.92875676541863,
,L_SD504.jpg,1,L_MF504.jpg,1,,,,,0,60,60,93,imgFunc,1,NA,2.283611500170082,327.89941809978336,330.30273468000814,2024-03-06 15:25:14.281311,2024-03-06 15:25:16.675734,L_SD504.jpg,1,10952,30-49,2024-03-06_15h20.08.152,Recall,2021.2.3,59.92875676541863,
,L_SD508.jpg,1,L_MF508.jpg,1,,,,,0,61,61,97,imgFunc,0,NA,1.498366799671203,330.30075519997627,331.9031262798235,2024-03-06 15:25:16.683687,2024-03-06 15:25:18.277552,L_SD508.jpg,1,10952,30-49,2024-03-06_15h20.08.152,Recall,2021.2.3,59.92875676541863,
,DD040.jpg,0,FF040.jpg,0,,,,,0,62,62,39,imgFunc,0,NA,1.970277199987322,331.8849168000743,333.9543596794829,2024-03-06 15:25:18.284482,2024-03-06 15:25:20.345534,DD040.jpg,0,10952,30-49,2024-03-06_15h20.08.152,Recall,2021.2.3,59.92875676541863,
,L_SD507.jpg,1,L_MF507.jpg,1,,,,,0,63,63,96,imgFunc,1,NA,1.831409899983555,333.9518296001479,335.86981227993965,2024-03-06 15:25:20.353518,2024-03-06 15:25:22.263868,L_SD507.jpg,1,10952,30-49,2024-03-06_15h20.08.152,Recall,2021.2.3,59.92875676541863,
,DD010.jpg,0,FF010.jpg,0,,,,,0,64,64,9,imgFunc,9,NA,3.0541655998677015,335.88102679979056,339.02395367994905,2024-03-06 15:25:22.276835,2024-03-06 15:25:25.416421,DD010.jpg,0,10952,30-49,2024-03-06_15h20.08.152,Recall,2021.2.3,59.92875676541863,
,DD016.jpg,0,FF016.jpg,0,,,,,0,65,65,15,imgFunc,2,NA,2.7419957001693547,339.0253245998174,341.8619566797279,2024-03-06 15:25:25.423404,2024-03-06 15:25:28.251053,DD016.jpg,0,10952,30-49,2024-03-06_15h20.08.152,Recall,2021.2.3,59.92875676541863,
,DD009.jpg,0,FF009.jpg,0,,,,,0,66,66,8,imgFunc,1,NA,2.4932185001671314,341.8580811000429,344.44439178006724,2024-03-06 15:25:28.258895,2024-03-06 15:25:30.836312,DD009.jpg,0,10952,30-49,2024-03-06_15h20.08.152,Recall,2021.2.3,59.92875676541863,
,DD007.jpg,0,FF007.jpg,0,,,,,0,67,67,6,imgFunc,0,NA,2.154714500065893,344.4523384999484,346.70506787952036,2024-03-06 15:25:30.844297,2024-03-06 15:25:33.087948,DD007.jpg,0,10952,30-49,2024-03-06_15h20.08.152,Recall,2021.2.3,59.92875676541863,
,DD012.jpg,0,FF012.jpg,0,,,,,0,68,68,11,imgFunc,1,NA,2.40335759986192,346.69178659981117,349.1788409803994,2024-03-06 15:25:33.094932,2024-03-06 15:25:35.572871,DD012.jpg,0,10952,30-49,2024-03-06_15h20.08.152,Recall,2021.2.3,59.92875676541863,
,DD001.jpg,0,FF001.jpg,0,,,,,0,69,69,0,imgFunc,1,NA,2.3368119997903705,349.1981203998439,351.6363242799416,2024-03-06 15:25:35.587856,2024-03-06 15:25:38.024944,DD001.jpg,0,10952,30-49,2024-03-06_15h20.08.152,Recall,2021.2.3,59.92875676541863,
,DD026.jpg,0,FF026.jpg,0,,,,,0,70,70,25,imgFunc,0,NA,3.18543710000813,351.6457433998585,354.9330226802267,2024-03-06 15:25:38.031954,2024-03-06 15:25:41.310902,DD026.jpg,0,10952,30-49,2024-03-06_15h20.08.152,Recall,2021.2.3,59.92875676541863,
,SD003.jpg,0,MF003.jpg,0,,,,,0,71,71,52,imgFunc,0,NA,0.902155399788171,354.9130688998848,355.8987678796984,2024-03-06 15:25:41.317886,2024-03-06 15:25:42.294905,SD003.jpg,0,10952,30-49,2024-03-06_15h20.08.152,Recall,2021.2.3,59.92875676541863,
,L_DD508.jpg,1,L_FF508.jpg,1,,,,,0,72,72,47,imgFunc,1,NA,2.9534527002833784,355.90184170007706,358.95453648036346,2024-03-06 15:25:42.302907,2024-03-06 15:25:45.347012,L_DD508.jpg,1,10952,30-49,2024-03-06_15h20.08.152,Recall,2021.2.3,59.92875676541863,
,DD019.jpg,0,FF019.jpg,0,,,,,0,73,73,18,imgFunc,0,NA,1.9825769001618028,358.96068349992856,361.0471608801745,2024-03-06 15:25:45.353995,2024-03-06 15:25:47.431728,DD019.jpg,0,10952,30-49,2024-03-06_15h20.08.152,Recall,2021.2.3,59.92875676541863,
,DD024.jpg,0,FF024.jpg,0,,,,,0,74,74,23,imgFunc,2,NA,1.8275407003238797,361.05964200012386,362.9816241799854,2024-03-06 15:25:47.446690,2024-03-06 15:25:49.366857,DD024.jpg,0,10952,30-49,2024-03-06_15h20.08.152,Recall,2021.2.3,59.92875676541863,
,SD019.jpg,0,MF019.jpg,0,,,,,0,75,75,68,imgFunc,1,NA,1.2747851996682584,362.980421599932,364.349662380293,2024-03-06 15:25:49.373840,2024-03-06 15:25:50.733948,SD019.jpg,0,10952,30-49,2024-03-06_15h20.08.152,Recall,2021.2.3,59.92875676541863,
,SD031.jpg,0,MF031.jpg,0,,,,,0,76,76,80,imgFunc,0,NA,2.533041900023818,364.33826739992946,366.95819437969476,2024-03-06 15:25:50.741950,2024-03-06 15:25:53.352691,SD031.jpg,0,10952,30-49,2024-03-06_15h20.08.152,Recall,2021.2.3,59.92875676541863,
,L_SD506.jpg,1,L_MF506.jpg,1,,,,,0,77,77,95,imgFunc,9,NA,0.8650787998922169,366.95811769971624,367.9109385800548,2024-03-06 15:25:53.359674,2024-03-06 15:25:54.303622,L_SD506.jpg,1,10952,30-49,2024-03-06_15h20.08.152,Recall,2021.2.3,59.92875676541863,
,DD037.jpg,0,FF037.jpg,0,,,,,0,78,78,36,imgFunc,1,NA,3.574706899933517,367.920343299862,371.6077938801609,2024-03-06 15:25:54.310605,2024-03-06 15:25:57.989134,DD037.jpg,0,10952,30-49,2024-03-06_15h20.08.152,Recall,2021.2.3,59.92875676541863,
,SD002.jpg,0,MF002.jpg,0,,,,,0,79,79,51,imgFunc,2,NA,1.333347000181675,371.5938455997966,373.0131636802107,2024-03-06 15:25:57.996126,2024-03-06 15:25:59.407139,SD002.jpg,0,10952,30-49,2024-03-06_15h20.08.152,Recall,2021.2.3,59.92875676541863,
,DD005.jpg,0,FF005.jpg,0,,,,,0,80,80,4,imgFunc,0,NA,1.893223199993372,373.0178923001513,375.0039585796185,2024-03-06 15:25:59.414122,2024-03-06 15:26:01.391912,DD005.jpg,0,10952,30-49,2024-03-06_15h20.08.152,Recall,2021.2.3,59.92875676541863,
,SD005.jpg,0,MF005.jpg,0,,,,,0,81,81,54,imgFunc,0,NA,2.433506099972874,374.997713400051,377.5171594801359,2024-03-06 15:26:01.399892,2024-03-06 15:26:03.910100,SD005.jpg,0,10952,30-49,2024-03-06_15h20.08.152,Recall,2021.2.3,59.92875676541863,
,DD038.jpg,0,FF038.jpg,0,,,,,0,82,82,37,imgFunc,1,NA,4.933472500182688,377.52972880005836,382.56756408000365,2024-03-06 15:26:03.918081,2024-03-06 15:26:08.947036,DD038.jpg,0,10952,30-49,2024-03-06_15h20.08.152,Recall,2021.2.3,59.92875676541863,
,SD033.jpg,0,MF033.jpg,0,,,,,0,83,83,82,imgFunc,1,NA,1.437210200354457,382.6017605001107,384.17131888028234,2024-03-06 15:26:08.961997,2024-03-06 15:26:10.531212,SD033.jpg,0,10952,30-49,2024-03-06_15h20.08.152,Recall,2021.2.3,59.92875676541863,
,DD006.jpg,0,FF006.jpg,0,,,,,0,84,84,5,imgFunc,0,NA,1.983896799851209,384.13537150016055,386.2053697803058,2024-03-06 15:26:10.538221,2024-03-06 15:26:12.599998,DD006.jpg,0,10952,30-49,2024-03-06_15h20.08.152,Recall,2021.2.3,59.92875676541863,
,SD034.jpg,0,MF034.jpg,0,,,,,0,85,85,83,imgFunc,0,NA,2.348837200086564,386.2024650997482,388.63958057994023,2024-03-06 15:26:12.606981,2024-03-06 15:26:15.035143,SD034.jpg,0,10952,30-49,2024-03-06_15h20.08.152,Recall,2021.2.3,59.92875676541863,
,SD036.jpg,0,MF036.jpg,0,,,,,0,86,86,85,imgFunc,0,NA,1.8923010001890361,388.65906339976937,390.6613953798078,2024-03-06 15:26:15.042126,2024-03-06 15:26:17.036158,SD036.jpg,0,10952,30-49,2024-03-06_15h20.08.152,Recall,2021.2.3,59.92875676541863,
,DD035.jpg,0,FF035.jpg,0,,,,,0,87,87,34,imgFunc,2,NA,3.7067836998030543,390.6524367998354,394.45710738003254,2024-03-06 15:26:17.043164,2024-03-06 15:26:20.839600,DD035.jpg,0,10952,30-49,2024-03-06_15h20.08.152,Recall,2021.2.3,59.92875676541863,
,SD029.jpg,0,MF029.jpg,0,,,,,0,88,88,78,imgFunc,1,NA,0.9801254998892546,394.4671617001295,395.55280788009986,2024-03-06 15:26:20.854583,2024-03-06 15:26:21.940076,SD029.jpg,0,10952,30-49,2024-03-06_15h20.08.152,Recall,2021.2.3,59.92875676541863,
,DD025.jpg,0,FF025.jpg,0,,,,,0,89,89,24,imgFunc,9,NA,2.546942400280386,395.54015509970486,398.17693347949535,2024-03-06 15:26:21.947059,2024-03-06 15:26:24.575434,DD025.jpg,0,10952,30-49,2024-03-06_15h20.08.152,Recall,2021.2.3,59.92875676541863,
,SD038.jpg,0,MF038.jpg,0,,,,,0,90,90,87,imgFunc,9,NA,1.2489571999758482,398.18213019985706,399.5184950795956,2024-03-06 15:26:24.582417,2024-03-06 15:26:25.909475,SD038.jpg,0,10952,30-49,2024-03-06_15h20.08.152,Recall,2021.2.3,59.92875676541863,
,SD039.jpg,0,MF039.jpg,0,,,,,0,91,91,88,imgFunc,9,NA,1.7406236003153026,399.52250370010734,401.3583796801977,2024-03-06 15:26:25.917477,2024-03-06 15:26:27.744181,SD039.jpg,0,10952,30-49,2024-03-06_15h20.08.152,Recall,2021.2.3,59.92875676541863,
,DD028.jpg,0,FF028.jpg,0,,,,,0,92,92,27,imgFunc,1,NA,3.88561400026083,401.3614501999691,405.3498807800934,2024-03-06 15:26:27.751164,2024-03-06 15:26:31.730865,DD028.jpg,0,10952,30-49,2024-03-06_15h20.08.152,Recall,2021.2.3,59.92875676541863,
,L_DD510.jpg,1,L_FF510.jpg,1,,,,,0,93,93,49,imgFunc,2,NA,1.7658414002507925,405.3533183997497,407.2080929791555,2024-03-06 15:26:31.744850,2024-03-06 15:26:33.598656,L_DD510.jpg,1,10952,30-49,2024-03-06_15h20.08.152,Recall,2021.2.3,59.92875676541863,
,L_SD505.jpg,1,L_MF505.jpg,1,,,,,0,94,94,94,imgFunc,0,NA,1.7748969998210669,407.2082241997123,409.0774594801478,2024-03-06 15:26:33.605572,2024-03-06 15:26:35.466509,L_SD505.jpg,1,10952,30-49,2024-03-06_15h20.08.152,Recall,2021.2.3,59.92875676541863,
,DD039.jpg,0,FF039.jpg,0,,,,,0,95,95,38,imgFunc,0,NA,4.303985300008208,409.0711197000928,413.47536998055875,2024-03-06 15:26:35.473492,2024-03-06 15:26:39.869070,DD039.jpg,0,10952,30-49,2024-03-06_15h20.08.152,Recall,2021.2.3,59.92875676541863,
,SD026.jpg,0,MF026.jpg,0,,,,,0,96,96,75,imgFunc,9,NA,3.141261799726635,413.47411540010944,416.7104065804742,2024-03-06 15:26:39.877047,2024-03-06 15:26:43.105225,SD026.jpg,0,10952,30-49,2024-03-06_15h20.08.152,Recall,2021.2.3,59.92875676541863,
,DD002.jpg,0,FF002.jpg,0,,,,,0,97,97,1,imgFunc,9,NA,1.9483238998800516,416.7307168999687,418.7999195805751,2024-03-06 15:26:43.112208,2024-03-06 15:26:45.173267,DD002.jpg,0,10952,30-49,2024-03-06_15h20.08.152,Recall,2021.2.3,59.92875676541863,
,SD006.jpg,0,MF006.jpg,0,,,,,0,98,98,55,imgFunc,2,NA,3.4051951998844743,418.7861405997537,422.2905085799284,2024-03-06 15:26:45.180250,2024-03-06 15:26:48.675823,SD006.jpg,0,10952,30-49,2024-03-06_15h20.08.152,Recall,2021.2.3,59.92875676541863,
,SD025.jpg,0,MF025.jpg,0,,,,,0,99,99,74,imgFunc,0,NA,3.549451499711722,422.2815386997536,425.9178012800403,2024-03-06 15:26:48.683803,2024-03-06 15:26:52.311427,SD025.jpg,0,10952,30-49,2024-03-06_15h20.08.152,Recall,2021.2.3,59.92875676541863,
,,,,,,,,,,,,,instrFunc,space,"Great work! 

 Now you will switch to the other image type.

 Press the spacebar whenever you are ready to start.",3.6528524002060294,425.85044489987195,429.55030437977985,2024-03-06 15:26:52.312398,2024-03-06 15:26:55.996683,,,10952,30-49,2024-03-06_15h20.08.152,Recall,2021.2.3,59.92875676541863,
,DD022.jpg,0,FF022.jpg,0,,,,,0,0,0,21,imgFunc,1,NA,4.187241800129414,429.6357462001033,433.9311081604101,2024-03-06 15:26:56.025607,2024-03-06 15:27:00.317005,FF022.jpg,0,10952,30-49,2024-03-06_15h20.08.152,Recall,2021.2.3,59.92875676541863,
,L_SD509.jpg,1,L_MF509.jpg,1,,,,,0,1,1,98,imgFunc,2,NA,1.9100707001052797,433.93722039973363,435.9543748795986,2024-03-06 15:27:00.325944,2024-03-06 15:27:02.335855,L_MF509.jpg,1,10952,30-49,2024-03-06_15h20.08.152,Recall,2021.2.3,59.92875676541863,
,SD015.jpg,0,MF015.jpg,0,,,,,0,2,2,64,imgFunc,1,NA,4.0727968998253345,435.9425818999298,440.11368397949263,2024-03-06 15:27:02.342838,2024-03-06 15:27:06.505344,MF015.jpg,0,10952,30-49,2024-03-06_15h20.08.152,Recall,2021.2.3,59.92875676541863,
,L_SD510.jpg,1,L_MF510.jpg,1,,,,,0,3,3,99,imgFunc,9,NA,3.9894121000543237,440.1295827999711,444.22319067968056,2024-03-06 15:27:06.518333,2024-03-06 15:27:10.607509,L_MF510.jpg,1,10952,30-49,2024-03-06_15h20.08.152,Recall,2021.2.3,59.92875676541863,
,SD010.jpg,0,MF010.jpg,0,,,,,0,4,4,59,imgFunc,0,NA,1.7167774001136422,444.21813199995086,446.0379283800721,2024-03-06 15:27:10.615514,2024-03-06 15:27:12.426257,MF010.jpg,0,10952,30-49,2024-03-06_15h20.08.152,Recall,2021.2.3,59.92875676541863,
,L_DD502.jpg,1,L_FF502.jpg,1,,,,,0,5,5,41,imgFunc,0,NA,1.393218300305307,446.0377536001615,447.522511780262,2024-03-06 15:27:12.434237,2024-03-06 15:27:13.911022,L_FF502.jpg,1,10952,30-49,2024-03-06_15h20.08.152,Recall,2021.2.3,59.92875676541863,
,DD011.jpg,0,FF011.jpg,0,,,,,0,6,6,10,imgFunc,1,NA,1.7961655003018677,447.5231789997779,449.4255509795621,2024-03-06 15:27:13.918025,2024-03-06 15:27:15.812157,FF011.jpg,0,10952,30-49,2024-03-06_15h20.08.152,Recall,2021.2.3,59.92875676541863,
,SD035.jpg,0,MF035.jpg,0,,,,,0,7,7,84,imgFunc,1,NA,1.6112456996925175,449.44412579992786,451.18064347980544,2024-03-06 15:27:15.819140,2024-03-06 15:27:17.546798,MF035.jpg,0,10952,30-49,2024-03-06_15h20.08.152,Recall,2021.2.3,59.92875676541863,
,SD003.jpg,0,MF003.jpg,0,,,,,0,8,8,52,imgFunc,0,NA,2.8160970001481473,451.15928519982845,454.0790856797248,2024-03-06 15:27:17.554684,2024-03-06 15:27:20.465655,MF003.jpg,0,10952,30-49,2024-03-06_15h20.08.152,Recall,2021.2.3,59.92875676541863,
,DD037.jpg,0,FF037.jpg,0,,,,,0,9,9,36,imgFunc,0,NA,2.538340300321579,454.07706640008837,456.713888480328,2024-03-06 15:27:20.472638,2024-03-06 15:27:23.100757,FF037.jpg,0,10952,30-49,2024-03-06_15h20.08.152,Recall,2021.2.3,59.92875676541863,
,SD009.jpg,0,MF009.jpg,0,,,,,0,10,10,58,imgFunc,9,NA,4.7878747000359,456.70749770011753,461.5955874803476,2024-03-06 15:27:23.107740,2024-03-06 15:27:27.987596,MF009.jpg,0,10952,30-49,2024-03-06_15h20.08.152,Recall,2021.2.3,59.92875676541863,
,DD032.jpg,0,FF032.jpg,0,,,,,0,11,11,31,imgFunc,2,NA,2.237048199865967,461.60224869986996,463.935583780054,2024-03-06 15:27:27.996574,2024-03-06 15:27:30.322821,FF032.jpg,0,10952,30-49,2024-03-06_15h20.08.152,Recall,2021.2.3,59.92875676541863,
,DD030.jpg,0,FF030.jpg,0,,,,,0,12,12,29,imgFunc,1,NA,1.079345100093633,463.9520549001172,465.1412379797548,2024-03-06 15:27:30.336785,2024-03-06 15:27:31.523510,FF030.jpg,0,10952,30-49,2024-03-06_15h20.08.152,Recall,2021.2.3,59.92875676541863,
,SD005.jpg,0,MF005.jpg,0,,,,,0,13,13,54,imgFunc,1,NA,1.1347028999589384,465.14446510002017,466.39615347981453,2024-03-06 15:27:31.531491,2024-03-06 15:27:32.774277,MF005.jpg,0,10952,30-49,2024-03-06_15h20.08.152,Recall,2021.2.3,59.92875676541863,
,DD026.jpg,0,FF026.jpg,0,,,,,0,14,14,25,imgFunc,9,NA,3.6564920996315777,466.39085459988564,470.14597008004785,2024-03-06 15:27:32.781260,2024-03-06 15:27:36.527365,FF026.jpg,0,10952,30-49,2024-03-06_15h20.08.152,Recall,2021.2.3,59.92875676541863,
,DD006.jpg,0,FF006.jpg,0,,,,,0,15,15,5,imgFunc,2,NA,4.218432100024074,470.13273649988696,474.45381417963654,2024-03-06 15:27:36.534348,2024-03-06 15:27:40.846529,FF006.jpg,0,10952,30-49,2024-03-06_15h20.08.152,Recall,2021.2.3,59.92875676541863,
,SD018.jpg,0,MF018.jpg,0,,,,,0,16,16,67,imgFunc,1,NA,1.7104691001586616,474.456772999838,476.25895137991756,2024-03-06 15:27:40.854508,2024-03-06 15:27:42.648516,MF018.jpg,0,10952,30-49,2024-03-06_15h20.08.152,Recall,2021.2.3,59.92875676541863,
,DD038.jpg,0,FF038.jpg,0,,,,,0,17,17,37,imgFunc,2,NA,1.597800699993968,476.27339049987495,477.97664627991617,2024-03-06 15:27:42.663499,2024-03-06 15:27:44.366109,FF038.jpg,0,10952,30-49,2024-03-06_15h20.08.152,Recall,2021.2.3,59.92875676541863,
,DD017.jpg,0,FF017.jpg,0,,,,,0,18,18,16,imgFunc,9,NA,2.715459699742496,477.97992169996724,480.8004465806298,2024-03-06 15:27:44.373092,2024-03-06 15:27:47.184817,FF017.jpg,0,10952,30-49,2024-03-06_15h20.08.152,Recall,2021.2.3,59.92875676541863,
,L_SD502.jpg,1,L_MF502.jpg,1,,,,,0,19,19,91,imgFunc,0,NA,1.7912432001903653,480.7921306998469,482.6784856794402,2024-03-06 15:27:47.191800,2024-03-06 15:27:49.069487,L_MF502.jpg,1,10952,30-49,2024-03-06_15h20.08.152,Recall,2021.2.3,59.92875676541863,
,SD028.jpg,0,MF028.jpg,0,,,,,0,20,20,77,imgFunc,1,NA,4.753988200332969,482.6850244998932,487.5400942801498,2024-03-06 15:27:49.076470,2024-03-06 15:27:53.923353,MF028.jpg,0,10952,30-49,2024-03-06_15h20.08.152,Recall,2021.2.3,59.92875676541863,
,DD033.jpg,0,FF033.jpg,0,,,,,0,21,21,32,imgFunc,1,NA,2.7603186001069844,487.5669788001105,490.4505756800063,2024-03-06 15:27:53.932330,2024-03-06 15:27:56.808628,FF033.jpg,0,10952,30-49,2024-03-06_15h20.08.152,Recall,2021.2.3,59.92875676541863,
,DD005.jpg,0,FF005.jpg,0,,,,,0,22,22,4,imgFunc,2,NA,3.2646277002058923,490.41442900011316,493.76692207949236,2024-03-06 15:27:56.816608,2024-03-06 15:28:00.160560,FF005.jpg,0,10952,30-49,2024-03-06_15h20.08.152,Recall,2021.2.3,59.92875676541863,
,L_DD506.jpg,1,L_FF506.jpg,1,,,,,0,23,23,45,imgFunc,0,NA,2.7472699000500143,493.7800913997926,496.6330837798305,2024-03-06 15:28:00.168517,2024-03-06 15:28:03.012773,L_FF506.jpg,1,10952,30-49,2024-03-06_15h20.08.152,Recall,2021.2.3,59.92875676541863,
,SD016.jpg,0,MF016.jpg,0,,,,,0,24,24,65,imgFunc,1,NA,2.220934099983424,496.618477600161,498.9381864806637,2024-03-06 15:28:03.019757,2024-03-06 15:28:05.331274,MF016.jpg,0,10952,30-49,2024-03-06_15h20.08.152,Recall,2021.2.3,59.92875676541863,
,SD034.jpg,0,MF034.jpg,0,,,,,0,25,25,83,imgFunc,1,NA,1.886840300168842,498.94440140016377,500.9304994796403,2024-03-06 15:28:05.338265,2024-03-06 15:28:07.316100,MF034.jpg,0,10952,30-49,2024-03-06_15h20.08.152,Recall,2021.2.3,59.92875676541863,
,SD024.jpg,0,MF024.jpg,0,,,,,0,26,26,73,imgFunc,1,NA,1.002931000199169,500.9323335001245,502.02290777955204,2024-03-06 15:28:07.329067,2024-03-06 15:28:08.416657,MF024.jpg,0,10952,30-49,2024-03-06_15h20.08.152,Recall,2021.2.3,59.92875676541863,
,SD027.jpg,0,MF027.jpg,0,,,,,0,27,27,76,imgFunc,2,NA,1.602677000220865,502.0283391000703,503.73094588005915,2024-03-06 15:28:08.423663,2024-03-06 15:28:10.117601,MF027.jpg,0,10952,30-49,2024-03-06_15h20.08.152,Recall,2021.2.3,59.92875676541863,
,SD008.jpg,0,MF008.jpg,0,,,,,0,28,28,57,imgFunc,1,NA,2.056603299919516,503.7266107001342,505.88001377973706,2024-03-06 15:28:10.124582,2024-03-06 15:28:12.269667,MF008.jpg,0,10952,30-49,2024-03-06_15h20.08.152,Recall,2021.2.3,59.92875676541863,
,SD017.jpg,0,MF017.jpg,0,,,,,0,29,29,66,imgFunc,9,NA,2.785259099677205,505.8781330999918,508.765669379849,2024-03-06 15:28:12.276650,2024-03-06 15:28:15.155283,MF017.jpg,0,10952,30-49,2024-03-06_15h20.08.152,Recall,2021.2.3,59.92875676541863,
,DD029.jpg,0,FF029.jpg,0,,,,,0,30,30,28,imgFunc,2,NA,2.298210899811238,508.76518659992144,511.1688719796948,2024-03-06 15:28:15.162266,2024-03-06 15:28:17.556913,FF029.jpg,0,10952,30-49,2024-03-06_15h20.08.152,Recall,2021.2.3,59.92875676541863,
,L_DD508.jpg,1,L_FF508.jpg,1,,,,,0,31,31,47,imgFunc,0,NA,3.9081478998996317,511.1871647997759,515.2062630597502,2024-03-06 15:28:17.573892,2024-03-06 15:28:21.576387,L_FF508.jpg,1,10952,30-49,2024-03-06_15h20.08.152,Recall,2021.2.3,59.92875676541863,
,DD023.jpg,0,FF023.jpg,0,,,,,0,32,32,22,imgFunc,1,NA,2.215581299737096,515.1917755999602,517.511539679952,2024-03-06 15:28:21.583370,2024-03-06 15:28:23.894699,FF023.jpg,0,10952,30-49,2024-03-06_15h20.08.152,Recall,2021.2.3,59.92875676541863,
,SD022.jpg,0,MF022.jpg,0,,,,,0,33,33,71,imgFunc,1,NA,1.5420861998572946,517.5050860000774,519.1411039796658,2024-03-06 15:28:23.901682,2024-03-06 15:28:25.529411,MF022.jpg,0,10952,30-49,2024-03-06_15h20.08.152,Recall,2021.2.3,59.92875676541863,
,SD030.jpg,0,MF030.jpg,0,,,,,0,34,34,79,imgFunc,1,NA,3.0761098000220954,519.1391265997663,522.3097576797009,2024-03-06 15:28:25.536394,2024-03-06 15:28:28.698193,MF030.jpg,0,10952,30-49,2024-03-06_15h20.08.152,Recall,2021.2.3,59.92875676541863,
,SD002.jpg,0,MF002.jpg,0,,,,,0,35,35,51,imgFunc,1,NA,1.1833665003068745,522.327931900043,523.6296856799163,2024-03-06 15:28:28.706174,2024-03-06 15:28:29.999403,MF002.jpg,0,10952,30-49,2024-03-06_15h20.08.152,Recall,2021.2.3,59.92875676541863,
,SD021.jpg,0,MF021.jpg,0,,,,,0,36,36,70,imgFunc,0,NA,3.4541042000055313,523.6171526000835,527.1709789801389,2024-03-06 15:28:30.006407,2024-03-06 15:28:33.551876,MF021.jpg,0,10952,30-49,2024-03-06_15h20.08.152,Recall,2021.2.3,59.92875676541863,
,DD019.jpg,0,FF019.jpg,0,,,,,0,37,37,18,imgFunc,1,NA,3.1863333000801504,527.1648833998479,530.4520254796371,2024-03-06 15:28:33.558859,2024-03-06 15:28:36.837240,FF019.jpg,0,10952,30-49,2024-03-06_15h20.08.152,Recall,2021.2.3,59.92875676541863,
,DD036.jpg,0,FF036.jpg,0,,,,,0,38,38,35,imgFunc,9,NA,3.61935959989205,530.443657099735,534.1644634795375,2024-03-06 15:28:36.844224,2024-03-06 15:28:40.555804,FF036.jpg,0,10952,30-49,2024-03-06_15h20.08.152,Recall,2021.2.3,59.92875676541863,
,L_DD505.jpg,1,L_FF505.jpg,1,,,,,0,39,39,44,imgFunc,1,NA,3.084522200282663,534.170919300057,537.354886080604,2024-03-06 15:28:40.565751,2024-03-06 15:28:43.742424,L_FF505.jpg,1,10952,30-49,2024-03-06_15h20.08.152,Recall,2021.2.3,59.92875676541863,
,SD040.jpg,0,MF040.jpg,0,,,,,0,40,40,89,imgFunc,1,NA,2.7485340000130236,537.3627965999767,540.2034272798337,2024-03-06 15:28:43.756389,2024-03-06 15:28:46.594651,MF040.jpg,0,10952,30-49,2024-03-06_15h20.08.152,Recall,2021.2.3,59.92875676541863,
,SD023.jpg,0,MF023.jpg,0,,,,,0,41,41,72,imgFunc,0,NA,4.519041100051254,540.20797759993,544.8286331798881,2024-03-06 15:28:46.601633,2024-03-06 15:28:51.214142,MF023.jpg,0,10952,30-49,2024-03-06_15h20.08.152,Recall,2021.2.3,59.92875676541863,
,L_DD503.jpg,1,L_FF503.jpg,1,,,,,0,42,42,42,imgFunc,9,NA,4.312415500171483,544.8228532001376,549.2258997801691,2024-03-06 15:28:51.222149,2024-03-06 15:28:55.618044,L_FF503.jpg,1,10952,30-49,2024-03-06_15h20.08.152,Recall,2021.2.3,59.92875676541863,
,SD020.jpg,0,MF020.jpg,0,,,,,0,43,43,69,imgFunc,9,NA,1.5772710000164807,549.2380941999145,550.9227100796998,2024-03-06 15:28:55.626025,2024-03-06 15:28:57.301955,MF020.jpg,0,10952,30-49,2024-03-06_15h20.08.152,Recall,2021.2.3,59.92875676541863,
,L_SD503.jpg,1,L_MF503.jpg,1,,,,,0,44,44,92,imgFunc,9,NA,1.8523977003060281,550.938796099741,552.9245411795564,2024-03-06 15:28:57.309958,2024-03-06 15:28:59.287018,L_MF503.jpg,1,10952,30-49,2024-03-06_15h20.08.152,Recall,2021.2.3,59.92875676541863,
,DD027.jpg,0,FF027.jpg,0,,,,,0,45,45,26,imgFunc,1,NA,2.447387299966067,552.927771399729,555.4828677796759,2024-03-06 15:28:59.301980,2024-03-06 15:29:01.855346,FF027.jpg,0,10952,30-49,2024-03-06_15h20.08.152,Recall,2021.2.3,59.92875676541863,
,SD019.jpg,0,MF019.jpg,0,,,,,0,46,46,68,imgFunc,0,NA,4.139422600157559,555.4597680997103,559.6973147797398,2024-03-06 15:29:01.863351,2024-03-06 15:29:06.091766,MF019.jpg,0,10952,30-49,2024-03-06_15h20.08.152,Recall,2021.2.3,59.92875676541863,
,DD024.jpg,0,FF024.jpg,0,,,,,0,47,47,23,imgFunc,2,NA,3.921163300052285,559.7018856997602,563.7213033796288,2024-03-06 15:29:06.099746,2024-03-06 15:29:10.110760,FF024.jpg,0,10952,30-49,2024-03-06_15h20.08.152,Recall,2021.2.3,59.92875676541863,
,DD021.jpg,0,FF021.jpg,0,,,,,0,48,48,20,imgFunc,1,NA,1.6623459002003074,563.7207467998378,565.4900190792978,2024-03-06 15:29:10.118715,2024-03-06 15:29:11.879294,FF021.jpg,0,10952,30-49,2024-03-06_15h20.08.152,Recall,2021.2.3,59.92875676541863,
,DD028.jpg,0,FF028.jpg,0,,,,,0,49,49,27,imgFunc,9,NA,1.968011099845171,565.4955847999081,567.5640006801113,2024-03-06 15:29:11.887275,2024-03-06 15:29:13.947586,FF028.jpg,0,10952,30-49,2024-03-06_15h20.08.152,Recall,2021.2.3,59.92875676541863,
,L_DD510.jpg,1,L_FF510.jpg,1,,,,,0,50,50,49,imgFunc,0,NA,4.631996300071478,567.5515397000127,572.2725129798055,2024-03-06 15:29:13.955331,2024-03-06 15:29:18.667591,L_FF510.jpg,1,10952,30-49,2024-03-06_15h20.08.152,Recall,2021.2.3,59.92875676541863,
,L_DD501.jpg,1,L_FF501.jpg,1,,,,,0,51,51,40,imgFunc,0,NA,1.2790287001989782,572.2804120001383,573.6621526801027,2024-03-06 15:29:18.676569,2024-03-06 15:29:20.051865,L_FF501.jpg,1,10952,30-49,2024-03-06_15h20.08.152,Recall,2021.2.3,59.92875676541863,
,DD004.jpg,0,FF004.jpg,0,,,,,0,52,52,3,imgFunc,9,NA,1.7633537999354303,573.6680530998856,575.5372777800076,2024-03-06 15:29:20.058848,2024-03-06 15:29:21.919874,FF004.jpg,0,10952,30-49,2024-03-06_15h20.08.152,Recall,2021.2.3,59.92875676541863,
,SD036.jpg,0,MF036.jpg,0,,,,,0,53,53,85,imgFunc,1,NA,2.5202244999818504,575.5272241998464,578.1468700794503,2024-03-06 15:29:21.927854,2024-03-06 15:29:24.538521,MF036.jpg,0,10952,30-49,2024-03-06_15h20.08.152,Recall,2021.2.3,59.92875676541863,
,DD013.jpg,0,FF013.jpg,0,,,,,0,54,54,12,imgFunc,1,NA,2.2641686000861228,578.1591980997473,580.5161408795975,2024-03-06 15:29:24.552510,2024-03-06 15:29:26.907037,FF013.jpg,0,10952,30-49,2024-03-06_15h20.08.152,Recall,2021.2.3,59.92875676541863,
,DD039.jpg,0,FF039.jpg,0,,,,,0,55,55,38,imgFunc,1,NA,1.757320299744606,580.5220065000467,582.389995679725,2024-03-06 15:29:26.915018,2024-03-06 15:29:28.774986,FF039.jpg,0,10952,30-49,2024-03-06_15h20.08.152,Recall,2021.2.3,59.92875676541863,
,L_SD504.jpg,1,L_MF504.jpg,1,,,,,0,56,56,93,imgFunc,9,NA,3.5203937003389,582.3908246997744,586.0120432795957,2024-03-06 15:29:28.781969,2024-03-06 15:29:32.394331,L_MF504.jpg,1,10952,30-49,2024-03-06_15h20.08.152,Recall,2021.2.3,59.92875676541863,
,DD003.jpg,0,FF003.jpg,0,,,,,0,57,57,2,imgFunc,2,NA,9.314515300095081,586.0128604001366,595.4378023799509,2024-03-06 15:29:32.401314,2024-03-06 15:29:41.817678,FF003.jpg,0,10952,30-49,2024-03-06_15h20.08.152,Recall,2021.2.3,59.92875676541863,
,DD020.jpg,0,FF020.jpg,0,,,,,0,58,58,19,imgFunc,1,NA,1.2834639996290207,595.4439146998338,596.8425037800334,2024-03-06 15:29:41.827133,2024-03-06 15:29:43.218560,FF020.jpg,0,10952,30-49,2024-03-06_15h20.08.152,Recall,2021.2.3,59.92875676541863,
,SD037.jpg,0,MF037.jpg,0,,,,,0,59,59,86,imgFunc,1,NA,1.8665573997423053,596.8447050000541,598.8153402800672,2024-03-06 15:29:43.233522,2024-03-06 15:29:45.203380,MF037.jpg,0,10952,30-49,2024-03-06_15h20.08.152,Recall,2021.2.3,59.92875676541863,
,DD014.jpg,0,FF014.jpg,0,,,,,0,60,60,13,imgFunc,1,NA,2.0722413999028504,598.807247299701,600.9762568799779,2024-03-06 15:29:45.210363,2024-03-06 15:29:47.370613,FF014.jpg,0,10952,30-49,2024-03-06_15h20.08.152,Recall,2021.2.3,59.92875676541863,
,DD001.jpg,0,FF001.jpg,0,,,,,0,61,61,0,imgFunc,2,NA,1.3746319999918342,600.9845028999262,602.4713183795102,2024-03-06 15:29:47.378550,2024-03-06 15:29:48.856157,FF001.jpg,0,10952,30-49,2024-03-06_15h20.08.152,Recall,2021.2.3,59.92875676541863,
,SD011.jpg,0,MF011.jpg,0,,,,,0,62,62,60,imgFunc,2,NA,1.707782399840653,602.467644599732,604.2708238800988,2024-03-06 15:29:48.863140,2024-03-06 15:29:50.657468,MF011.jpg,0,10952,30-49,2024-03-06_15h20.08.152,Recall,2021.2.3,59.92875676541863,
,SD013.jpg,0,MF013.jpg,0,,,,,0,63,63,62,imgFunc,0,NA,2.898198800161481,604.2772336001508,607.2798972805031,2024-03-06 15:29:50.665448,2024-03-06 15:29:53.659492,MF013.jpg,0,10952,30-49,2024-03-06_15h20.08.152,Recall,2021.2.3,59.92875676541863,
,SD014.jpg,0,MF014.jpg,0,,,,,0,64,64,63,imgFunc,9,NA,1.0526898000389338,607.274419200141,608.4256615801714,2024-03-06 15:29:53.667495,2024-03-06 15:29:54.809452,MF014.jpg,0,10952,30-49,2024-03-06_15h20.08.152,Recall,2021.2.3,59.92875676541863,
,L_SD508.jpg,1,L_MF508.jpg,1,,,,,0,65,65,97,imgFunc,9,NA,1.7364078001119196,608.4150247997604,610.2504120799713,2024-03-06 15:29:54.817406,2024-03-06 15:29:56.644787,L_MF508.jpg,1,10952,30-49,2024-03-06_15h20.08.152,Recall,2021.2.3,59.92875676541863,
,SD004.jpg,0,MF004.jpg,0,,,,,0,66,66,53,imgFunc,9,NA,2.2236990998499095,610.2557177999988,612.5761241801083,2024-03-06 15:29:56.651771,2024-03-06 15:29:58.963366,MF004.jpg,0,10952,30-49,2024-03-06_15h20.08.152,Recall,2021.2.3,59.92875676541863,
,DD007.jpg,0,FF007.jpg,0,,,,,0,67,67,6,imgFunc,9,NA,9.37712260009721,612.5820852997713,622.0733433798887,2024-03-06 15:29:58.970371,2024-03-06 15:30:08.453437,FF007.jpg,0,10952,30-49,2024-03-06_15h20.08.152,Recall,2021.2.3,59.92875676541863,
,DD031.jpg,0,FF031.jpg,0,,,,,0,68,68,30,imgFunc,1,NA,1.954837900120765,622.0923349997029,624.1617799797095,2024-03-06 15:30:08.469309,2024-03-06 15:30:10.537329,FF031.jpg,0,10952,30-49,2024-03-06_15h20.08.152,Recall,2021.2.3,59.92875676541863,
,DD035.jpg,0,FF035.jpg,0,,,,,0,69,69,34,imgFunc,1,NA,2.1642108000814915,624.1472199000418,626.4171955799684,2024-03-06 15:30:10.545275,2024-03-06 15:30:12.806799,FF035.jpg,0,10952,30-49,2024-03-06_15h20.08.152,Recall,2021.2.3,59.92875676541863,
,DD008.jpg,0,FF008.jpg,0,,,,,0,70,70,7,imgFunc,1,NA,0.9375354000367224,626.4217697000131,627.456980580464,2024-03-06 15:30:12.813782,2024-03-06 15:30:13.840203,FF008.jpg,0,10952,30-49,2024-03-06_15h20.08.152,Recall,2021.2.3,59.92875676541863,
,SD012.jpg,0,MF012.jpg,0,,,,,0,71,71,61,imgFunc,9,NA,2.739282399881631,627.4601893997751,630.3131961799227,2024-03-06 15:30:13.848206,2024-03-06 15:30:16.692971,MF012.jpg,0,10952,30-49,2024-03-06_15h20.08.152,Recall,2021.2.3,59.92875676541863,
,DD009.jpg,0,FF009.jpg,0,,,,,0,72,72,8,imgFunc,9,NA,4.142226399853826,630.3132918998599,634.5674825799651,2024-03-06 15:30:16.699954,2024-03-06 15:30:20.945589,FF009.jpg,0,10952,30-49,2024-03-06_15h20.08.152,Recall,2021.2.3,59.92875676541863,
,L_SD501.jpg,1,L_MF501.jpg,1,,,,,0,73,73,90,imgFunc,0,NA,7.298962300177664,634.588145500049,642.0252569597214,2024-03-06 15:30:20.962574,2024-03-06 15:30:28.384378,L_MF501.jpg,1,10952,30-49,2024-03-06_15h20.08.152,Recall,2021.2.3,59.92875676541863,
,DD016.jpg,0,FF016.jpg,0,,,,,0,74,74,15,imgFunc,0,NA,1.6246615997515619,641.9987964997999,643.7305152798072,2024-03-06 15:30:28.394353,2024-03-06 15:30:30.119067,FF016.jpg,0,10952,30-49,2024-03-06_15h20.08.152,Recall,2021.2.3,59.92875676541863,
,L_SD506.jpg,1,L_MF506.jpg,1,,,,,0,75,75,95,imgFunc,1,NA,1.4771895003505051,643.7302183001302,645.3156069801189,2024-03-06 15:30:30.127048,2024-03-06 15:30:31.703567,L_MF506.jpg,1,10952,30-49,2024-03-06_15h20.08.152,Recall,2021.2.3,59.92875676541863,
,SD026.jpg,0,MF026.jpg,0,,,,,0,76,76,75,imgFunc,1,NA,0.8844046001322567,645.3227928997949,646.3242107797414,2024-03-06 15:30:31.711548,2024-03-06 15:30:32.704323,MF026.jpg,0,10952,30-49,2024-03-06_15h20.08.152,Recall,2021.2.3,59.92875676541863,
,SD001.jpg,0,MF001.jpg,0,,,,,0,77,77,50,imgFunc,2,NA,2.666749299969524,646.3406290998682,649.1246435800567,2024-03-06 15:30:32.713301,2024-03-06 15:30:35.489628,MF001.jpg,0,10952,30-49,2024-03-06_15h20.08.152,Recall,2021.2.3,59.92875676541863,
,SD029.jpg,0,MF029.jpg,0,,,,,0,78,78,78,imgFunc,9,NA,2.058047999627888,649.1013393998146,651.2535868794657,2024-03-06 15:30:35.497630,2024-03-06 15:30:37.640846,MF029.jpg,0,10952,30-49,2024-03-06_15h20.08.152,Recall,2021.2.3,59.92875676541863,
,DD034.jpg,0,FF034.jpg,0,,,,,0,79,79,33,imgFunc,9,NA,0.7200626004487276,651.2474070000462,652.0654110801406,2024-03-06 15:30:37.648855,2024-03-06 15:30:38.458397,FF034.jpg,0,10952,30-49,2024-03-06_15h20.08.152,Recall,2021.2.3,59.92875676541863,
,DD040.jpg,0,FF040.jpg,0,,,,,0,80,80,39,imgFunc,1,NA,0.8186415997333825,652.068473499734,652.9871566798538,2024-03-06 15:30:38.465380,2024-03-06 15:30:39.375026,FF040.jpg,0,10952,30-49,2024-03-06_15h20.08.152,Recall,2021.2.3,59.92875676541863,
,DD002.jpg,0,FF002.jpg,0,,,,,0,81,81,1,imgFunc,1,NA,1.4932975000701845,652.9938448001631,654.5956059801392,2024-03-06 15:30:39.383009,2024-03-06 15:30:40.976590,FF002.jpg,0,10952,30-49,2024-03-06_15h20.08.152,Recall,2021.2.3,59.92875676541863,
,SD033.jpg,0,MF033.jpg,0,,,,,0,82,82,82,imgFunc,0,NA,2.114416300319135,654.5970005998388,656.8050403799862,2024-03-06 15:30:40.989526,2024-03-06 15:30:43.195353,MF033.jpg,0,10952,30-49,2024-03-06_15h20.08.152,Recall,2021.2.3,59.92875676541863,
,DD025.jpg,0,FF025.jpg,0,,,,,0,83,83,24,imgFunc,1,NA,0.9197722999379039,656.8077253997326,657.8264210796915,2024-03-06 15:30:43.202336,2024-03-06 15:30:44.212744,FF025.jpg,0,10952,30-49,2024-03-06_15h20.08.152,Recall,2021.2.3,59.92875676541863,
,SD038.jpg,0,MF038.jpg,0,,,,,0,84,84,87,imgFunc,1,NA,2.029464100021869,657.8259696997702,659.9619930796325,2024-03-06 15:30:44.219727,2024-03-06 15:30:46.347497,MF038.jpg,0,10952,30-49,2024-03-06_15h20.08.152,Recall,2021.2.3,59.92875676541863,
,L_DD509.jpg,1,L_FF509.jpg,1,,,,,0,85,85,48,imgFunc,1,NA,1.707993899937719,659.9635390001349,661.7831298797391,2024-03-06 15:30:46.354480,2024-03-06 15:30:48.165402,L_FF509.jpg,1,10952,30-49,2024-03-06_15h20.08.152,Recall,2021.2.3,59.92875676541863,
,DD015.jpg,0,FF015.jpg,0,,,,,0,86,86,14,imgFunc,1,NA,0.8897158997133374,661.7815911998041,662.7835961799137,2024-03-06 15:30:48.172386,2024-03-06 15:30:49.166159,FF015.jpg,0,10952,30-49,2024-03-06_15h20.08.152,Recall,2021.2.3,59.92875676541863,
,L_DD504.jpg,1,L_FF504.jpg,1,,,,,0,87,87,43,imgFunc,0,NA,1.3795847999863327,662.7876654998399,664.2587451799773,2024-03-06 15:30:49.181121,2024-03-06 15:30:50.650641,L_FF504.jpg,1,10952,30-49,2024-03-06_15h20.08.152,Recall,2021.2.3,59.92875676541863,
,SD025.jpg,0,MF025.jpg,0,,,,,0,88,88,74,imgFunc,0,NA,1.9160550995729864,664.2593466998078,666.2793163796887,2024-03-06 15:30:50.657624,2024-03-06 15:30:52.668679,MF025.jpg,0,10952,30-49,2024-03-06_15h20.08.152,Recall,2021.2.3,59.92875676541863,
,SD039.jpg,0,MF039.jpg,0,,,,,0,89,89,88,imgFunc,1,NA,1.6877659996971488,666.2877364000306,668.0902785803191,2024-03-06 15:30:52.675662,2024-03-06 15:30:54.469951,MF039.jpg,0,10952,30-49,2024-03-06_15h20.08.152,Recall,2021.2.3,59.92875676541863,
,L_DD507.jpg,1,L_FF507.jpg,1,,,,,0,90,90,46,imgFunc,1,NA,1.4764876998960972,668.0909917000681,669.6765885800123,2024-03-06 15:30:54.476934,2024-03-06 15:30:56.054337,L_FF507.jpg,1,10952,30-49,2024-03-06_15h20.08.152,Recall,2021.2.3,59.92875676541863,
,SD007.jpg,0,MF007.jpg,0,,,,,0,91,91,56,imgFunc,1,NA,0.9707766002975404,669.6767094000243,670.762562579941,2024-03-06 15:30:56.061320,2024-03-06 15:30:57.138698,MF007.jpg,0,10952,30-49,2024-03-06_15h20.08.152,Recall,2021.2.3,59.92875676541863,
,SD031.jpg,0,MF031.jpg,0,,,,,0,92,92,80,imgFunc,0,NA,1.492299699690193,670.7470629997551,672.3331786794588,2024-03-06 15:30:57.145681,2024-03-06 15:30:58.723297,MF031.jpg,0,10952,30-49,2024-03-06_15h20.08.152,Recall,2021.2.3,59.92875676541863,
,SD032.jpg,0,MF032.jpg,0,,,,,0,93,93,81,imgFunc,1,NA,2.324490000028163,672.3308083997108,674.7507399800234,2024-03-06 15:30:58.730280,2024-03-06 15:31:01.141750,MF032.jpg,0,10952,30-49,2024-03-06_15h20.08.152,Recall,2021.2.3,59.92875676541863,
,DD012.jpg,0,FF012.jpg,0,,,,,0,94,94,11,imgFunc,1,NA,0.9572439999319613,674.75416019978,675.8230258799158,2024-03-06 15:31:01.148734,2024-03-06 15:31:02.208892,FF012.jpg,0,10952,30-49,2024-03-06_15h20.08.152,Recall,2021.2.3,59.92875676541863,
,DD018.jpg,0,FF018.jpg,0,,,,,0,95,95,17,imgFunc,0,NA,1.1442729998379946,675.823168899864,677.0753350798041,2024-03-06 15:31:02.215875,2024-03-06 15:31:03.459849,FF018.jpg,0,10952,30-49,2024-03-06_15h20.08.152,Recall,2021.2.3,59.92875676541863,
,DD010.jpg,0,FF010.jpg,0,,,,,0,96,96,9,imgFunc,1,NA,2.1789700998924673,677.0765432999469,679.3498430796899,2024-03-06 15:31:03.473813,2024-03-06 15:31:05.744614,FF010.jpg,0,10952,30-49,2024-03-06_15h20.08.152,Recall,2021.2.3,59.92875676541863,
,L_SD507.jpg,1,L_MF507.jpg,1,,,,,0,97,97,96,imgFunc,0,NA,2.3174199000932276,679.3540709000081,681.7733035804704,2024-03-06 15:31:05.752577,2024-03-06 15:31:08.163193,L_MF507.jpg,1,10952,30-49,2024-03-06_15h20.08.152,Recall,2021.2.3,59.92875676541863,
,SD006.jpg,0,MF006.jpg,0,,,,,0,98,98,55,imgFunc,0,NA,1.140529999975115,681.7785947998054,683.0304935798049,2024-03-06 15:31:08.170177,2024-03-06 15:31:09.413179,MF006.jpg,0,10952,30-49,2024-03-06_15h20.08.152,Recall,2021.2.3,59.92875676541863,
,L_SD505.jpg,1,L_MF505.jpg,1,,,,,0,99,99,94,imgFunc,1,NA,1.5966893997974694,683.0264260000549,684.7251664795913,2024-03-06 15:31:09.423127,2024-03-06 15:31:11.115266,L_MF505.jpg,1,10952,30-49,2024-03-06_15h20.08.152,Recall,2021.2.3,59.92875676541863,
