TrialNumber,nTrial,Block,Endowment,ITI,ISI,L_Option,R_Option,ran,order,cue_Onset,endowment_onset,endowment_offset,ISI_onset,ISI_offset,decision_onset,resp,rt,resp_onset,decision_offset,trialDuration,ITIonset,ITIoffset
1,1,2,32,0.5575,1,0,16,1.0,0.0,4.514084,5.5035,5.520638,5.52074,6.520023,6.52019,2.0,2.8839707,9.4041605,10.2868,3.7672412,10.287556,10.847986
2,2,3,16,0.5575,1,0,8,1.0,1.0,11.421343,12.3373,12.353568,12.353641,13.353918,13.354068,2.0,2.5005841,15.854651,17.121037,3.7675009,17.12167,17.68158
3,3,2,32,1.365,1,8,0,1.0,2.0,18.180704,19.17022,19.187307,19.187382,20.187208,20.18735,2.0,2.5664668,22.753817,23.954565,3.767758,23.955212,25.322008
4,4,3,16,2.98,1,0,4,1.0,3.0,25.897335,26.820217,26.837341,26.837416,27.838003,27.83814,999.0,999.0,999.0,31.103767,3.7831664,31.621447,34.602993
5,5,3,16,1.365,1,4,0,1.0,4.0,35.18308,36.087246,36.103447,36.103523,37.10299,37.103134,2.0,1.7675459,38.87068,40.870045,3.7674365,40.870674,42.23697
6,6,2,32,2.98,1,0,3,1.0,5.0,42.747494,43.736824,43.753895,43.753983,44.754997,44.75514,1.0,1.6490083,46.40415,48.52103,3.766425,48.521667,51.50369
7,7,2,32,1.365,1,8,0,1.0,6.0,52.013966,53.003418,53.020657,53.020733,54.021034,54.021187,2.0,1.8657743,55.88696,57.788994,3.7683396,57.789627,59.156994
8,8,3,16,1.365,1,1,0,1.0,7.0,59.729538,60.6534,60.67061,60.67068,61.67083,61.670967,2.0,1.6000175,63.270985,65.43695,3.766532,65.43761,66.80402
9,9,3,32,2.98,1,0,8,1.0,8.0,67.379,68.30343,68.32088,68.32101,69.321014,69.32116,1.0,1.9829108,71.30407,73.08802,3.7674148,73.088684,76.07099
10,10,2,16,4.595,1,0,1,1.0,9.0,76.580956,77.57013,77.5875,77.58758,78.587006,78.58716,1.0,1.3506575,79.93781,82.3531,3.766483,82.353745,86.950005
11,11,2,16,0.5575,1,0,4,1.0,10.0,87.44767,88.43663,88.453804,88.45388,89.453835,89.45397,1.0,1.4002553,90.854225,93.22102,3.7675834,93.22166,93.78139
12,12,3,16,1.365,1,4,0,1.0,11.0,94.371346,95.27047,95.28713,95.28721,96.287,96.28715,2.0,2.4162595,98.70341,100.05501,3.7683978,100.05565,101.42164
13,13,2,32,1.365,1,0,2,1.0,12.0,101.930595,102.92008,102.937195,102.93726,103.93707,103.93721,1.0,1.06664,105.003845,107.70401,3.7673354,107.70464,109.07069
14,14,2,16,0.5575,1,0,1,1.0,13.0,109.580574,110.57005,110.5871,110.58718,111.58699,111.587135,1.0,0.9163686,112.5035,115.35447,3.7678812,115.35512,115.91404
15,15,2,32,1.365,1,0,16,1.0,14.0,116.41383,117.40329,117.420525,117.4206,118.42101,118.42115,2.0,1.2656888,119.686844,122.189026,3.7684126,122.18967,123.55599
16,16,3,16,0.5575,1,0,1,1.0,15.0,124.11922,125.05327,125.07048,125.07056,126.06998,126.070114,1.0,1.0007263,127.07084,129.83716,3.7675707,129.83778,130.397
17,17,2,16,6.21,1,0,4,1.0,16.0,130.89737,131.88638,131.90372,131.90382,132.90399,132.90413,1.0,1.466149,134.37027,136.67107,3.7674813,136.6717,142.88301
18,18,2,16,0.5575,1,2,0,1.0,17.0,143.38058,144.36995,144.38712,144.38719,145.387,145.38715,1.0,0.9663436,146.35349,149.15416,3.7675545,149.1548,149.71416
19,19,3,32,2.98,1,16,0,1.0,18.0,150.29439,151.2038,151.21997,151.22005,152.21999,152.22012,1.0,1.3672028,153.58733,155.986,3.7664056,155.98663,158.96802
20,20,2,32,2.98,1,3,0,1.0,19.0,159.46382,160.45325,160.47035,160.47043,161.46974,161.4699,2.0,1.2510976,162.721,165.23544,3.7661514,165.23624,168.21704
21,21,2,32,0.5575,1,0,16,1.0,20.0,168.71375,169.70316,169.72032,169.7204,170.721,170.72115,2.0,1.5328547,172.254,174.48758,3.766963,174.4882,175.04703
22,22,3,32,2.98,1,0,16,1.0,21.0,175.62038,176.53694,176.5532,176.55327,177.55302,177.55316,2.0,1.2508323,178.804,181.31973,3.7670996,181.32036,184.3012
23,23,3,16,0.5575,1,2,0,1.0,22.0,184.86966,185.78691,185.80322,185.8033,186.80302,186.80318,2.0,1.3835396,188.1867,190.56992,3.7672718,190.57054,191.12961
24,24,2,16,1.365,1,2,0,1.0,23.0,191.6305,192.61986,192.63696,192.63704,193.63683,193.63696,1.0,1.8336484,195.47061,197.40402,3.7675772,197.40465,198.77101
25,25,3,16,0.5575,1,0,1,1.0,24.0,199.33833,200.26985,200.28687,200.28694,201.28743,201.28757,1.0,2.3157642,203.60333,205.0552,3.7681756,205.05586,205.61499
26,26,3,16,0.5575,1,4,0,1.0,25.0,206.16898,207.10312,207.12022,207.12029,208.12,208.12015,1.0,1.4836338,209.60378,211.88718,3.7676296,211.88788,212.44713
27,27,2,32,0.5575,1,0,3,1.0,26.0,212.94714,213.93637,213.95392,213.95409,214.954,214.95413,2.0,2.365952,217.32008,218.72198,3.7683883,218.72263,219.28201
28,28,3,32,1.365,1,0,3,1.0,27.0,219.88373,220.77026,220.78699,220.78712,221.7872,221.78734,1.0,2.299657,224.08699,225.55519,3.768445,225.55588,226.92186
29,29,3,16,4.595,1,0,1,1.0,28.0,227.47493,228.42041,228.43675,228.43683,229.43605,229.4362,1.0,1.0669873,230.50319,233.20403,3.768376,233.20468,237.80112
30,30,2,16,0.5575,1,1,0,1.0,29.0,238.29704,239.28632,239.30348,239.30356,240.30403,240.30418,2.0,1.1658736,241.47005,244.07101,3.7673743,244.07166,244.63202
31,31,3,32,2.98,1,0,16,1.0,30.0,245.1822,246.12007,246.13673,246.13681,247.13605,247.13618,2.0,1.4668518,248.60303,250.90402,3.7683773,250.90466,253.88704
32,32,3,32,0.5575,1,0,16,1.0,31.0,254.44102,255.38693,255.40346,255.40353,256.4037,256.4038,2.0,0.8996684,257.3035,260.17,3.7667148,260.17062,260.73016
33,33,2,32,0.5575,1,0,8,1.0,32.0,261.23047,262.21976,262.23688,262.23703,263.237,263.23715,2.0,1.1163119,264.3535,267.00378,3.7671492,267.00443,267.56442
34,34,3,16,0.5575,1,0,2,1.0,33.0,268.15768,269.05347,269.0701,269.0702,270.071,270.07117,1.0,0.9824719,271.05362,273.8378,3.7671642,273.8384,274.39804
35,35,2,16,0.5575,1,8,0,1.0,34.0,274.89694,275.88626,275.90347,275.90353,276.9036,276.90375,1.0,1.6499004,278.55365,280.6704,3.7671998,280.67105,281.23
36,36,2,16,0.5575,1,0,1,1.0,35.0,281.73035,282.71957,282.737,282.73712,283.73804,283.7382,2.0,1.0650523,284.80322,287.50485,3.7672062,287.5055,288.06503
37,37,2,16,0.5575,1,0,4,1.0,36.0,288.5636,289.55298,289.57007,289.57016,290.571,290.57117,2.0,1.4153405,291.9865,294.33905,3.7684295,294.3397,294.89847
38,38,3,16,0.5575,1,0,1,1.0,37.0,295.4615,296.38608,296.4035,296.4036,297.40457,297.4047,2.0,1.3648862,298.7696,301.173,3.7688394,301.17365,301.73267
39,39,2,16,1.365,1,8,0,1.0,38.0,302.23016,303.21957,303.23685,303.2369,304.237,304.23712,1.0,1.6499417,305.8871,308.00497,3.7683885,308.00565,309.372
40,40,3,16,1.365,1,0,2,1.0,39.0,309.94263,310.86987,310.887,310.88715,311.88712,311.88727,1.0,2.2328348,314.1201,315.65393,3.7671967,315.65457,317.02066
41,41,2,32,4.595,1,0,16,1.0,40.0,317.53024,318.51987,318.53696,318.5371,319.538,319.53815,2.0,1.3153481,320.8535,323.30502,3.7674153,323.30566,327.90207
42,42,3,32,0.5575,1,0,16,1.0,41.0,328.44284,329.3868,329.40347,329.40353,330.40402,330.40414,2.0,1.2155349,331.6197,334.17102,3.7674115,334.17166,334.73117
43,43,2,32,0.5575,1,0,2,1.0,42.0,335.23,336.2196,336.23663,336.23676,337.2371,337.23724,1.0,2.015764,339.25302,341.005,3.7682807,341.00565,341.565
44,44,3,32,0.5575,1,2,0,1.0,43.0,342.1531,343.05353,343.06995,343.0701,344.07004,344.07016,2.0,1.5332276,345.6034,347.83633,3.7667112,347.83698,348.39603
45,45,3,32,1.365,1,0,3,1.0,44.0,348.93854,349.8866,349.9033,349.90335,350.90402,350.90414,1.0,1.1828299,352.08698,354.67087,3.7672348,354.67148,356.03812
46,46,2,32,0.5575,1,0,3,1.0,45.0,356.54663,357.53644,357.55356,357.55368,358.553,358.55316,1.0,1.8504066,360.40356,362.31912,3.7665045,362.31976,362.8792
47,47,3,32,0.5575,1,0,3,1.0,46.0,363.42297,364.37,364.3867,364.38684,365.386,365.38614,1.0,1.2509371,366.6371,369.153,3.767416,369.15366,369.71307
48,48,3,32,1.365,1,8,0,1.0,47.0,370.25342,371.20337,371.21982,371.21988,372.22003,372.22018,2.0,1.8658792,374.08606,375.98804,3.768369,375.98865,377.3547
