onset	duration	trial_type	rt	resp	gender	image_left	image_right
0.6324409000226296	3.0014374000020325	decision	2.2821080000139773	right	M	MF001.jpg	MF002.jpg
4.182744999998249	1.0160093000158668	win	n/a	n/a	n/a	MF001.jpg	MF002.jpg
11.165630300005432	3.001073000021279	decision	2.7994188999873586	right	M	MF003.jpg	MF004.jpg
14.715561199991498	1.0166178000508808	loss	n/a	n/a	n/a	MF003.jpg	MF004.jpg
17.48225550004281	3.001598799950443	decision	2.03352850000374	right	M	MF005.jpg	MF006.jpg
21.032302600040566	1.016295999987051	win	n/a	n/a	n/a	MF005.jpg	MF006.jpg
23.79878940002527	3.001173899974674	decision	2.2832022000220604	left	F	FF001.jpg	FF002.jpg
27.34872050001286	1.0000205999822356	win	n/a	n/a	n/a	FF001.jpg	FF002.jpg
32.198847500025295	3.000932599999942	decision	2.2830171000096016	right	F	FF003.jpg	FF004.jpg
35.74873520003166	1.0001794999698177	loss	n/a	n/a	n/a	FF003.jpg	FF004.jpg
42.69877080002334	3.0012622000067495	decision	2.783710699994117	left	M	MF007.jpg	MF008.jpg
46.24875490000704	1.0165788999875076	loss	n/a	n/a	n/a	MF007.jpg	MF008.jpg
51.115536500001326	3.034990200016182	decision	3.034456700028386	left	M	MF009.jpg	MF010.jpg
54.698964500043076	1.016555599984713	win	n/a	n/a	n/a	MF009.jpg	MF010.jpg
59.56551970000146	3.0015725000412203	decision	2.032364300044719	right	F	FF005.jpg	FF006.jpg
63.11537800001679	1.0000958999735303	loss	n/a	n/a	n/a	FF005.jpg	FF006.jpg
65.86543130001519	3.0019007999799214	decision	2.533945000031963	right	F	FF007.jpg	FF008.jpg
69.4154930000077	1.000533299986273	win	n/a	n/a	n/a	FF007.jpg	FF008.jpg
72.16545880003832	3.0011067999876104	decision	2.533325199969113	right	F	FF009.jpg	FF010.jpg
75.7153330000001	1.0001075000036508	win	n/a	n/a	n/a	FF009.jpg	FF010.jpg
78.46543099998962	3.00091640005121	decision	2.2833371000015177	right	F	FF011.jpg	FF012.jpg
82.01540470001055	1.0166623999830335	loss	n/a	n/a	n/a	FF011.jpg	FF012.jpg
86.88234250003006	3.0016036999877542	decision	2.7839803000097163	right	M	MF011.jpg	MF012.jpg
90.43204050004715	1.0000319999526255	loss	n/a	n/a	n/a	MF011.jpg	MF012.jpg
93.18208300002152	3.03557930001989	decision-missed	n/a	n/a	M	MF013.jpg	MF014.jpg
96.76536150003085	1.0165794999920763	win	n/a	n/a	n/a	MF013.jpg	MF014.jpg
103.73213730001589	3.0015848000184633	decision	2.032547799986787	right	M	MF015.jpg	MF016.jpg
107.28188280004542	1.0001789999660105	win	n/a	n/a	n/a	MF015.jpg	MF016.jpg
110.03205790003994	3.000970499997493	decision	2.0330470000044443	right	F	FF013.jpg	FF014.jpg
113.5819085999974	1.0000211000442505	win	n/a	n/a	n/a	FF013.jpg	FF014.jpg
120.53198120003799	3.001112599973567	decision	2.2825059999595396	left	M	MF017.jpg	MF018.jpg
124.08188960002735	1.0000374999945052	win	n/a	n/a	n/a	MF017.jpg	MF018.jpg
128.9318968000007	3.00111160002416	decision	2.283099599997513	left	F	FF015.jpg	FF016.jpg
132.4819792000344	1.0166814000112936	win	n/a	n/a	n/a	FF015.jpg	FF016.jpg
137.34849780000513	3.0007615000358783	decision	2.033299900009297	right	M	MF019.jpg	MF020.jpg
140.8985890999902	1.000052300048992	win	n/a	n/a	n/a	MF019.jpg	MF020.jpg
145.74894290004158	3.000979699951131	decision	2.5320436999900267	left	F	FF017.jpg	FF018.jpg
149.2986292000278	1.0165325999842025	win	n/a	n/a	n/a	FF017.jpg	FF018.jpg
162.5652179000317	3.050312799983658	decision	3.0497848999802954	left	M	MF021.jpg	MF022.jpg
166.16521190002095	1.0164839000208303	loss	n/a	n/a	n/a	MF021.jpg	MF022.jpg
173.13176690001274	3.0021074999822304	decision	2.0326716999989003	left	M	MF023.jpg	MF024.jpg
176.68177460000152	1.0167737000156194	win	n/a	n/a	n/a	MF023.jpg	MF024.jpg
183.64855899999384	3.001500300015323	decision	2.03226970002288	right	M	MF025.jpg	MF026.jpg
187.19881070003612	1.0163493999862112	loss	n/a	n/a	n/a	MF025.jpg	MF026.jpg
192.06516110000666	3.0018612000276335	decision	1.7826955000055023	left	M	MF027.jpg	MF028.jpg
195.61504850001074	1.000082199985627	loss	n/a	n/a	n/a	MF027.jpg	MF028.jpg
198.36518100003013	3.0018046000041068	decision	2.2837415999965742	right	F	FF019.jpg	FF020.jpg
201.915022900037	1.0000796999665909	loss	n/a	n/a	n/a	FF019.jpg	FF020.jpg
204.6651869000052	3.001290099986363	decision	2.0330724000232294	right	F	FF021.jpg	FF022.jpg
208.21499960002257	1.000069000001531	win	n/a	n/a	n/a	FF021.jpg	FF022.jpg
215.1650624999893	3.00134810002055	decision	2.533812100009527	right	M	MF029.jpg	MF030.jpg
218.71545960003277	1.0160278999828734	loss	n/a	n/a	n/a	MF029.jpg	MF030.jpg
225.68176360003417	3.0003726999857463	decision	2.2831855000113137	left	M	MF031.jpg	MF032.jpg
229.23176590004005	1.016726200003177	win	n/a	n/a	n/a	MF031.jpg	MF032.jpg
234.09832590003498	3.001125399954617	decision	2.283573599997908	right	F	FF023.jpg	FF024.jpg
237.64834170002723	1.016583000018727	loss	n/a	n/a	n/a	FF023.jpg	FF024.jpg
240.41499850002583	3.049690300016664	decision	3.0491476000170223	right	F	FF025.jpg	FF026.jpg
244.01496749999933	1.016686299990397	win	n/a	n/a	n/a	FF025.jpg	FF026.jpg
248.88202920003096	3.0024027999606915	decision	2.0319292999920435	left	F	FF027.jpg	FF028.jpg
252.43177290004678	1.0163352999952622	loss	n/a	n/a	n/a	FF027.jpg	FF028.jpg
255.19839949999005	3.0013636000221595	decision	2.53283130005002	right	M	MF033.jpg	MF034.jpg
258.7483167000464	1.0000250999582931	loss	n/a	n/a	n/a	MF033.jpg	MF034.jpg
261.4983812000137	3.0012767000007443	decision	2.283058200031519	right	M	MF035.jpg	MF036.jpg
265.0482390000252	1.0000774000072852	loss	n/a	n/a	n/a	MF035.jpg	MF036.jpg
267.81524700002046	3.0492909000022337	decision	3.0487621999927796	left	M	MF037.jpg	MF038.jpg
271.4148336999933	1.0000136000453494	win	n/a	n/a	n/a	MF037.jpg	MF038.jpg
278.36489770002663	3.0005723999929614	decision	2.533003499964252	left	F	FF029.jpg	FF030.jpg
281.91478240001015	1.0166670000180602	loss	n/a	n/a	n/a	FF029.jpg	FF030.jpg
284.68221749999793	3.001491300005	decision	2.2820986000006087	right	F	FF031.jpg	FF032.jpg
288.2315604000469	1.016498499957379	loss	n/a	n/a	n/a	FF031.jpg	FF032.jpg
293.0983021000284	3.002048800000921	decision	2.7846393999643624	right	F	FF033.jpg	FF034.jpg
296.6481930000009	1.0165395000367425	win	n/a	n/a	n/a	FF033.jpg	FF034.jpg
303.61483580002096	3.002055899996776	decision	2.5329476000042632	right	M	MF039.jpg	MF040.jpg
307.164756400045	1.0167204999597743	loss	n/a	n/a	n/a	MF039.jpg	MF040.jpg
314.13154640002176	3.0507586000021547	decision	3.050227999978233	right	F	FF035.jpg	FF036.jpg
317.7317508000415	1.0000389999477193	win	n/a	n/a	n/a	FF035.jpg	FF036.jpg
320.48151230002986	3.000930599984713	decision	2.784312099975068	left	F	FF037.jpg	FF038.jpg
324.0314872000017	1.016477900033351	loss	n/a	n/a	n/a	FF037.jpg	FF038.jpg
326.79813900002046	3.001269600004889	decision	2.533767100016121	left	F	FF039.jpg	FF040.jpg
330.3480669000419	1.016680600005202	loss	n/a	n/a	n/a	FF039.jpg	FF040.jpg
