onset	duration	trial_type	response_time	Endowment	Endowment_pmod	Decision	Decision_pmod	Offer_pmod
4.507585	2	cue_nonsocial	n/a	32	6	n/a	n/a	n/a
4.507585	2	cue_nonsocial_high	n/a	32	11	n/a	n/a	n/a
11.340738	2	cue_nonsocial	n/a	32	6	n/a	n/a	n/a
11.340738	2	cue_nonsocial_high	n/a	32	11	n/a	n/a	n/a
22.310510	2	cue_social	n/a	32	11	n/a	n/a	n/a
22.310510	2	cue_social_high	n/a	32	6	n/a	n/a	n/a
29.057367	2	cue_nonsocial	n/a	32	6	n/a	n/a	n/a
29.057367	2	cue_nonsocial_high	n/a	32	11	n/a	n/a	n/a
38.311370	2	cue_social	n/a	32	11	n/a	n/a	n/a
38.311370	2	cue_social_high	n/a	32	6	n/a	n/a	n/a
49.190580	2	cue_nonsocial	n/a	32	6	n/a	n/a	n/a
49.190580	2	cue_nonsocial_high	n/a	32	11	n/a	n/a	n/a
56.840540	2	cue_nonsocial	n/a	32	6	n/a	n/a	n/a
56.840540	2	cue_nonsocial_high	n/a	32	11	n/a	n/a	n/a
63.746887	2	cue_social	n/a	32	11	n/a	n/a	n/a
63.746887	2	cue_social_high	n/a	32	6	n/a	n/a	n/a
70.588486	2	cue_social	n/a	16	-5	n/a	n/a	n/a
70.588486	2	cue_social_low	n/a	16	-10	n/a	n/a	n/a
77.340590	2	cue_nonsocial	n/a	16	-10	n/a	n/a	n/a
77.340590	2	cue_nonsocial_low	n/a	16	-5	n/a	n/a	n/a
85.062485	2	cue_social	n/a	16	-5	n/a	n/a	n/a
85.062485	2	cue_social_low	n/a	16	-10	n/a	n/a	n/a
91.923180	2	cue_social	n/a	16	-5	n/a	n/a	n/a
91.923180	2	cue_social_low	n/a	16	-10	n/a	n/a	n/a
98.661070	2	cue_social	n/a	16	-5	n/a	n/a	n/a
98.661070	2	cue_social_low	n/a	16	-10	n/a	n/a	n/a
105.586845	2	cue_social	n/a	16	-5	n/a	n/a	n/a
105.586845	2	cue_social_low	n/a	16	-10	n/a	n/a	n/a
112.341210	2	cue_social	n/a	16	-5	n/a	n/a	n/a
112.341210	2	cue_social_low	n/a	16	-10	n/a	n/a	n/a
119.157455	2	cue_nonsocial	n/a	16	-10	n/a	n/a	n/a
119.157455	2	cue_nonsocial_low	n/a	16	-5	n/a	n/a	n/a
126.094696	2	cue_social	n/a	32	11	n/a	n/a	n/a
126.094696	2	cue_social_high	n/a	32	6	n/a	n/a	n/a
133.640750	2	cue_nonsocial	n/a	16	-10	n/a	n/a	n/a
133.640750	2	cue_nonsocial_low	n/a	16	-5	n/a	n/a	n/a
140.575040	2	cue_social	n/a	16	-5	n/a	n/a	n/a
140.575040	2	cue_social_low	n/a	16	-10	n/a	n/a	n/a
147.307430	2	cue_nonsocial	n/a	32	6	n/a	n/a	n/a
147.307430	2	cue_nonsocial_high	n/a	32	11	n/a	n/a	n/a
154.140430	2	cue_nonsocial	n/a	32	6	n/a	n/a	n/a
154.140430	2	cue_nonsocial_high	n/a	32	11	n/a	n/a	n/a
161.093340	2	cue_social	n/a	32	11	n/a	n/a	n/a
161.093340	2	cue_social_high	n/a	32	6	n/a	n/a	n/a
167.884750	2	cue_social	n/a	16	-5	n/a	n/a	n/a
167.884750	2	cue_social_low	n/a	16	-10	n/a	n/a	n/a
175.457170	2	cue_nonsocial	n/a	32	6	n/a	n/a	n/a
175.457170	2	cue_nonsocial_high	n/a	32	11	n/a	n/a	n/a
183.106890	2	cue_nonsocial	n/a	32	6	n/a	n/a	n/a
183.106890	2	cue_nonsocial_high	n/a	32	11	n/a	n/a	n/a
190.020810	2	cue_social	n/a	32	11	n/a	n/a	n/a
190.020810	2	cue_social_high	n/a	32	6	n/a	n/a	n/a
202.423460	2	cue_nonsocial	n/a	16	-10	n/a	n/a	n/a
202.423460	2	cue_nonsocial_low	n/a	16	-5	n/a	n/a	n/a
209.256850	2	cue_nonsocial	n/a	16	-10	n/a	n/a	n/a
209.256850	2	cue_nonsocial_low	n/a	16	-5	n/a	n/a	n/a
216.981750	2	cue_social	n/a	16	-5	n/a	n/a	n/a
216.981750	2	cue_social_low	n/a	16	-10	n/a	n/a	n/a
224.557170	2	cue_nonsocial	n/a	32	6	n/a	n/a	n/a
224.557170	2	cue_nonsocial_high	n/a	32	11	n/a	n/a	n/a
233.936950	2	cue_social	n/a	16	-5	n/a	n/a	n/a
233.936950	2	cue_social_low	n/a	16	-10	n/a	n/a	n/a
241.552370	2	cue_social	n/a	16	-5	n/a	n/a	n/a
241.552370	2	cue_social_low	n/a	16	-10	n/a	n/a	n/a
250.741120	2	cue_nonsocial	n/a	16	-10	n/a	n/a	n/a
250.741120	2	cue_nonsocial_low	n/a	16	-5	n/a	n/a	n/a
257.573330	2	cue_nonsocial	n/a	32	6	n/a	n/a	n/a
257.573330	2	cue_nonsocial_high	n/a	32	11	n/a	n/a	n/a
264.406650	2	cue_nonsocial	n/a	32	6	n/a	n/a	n/a
264.406650	2	cue_nonsocial_high	n/a	32	11	n/a	n/a	n/a
272.056980	2	cue_nonsocial	n/a	32	6	n/a	n/a	n/a
272.056980	2	cue_nonsocial_high	n/a	32	11	n/a	n/a	n/a
282.923220	2	cue_nonsocial	n/a	16	-10	n/a	n/a	n/a
282.923220	2	cue_nonsocial_low	n/a	16	-5	n/a	n/a	n/a
289.756620	2	cue_nonsocial	n/a	32	6	n/a	n/a	n/a
289.756620	2	cue_nonsocial_high	n/a	32	11	n/a	n/a	n/a
297.472230	2	cue_social	n/a	16	-5	n/a	n/a	n/a
297.472230	2	cue_social_low	n/a	16	-10	n/a	n/a	n/a
306.749880	2	cue_social	n/a	16	-5	n/a	n/a	n/a
306.749880	2	cue_social_low	n/a	16	-10	n/a	n/a	n/a
315.923400	2	cue_nonsocial	n/a	16	-10	n/a	n/a	n/a
315.923400	2	cue_nonsocial_low	n/a	16	-5	n/a	n/a	n/a
322.847140	2	cue_social	n/a	32	11	n/a	n/a	n/a
322.847140	2	cue_social_high	n/a	32	6	n/a	n/a	n/a
330.470120	2	cue_social	n/a	16	-5	n/a	n/a	n/a
330.470120	2	cue_social_low	n/a	16	-10	n/a	n/a	n/a
339.656920	2	cue_nonsocial	n/a	16	-10	n/a	n/a	n/a
339.656920	2	cue_nonsocial_low	n/a	16	-5	n/a	n/a	n/a
346.564500	2	cue_social	n/a	16	-5	n/a	n/a	n/a
346.564500	2	cue_social_low	n/a	16	-10	n/a	n/a	n/a
354.165280	2	cue_social	n/a	32	11	n/a	n/a	n/a
354.165280	2	cue_social_high	n/a	32	6	n/a	n/a	n/a
363.381560	2	cue_social	n/a	16	-5	n/a	n/a	n/a
363.381560	2	cue_social_low	n/a	16	-10	n/a	n/a	n/a
371.024170	2	cue_nonsocial	n/a	32	6	n/a	n/a	n/a
371.024170	2	cue_nonsocial_high	n/a	32	11	n/a	n/a	n/a
6.513920	2.632932	dec_nonsocial_choice	2.632932	32.000000	n/a	3	-1.360677e-01	-1.360677e-01
6.513920	2.632932	dec_choice	2.632932	32.000000	n/a	3	-1.341146e-01	-1.341146e-01
6.513920	2.632932	dec_nonsocial_accept	2.632932	32.000000	n/a	3	-2.682292e-01	-2.682292e-01
6.513920	2.632932	dec_accept	2.632932	32.000000	n/a	3	-2.475962e-01	-2.475962e-01
6.513920	2.632932	dec_nonsocial_accept_low	2.632932	32.000000	n/a	3	-2.926136e-01	-2.926136e-01
13.346949	1.732904	dec_nonsocial_choice	1.732904	32.000000	n/a	3	-1.360677e-01	-1.360677e-01
13.346949	1.732904	dec_choice	1.732904	32.000000	n/a	3	-1.341146e-01	-1.341146e-01
13.346949	1.732904	dec_nonsocial_accept	1.732904	32.000000	n/a	3	-2.682292e-01	-2.682292e-01
13.346949	1.732904	dec_accept	1.732904	32.000000	n/a	3	-2.475962e-01	-2.475962e-01
13.346949	1.732904	dec_nonsocial_accept_low	1.732904	32.000000	n/a	3	-2.926136e-01	-2.926136e-01
24.229097	1.633463	dec_social_choice	1.633463	32.000000	n/a	8	2.018229e-02	2.018229e-02
24.229097	1.633463	dec_choice	1.633463	32.000000	n/a	8	1.822917e-02	1.822917e-02
24.229097	1.633463	dec_social_accept	1.633463	32.000000	n/a	8	-1.119792e-01	-1.119792e-01
24.229097	1.633463	dec_accept	1.633463	32.000000	n/a	8	-1.363636e-01	-1.363636e-01
24.229097	1.633463	dec_social_accept_high	1.633463	32.000000	n/a	8	1.822917e-02	1.822917e-02
31.062927	1.100400	dec_nonsocial_choice	1.100400	32.000000	n/a	0	0	-2.298177e-01
31.062927	1.100400	dec_choice	1.100400	32.000000	n/a	0	0	-2.278646e-01
31.062927	1.100400	dec_nonsocial_reject	1.100400	32.000000	n/a	0	0	-3.515625e-02
31.062927	1.100400	dec_reject	1.100400	32.000000	n/a	0	0	-3.125000e-02
31.062927	1.100400	dec_nonsocial_low	1.100400	32.000000	n/a	0	-2.278646e-01	-2.278646e-01
31.062927	1.100400	dec_nonsocial_reject_low	1.100400	32.000000	n/a	2	-3.125000e-02	-9.375000e-02
40.329430	1.599814	dec_social_choice	1.599814	32.000000	n/a	8	2.018229e-02	2.018229e-02
40.329430	1.599814	dec_choice	1.599814	32.000000	n/a	8	1.822917e-02	1.822917e-02
40.329430	1.599814	dec_social_accept	1.599814	32.000000	n/a	8	-1.119792e-01	-1.119792e-01
40.329430	1.599814	dec_accept	1.599814	32.000000	n/a	8	-1.363636e-01	-1.363636e-01
40.329430	1.599814	dec_social_accept_high	1.599814	32.000000	n/a	8	1.822917e-02	1.822917e-02
51.196950	1.899990	dec_nonsocial_choice	1.899990	32.000000	n/a	0	0	-2.298177e-01
51.196950	1.899990	dec_choice	1.899990	32.000000	n/a	0	0	-2.278646e-01
51.196950	1.899990	dec_nonsocial_reject	1.899990	32.000000	n/a	0	0	-3.906250e-03
51.196950	1.899990	dec_reject	1.899990	32.000000	n/a	0	0	0
51.196950	1.899990	dec_nonsocial_reject_low	1.899990	32.000000	n/a	3	-7.211538e-03	-1.009615e-01
58.845890	1.400617	dec_nonsocial_choice	1.400617	32.000000	n/a	8	2.018229e-02	2.018229e-02
58.845890	1.400617	dec_choice	1.400617	32.000000	n/a	8	2.213542e-02	2.213542e-02
58.845890	1.400617	dec_nonsocial_accept	1.400617	32.000000	n/a	8	-1.119792e-01	-1.119792e-01
58.845890	1.400617	dec_accept	1.400617	32.000000	n/a	8	-9.134615e-02	-9.134615e-02
58.845890	1.400617	dec_nonsocial_accept_high	1.400617	32.000000	n/a	8	-1.363636e-01	-1.363636e-01
65.679070	1.200664	dec_social_choice	1.200664	32.000000	n/a	16	2.701823e-01	2.701823e-01
65.679070	1.200664	dec_choice	1.200664	32.000000	n/a	16	2.682292e-01	2.682292e-01
65.679070	1.200664	dec_social_accept	1.200664	32.000000	n/a	16	1.380208e-01	1.380208e-01
65.679070	1.200664	dec_accept	1.200664	32.000000	n/a	16	1.136364e-01	1.136364e-01
65.679070	1.200664	dec_social_accept_high	1.200664	32.000000	n/a	16	2.682292e-01	2.682292e-01
72.511920	1.601205	dec_social_choice	1.601205	16.000000	n/a	0	0	-2.298177e-01
72.511920	1.601205	dec_choice	1.601205	16.000000	n/a	0	0	-2.317708e-01
72.511920	1.601205	dec_social_reject	1.601205	16.000000	n/a	0	0	-3.515625e-02
72.511920	1.601205	dec_reject	1.601205	16.000000	n/a	0	0	-3.846154e-02
72.511920	1.601205	dec_social_reject_low	1.601205	16.000000	n/a	1	-1.692708e-01	-2.317708e-01
79.346330	1.083432	dec_nonsocial_choice	1.083432	16.000000	n/a	8	2.701823e-01	2.701823e-01
79.346330	1.083432	dec_choice	1.083432	16.000000	n/a	8	2.721354e-01	2.721354e-01
79.346330	1.083432	dec_nonsocial_accept	1.083432	16.000000	n/a	8	1.380208e-01	1.380208e-01
79.346330	1.083432	dec_accept	1.083432	16.000000	n/a	8	1.586538e-01	1.586538e-01
79.346330	1.083432	dec_nonsocial_accept_high	1.083432	16.000000	n/a	8	1.136364e-01	1.136364e-01
86.996124	1.783280	dec_social_choice	1.783280	16.000000	n/a	0	0	-2.298177e-01
86.996124	1.783280	dec_choice	1.783280	16.000000	n/a	0	0	-2.317708e-01
86.996124	1.783280	dec_social_reject	1.783280	16.000000	n/a	0	0	1.523438e-01
86.996124	1.783280	dec_reject	1.783280	16.000000	n/a	0	0	1.490385e-01
86.996124	1.783280	dec_social_low	1.783280	16.000000	n/a	0	-2.317708e-01	-2.317708e-01
86.996124	1.783280	dec_social_reject_low	1.783280	16.000000	n/a	4	1.822917e-02	-2.317708e-01
93.830910	1.182140	dec_social_choice	1.182140	16.000000	n/a	8	2.701823e-01	2.701823e-01
93.830910	1.182140	dec_choice	1.182140	16.000000	n/a	8	2.682292e-01	2.682292e-01
93.830910	1.182140	dec_social_accept	1.182140	16.000000	n/a	8	1.380208e-01	1.380208e-01
93.830910	1.182140	dec_accept	1.182140	16.000000	n/a	8	1.136364e-01	1.136364e-01
93.830910	1.182140	dec_social_accept_high	1.182140	16.000000	n/a	8	2.682292e-01	2.682292e-01
100.663925	1.082873	dec_social_choice	1.082873	16.000000	n/a	0	0	-2.298177e-01
100.663925	1.082873	dec_choice	1.082873	16.000000	n/a	0	0	-2.317708e-01
100.663925	1.082873	dec_social_reject	1.082873	16.000000	n/a	0	0	2.734375e-02
100.663925	1.082873	dec_reject	1.082873	16.000000	n/a	0	0	2.403846e-02
100.663925	1.082873	dec_social_reject_low	1.082873	16.000000	n/a	2	-1.067708e-01	-2.317708e-01
107.496090	0.900143	dec_social_choice	0.900143	16.000000	n/a	8	2.701823e-01	2.701823e-01
107.496090	0.900143	dec_choice	0.900143	16.000000	n/a	8	2.682292e-01	2.682292e-01
107.496090	0.900143	dec_social_accept	0.900143	16.000000	n/a	8	1.380208e-01	1.380208e-01
107.496090	0.900143	dec_accept	0.900143	16.000000	n/a	8	1.136364e-01	1.136364e-01
107.496090	0.900143	dec_social_accept_high	0.900143	16.000000	n/a	8	2.682292e-01	2.682292e-01
114.329735	1.083212	dec_social_choice	1.083212	16.000000	n/a	0	0	-2.298177e-01
114.329735	1.083212	dec_choice	1.083212	16.000000	n/a	0	0	-2.317708e-01
114.329735	1.083212	dec_social_reject	1.083212	16.000000	n/a	0	0	-3.515625e-02
114.329735	1.083212	dec_reject	1.083212	16.000000	n/a	0	0	-3.846154e-02
114.329735	1.083212	dec_social_reject_low	1.083212	16.000000	n/a	1	-1.692708e-01	-2.317708e-01
121.162870	1.500366	dec_nonsocial_choice	1.500366	16.000000	n/a	0	0	-2.298177e-01
121.162870	1.500366	dec_choice	1.500366	16.000000	n/a	0	0	-2.278646e-01
121.162870	1.500366	dec_nonsocial_reject	1.500366	16.000000	n/a	0	0	1.523438e-01
121.162870	1.500366	dec_reject	1.500366	16.000000	n/a	0	0	1.562500e-01
121.162870	1.500366	dec_nonsocial_reject_low	1.500366	16.000000	n/a	4	1.490385e-01	-1.009615e-01
127.996185	0.850324	dec_social_choice	0.850324	32.000000	n/a	0	0	-2.298177e-01
127.996185	0.850324	dec_choice	0.850324	32.000000	n/a	0	0	-2.317708e-01
127.996185	0.850324	dec_social_reject	0.850324	32.000000	n/a	0	0	-3.515625e-02
127.996185	0.850324	dec_reject	0.850324	32.000000	n/a	0	0	-3.846154e-02
127.996185	0.850324	dec_social_reject_low	0.850324	32.000000	n/a	2	-1.692708e-01	-2.317708e-01
135.646910	1.182865	dec_nonsocial_choice	1.182865	16.000000	n/a	0	0	-2.298177e-01
135.646910	1.182865	dec_choice	1.182865	16.000000	n/a	0	0	-2.278646e-01
135.646910	1.182865	dec_nonsocial_reject	1.182865	16.000000	n/a	0	0	-3.515625e-02
135.646910	1.182865	dec_reject	1.182865	16.000000	n/a	0	0	-3.125000e-02
135.646910	1.182865	dec_nonsocial_low	1.182865	16.000000	n/a	0	-2.278646e-01	-2.278646e-01
135.646910	1.182865	dec_nonsocial_reject_low	1.182865	16.000000	n/a	1	-3.125000e-02	-9.375000e-02
142.478900	2.216859	dec_social_choice	2.216859	16.000000	n/a	0	0	-2.298177e-01
142.478900	2.216859	dec_choice	2.216859	16.000000	n/a	0	0	-2.317708e-01
142.478900	2.216859	dec_social_reject	2.216859	16.000000	n/a	0	0	2.734375e-02
142.478900	2.216859	dec_reject	2.216859	16.000000	n/a	0	0	2.403846e-02
142.478900	2.216859	dec_social_reject_low	2.216859	16.000000	n/a	2	-1.067708e-01	-2.317708e-01
149.313890	1.315087	dec_nonsocial_choice	1.315087	32.000000	n/a	8	2.018229e-02	2.018229e-02
149.313890	1.315087	dec_choice	1.315087	32.000000	n/a	8	2.213542e-02	2.213542e-02
149.313890	1.315087	dec_nonsocial_accept	1.315087	32.000000	n/a	8	-1.119792e-01	-1.119792e-01
149.313890	1.315087	dec_accept	1.315087	32.000000	n/a	8	-9.134615e-02	-9.134615e-02
149.313890	1.315087	dec_nonsocial_accept_high	1.315087	32.000000	n/a	8	-1.363636e-01	-1.363636e-01
156.145980	1.066410	dec_nonsocial_choice	1.066410	32.000000	n/a	0	0	-2.298177e-01
156.145980	1.066410	dec_choice	1.066410	32.000000	n/a	0	0	-2.278646e-01
156.145980	1.066410	dec_nonsocial_reject	1.066410	32.000000	n/a	0	0	-3.515625e-02
156.145980	1.066410	dec_reject	1.066410	32.000000	n/a	0	0	-3.125000e-02
156.145980	1.066410	dec_nonsocial_reject_low	1.066410	32.000000	n/a	2	-3.846154e-02	-1.009615e-01
162.980580	1.415244	dec_social_choice	1.415244	32.000000	n/a	0	0	-2.298177e-01
162.980580	1.415244	dec_choice	1.415244	32.000000	n/a	0	0	-2.317708e-01
162.980580	1.415244	dec_social_reject	1.415244	32.000000	n/a	0	0	-3.906250e-03
162.980580	1.415244	dec_reject	1.415244	32.000000	n/a	0	0	-7.211538e-03
162.980580	1.415244	dec_social_reject_low	1.415244	32.000000	n/a	3	-1.380208e-01	-2.317708e-01
169.811950	1.351160	dec_social_choice	1.351160	16.000000	n/a	0	0	-2.298177e-01
169.811950	1.351160	dec_choice	1.351160	16.000000	n/a	0	0	-2.317708e-01
169.811950	1.351160	dec_social_reject	1.351160	16.000000	n/a	0	0	2.734375e-02
169.811950	1.351160	dec_reject	1.351160	16.000000	n/a	0	0	2.403846e-02
169.811950	1.351160	dec_social_reject_low	1.351160	16.000000	n/a	2	-1.067708e-01	-2.317708e-01
177.462880	1.399987	dec_nonsocial_choice	1.399987	32.000000	n/a	0	0	-2.298177e-01
177.462880	1.399987	dec_choice	1.399987	32.000000	n/a	0	0	-2.278646e-01
177.462880	1.399987	dec_nonsocial_reject	1.399987	32.000000	n/a	0	0	-3.906250e-03
177.462880	1.399987	dec_reject	1.399987	32.000000	n/a	0	0	0
177.462880	1.399987	dec_nonsocial_low	1.399987	32.000000	n/a	0	-2.278646e-01	-2.278646e-01
177.462880	1.399987	dec_nonsocial_reject_low	1.399987	32.000000	n/a	3	0	-9.375000e-02
185.113300	1.599741	dec_nonsocial_choice	1.599741	32.000000	n/a	0	0	-2.298177e-01
185.113300	1.599741	dec_choice	1.599741	32.000000	n/a	0	0	-2.278646e-01
185.113300	1.599741	dec_nonsocial_reject	1.599741	32.000000	n/a	0	0	-3.906250e-03
185.113300	1.599741	dec_reject	1.599741	32.000000	n/a	0	0	0
185.113300	1.599741	dec_nonsocial_low	1.599741	32.000000	n/a	0	-2.278646e-01	-2.278646e-01
185.113300	1.599741	dec_nonsocial_reject_low	1.599741	32.000000	n/a	3	0	-9.375000e-02
191.945970	1.300231	dec_social_choice	1.300231	32.000000	n/a	0	0	-2.298177e-01
191.945970	1.300231	dec_choice	1.300231	32.000000	n/a	0	0	-2.317708e-01
191.945970	1.300231	dec_social_reject	1.300231	32.000000	n/a	0	0	-3.515625e-02
191.945970	1.300231	dec_reject	1.300231	32.000000	n/a	0	0	-3.846154e-02
191.945970	1.300231	dec_social_reject_low	1.300231	32.000000	n/a	2	-1.692708e-01	-2.317708e-01
204.429840	0.999924	dec_nonsocial_choice	0.999924	16.000000	n/a	0	0	-2.298177e-01
204.429840	0.999924	dec_choice	0.999924	16.000000	n/a	0	0	-2.278646e-01
204.429840	0.999924	dec_nonsocial_reject	0.999924	16.000000	n/a	0	0	-3.515625e-02
204.429840	0.999924	dec_reject	0.999924	16.000000	n/a	0	0	-3.125000e-02
204.429840	0.999924	dec_nonsocial_reject_low	0.999924	16.000000	n/a	1	-3.846154e-02	-1.009615e-01
211.261890	1.601299	dec_nonsocial_choice	1.601299	16.000000	n/a	4	2.018229e-02	2.018229e-02
211.261890	1.601299	dec_choice	1.601299	16.000000	n/a	4	2.213542e-02	2.213542e-02
211.261890	1.601299	dec_nonsocial_accept	1.601299	16.000000	n/a	4	-1.119792e-01	-1.119792e-01
211.261890	1.601299	dec_accept	1.601299	16.000000	n/a	4	-9.134615e-02	-9.134615e-02
211.261890	1.601299	dec_nonsocial_accept_high	1.601299	16.000000	n/a	4	-1.363636e-01	-1.363636e-01
218.911870	0.934125	dec_social_choice	0.934125	16.000000	n/a	8	2.701823e-01	2.701823e-01
218.911870	0.934125	dec_choice	0.934125	16.000000	n/a	8	2.682292e-01	2.682292e-01
218.911870	0.934125	dec_social_accept	0.934125	16.000000	n/a	8	1.380208e-01	1.380208e-01
218.911870	0.934125	dec_accept	0.934125	16.000000	n/a	8	1.136364e-01	1.136364e-01
218.911870	0.934125	dec_social_accept_high	0.934125	16.000000	n/a	8	2.682292e-01	2.682292e-01
226.563860	0.948851	dec_nonsocial_choice	0.948851	32.000000	n/a	16	2.701823e-01	2.701823e-01
226.563860	0.948851	dec_choice	0.948851	32.000000	n/a	16	2.721354e-01	2.721354e-01
226.563860	0.948851	dec_nonsocial_accept	0.948851	32.000000	n/a	16	1.380208e-01	1.380208e-01
226.563860	0.948851	dec_accept	0.948851	32.000000	n/a	16	1.586538e-01	1.586538e-01
226.563860	0.948851	dec_nonsocial_accept_high	0.948851	32.000000	n/a	16	1.136364e-01	1.136364e-01
235.829820	2.149071	dec_social_choice	2.149071	16.000000	n/a	8	2.701823e-01	2.701823e-01
235.829820	2.149071	dec_choice	2.149071	16.000000	n/a	8	2.682292e-01	2.682292e-01
235.829820	2.149071	dec_social_accept	2.149071	16.000000	n/a	8	1.380208e-01	1.380208e-01
235.829820	2.149071	dec_accept	2.149071	16.000000	n/a	8	1.136364e-01	1.136364e-01
235.829820	2.149071	dec_social_high	2.149071	16.000000	n/a	8	2.682292e-01	2.682292e-01
235.829820	2.149071	dec_social_accept_high	2.149071	16.000000	n/a	8	2.682292e-01	2.682292e-01
243.479840	1.350063	dec_social_choice	1.350063	16.000000	n/a	4	2.018229e-02	2.018229e-02
243.479840	1.350063	dec_choice	1.350063	16.000000	n/a	4	1.822917e-02	1.822917e-02
243.479840	1.350063	dec_social_accept	1.350063	16.000000	n/a	4	-1.119792e-01	-1.119792e-01
243.479840	1.350063	dec_accept	1.350063	16.000000	n/a	4	-1.363636e-01	-1.363636e-01
243.479840	1.350063	dec_social_high	1.350063	16.000000	n/a	4	1.822917e-02	1.822917e-02
243.479840	1.350063	dec_social_accept_high	1.350063	16.000000	n/a	4	1.822917e-02	1.822917e-02
252.745270	0.900707	dec_nonsocial_choice	0.900707	16.000000	n/a	0	0	-2.298177e-01
252.745270	0.900707	dec_choice	0.900707	16.000000	n/a	0	0	-2.278646e-01
252.745270	0.900707	dec_nonsocial_reject	0.900707	16.000000	n/a	0	0	2.734375e-02
252.745270	0.900707	dec_reject	0.900707	16.000000	n/a	0	0	3.125000e-02
252.745270	0.900707	dec_nonsocial_reject_low	0.900707	16.000000	n/a	2	2.403846e-02	-1.009615e-01
259.579040	1.266825	dec_nonsocial_choice	1.266825	32.000000	n/a	0	0	-2.298177e-01
259.579040	1.266825	dec_choice	1.266825	32.000000	n/a	0	0	-2.278646e-01
259.579040	1.266825	dec_nonsocial_reject	1.266825	32.000000	n/a	0	0	-3.515625e-02
259.579040	1.266825	dec_reject	1.266825	32.000000	n/a	0	0	-3.125000e-02
259.579040	1.266825	dec_nonsocial_low	1.266825	32.000000	n/a	0	-2.278646e-01	-2.278646e-01
259.579040	1.266825	dec_nonsocial_reject_low	1.266825	32.000000	n/a	2	-3.125000e-02	-9.375000e-02
266.411830	1.067357	dec_nonsocial_choice	1.067357	32.000000	n/a	16	2.701823e-01	2.701823e-01
266.411830	1.067357	dec_choice	1.067357	32.000000	n/a	16	2.721354e-01	2.721354e-01
266.411830	1.067357	dec_nonsocial_accept	1.067357	32.000000	n/a	16	1.380208e-01	1.380208e-01
266.411830	1.067357	dec_accept	1.067357	32.000000	n/a	16	1.586538e-01	1.586538e-01
266.411830	1.067357	dec_nonsocial_accept_high	1.067357	32.000000	n/a	16	1.136364e-01	1.136364e-01
274.061860	1.251101	dec_nonsocial_choice	1.251101	32.000000	n/a	8	2.018229e-02	2.018229e-02
274.061860	1.251101	dec_choice	1.251101	32.000000	n/a	8	2.213542e-02	2.213542e-02
274.061860	1.251101	dec_nonsocial_accept	1.251101	32.000000	n/a	8	-1.119792e-01	-1.119792e-01
274.061860	1.251101	dec_accept	1.251101	32.000000	n/a	8	-9.134615e-02	-9.134615e-02
274.061860	1.251101	dec_nonsocial_accept_high	1.251101	32.000000	n/a	8	-1.363636e-01	-1.363636e-01
284.929600	1.183131	dec_nonsocial_choice	1.183131	16.000000	n/a	8	2.701823e-01	2.701823e-01
284.929600	1.183131	dec_choice	1.183131	16.000000	n/a	8	2.721354e-01	2.721354e-01
284.929600	1.183131	dec_nonsocial_accept	1.183131	16.000000	n/a	8	1.380208e-01	1.380208e-01
284.929600	1.183131	dec_accept	1.183131	16.000000	n/a	8	1.586538e-01	1.586538e-01
284.929600	1.183131	dec_nonsocial_high	1.183131	16.000000	n/a	8	2.721354e-01	2.721354e-01
284.929600	1.183131	dec_nonsocial_accept_high	1.183131	16.000000	n/a	8	1.586538e-01	1.586538e-01
291.762820	1.033231	dec_nonsocial_choice	1.033231	32.000000	n/a	0	0	-2.298177e-01
291.762820	1.033231	dec_choice	1.033231	32.000000	n/a	0	0	-2.278646e-01
291.762820	1.033231	dec_nonsocial_reject	1.033231	32.000000	n/a	0	0	-3.515625e-02
291.762820	1.033231	dec_reject	1.033231	32.000000	n/a	0	0	-3.125000e-02
291.762820	1.033231	dec_nonsocial_low	1.033231	32.000000	n/a	0	-2.278646e-01	-2.278646e-01
291.762820	1.033231	dec_nonsocial_reject_low	1.033231	32.000000	n/a	2	-3.125000e-02	-9.375000e-02
299.412800	1.216022	dec_social_choice	1.216022	16.000000	n/a	4	2.018229e-02	2.018229e-02
299.412800	1.216022	dec_choice	1.216022	16.000000	n/a	4	1.822917e-02	1.822917e-02
299.412800	1.216022	dec_social_accept	1.216022	16.000000	n/a	4	-1.119792e-01	-1.119792e-01
299.412800	1.216022	dec_accept	1.216022	16.000000	n/a	4	-1.363636e-01	-1.363636e-01
299.412800	1.216022	dec_social_accept_high	1.216022	16.000000	n/a	4	1.822917e-02	1.822917e-02
308.663800	1.497996	dec_social_choice	1.497996	16.000000	n/a	0	0	-2.298177e-01
308.663800	1.497996	dec_choice	1.497996	16.000000	n/a	0	0	-2.317708e-01
308.663800	1.497996	dec_social_reject	1.497996	16.000000	n/a	0	0	-3.515625e-02
308.663800	1.497996	dec_reject	1.497996	16.000000	n/a	0	0	-3.846154e-02
308.663800	1.497996	dec_social_reject_low	1.497996	16.000000	n/a	1	-1.692708e-01	-2.317708e-01
317.928770	1.216517	dec_nonsocial_choice	1.216517	16.000000	n/a	8	2.701823e-01	2.701823e-01
317.928770	1.216517	dec_choice	1.216517	16.000000	n/a	8	2.721354e-01	2.721354e-01
317.928770	1.216517	dec_nonsocial_accept	1.216517	16.000000	n/a	8	1.380208e-01	1.380208e-01
317.928770	1.216517	dec_accept	1.216517	16.000000	n/a	8	1.586538e-01	1.586538e-01
317.928770	1.216517	dec_nonsocial_high	1.216517	16.000000	n/a	8	2.721354e-01	2.721354e-01
317.928770	1.216517	dec_nonsocial_accept_high	1.216517	16.000000	n/a	8	1.586538e-01	1.586538e-01
324.762000	1.100815	dec_social_choice	1.100815	32.000000	n/a	0	0	-2.298177e-01
324.762000	1.100815	dec_choice	1.100815	32.000000	n/a	0	0	-2.317708e-01
324.762000	1.100815	dec_social_reject	1.100815	32.000000	n/a	0	0	-3.906250e-03
324.762000	1.100815	dec_reject	1.100815	32.000000	n/a	0	0	-7.211538e-03
324.762000	1.100815	dec_social_low	1.100815	32.000000	n/a	0	-2.317708e-01	-2.317708e-01
324.762000	1.100815	dec_social_reject_low	1.100815	32.000000	n/a	3	-1.380208e-01	-2.317708e-01
332.412750	1.133120	dec_social_choice	1.133120	16.000000	n/a	0	0	-2.298177e-01
332.412750	1.133120	dec_choice	1.133120	16.000000	n/a	0	0	-2.317708e-01
332.412750	1.133120	dec_social_reject	1.133120	16.000000	n/a	0	0	-3.515625e-02
332.412750	1.133120	dec_reject	1.133120	16.000000	n/a	0	0	-3.846154e-02
332.412750	1.133120	dec_social_low	1.133120	16.000000	n/a	0	-2.317708e-01	-2.317708e-01
332.412750	1.133120	dec_social_reject_low	1.133120	16.000000	n/a	1	-1.692708e-01	-2.317708e-01
341.661870	0.983857	dec_nonsocial_choice	0.983857	16.000000	n/a	8	2.701823e-01	2.701823e-01
341.661870	0.983857	dec_choice	0.983857	16.000000	n/a	8	2.721354e-01	2.721354e-01
341.661870	0.983857	dec_nonsocial_accept	0.983857	16.000000	n/a	8	1.380208e-01	1.380208e-01
341.661870	0.983857	dec_accept	0.983857	16.000000	n/a	8	1.586538e-01	1.586538e-01
341.661870	0.983857	dec_nonsocial_high	0.983857	16.000000	n/a	8	2.721354e-01	2.721354e-01
341.661870	0.983857	dec_nonsocial_accept_high	0.983857	16.000000	n/a	8	1.586538e-01	1.586538e-01
348.495800	1.100337	dec_social_choice	1.100337	16.000000	n/a	0	0	-2.298177e-01
348.495800	1.100337	dec_choice	1.100337	16.000000	n/a	0	0	-2.317708e-01
348.495800	1.100337	dec_social_reject	1.100337	16.000000	n/a	0	0	2.734375e-02
348.495800	1.100337	dec_reject	1.100337	16.000000	n/a	0	0	2.403846e-02
348.495800	1.100337	dec_social_reject_low	1.100337	16.000000	n/a	2	-1.067708e-01	-2.317708e-01
356.129820	1.099142	dec_social_choice	1.099142	32.000000	n/a	16	2.701823e-01	2.701823e-01
356.129820	1.099142	dec_choice	1.099142	32.000000	n/a	16	2.682292e-01	2.682292e-01
356.129820	1.099142	dec_social_accept	1.099142	32.000000	n/a	16	1.380208e-01	1.380208e-01
356.129820	1.099142	dec_accept	1.099142	32.000000	n/a	16	1.136364e-01	1.136364e-01
356.129820	1.099142	dec_social_high	1.099142	32.000000	n/a	16	2.682292e-01	2.682292e-01
356.129820	1.099142	dec_social_accept_high	1.099142	32.000000	n/a	16	2.682292e-01	2.682292e-01
365.379580	1.732824	dec_social_choice	1.732824	16.000000	n/a	4	2.018229e-02	2.018229e-02
365.379580	1.732824	dec_choice	1.732824	16.000000	n/a	4	1.822917e-02	1.822917e-02
365.379580	1.732824	dec_social_accept	1.732824	16.000000	n/a	4	-1.119792e-01	-1.119792e-01
365.379580	1.732824	dec_accept	1.732824	16.000000	n/a	4	-1.363636e-01	-1.363636e-01
365.379580	1.732824	dec_social_accept_high	1.732824	16.000000	n/a	4	1.822917e-02	1.822917e-02
373.028750	1.266395	dec_nonsocial_choice	1.266395	32.000000	n/a	8	2.018229e-02	2.018229e-02
373.028750	1.266395	dec_choice	1.266395	32.000000	n/a	8	2.213542e-02	2.213542e-02
373.028750	1.266395	dec_nonsocial_accept	1.266395	32.000000	n/a	8	-1.119792e-01	-1.119792e-01
373.028750	1.266395	dec_accept	1.266395	32.000000	n/a	8	-9.134615e-02	-9.134615e-02
373.028750	1.266395	dec_nonsocial_high	1.266395	32.000000	n/a	8	2.213542e-02	2.213542e-02
373.028750	1.266395	dec_nonsocial_accept_high	1.266395	32.000000	n/a	8	-9.134615e-02	-9.134615e-02
