onset	duration	trial_type	response_time	Endowment	Endowment_pmod	Decision	Decision_pmod	Offer_pmod
4.583638	2	cue_social	n/a	16	-8	n/a	n/a	n/a
4.583638	2	cue_social_low	n/a	16	-7	n/a	n/a	n/a
13.781354	2	cue_nonsocial	n/a	32	9	n/a	n/a	n/a
13.781354	2	cue_nonsocial_high	n/a	32	8	n/a	n/a	n/a
20.614555	2	cue_nonsocial	n/a	32	9	n/a	n/a	n/a
20.614555	2	cue_nonsocial_high	n/a	32	8	n/a	n/a	n/a
27.448166	2	cue_nonsocial	n/a	32	9	n/a	n/a	n/a
27.448166	2	cue_nonsocial_high	n/a	32	8	n/a	n/a	n/a
34.355938	2	cue_social	n/a	16	-8	n/a	n/a	n/a
34.355938	2	cue_social_low	n/a	16	-7	n/a	n/a	n/a
42.005405	2	cue_social	n/a	16	-8	n/a	n/a	n/a
42.005405	2	cue_social_low	n/a	16	-7	n/a	n/a	n/a
48.765550	2	cue_nonsocial	n/a	16	-7	n/a	n/a	n/a
48.765550	2	cue_nonsocial_low	n/a	16	-8	n/a	n/a	n/a
55.597700	2	cue_nonsocial	n/a	32	9	n/a	n/a	n/a
55.597700	2	cue_nonsocial_high	n/a	32	8	n/a	n/a	n/a
64.847910	2	cue_nonsocial	n/a	16	-7	n/a	n/a	n/a
64.847910	2	cue_nonsocial_low	n/a	16	-8	n/a	n/a	n/a
74.183510	2	cue_social	n/a	16	-8	n/a	n/a	n/a
74.183510	2	cue_social_low	n/a	16	-7	n/a	n/a	n/a
81.747800	2	cue_nonsocial	n/a	16	-7	n/a	n/a	n/a
81.747800	2	cue_nonsocial_low	n/a	16	-8	n/a	n/a	n/a
88.581375	2	cue_nonsocial	n/a	16	-7	n/a	n/a	n/a
88.581375	2	cue_nonsocial_low	n/a	16	-8	n/a	n/a	n/a
97.928720	2	cue_social	n/a	32	8	n/a	n/a	n/a
97.928720	2	cue_social_high	n/a	32	9	n/a	n/a	n/a
105.588270	2	cue_social	n/a	32	8	n/a	n/a	n/a
105.588270	2	cue_social_high	n/a	32	9	n/a	n/a	n/a
113.247660	2	cue_social	n/a	32	8	n/a	n/a	n/a
113.247660	2	cue_social_high	n/a	32	9	n/a	n/a	n/a
120.033870	2	cue_social	n/a	32	8	n/a	n/a	n/a
120.033870	2	cue_social_high	n/a	32	9	n/a	n/a	n/a
129.303510	2	cue_social	n/a	16	-8	n/a	n/a	n/a
129.303510	2	cue_social_low	n/a	16	-7	n/a	n/a	n/a
136.157820	2	cue_social	n/a	16	-8	n/a	n/a	n/a
136.157820	2	cue_social_low	n/a	16	-7	n/a	n/a	n/a
142.914320	2	cue_nonsocial	n/a	16	-7	n/a	n/a	n/a
142.914320	2	cue_nonsocial_low	n/a	16	-8	n/a	n/a	n/a
152.262370	2	cue_social	n/a	32	8	n/a	n/a	n/a
152.262370	2	cue_social_high	n/a	32	9	n/a	n/a	n/a
159.831070	2	cue_nonsocial	n/a	32	9	n/a	n/a	n/a
159.831070	2	cue_nonsocial_high	n/a	32	8	n/a	n/a	n/a
167.555880	2	cue_social	n/a	32	8	n/a	n/a	n/a
167.555880	2	cue_social_high	n/a	32	9	n/a	n/a	n/a
175.130750	2	cue_nonsocial	n/a	32	9	n/a	n/a	n/a
175.130750	2	cue_nonsocial_high	n/a	32	8	n/a	n/a	n/a
182.780650	2	cue_nonsocial	n/a	16	-7	n/a	n/a	n/a
182.780650	2	cue_nonsocial_low	n/a	16	-8	n/a	n/a	n/a
189.676240	2	cue_social	n/a	16	-8	n/a	n/a	n/a
189.676240	2	cue_social_low	n/a	16	-7	n/a	n/a	n/a
196.447420	2	cue_nonsocial	n/a	16	-7	n/a	n/a	n/a
196.447420	2	cue_nonsocial_low	n/a	16	-8	n/a	n/a	n/a
203.318160	2	cue_social	n/a	16	-8	n/a	n/a	n/a
203.318160	2	cue_social_low	n/a	16	-7	n/a	n/a	n/a
210.178910	2	cue_social	n/a	32	8	n/a	n/a	n/a
210.178910	2	cue_social_high	n/a	32	9	n/a	n/a	n/a
216.947780	2	cue_nonsocial	n/a	32	9	n/a	n/a	n/a
216.947780	2	cue_nonsocial_high	n/a	32	8	n/a	n/a	n/a
223.832090	2	cue_social	n/a	16	-8	n/a	n/a	n/a
223.832090	2	cue_social_low	n/a	16	-7	n/a	n/a	n/a
230.614730	2	cue_nonsocial	n/a	32	9	n/a	n/a	n/a
230.614730	2	cue_nonsocial_high	n/a	32	8	n/a	n/a	n/a
241.480510	2	cue_nonsocial	n/a	32	9	n/a	n/a	n/a
241.480510	2	cue_nonsocial_high	n/a	32	8	n/a	n/a	n/a
252.443790	2	cue_social	n/a	16	-8	n/a	n/a	n/a
252.443790	2	cue_social_low	n/a	16	-7	n/a	n/a	n/a
259.292080	2	cue_social	n/a	32	8	n/a	n/a	n/a
259.292080	2	cue_social_high	n/a	32	9	n/a	n/a	n/a
266.906160	2	cue_social	n/a	16	-8	n/a	n/a	n/a
266.906160	2	cue_social_low	n/a	16	-7	n/a	n/a	n/a
274.579740	2	cue_social	n/a	32	8	n/a	n/a	n/a
274.579740	2	cue_social_high	n/a	32	9	n/a	n/a	n/a
281.323580	2	cue_nonsocial	n/a	16	-7	n/a	n/a	n/a
281.323580	2	cue_nonsocial_low	n/a	16	-8	n/a	n/a	n/a
288.964050	2	cue_nonsocial	n/a	16	-7	n/a	n/a	n/a
288.964050	2	cue_nonsocial_low	n/a	16	-8	n/a	n/a	n/a
295.810030	2	cue_nonsocial	n/a	32	9	n/a	n/a	n/a
295.810030	2	cue_nonsocial_high	n/a	32	8	n/a	n/a	n/a
302.715940	2	cue_social	n/a	16	-8	n/a	n/a	n/a
302.715940	2	cue_social_low	n/a	16	-7	n/a	n/a	n/a
313.497650	2	cue_nonsocial	n/a	32	9	n/a	n/a	n/a
313.497650	2	cue_nonsocial_high	n/a	32	8	n/a	n/a	n/a
321.147160	2	cue_nonsocial	n/a	16	-7	n/a	n/a	n/a
321.147160	2	cue_nonsocial_low	n/a	16	-8	n/a	n/a	n/a
327.980470	2	cue_nonsocial	n/a	16	-7	n/a	n/a	n/a
327.980470	2	cue_nonsocial_low	n/a	16	-8	n/a	n/a	n/a
337.247160	2	cue_nonsocial	n/a	16	-7	n/a	n/a	n/a
337.247160	2	cue_nonsocial_low	n/a	16	-8	n/a	n/a	n/a
344.967250	2	cue_social	n/a	32	8	n/a	n/a	n/a
344.967250	2	cue_social_high	n/a	32	9	n/a	n/a	n/a
351.731720	2	cue_nonsocial	n/a	16	-7	n/a	n/a	n/a
351.731720	2	cue_nonsocial_low	n/a	16	-8	n/a	n/a	n/a
358.642850	2	cue_social	n/a	32	8	n/a	n/a	n/a
358.642850	2	cue_social_high	n/a	32	9	n/a	n/a	n/a
365.473360	2	cue_social	n/a	32	8	n/a	n/a	n/a
365.473360	2	cue_social_high	n/a	32	9	n/a	n/a	n/a
6.521017	1.083033	dec_social_choice	1.083033	16.000000	n/a	0	0	-2.317708e-01
6.521017	1.083033	dec_choice	1.083033	16.000000	n/a	0	0	-2.304688e-01
6.521017	1.083033	dec_social_reject	1.083033	16.000000	n/a	0	0	-2.604167e-02
6.521017	1.083033	dec_reject	1.083033	16.000000	n/a	0	0	-2.343750e-02
6.521017	1.083033	dec_social_reject_low	1.083033	16.000000	n/a	1	-1.679688e-01	-2.304688e-01
15.787017	0.800035	dec_nonsocial_choice	0.800035	32.000000	n/a	0	0	-2.317708e-01
15.787017	0.800035	dec_choice	0.800035	32.000000	n/a	0	0	-2.330729e-01
15.787017	0.800035	dec_nonsocial_reject	0.800035	32.000000	n/a	0	0	-2.604167e-02
15.787017	0.800035	dec_reject	0.800035	32.000000	n/a	0	0	-2.864583e-02
15.787017	0.800035	dec_nonsocial_reject_low	0.800035	32.000000	n/a	2	-2.343750e-02	-8.593750e-02
22.620188	1.216301	dec_nonsocial_choice	1.216301	32.000000	n/a	8	1.822917e-02	1.822917e-02
22.620188	1.216301	dec_choice	1.216301	32.000000	n/a	8	1.692708e-02	1.692708e-02
22.620188	1.216301	dec_nonsocial_accept	1.216301	32.000000	n/a	8	-1.250000e-01	-1.250000e-01
22.620188	1.216301	dec_accept	1.216301	32.000000	n/a	8	-1.250000e-01	-1.250000e-01
22.620188	1.216301	dec_nonsocial_high	1.216301	32.000000	n/a	8	1.692708e-02	1.692708e-02
22.620188	1.216301	dec_nonsocial_accept_high	1.216301	32.000000	n/a	8	-1.250000e-01	-1.250000e-01
29.453915	0.933384	dec_nonsocial_choice	0.933384	32.000000	n/a	8	1.822917e-02	1.822917e-02
29.453915	0.933384	dec_choice	0.933384	32.000000	n/a	8	1.692708e-02	1.692708e-02
29.453915	0.933384	dec_nonsocial_accept	0.933384	32.000000	n/a	8	-1.250000e-01	-1.250000e-01
29.453915	0.933384	dec_accept	0.933384	32.000000	n/a	8	-1.250000e-01	-1.250000e-01
29.453915	0.933384	dec_nonsocial_high	0.933384	32.000000	n/a	8	1.692708e-02	1.692708e-02
29.453915	0.933384	dec_nonsocial_accept_high	0.933384	32.000000	n/a	8	-1.250000e-01	-1.250000e-01
36.286987	0.850066	dec_social_choice	0.850066	16.000000	n/a	0	0	-2.317708e-01
36.286987	0.850066	dec_choice	0.850066	16.000000	n/a	0	0	-2.304688e-01
36.286987	0.850066	dec_social_reject	0.850066	16.000000	n/a	0	0	3.645833e-02
36.286987	0.850066	dec_reject	0.850066	16.000000	n/a	0	0	3.906250e-02
36.286987	0.850066	dec_social_reject_low	0.850066	16.000000	n/a	2	-1.054688e-01	-2.304688e-01
43.937096	1.299842	dec_social_choice	1.299842	16.000000	n/a	4	1.822917e-02	1.822917e-02
43.937096	1.299842	dec_choice	1.299842	16.000000	n/a	4	1.953125e-02	1.953125e-02
43.937096	1.299842	dec_social_accept	1.299842	16.000000	n/a	4	-1.250000e-01	-1.250000e-01
43.937096	1.299842	dec_accept	1.299842	16.000000	n/a	4	-1.250000e-01	-1.250000e-01
43.937096	1.299842	dec_social_high	1.299842	16.000000	n/a	4	1.953125e-02	1.953125e-02
43.937096	1.299842	dec_social_accept_high	1.299842	16.000000	n/a	4	1.953125e-02	1.953125e-02
50.770077	1.016360	dec_nonsocial_choice	1.016360	16.000000	n/a	8	2.682292e-01	2.682292e-01
50.770077	1.016360	dec_choice	1.016360	16.000000	n/a	8	2.669271e-01	2.669271e-01
50.770077	1.016360	dec_nonsocial_accept	1.016360	16.000000	n/a	8	1.250000e-01	1.250000e-01
50.770077	1.016360	dec_accept	1.016360	16.000000	n/a	8	1.250000e-01	1.250000e-01
50.770077	1.016360	dec_nonsocial_accept_high	1.016360	16.000000	n/a	8	1.250000e-01	1.250000e-01
57.602960	1.234205	dec_nonsocial_choice	1.234205	32.000000	n/a	0	0	-2.317708e-01
57.602960	1.234205	dec_choice	1.234205	32.000000	n/a	0	0	-2.330729e-01
57.602960	1.234205	dec_nonsocial_reject	1.234205	32.000000	n/a	0	0	-2.604167e-02
57.602960	1.234205	dec_reject	1.234205	32.000000	n/a	0	0	-2.864583e-02
57.602960	1.234205	dec_nonsocial_reject_low	1.234205	32.000000	n/a	2	-2.343750e-02	-8.593750e-02
66.852950	0.916770	dec_nonsocial_choice	0.916770	16.000000	n/a	0	0	-2.317708e-01
66.852950	0.916770	dec_choice	0.916770	16.000000	n/a	0	0	-2.330729e-01
66.852950	0.916770	dec_nonsocial_reject	0.916770	16.000000	n/a	0	0	-2.604167e-02
66.852950	0.916770	dec_reject	0.916770	16.000000	n/a	0	0	-2.864583e-02
66.852950	0.916770	dec_nonsocial_reject_low	0.916770	16.000000	n/a	1	-2.343750e-02	-8.593750e-02
76.103370	1.616770	dec_social_choice	1.616770	16.000000	n/a	0	0	-2.317708e-01
76.103370	1.616770	dec_choice	1.616770	16.000000	n/a	0	0	-2.304688e-01
76.103370	1.616770	dec_social_reject	1.616770	16.000000	n/a	0	0	-2.604167e-02
76.103370	1.616770	dec_reject	1.616770	16.000000	n/a	0	0	-2.343750e-02
76.103370	1.616770	dec_social_reject_low	1.616770	16.000000	n/a	1	-1.679688e-01	-2.304688e-01
83.754005	1.482883	dec_nonsocial_choice	1.482883	16.000000	n/a	0	0	-2.317708e-01
83.754005	1.482883	dec_choice	1.482883	16.000000	n/a	0	0	-2.330729e-01
83.754005	1.482883	dec_nonsocial_reject	1.482883	16.000000	n/a	0	0	3.645833e-02
83.754005	1.482883	dec_reject	1.482883	16.000000	n/a	0	0	3.385417e-02
83.754005	1.482883	dec_nonsocial_low	1.482883	16.000000	n/a	0	-2.330729e-01	-2.330729e-01
83.754005	1.482883	dec_nonsocial_reject_low	1.482883	16.000000	n/a	2	3.385417e-02	-9.114583e-02
90.586960	0.966149	dec_nonsocial_choice	0.966149	16.000000	n/a	8	2.682292e-01	2.682292e-01
90.586960	0.966149	dec_choice	0.966149	16.000000	n/a	8	2.669271e-01	2.669271e-01
90.586960	0.966149	dec_nonsocial_accept	0.966149	16.000000	n/a	8	1.250000e-01	1.250000e-01
90.586960	0.966149	dec_accept	0.966149	16.000000	n/a	8	1.250000e-01	1.250000e-01
90.586960	0.966149	dec_nonsocial_accept_high	0.966149	16.000000	n/a	8	1.250000e-01	1.250000e-01
99.853226	1.333103	dec_social_choice	1.333103	32.000000	n/a	8	1.822917e-02	1.822917e-02
99.853226	1.333103	dec_choice	1.333103	32.000000	n/a	8	1.953125e-02	1.953125e-02
99.853226	1.333103	dec_social_accept	1.333103	32.000000	n/a	8	-1.250000e-01	-1.250000e-01
99.853226	1.333103	dec_accept	1.333103	32.000000	n/a	8	-1.250000e-01	-1.250000e-01
99.853226	1.333103	dec_social_accept_high	1.333103	32.000000	n/a	8	1.953125e-02	1.953125e-02
107.503950	1.265532	dec_social_choice	1.265532	32.000000	n/a	8	1.822917e-02	1.822917e-02
107.503950	1.265532	dec_choice	1.265532	32.000000	n/a	8	1.953125e-02	1.953125e-02
107.503950	1.265532	dec_social_accept	1.265532	32.000000	n/a	8	-1.250000e-01	-1.250000e-01
107.503950	1.265532	dec_accept	1.265532	32.000000	n/a	8	-1.250000e-01	-1.250000e-01
107.503950	1.265532	dec_social_high	1.265532	32.000000	n/a	8	1.953125e-02	1.953125e-02
107.503950	1.265532	dec_social_accept_high	1.265532	32.000000	n/a	8	1.953125e-02	1.953125e-02
115.153960	1.283206	dec_social_choice	1.283206	32.000000	n/a	0	0	-2.317708e-01
115.153960	1.283206	dec_choice	1.283206	32.000000	n/a	0	0	-2.304688e-01
115.153960	1.283206	dec_social_reject	1.283206	32.000000	n/a	0	0	5.208333e-03
115.153960	1.283206	dec_reject	1.283206	32.000000	n/a	0	0	7.812500e-03
115.153960	1.283206	dec_social_reject_low	1.283206	32.000000	n/a	3	-1.367188e-01	-2.304688e-01
121.986950	1.465830	dec_social_choice	1.465830	32.000000	n/a	8	1.822917e-02	1.822917e-02
121.986950	1.465830	dec_choice	1.465830	32.000000	n/a	8	1.953125e-02	1.953125e-02
121.986950	1.465830	dec_social_accept	1.465830	32.000000	n/a	8	-1.250000e-01	-1.250000e-01
121.986950	1.465830	dec_accept	1.465830	32.000000	n/a	8	-1.250000e-01	-1.250000e-01
121.986950	1.465830	dec_social_accept_high	1.465830	32.000000	n/a	8	1.953125e-02	1.953125e-02
131.253230	1.200012	dec_social_choice	1.200012	16.000000	n/a	0	0	-2.317708e-01
131.253230	1.200012	dec_choice	1.200012	16.000000	n/a	0	0	-2.304688e-01
131.253230	1.200012	dec_social_reject	1.200012	16.000000	n/a	0	0	-2.604167e-02
131.253230	1.200012	dec_reject	1.200012	16.000000	n/a	0	0	-2.343750e-02
131.253230	1.200012	dec_social_low	1.200012	16.000000	n/a	0	-2.304688e-01	-2.304688e-01
131.253230	1.200012	dec_social_reject_low	1.200012	16.000000	n/a	1	-1.679688e-01	-2.304688e-01
138.086010	0.883642	dec_social_choice	0.883642	16.000000	n/a	0	0	-2.317708e-01
138.086010	0.883642	dec_choice	0.883642	16.000000	n/a	0	0	-2.304688e-01
138.086010	0.883642	dec_social_reject	0.883642	16.000000	n/a	0	0	-2.604167e-02
138.086010	0.883642	dec_reject	0.883642	16.000000	n/a	0	0	-2.343750e-02
138.086010	0.883642	dec_social_reject_low	0.883642	16.000000	n/a	1	-1.679688e-01	-2.304688e-01
144.920320	1.149809	dec_nonsocial_choice	1.149809	16.000000	n/a	4	1.822917e-02	1.822917e-02
144.920320	1.149809	dec_choice	1.149809	16.000000	n/a	4	1.692708e-02	1.692708e-02
144.920320	1.149809	dec_nonsocial_accept	1.149809	16.000000	n/a	4	-1.250000e-01	-1.250000e-01
144.920320	1.149809	dec_accept	1.149809	16.000000	n/a	4	-1.250000e-01	-1.250000e-01
144.920320	1.149809	dec_nonsocial_high	1.149809	16.000000	n/a	4	1.692708e-02	1.692708e-02
144.920320	1.149809	dec_nonsocial_accept_high	1.149809	16.000000	n/a	4	-1.250000e-01	-1.250000e-01
154.186040	1.133928	dec_social_choice	1.133928	32.000000	n/a	16	2.682292e-01	2.682292e-01
154.186040	1.133928	dec_choice	1.133928	32.000000	n/a	16	2.695312e-01	2.695312e-01
154.186040	1.133928	dec_social_accept	1.133928	32.000000	n/a	16	1.250000e-01	1.250000e-01
154.186040	1.133928	dec_accept	1.133928	32.000000	n/a	16	1.250000e-01	1.250000e-01
154.186040	1.133928	dec_social_high	1.133928	32.000000	n/a	16	2.695312e-01	2.695312e-01
154.186040	1.133928	dec_social_accept_high	1.133928	32.000000	n/a	16	2.695312e-01	2.695312e-01
161.836880	1.865931	dec_nonsocial_choice	1.865931	32.000000	n/a	16	2.682292e-01	2.682292e-01
161.836880	1.865931	dec_choice	1.865931	32.000000	n/a	16	2.669271e-01	2.669271e-01
161.836880	1.865931	dec_nonsocial_accept	1.865931	32.000000	n/a	16	1.250000e-01	1.250000e-01
161.836880	1.865931	dec_accept	1.865931	32.000000	n/a	16	1.250000e-01	1.250000e-01
161.836880	1.865931	dec_nonsocial_high	1.865931	32.000000	n/a	16	2.669271e-01	2.669271e-01
161.836880	1.865931	dec_nonsocial_accept_high	1.865931	32.000000	n/a	16	1.250000e-01	1.250000e-01
169.486920	0.882162	dec_social_choice	0.882162	32.000000	n/a	16	2.682292e-01	2.682292e-01
169.486920	0.882162	dec_choice	0.882162	32.000000	n/a	16	2.695312e-01	2.695312e-01
169.486920	0.882162	dec_social_accept	0.882162	32.000000	n/a	16	1.250000e-01	1.250000e-01
169.486920	0.882162	dec_accept	0.882162	32.000000	n/a	16	1.250000e-01	1.250000e-01
169.486920	0.882162	dec_social_high	0.882162	32.000000	n/a	16	2.695312e-01	2.695312e-01
169.486920	0.882162	dec_social_accept_high	0.882162	32.000000	n/a	16	2.695312e-01	2.695312e-01
177.135930	0.783992	dec_nonsocial_choice	0.783992	32.000000	n/a	16	2.682292e-01	2.682292e-01
177.135930	0.783992	dec_choice	0.783992	32.000000	n/a	16	2.669271e-01	2.669271e-01
177.135930	0.783992	dec_nonsocial_accept	0.783992	32.000000	n/a	16	1.250000e-01	1.250000e-01
177.135930	0.783992	dec_accept	0.783992	32.000000	n/a	16	1.250000e-01	1.250000e-01
177.135930	0.783992	dec_nonsocial_high	0.783992	32.000000	n/a	16	2.669271e-01	2.669271e-01
177.135930	0.783992	dec_nonsocial_accept_high	0.783992	32.000000	n/a	16	1.250000e-01	1.250000e-01
184.786580	0.900001	dec_nonsocial_choice	0.900001	16.000000	n/a	0	0	-2.317708e-01
184.786580	0.900001	dec_choice	0.900001	16.000000	n/a	0	0	-2.330729e-01
184.786580	0.900001	dec_nonsocial_reject	0.900001	16.000000	n/a	0	0	3.645833e-02
184.786580	0.900001	dec_reject	0.900001	16.000000	n/a	0	0	3.385417e-02
184.786580	0.900001	dec_nonsocial_reject_low	0.900001	16.000000	n/a	2	3.906250e-02	-8.593750e-02
191.620940	1.382370	dec_social_choice	1.382370	16.000000	n/a	8	2.682292e-01	2.682292e-01
191.620940	1.382370	dec_choice	1.382370	16.000000	n/a	8	2.695312e-01	2.695312e-01
191.620940	1.382370	dec_social_accept	1.382370	16.000000	n/a	8	1.250000e-01	1.250000e-01
191.620940	1.382370	dec_accept	1.382370	16.000000	n/a	8	1.250000e-01	1.250000e-01
191.620940	1.382370	dec_social_accept_high	1.382370	16.000000	n/a	8	2.695312e-01	2.695312e-01
198.452900	1.116509	dec_nonsocial_choice	1.116509	16.000000	n/a	8	2.682292e-01	2.682292e-01
198.452900	1.116509	dec_choice	1.116509	16.000000	n/a	8	2.669271e-01	2.669271e-01
198.452900	1.116509	dec_nonsocial_accept	1.116509	16.000000	n/a	8	1.250000e-01	1.250000e-01
198.452900	1.116509	dec_accept	1.116509	16.000000	n/a	8	1.250000e-01	1.250000e-01
198.452900	1.116509	dec_nonsocial_accept_high	1.116509	16.000000	n/a	8	1.250000e-01	1.250000e-01
205.287300	1.499312	dec_social_choice	1.499312	16.000000	n/a	4	1.822917e-02	1.822917e-02
205.287300	1.499312	dec_choice	1.499312	16.000000	n/a	4	1.953125e-02	1.953125e-02
205.287300	1.499312	dec_social_accept	1.499312	16.000000	n/a	4	-1.250000e-01	-1.250000e-01
205.287300	1.499312	dec_accept	1.499312	16.000000	n/a	4	-1.250000e-01	-1.250000e-01
205.287300	1.499312	dec_social_high	1.499312	16.000000	n/a	4	1.953125e-02	1.953125e-02
205.287300	1.499312	dec_social_accept_high	1.499312	16.000000	n/a	4	1.953125e-02	1.953125e-02
212.120900	0.948755	dec_social_choice	0.948755	32.000000	n/a	0	0	-2.317708e-01
212.120900	0.948755	dec_choice	0.948755	32.000000	n/a	0	0	-2.304688e-01
212.120900	0.948755	dec_social_reject	0.948755	32.000000	n/a	0	0	-2.604167e-02
212.120900	0.948755	dec_reject	0.948755	32.000000	n/a	0	0	-2.343750e-02
212.120900	0.948755	dec_social_low	0.948755	32.000000	n/a	0	-2.304688e-01	-2.304688e-01
212.120900	0.948755	dec_social_reject_low	0.948755	32.000000	n/a	2	-1.679688e-01	-2.304688e-01
218.952470	1.750843	dec_nonsocial_choice	1.750843	32.000000	n/a	0	0	-2.317708e-01
218.952470	1.750843	dec_choice	1.750843	32.000000	n/a	0	0	-2.330729e-01
218.952470	1.750843	dec_nonsocial_reject	1.750843	32.000000	n/a	0	0	5.208333e-03
218.952470	1.750843	dec_reject	1.750843	32.000000	n/a	0	0	2.604167e-03
218.952470	1.750843	dec_nonsocial_low	1.750843	32.000000	n/a	0	-2.330729e-01	-2.330729e-01
218.952470	1.750843	dec_nonsocial_reject_low	1.750843	32.000000	n/a	3	2.604167e-03	-9.114583e-02
225.786970	1.899566	dec_social_choice	1.899566	16.000000	n/a	0	0	-2.317708e-01
225.786970	1.899566	dec_choice	1.899566	16.000000	n/a	0	0	-2.304688e-01
225.786970	1.899566	dec_social_reject	1.899566	16.000000	n/a	0	0	3.645833e-02
225.786970	1.899566	dec_reject	1.899566	16.000000	n/a	0	0	3.906250e-02
225.786970	1.899566	dec_social_reject_low	1.899566	16.000000	n/a	2	-1.054688e-01	-2.304688e-01
232.619890	1.283288	dec_nonsocial_choice	1.283288	32.000000	n/a	8	1.822917e-02	1.822917e-02
232.619890	1.283288	dec_choice	1.283288	32.000000	n/a	8	1.692708e-02	1.692708e-02
232.619890	1.283288	dec_nonsocial_accept	1.283288	32.000000	n/a	8	-1.250000e-01	-1.250000e-01
232.619890	1.283288	dec_accept	1.283288	32.000000	n/a	8	-1.250000e-01	-1.250000e-01
232.619890	1.283288	dec_nonsocial_accept_high	1.283288	32.000000	n/a	8	-1.250000e-01	-1.250000e-01
243.486480	0.899962	dec_nonsocial_choice	0.899962	32.000000	n/a	0	0	-2.317708e-01
243.486480	0.899962	dec_choice	0.899962	32.000000	n/a	0	0	-2.330729e-01
243.486480	0.899962	dec_nonsocial_reject	0.899962	32.000000	n/a	0	0	-2.604167e-02
243.486480	0.899962	dec_reject	0.899962	32.000000	n/a	0	0	-2.864583e-02
243.486480	0.899962	dec_nonsocial_reject_low	0.899962	32.000000	n/a	2	-2.343750e-02	-8.593750e-02
254.353970	1.632397	dec_social_choice	1.632397	16.000000	n/a	0	0	-2.317708e-01
254.353970	1.632397	dec_choice	1.632397	16.000000	n/a	0	0	-2.304688e-01
254.353970	1.632397	dec_social_reject	1.632397	16.000000	n/a	0	0	3.645833e-02
254.353970	1.632397	dec_reject	1.632397	16.000000	n/a	0	0	3.906250e-02
254.353970	1.632397	dec_social_reject_low	1.632397	16.000000	n/a	2	-1.054688e-01	-2.304688e-01
261.186830	0.882917	dec_social_choice	0.882917	32.000000	n/a	0	0	-2.317708e-01
261.186830	0.882917	dec_choice	0.882917	32.000000	n/a	0	0	-2.304688e-01
261.186830	0.882917	dec_social_reject	0.882917	32.000000	n/a	0	0	-2.604167e-02
261.186830	0.882917	dec_reject	0.882917	32.000000	n/a	0	0	-2.343750e-02
261.186830	0.882917	dec_social_reject_low	0.882917	32.000000	n/a	2	-1.679688e-01	-2.304688e-01
268.835800	1.100897	dec_social_choice	1.100897	16.000000	n/a	8	2.682292e-01	2.682292e-01
268.835800	1.100897	dec_choice	1.100897	16.000000	n/a	8	2.695312e-01	2.695312e-01
268.835800	1.100897	dec_social_accept	1.100897	16.000000	n/a	8	1.250000e-01	1.250000e-01
268.835800	1.100897	dec_accept	1.100897	16.000000	n/a	8	1.250000e-01	1.250000e-01
268.835800	1.100897	dec_social_high	1.100897	16.000000	n/a	8	2.695312e-01	2.695312e-01
268.835800	1.100897	dec_social_accept_high	1.100897	16.000000	n/a	8	2.695312e-01	2.695312e-01
276.486080	1.516428	dec_social_choice	1.516428	32.000000	n/a	0	0	-2.317708e-01
276.486080	1.516428	dec_choice	1.516428	32.000000	n/a	0	0	-2.304688e-01
276.486080	1.516428	dec_social_reject	1.516428	32.000000	n/a	0	0	5.208333e-03
276.486080	1.516428	dec_reject	1.516428	32.000000	n/a	0	0	7.812500e-03
276.486080	1.516428	dec_social_low	1.516428	32.000000	n/a	0	-2.304688e-01	-2.304688e-01
276.486080	1.516428	dec_social_reject_low	1.516428	32.000000	n/a	3	-1.367188e-01	-2.304688e-01
283.318900	2.266975	dec_nonsocial_choice	2.266975	16.000000	n/a	0	0	-2.317708e-01
283.318900	2.266975	dec_choice	2.266975	16.000000	n/a	0	0	-2.330729e-01
283.318900	2.266975	dec_nonsocial_reject	2.266975	16.000000	n/a	0	0	3.645833e-02
283.318900	2.266975	dec_reject	2.266975	16.000000	n/a	0	0	3.385417e-02
283.318900	2.266975	dec_nonsocial_low	2.266975	16.000000	n/a	0	-2.330729e-01	-2.330729e-01
283.318900	2.266975	dec_nonsocial_reject_low	2.266975	16.000000	n/a	2	3.385417e-02	-9.114583e-02
290.969450	1.100154	dec_nonsocial_choice	1.100154	16.000000	n/a	0	0	-2.317708e-01
290.969450	1.100154	dec_choice	1.100154	16.000000	n/a	0	0	-2.330729e-01
290.969450	1.100154	dec_nonsocial_reject	1.100154	16.000000	n/a	0	0	-2.604167e-02
290.969450	1.100154	dec_reject	1.100154	16.000000	n/a	0	0	-2.864583e-02
290.969450	1.100154	dec_nonsocial_low	1.100154	16.000000	n/a	0	-2.330729e-01	-2.330729e-01
290.969450	1.100154	dec_nonsocial_reject_low	1.100154	16.000000	n/a	1	-2.864583e-02	-9.114583e-02
297.802900	1.050044	dec_nonsocial_choice	1.050044	32.000000	n/a	8	1.822917e-02	1.822917e-02
297.802900	1.050044	dec_choice	1.050044	32.000000	n/a	8	1.692708e-02	1.692708e-02
297.802900	1.050044	dec_nonsocial_accept	1.050044	32.000000	n/a	8	-1.250000e-01	-1.250000e-01
297.802900	1.050044	dec_accept	1.050044	32.000000	n/a	8	-1.250000e-01	-1.250000e-01
297.802900	1.050044	dec_nonsocial_high	1.050044	32.000000	n/a	8	1.692708e-02	1.692708e-02
297.802900	1.050044	dec_nonsocial_accept_high	1.050044	32.000000	n/a	8	-1.250000e-01	-1.250000e-01
304.636080	1.367111	dec_social_choice	1.367111	16.000000	n/a	8	2.682292e-01	2.682292e-01
304.636080	1.367111	dec_choice	1.367111	16.000000	n/a	8	2.695312e-01	2.695312e-01
304.636080	1.367111	dec_social_accept	1.367111	16.000000	n/a	8	1.250000e-01	1.250000e-01
304.636080	1.367111	dec_accept	1.367111	16.000000	n/a	8	1.250000e-01	1.250000e-01
304.636080	1.367111	dec_social_accept_high	1.367111	16.000000	n/a	8	2.695312e-01	2.695312e-01
315.502840	1.349911	dec_nonsocial_choice	1.349911	32.000000	n/a	8	1.822917e-02	1.822917e-02
315.502840	1.349911	dec_choice	1.349911	32.000000	n/a	8	1.692708e-02	1.692708e-02
315.502840	1.349911	dec_nonsocial_accept	1.349911	32.000000	n/a	8	-1.250000e-01	-1.250000e-01
315.502840	1.349911	dec_accept	1.349911	32.000000	n/a	8	-1.250000e-01	-1.250000e-01
315.502840	1.349911	dec_nonsocial_high	1.349911	32.000000	n/a	8	1.692708e-02	1.692708e-02
315.502840	1.349911	dec_nonsocial_accept_high	1.349911	32.000000	n/a	8	-1.250000e-01	-1.250000e-01
323.153840	1.315311	dec_nonsocial_choice	1.315311	16.000000	n/a	0	0	-2.317708e-01
323.153840	1.315311	dec_choice	1.315311	16.000000	n/a	0	0	-2.330729e-01
323.153840	1.315311	dec_nonsocial_reject	1.315311	16.000000	n/a	0	0	3.645833e-02
323.153840	1.315311	dec_reject	1.315311	16.000000	n/a	0	0	3.385417e-02
323.153840	1.315311	dec_nonsocial_low	1.315311	16.000000	n/a	0	-2.330729e-01	-2.330729e-01
323.153840	1.315311	dec_nonsocial_reject_low	1.315311	16.000000	n/a	2	3.385417e-02	-9.114583e-02
329.985870	1.333701	dec_nonsocial_choice	1.333701	16.000000	n/a	8	2.682292e-01	2.682292e-01
329.985870	1.333701	dec_choice	1.333701	16.000000	n/a	8	2.669271e-01	2.669271e-01
329.985870	1.333701	dec_nonsocial_accept	1.333701	16.000000	n/a	8	1.250000e-01	1.250000e-01
329.985870	1.333701	dec_accept	1.333701	16.000000	n/a	8	1.250000e-01	1.250000e-01
329.985870	1.333701	dec_nonsocial_accept_high	1.333701	16.000000	n/a	8	1.250000e-01	1.250000e-01
339.253850	1.032542	dec_nonsocial_choice	1.032542	16.000000	n/a	0	0	-2.317708e-01
339.253850	1.032542	dec_choice	1.032542	16.000000	n/a	0	0	-2.330729e-01
339.253850	1.032542	dec_nonsocial_reject	1.032542	16.000000	n/a	0	0	-2.604167e-02
339.253850	1.032542	dec_reject	1.032542	16.000000	n/a	0	0	-2.864583e-02
339.253850	1.032542	dec_nonsocial_low	1.032542	16.000000	n/a	0	-2.330729e-01	-2.330729e-01
339.253850	1.032542	dec_nonsocial_reject_low	1.032542	16.000000	n/a	1	-2.864583e-02	-9.114583e-02
346.902830	1.933593	dec_social_choice	1.933593	32.000000	n/a	8	1.822917e-02	1.822917e-02
346.902830	1.933593	dec_choice	1.933593	32.000000	n/a	8	1.953125e-02	1.953125e-02
346.902830	1.933593	dec_social_accept	1.933593	32.000000	n/a	8	-1.250000e-01	-1.250000e-01
346.902830	1.933593	dec_accept	1.933593	32.000000	n/a	8	-1.250000e-01	-1.250000e-01
346.902830	1.933593	dec_social_high	1.933593	32.000000	n/a	8	1.953125e-02	1.953125e-02
346.902830	1.933593	dec_social_accept_high	1.933593	32.000000	n/a	8	1.953125e-02	1.953125e-02
353.736820	1.149310	dec_nonsocial_choice	1.149310	16.000000	n/a	0	0	-2.317708e-01
353.736820	1.149310	dec_choice	1.149310	16.000000	n/a	0	0	-2.330729e-01
353.736820	1.149310	dec_nonsocial_reject	1.149310	16.000000	n/a	0	0	3.645833e-02
353.736820	1.149310	dec_reject	1.149310	16.000000	n/a	0	0	3.385417e-02
353.736820	1.149310	dec_nonsocial_reject_low	1.149310	16.000000	n/a	2	3.906250e-02	-8.593750e-02
360.569950	1.132512	dec_social_choice	1.132512	32.000000	n/a	16	2.682292e-01	2.682292e-01
360.569950	1.132512	dec_choice	1.132512	32.000000	n/a	16	2.695312e-01	2.695312e-01
360.569950	1.132512	dec_social_accept	1.132512	32.000000	n/a	16	1.250000e-01	1.250000e-01
360.569950	1.132512	dec_accept	1.132512	32.000000	n/a	16	1.250000e-01	1.250000e-01
360.569950	1.132512	dec_social_high	1.132512	32.000000	n/a	16	2.695312e-01	2.695312e-01
360.569950	1.132512	dec_social_accept_high	1.132512	32.000000	n/a	16	2.695312e-01	2.695312e-01
367.402770	1.000264	dec_social_choice	1.000264	32.000000	n/a	0	0	-2.317708e-01
367.402770	1.000264	dec_choice	1.000264	32.000000	n/a	0	0	-2.304688e-01
367.402770	1.000264	dec_social_reject	1.000264	32.000000	n/a	0	0	5.208333e-03
367.402770	1.000264	dec_reject	1.000264	32.000000	n/a	0	0	7.812500e-03
367.402770	1.000264	dec_social_reject_low	1.000264	32.000000	n/a	3	-1.367188e-01	-2.304688e-01
