TrialNumber,Trialn,TrialType,Partner,Feedback,ITI,ISI,ran,order,studyStart,InitFixOnset,decision_onset,resp,resp_onset,rt,ISI_onset,isi_for_trial,ISI_offset,outcome_val,outcome_onset,outcome_offset,trialDuration,ITIonset,ITIoffset,final_fix_offset
1,1,4,2,1,8.075000e-01,1.615000e+00,1.0,0.0,2.5999616e-06,0.0100843,4.0258574,1.0,5.47403,1.4481727,5.574449,2.8668272,8.442525,9.0,8.442676,9.051063,5.025205,9.051247,9.86133,--
2,2,9,3,3,4.037500e+00,1.615000e+00,1.0,1.0,--,--,9.8737545,2.0,11.0085535,1.1347992,11.108878,3.1802008,14.290994,8.0,14.291112,14.898661,5.0249057,14.8988,18.938908,--
3,3,2,1,2,2.422500e+00,2.422500e+00,1.0,2.0,--,--,18.943632,2.0,19.773943,0.8303104,19.874283,4.2921896,24.168364,5.0,24.16848,24.775576,5.831944,24.77572,27.200401,--
4,4,1,1,1,8.075000e-01,1.615000e+00,1.0,3.0,--,--,27.20276,2.0,27.72424,0.5214787,27.824562,3.7935214,31.619423,3.0,31.619537,32.224705,5.0219445,32.224857,33.03494,--
5,5,7,3,1,8.075000e-01,8.075000e-01,1.0,4.0,--,--,33.04616,1.0,33.87404,0.8278772,33.974373,2.679623,36.655914,6.0,36.656036,37.262016,4.2158546,37.262157,38.071617,--
6,6,4,2,1,8.075000e-01,8.075000e-01,1.0,5.0,--,--,38.084644,2.0,38.824226,0.7395826,38.924557,2.7679174,41.69352,4.0,41.693634,42.29811,4.213468,42.298252,43.107918,--
7,7,4,2,1,8.075000e-01,1.615000e+00,1.0,6.0,--,--,43.11939,2.0,43.857513,0.7381233,43.957836,3.5768766,47.535885,1.0,47.536,48.14048,5.0210886,48.140625,48.94996,--
8,8,6,2,3,2.422500e+00,1.615000e+00,1.0,7.0,--,--,48.960125,2.0,49.890533,0.9304076,49.99086,3.3845923,53.37692,7.0,53.377033,53.982193,5.022066,53.982334,56.406948,--
9,9,7,3,1,8.075000e-01,2.422500e+00,1.0,8.0,--,--,56.41789,2.0,56.94058,0.5226897,57.040928,4.59981,61.64195,1.0,61.642063,62.24673,5.8288436,62.246876,63.056095,--
10,10,7,3,1,2.422500e+00,2.422500e+00,1.0,9.0,--,--,63.065685,2.0,64.00727,0.9415866,64.107605,4.1809134,68.28991,2.0,68.29002,68.89705,5.8313622,68.897194,71.32199,--
11,11,7,3,1,7.267500e+00,1.615000e+00,1.0,10.0,--,--,71.33166,2.0,72.15803,0.8263667,72.25837,3.4886334,75.74894,1.0,75.74906,76.35304,5.021385,76.35319,83.62396,--
12,12,7,3,1,8.882500e+00,8.075000e-01,1.0,11.0,--,--,83.633606,1.0,84.157394,0.5237898,84.257744,2.9837103,87.24294,9.0,87.243065,87.848045,4.214436,87.84819,96.73292,--
13,13,6,2,3,8.075000e-01,1.615000e+00,1.0,12.0,--,--,96.744,1.0,97.37397,0.6299688,97.474304,3.6850312,101.161934,2.0,101.16205,101.76712,5.023118,101.767265,102.57671,--
14,14,9,3,3,2.422500e+00,1.615000e+00,1.0,13.0,--,--,102.587456,1.0,103.32411,0.7366578,103.424446,3.5783422,107.0045,3.0,107.00462,107.61005,5.022595,107.6102,110.03461,--
15,15,6,2,3,8.075000e-01,1.615000e+00,1.0,14.0,--,--,110.045906,2.0,110.674034,0.6281341,110.77437,3.6868658,114.46295,7.0,114.46307,115.067154,5.0212536,115.0673,115.87699,--
16,16,6,2,3,2.422500e+00,8.075000e-01,1.0,15.0,--,--,115.88746,2.0,116.62411,0.7366454,116.72445,2.7708547,119.49684,7.0,119.496956,120.100624,4.2131605,120.10077,122.52498,--
17,17,4,2,1,8.075000e-01,2.422500e+00,1.0,16.0,--,--,122.53516,2.0,123.27403,0.7388781,123.37438,4.3836217,127.75993,2.0,127.76005,128.36398,5.828829,128.36414,129.17339,--
18,18,4,2,1,7.267500e+00,8.075000e-01,1.0,17.0,--,--,129.18364,1.0,130.02388,0.8402356,130.1242,2.6672645,132.79395,7.0,132.79407,133.39806,4.214404,133.3982,140.66798,--
19,19,1,1,1,8.075000e-01,8.075000e-01,1.0,18.0,--,--,140.67087,1.0,141.60738,0.9365121,141.7077,2.570988,144.27983,9.0,144.27995,144.88405,4.213185,144.88419,145.69394,--
20,20,9,3,3,8.075000e-01,8.075000e-01,1.0,19.0,--,--,145.7047,2.0,146.64034,0.9356338,146.74068,2.5718663,149.31387,6.0,149.31398,149.92006,4.215351,149.9202,150.72961,--
21,21,7,3,1,5.652500e+00,2.422500e+00,1.0,20.0,--,--,150.73927,2.0,151.67381,0.9345359,151.77415,4.187964,155.96393,1.0,155.96405,156.56865,5.8293724,156.5688,162.22304,--
22,22,1,1,1,2.422500e+00,1.615000e+00,1.0,21.0,--,--,162.22583,1.0,163.0738,0.8479804,163.17418,3.4670196,166.64394,7.0,166.64406,167.24803,5.0222015,167.24818,169.67314,--
23,23,6,2,3,8.075000e-01,2.422500e+00,1.0,22.0,--,--,169.68384,2.0,170.40805,0.724219,170.50839,4.398281,174.90897,7.0,174.90907,175.51405,5.8302155,175.51419,176.32341,--
24,24,7,3,1,8.075000e-01,8.075000e-01,1.0,23.0,--,--,176.33429,1.0,177.17386,0.839576,177.2742,2.667924,179.94402,8.0,179.94414,180.54974,4.2154627,180.5499,181.35956,--
25,25,8,3,2,8.075000e-01,8.075000e-01,1.0,24.0,--,--,181.37212,2.0,182.20712,0.834999,182.30745,2.672501,184.98195,5.0,184.98206,185.58696,4.2148438,185.58711,186.397,--
26,26,7,3,1,2.422500e+00,1.615000e+00,1.0,25.0,--,--,186.40686,2.0,187.85732,1.4504441,187.95764,2.8645558,190.82397,2.0,190.82408,191.42908,5.022212,191.42923,193.85367,--
27,27,9,3,3,5.652500e+00,1.615000e+00,1.0,26.0,--,--,193.86357,2.0,194.49083,0.6272674,194.59119,3.6877327,198.2807,7.0,198.2808,198.88644,5.022877,198.88658,204.54095,--
28,28,1,1,1,8.075000e-01,1.615000e+00,1.0,27.0,--,--,204.54378,1.0,205.17387,0.6300973,205.27422,3.6849027,208.96135,7.0,208.96147,209.56686,5.0230923,209.56702,210.37645,--
29,29,5,2,2,4.037500e+00,2.422500e+00,1.0,28.0,--,--,210.38716,2.0,211.22363,0.8364721,211.32396,4.286028,215.61267,5.0,215.61281,216.21811,5.8309574,216.21826,220.25795,--
30,30,6,2,3,4.037500e+00,2.422500e+00,1.0,29.0,--,--,220.26872,2.0,220.79037,0.5216622,220.8907,4.6008377,225.49312,8.0,225.49324,226.09795,5.8292255,226.09808,230.13794,--
31,31,4,2,1,5.652500e+00,1.615000e+00,1.0,30.0,--,--,230.1482,2.0,230.77356,0.625377,230.87392,3.689623,234.56493,3.0,234.56505,235.17007,5.021885,235.17021,240.82463,--
32,32,1,1,1,4.037500e+00,2.422500e+00,1.0,31.0,--,--,240.82782,1.0,242.89037,2.0625494,242.99074,3.0599506,246.05305,7.0,246.05316,246.65666,5.828836,246.6568,250.69695,--
33,33,3,1,3,8.075000e-01,8.075000e-01,1.0,32.0,--,--,250.69873,1.0,251.42346,0.7247276,251.5238,2.7827723,254.30792,4.0,254.30804,254.9127,4.2139664,254.91284,255.72205,--
34,34,8,3,2,8.075000e-01,8.075000e-01,1.0,33.0,--,--,255.73314,2.0,256.67365,0.9404933,256.7741,2.5670066,259.34293,5.0,259.34305,259.94772,4.2145786,259.94788,260.75797,--
35,35,3,1,3,4.037500e+00,2.422500e+00,1.0,34.0,--,--,260.76077,2.0,261.49023,0.7294645,261.59055,4.3930354,265.98593,7.0,265.98605,266.59067,5.829897,266.5908,270.63016,--
36,36,9,3,3,2.422500e+00,8.075000e-01,1.0,35.0,--,--,270.64078,1.0,271.0571,0.4163221,271.15744,3.091178,274.25043,4.0,274.25055,274.854,4.2132154,274.85413,277.2789,--
37,37,5,2,2,2.422500e+00,1.615000e+00,1.0,36.0,--,--,277.28983,1.0,278.02344,0.7336268,278.12378,3.5813732,281.7069,5.0,281.70703,282.31198,5.022162,282.31213,284.73654,--
38,38,6,2,3,8.075000e-01,2.422500e+00,1.0,37.0,--,--,284.7466,2.0,285.47345,0.7268318,285.5738,4.395668,289.97098,8.0,289.9711,290.576,5.8293676,290.5761,291.38596,--
39,39,9,3,3,8.075000e-01,1.615000e+00,1.0,38.0,--,--,291.39682,1.0,291.50702,0.1101801,291.60736,4.2048197,295.81393,1.0,295.81406,296.41754,5.0207014,296.41766,297.2272,--
40,40,6,2,3,8.075000e-01,1.615000e+00,1.0,39.0,--,--,297.2382,2.0,297.97336,0.735149,298.07367,3.579851,301.65494,7.0,301.65506,302.25922,5.0210047,302.25934,303.06882,--
41,41,3,1,3,4.037500e+00,1.615000e+00,1.0,40.0,--,--,303.07162,1.0,303.70694,0.6353291,303.80728,3.6796708,307.4891,4.0,307.48923,308.0949,5.0232897,308.09506,312.13495,--
42,42,3,1,3,8.075000e-01,8.075000e-01,1.0,41.0,--,--,312.13672,1.0,312.87357,0.7368536,312.9739,2.7706463,315.74692,2.0,315.74704,316.35205,4.215356,316.3522,317.16153,--
43,43,9,3,3,8.075000e-01,2.422500e+00,1.0,42.0,--,--,317.1724,2.0,317.80704,0.6346667,317.9074,4.4878335,322.397,9.0,322.39713,323.00082,5.828444,323.00104,323.8111,--
44,44,3,1,3,2.422500e+00,8.075000e-01,1.0,43.0,--,--,323.81387,1.0,324.3403,0.5264318,324.4406,2.9810681,327.42392,4.0,327.42404,328.02808,4.2141976,328.0282,330.4529,--
45,45,3,1,3,2.422500e+00,2.422500e+00,1.0,44.0,--,--,330.45468,1.0,331.19028,0.7355699,331.2906,4.38693,335.67993,2.0,335.68005,336.29004,5.835351,336.2902,338.7147,--
46,46,1,1,1,4.037500e+00,2.422500e+00,1.0,45.0,--,--,338.71643,2.0,339.34006,0.6236086,339.4404,4.4988914,343.94046,4.0,343.94055,344.54504,5.8286114,344.5452,348.58496,--
47,47,3,1,3,2.422500e+00,2.422500e+00,1.0,46.0,--,--,348.58676,2.0,349.10678,0.5200264,349.20712,4.6024737,353.81195,6.0,353.81207,354.41708,5.830309,354.4172,356.8416,--
48,48,4,2,1,5.652500e+00,8.075000e-01,1.0,47.0,--,--,356.85242,2.0,357.37375,0.521323,357.47415,2.986177,360.46295,4.0,360.46307,361.06775,4.2153096,361.06787,366.72208,--
49,49,1,1,1,8.075000e-01,2.422500e+00,1.0,48.0,--,--,366.7249,2.0,367.45706,0.7321424,367.55737,4.3903575,371.95053,2.0,371.95065,372.55508,5.830161,372.5552,373.36493,--
50,50,2,1,2,8.075000e-01,2.422500e+00,1.0,49.0,--,--,373.36673,2.0,374.20667,0.8399278,374.30698,4.2825723,378.59137,5.0,378.5915,379.20206,5.835339,379.2022,380.01196,--
51,51,3,1,3,8.075000e-01,2.422500e+00,1.0,50.0,--,--,380.01373,1.0,380.63998,0.6262622,380.74033,4.4962378,385.23895,4.0,385.23907,385.8441,5.8303413,385.8442,386.65372,--
52,52,4,2,1,8.075000e-01,8.075000e-01,1.0,51.0,--,--,386.6648,1.0,387.3898,0.7249957,387.4901,2.7825043,390.27493,6.0,390.27505,390.87964,4.2148457,390.8798,391.68887,--
53,53,1,1,1,2.422500e+00,8.075000e-01,1.0,52.0,--,--,391.69174,2.0,392.4237,0.7319884,392.52405,2.7755115,395.30167,1.0,395.30176,395.90726,4.2155266,395.9074,398.33197,--
54,54,9,3,3,8.075000e-01,8.075000e-01,1.0,53.0,--,--,398.34274,2.0,398.9732,0.6304644,399.0736,2.8770356,401.95398,6.0,401.9541,402.55844,4.2156906,402.5586,403.368,411.99973
