onset	duration	trial_type	rt	resp	gender	image_left	image_right
0.605872299987823	3.00198220001766	decision	1.5326581000117585	left	D	DD017.jpg	DD018.jpg
4.15589240001282	1.00037619995419	loss	n/a	n/a	n/a	DD017.jpg	DD018.jpg
11.105886299978	3.00192090001656	decision	1.282920700032264	right	D	DD035.jpg	DD036.jpg
14.6561842999654	1.00007890001871	win	n/a	n/a	n/a	DD035.jpg	DD036.jpg
21.5896020999644	3.00081560004037	decision	1.2822191000450402	right	D	DD021.jpg	DD022.jpg
25.1395772999967	1.01657590002287	loss	n/a	n/a	n/a	DD021.jpg	DD022.jpg
32.0728437000071	3.00084569997853	decision	1.2833098999690264	left	S	SD025.jpg	SD026.jpg
35.6227852000156	1.01648399996338	loss	n/a	n/a	n/a	SD025.jpg	SD026.jpg
38.3725184999639	3.00096680002753	decision	1.2832031000289135	right	S	SD027.jpg	SD028.jpg
41.9224471999914	1.00033200002508	loss	n/a	n/a	n/a	SD027.jpg	SD028.jpg
44.6391574000008	3.03463529999135	decision-missed	n/a	n/a	S	SD023.jpg	SD024.jpg
48.222469899978	1.01665840001078	win	n/a	n/a	n/a	SD023.jpg	SD024.jpg
50.9725267000031	3.00214779999806	decision	1.2839819999644533	right	D	DD037.jpg	DD038.jpg
54.5224374000099	1.01659019995714	win	n/a	n/a	n/a	DD037.jpg	DD038.jpg
59.372790399997	3.00107659999048	decision	1.532436300010886	right	S	SD011.jpg	SD012.jpg
62.922418800008	1.01668639999116	loss	n/a	n/a	n/a	SD011.jpg	SD012.jpg
67.7559474000009	3.00173469999572	decision	1.5329645000165328	right	D	DD009.jpg	DD010.jpg
71.3057215000154	1.00013869995018	win	n/a	n/a	n/a	DD009.jpg	DD010.jpg
74.0228194000083	3.00094639998861	decision	1.7824906999594532	right	D	DD027.jpg	DD028.jpg
77.5727126999991	1.01671559998067	win	n/a	n/a	n/a	DD027.jpg	DD028.jpg
82.4228238000069	3.00186019996181	decision	1.5328696999931708	right	D	DD015.jpg	DD016.jpg
85.9727028000052	1.01634309999645	loss	n/a	n/a	n/a	DD015.jpg	DD016.jpg
92.9228635000181	3.00186839996604	decision	1.031915699946694	left	S	SD029.jpg	SD030.jpg
96.4723335999879	1.00012169999536	loss	n/a	n/a	n/a	SD029.jpg	SD030.jpg
101.289298599993	3.03624310001032	decision-missed	n/a	n/a	S	SD015.jpg	SD016.jpg
104.872315599991	1.00006410002243	win	n/a	n/a	n/a	SD015.jpg	SD016.jpg
111.789302899968	3.0014455000055	decision	1.0323313000262715	right	S	SD007.jpg	SD008.jpg
115.339226800017	1.01644129998749	win	n/a	n/a	n/a	SD007.jpg	SD008.jpg
120.172832100012	3.00144749996252	decision	1.5328168999985792	right	S	SD017.jpg	SD018.jpg
123.722252500011	1.00029100000393	win	n/a	n/a	n/a	SD017.jpg	SD018.jpg
126.455726999964	3.00149030005559	decision	2.798963500012178	right	D	DD033.jpg	DD034.jpg
130.005444600014	1.00009809999028	win	n/a	n/a	n/a	DD033.jpg	DD034.jpg
132.739238300011	3.00134650000837	decision	0.7822915999568067	right	D	DD007.jpg	DD008.jpg
136.288879300002	1.00008109997725	loss	n/a	n/a	n/a	DD007.jpg	DD008.jpg
139.005594699993	3.00020429998403	decision	0.783000199997332	right	D	DD023.jpg	DD024.jpg
142.555677199969	1.01638840005035	loss	n/a	n/a	n/a	DD023.jpg	DD024.jpg
155.805364099971	3.00136890000431	decision	2.2831854000105523	right	S	SD009.jpg	SD010.jpg
159.355702599976	1.00007770000957	loss	n/a	n/a	n/a	SD009.jpg	SD010.jpg
164.172263399989	3.00133769999957	decision	1.5323878999915905	left	D	DD001.jpg	DD002.jpg
167.722138400015	1.00026229996001	win	n/a	n/a	n/a	DD001.jpg	DD002.jpg
170.472534800007	3.0010687999893	decision	0.7830272999708541	right	S	SD019.jpg	SD020.jpg
174.022066799982	1.00029990001349	loss	n/a	n/a	n/a	SD019.jpg	SD020.jpg
180.955912099977	3.00201300001936	decision	0.7827323999954388	left	D	DD031.jpg	DD032.jpg
184.50530249998	1.00021910003852	loss	n/a	n/a	n/a	DD031.jpg	DD032.jpg
189.322496699984	3.00104780000402	decision	1.2824935999815352	left	S	SD005.jpg	SD006.jpg
192.872338199988	1.01645910000661	win	n/a	n/a	n/a	SD005.jpg	SD006.jpg
195.639168199967	3.00148730003275	decision	0.7838482000515796	right	D	DD019.jpg	DD020.jpg
199.188742799975	1.01661890000105	win	n/a	n/a	n/a	DD019.jpg	DD020.jpg
206.12220079999	3.00132649997249	decision	2.282326999993529	right	S	SD013.jpg	SD014.jpg
209.672262799984	1.01634810003452	loss	n/a	n/a	n/a	SD013.jpg	SD014.jpg
216.605383699993	3.00079409999307	decision	1.033241499972064	left	S	SD031.jpg	SD032.jpg
220.1553021	1.00018450000789	loss	n/a	n/a	n/a	SD031.jpg	SD032.jpg
224.988605899969	3.03701060003368	decision-missed	n/a	n/a	D	DD039.jpg	DD040.jpg
228.57216609997	1.01640200003749	loss	n/a	n/a	n/a	DD039.jpg	DD040.jpg
231.322120899975	3.00136320001911	decision	1.7824265999952331	right	D	DD005.jpg	DD006.jpg
234.872225200001	1.01645779999672	loss	n/a	n/a	n/a	DD005.jpg	DD006.jpg
241.822577700019	3.03736669995124	decision-missed	n/a	n/a	S	SD037.jpg	SD038.jpg
245.405167299963	1.00023689999944	loss	n/a	n/a	n/a	SD037.jpg	SD038.jpg
248.138688799983	3.00178530003177	decision	0.7828177000046708	right	S	SD039.jpg	SD040.jpg
251.688670200005	1.01675449998584	win	n/a	n/a	n/a	SD039.jpg	SD040.jpg
254.421933799982	3.0343761999975	decision-missed	n/a	n/a	S	SD033.jpg	SD034.jpg
258.005450900004	1.01625919999788	loss	n/a	n/a	n/a	SD033.jpg	SD034.jpg
260.755122600007	3.0017119999975	decision	0.7834332999773324	left	D	DD013.jpg	DD014.jpg
264.305406700005	1.01636459998554	win	n/a	n/a	n/a	DD013.jpg	DD014.jpg
269.13870999997	3.00173590000486	decision	1.2824679000186734	right	S	SD001.jpg	SD002.jpg
272.688485599996	1.00016840000171	win	n/a	n/a	n/a	SD001.jpg	SD002.jpg
275.421784200007	3.0362102999934	decision-missed	n/a	n/a	D	DD003.jpg	DD004.jpg
279.005396699999	1.0164122999995	win	n/a	n/a	n/a	DD003.jpg	DD004.jpg
283.838436499995	3.00069419998908	decision	2.784148600010667	right	S	SD003.jpg	SD004.jpg
287.388433600019	1.00017469999148	win	n/a	n/a	n/a	SD003.jpg	SD004.jpg
294.305182099983	3.03669340000488	decision-missed	n/a	n/a	D	DD025.jpg	DD026.jpg
297.888396899973	1.00000510003883	win	n/a	n/a	n/a	DD025.jpg	DD026.jpg
304.821683599963	3.03659890004201	decision-missed	n/a	n/a	S	SD035.jpg	SD036.jpg
308.40501290001	1.00037329999031	win	n/a	n/a	n/a	SD035.jpg	SD036.jpg
311.138616000011	3.03462910000235	decision-missed	n/a	n/a	D	DD011.jpg	DD012.jpg
314.721586200001	1.00034799997229	loss	n/a	n/a	n/a	DD011.jpg	DD012.jpg
317.455410199997	3.00059499999043	decision	1.7820202999864705	right	S	SD021.jpg	SD022.jpg
321.004948699963	1.00046600005589	win	n/a	n/a	n/a	SD021.jpg	SD022.jpg
325.821608599974	3.03551570000127	decision-missed	n/a	n/a	D	DD029.jpg	DD030.jpg
329.404757599987	1.00014190003276	loss	n/a	n/a	n/a	DD029.jpg	DD030.jpg
