onset	duration	trial_type	response_time	Endowment	Decision	Offer
4.553938	2	cue_social	n/a	16	n/a	n/a
4.553938	2	cue_social_low	n/a	16	n/a	n/a
6.516961	1.365452	dec_social_low	1.365452	16	n/a	2
6.516961	1.365452	dec_social_low_accept	1.365452	16	accept	2
12.160130	2	cue_nonsocial	n/a	16	n/a	n/a
12.160130	2	cue_nonsocial_low	n/a	16	n/a	n/a
14.166317	0.983096	dec_nonsocial_low	0.983096	16	n/a	2
14.166317	0.983096	dec_nonsocial_low_accept	0.983096	16	accept	2
19.809954	2	cue_nonsocial	n/a	16	n/a	n/a
19.809954	2	cue_nonsocial_low	n/a	16	n/a	n/a
21.815908	1.333335	dec_nonsocial_low	1.333335	16	n/a	2
21.815908	1.333335	dec_nonsocial_low_accept	1.333335	16	accept	2
26.684935	2	cue_social	n/a	32	n/a	n/a
26.684935	2	cue_social_high	n/a	32	n/a	n/a
28.649355	1.315882	dec_social_high	1.315882	32	n/a	8
28.649355	1.315882	dec_social_high_accept	1.315882	32	accept	8
35.946090	2	cue_social	n/a	16	n/a	n/a
35.946090	2	cue_social_low	n/a	16	n/a	n/a
37.914800	2.884150	dec_social_low	2.884150	16	n/a	8
37.914800	2.884150	dec_social_low_reject	2.884150	16	reject	8
46.838215	2	cue_social	n/a	32	n/a	n/a
46.838215	2	cue_social_high	n/a	32	n/a	n/a
48.782806	0.715960	dec_social_high	0.715960	32	n/a	2
48.782806	0.715960	dec_social_high_accept	0.715960	32	accept	2
59.328540	2	cue_social	n/a	16	n/a	n/a
59.328540	2	cue_social_low	n/a	16	n/a	n/a
61.265865	1.583380	dec_social_low	1.583380	16	n/a	4
61.265865	1.583380	dec_social_low_accept	1.583380	16	accept	4
66.965410	2	cue_social	n/a	32	n/a	n/a
66.965410	2	cue_social_high	n/a	32	n/a	n/a
68.915855	1.366422	dec_social_high	1.366422	32	n/a	16
68.915855	1.366422	dec_social_high_accept	1.366422	32	accept	16
73.807526	2	cue_social	n/a	16	n/a	n/a
73.807526	2	cue_social_low	n/a	16	n/a	n/a
75.748460	1.001280	dec_social_low	1.001280	16	n/a	2
75.748460	1.001280	dec_social_low_accept	1.001280	16	accept	2
81.393010	2	cue_nonsocial	n/a	16	n/a	n/a
81.393010	2	cue_nonsocial_low	n/a	16	n/a	n/a
83.398820	2.116452	dec_nonsocial_low	2.116452	16	n/a	1
83.398820	2.116452	dec_nonsocial_low_accept	2.116452	16	accept	1
88.282120	2	cue_social	n/a	16	n/a	n/a
88.282120	2	cue_social_low	n/a	16	n/a	n/a
90.232240	3.766946	missed_trial	n/a	16.000000	n/a	n/a
95.059660	2	cue_nonsocial	n/a	32	n/a	n/a
95.059660	2	cue_nonsocial_high	n/a	32	n/a	n/a
97.065800	0.366292	dec_nonsocial_high	0.366292	32	n/a	16
97.065800	0.366292	dec_nonsocial_high_accept	0.366292	32	accept	16
102.709590	2	cue_nonsocial	n/a	16	n/a	n/a
102.709590	2	cue_nonsocial_low	n/a	16	n/a	n/a
104.715800	0.933131	dec_nonsocial_low	0.933131	16	n/a	4
104.715800	0.933131	dec_nonsocial_low_accept	0.933131	16	accept	4
110.360320	2	cue_nonsocial	n/a	16	n/a	n/a
110.360320	2	cue_nonsocial_low	n/a	16	n/a	n/a
112.365814	1.850367	dec_nonsocial_low	1.850367	16	n/a	8
112.365814	1.850367	dec_nonsocial_low_reject	1.850367	16	reject	8
118.009476	2	cue_nonsocial	n/a	16	n/a	n/a
118.009476	2	cue_nonsocial_low	n/a	16	n/a	n/a
120.014824	1.267087	dec_nonsocial_low	1.267087	16	n/a	8
120.014824	1.267087	dec_nonsocial_low_accept	1.267087	16	accept	8
124.843120	2	cue_nonsocial	n/a	16	n/a	n/a
124.843120	2	cue_nonsocial_low	n/a	16	n/a	n/a
126.848785	3.766946	missed_trial	n/a	16.000000	n/a	n/a
131.693570	2	cue_nonsocial	n/a	32	n/a	n/a
131.693570	2	cue_nonsocial_high	n/a	32	n/a	n/a
133.699800	0.465611	dec_nonsocial_high	0.465611	32	n/a	16
133.699800	0.465611	dec_nonsocial_high_accept	0.465611	32	accept	16
139.381670	2	cue_social	n/a	32	n/a	n/a
139.381670	2	cue_social_high	n/a	32	n/a	n/a
141.348890	1.232829	dec_social_high	1.232829	32	n/a	2
141.348890	1.232829	dec_social_high_accept	1.232829	32	accept	2
148.652850	2	cue_social	n/a	16	n/a	n/a
148.652850	2	cue_social_low	n/a	16	n/a	n/a
150.615880	1.183285	dec_social_low	1.183285	16	n/a	4
150.615880	1.183285	dec_social_low_accept	1.183285	16	accept	4
155.489640	2	cue_social	n/a	16	n/a	n/a
155.489640	2	cue_social_low	n/a	16	n/a	n/a
157.449630	3.766946	missed_trial	n/a	16.000000	n/a	n/a
162.368160	2	cue_social	n/a	16	n/a	n/a
162.368160	2	cue_social_low	n/a	16	n/a	n/a
164.298630	0.583069	dec_social_low	0.583069	16	n/a	4
164.298630	0.583069	dec_social_low_accept	0.583069	16	accept	4
169.206150	2	cue_social	n/a	16	n/a	n/a
169.206150	2	cue_social_low	n/a	16	n/a	n/a
171.131260	0.800662	dec_social_low	0.800662	16	n/a	8
171.131260	0.800662	dec_social_low_accept	0.800662	16	accept	8
176.009030	2	cue_social	n/a	32	n/a	n/a
176.009030	2	cue_social_high	n/a	32	n/a	n/a
177.964700	1.200465	dec_social_high	1.200465	32	n/a	2
177.964700	1.200465	dec_social_high_reject	1.200465	32	reject	2
185.210160	2	cue_nonsocial	n/a	32	n/a	n/a
185.210160	2	cue_nonsocial_high	n/a	32	n/a	n/a
187.215730	0.565883	dec_nonsocial_high	0.565883	32	n/a	2
187.215730	0.565883	dec_nonsocial_high_accept	0.565883	32	accept	2
192.858890	2	cue_nonsocial	n/a	16	n/a	n/a
192.858890	2	cue_nonsocial_low	n/a	16	n/a	n/a
194.865510	0.983104	dec_nonsocial_low	0.983104	16	n/a	1
194.865510	0.983104	dec_nonsocial_low_accept	0.983104	16	accept	1
203.726140	2	cue_nonsocial	n/a	16	n/a	n/a
203.726140	2	cue_nonsocial_low	n/a	16	n/a	n/a
205.732350	3.766946	missed_trial	n/a	16.000000	n/a	n/a
211.392910	2	cue_nonsocial	n/a	32	n/a	n/a
211.392910	2	cue_nonsocial_high	n/a	32	n/a	n/a
213.398680	0.300260	dec_nonsocial_high	0.300260	32	n/a	2
213.398680	0.300260	dec_nonsocial_high_accept	0.300260	32	accept	2
218.226090	2	cue_nonsocial	n/a	16	n/a	n/a
218.226090	2	cue_nonsocial_low	n/a	16	n/a	n/a
220.232700	0.333036	dec_nonsocial_low	0.333036	16	n/a	2
220.232700	0.333036	dec_nonsocial_low_reject	0.333036	16	reject	2
225.911030	2	cue_social	n/a	16	n/a	n/a
225.911030	2	cue_social_low	n/a	16	n/a	n/a
227.865650	0.383337	dec_social_low	0.383337	16	n/a	1
227.865650	0.383337	dec_social_low_reject	0.383337	16	reject	1
233.509100	2	cue_nonsocial	n/a	16	n/a	n/a
233.509100	2	cue_nonsocial_low	n/a	16	n/a	n/a
235.515350	0.032944	dec_nonsocial_low	0.032944	16	n/a	4
235.515350	0.032944	dec_nonsocial_low_reject	0.032944	16	reject	4
241.159400	2	cue_nonsocial	n/a	32	n/a	n/a
241.159400	2	cue_nonsocial_high	n/a	32	n/a	n/a
243.164870	0.584025	dec_nonsocial_high	0.584025	32	n/a	8
243.164870	0.584025	dec_nonsocial_high_accept	0.584025	32	accept	8
248.048740	2	cue_social	n/a	16	n/a	n/a
248.048740	2	cue_social_low	n/a	16	n/a	n/a
249.999620	0.882706	dec_social_low	0.882706	16	n/a	4
249.999620	0.882706	dec_social_low_reject	0.882706	16	reject	4
254.889430	2	cue_social	n/a	32	n/a	n/a
254.889430	2	cue_social_high	n/a	32	n/a	n/a
256.832670	1.232898	dec_social_high	1.232898	32	n/a	2
256.832670	1.232898	dec_social_high_accept	1.232898	32	accept	2
261.692200	2	cue_social	n/a	16	n/a	n/a
261.692200	2	cue_social_low	n/a	16	n/a	n/a
263.664640	1.017182	dec_social_low	1.017182	16	n/a	2
263.664640	1.017182	dec_social_low_accept	1.017182	16	accept	2
268.492370	2	cue_nonsocial	n/a	32	n/a	n/a
268.492370	2	cue_nonsocial_high	n/a	32	n/a	n/a
270.498230	0.983762	dec_nonsocial_high	0.983762	32	n/a	8
270.498230	0.983762	dec_nonsocial_high_accept	0.983762	32	accept	8
275.326600	2	cue_nonsocial	n/a	32	n/a	n/a
275.326600	2	cue_nonsocial_high	n/a	32	n/a	n/a
277.332580	1.082351	dec_nonsocial_high	1.082351	32	n/a	8
277.332580	1.082351	dec_nonsocial_high_accept	1.082351	32	accept	8
284.643370	2	cue_social	n/a	16	n/a	n/a
284.643370	2	cue_social_low	n/a	16	n/a	n/a
286.598630	0.033273	dec_social_low	0.033273	16	n/a	8
286.598630	0.033273	dec_social_low_reject	0.033273	16	reject	8
291.426000	2	cue_nonsocial	n/a	32	n/a	n/a
291.426000	2	cue_nonsocial_high	n/a	32	n/a	n/a
293.431550	1.183766	dec_nonsocial_high	1.183766	32	n/a	8
293.431550	1.183766	dec_nonsocial_high_accept	1.183766	32	accept	8
302.292300	2	cue_nonsocial	n/a	32	n/a	n/a
302.292300	2	cue_nonsocial_high	n/a	32	n/a	n/a
304.298550	1.849784	dec_nonsocial_high	1.849784	32	n/a	3
304.298550	1.849784	dec_nonsocial_high_accept	1.849784	32	accept	3
311.559140	2	cue_nonsocial	n/a	16	n/a	n/a
311.559140	2	cue_nonsocial_low	n/a	16	n/a	n/a
313.564580	2.366769	dec_nonsocial_low	2.366769	16	n/a	8
313.564580	2.366769	dec_nonsocial_low_accept	2.366769	16	accept	8
318.439730	2	cue_social	n/a	16	n/a	n/a
318.439730	2	cue_social_low	n/a	16	n/a	n/a
320.398530	3.766946	missed_trial	n/a	16.000000	n/a	n/a
327.721130	2	cue_social	n/a	32	n/a	n/a
327.721130	2	cue_social_high	n/a	32	n/a	n/a
329.665500	0.982956	dec_social_high	0.982956	32	n/a	3
329.665500	0.982956	dec_social_high_accept	0.982956	32	accept	3
334.591950	2	cue_social	n/a	32	n/a	n/a
334.591950	2	cue_social_high	n/a	32	n/a	n/a
336.498540	0.250041	dec_social_high	0.250041	32	n/a	3
336.498540	0.250041	dec_social_high_accept	0.250041	32	accept	3
341.336800	2	cue_social	n/a	16	n/a	n/a
341.336800	2	cue_social_low	n/a	16	n/a	n/a
343.332500	3.766946	missed_trial	n/a	16.000000	n/a	n/a
348.175630	2	cue_nonsocial	n/a	16	n/a	n/a
348.175630	2	cue_nonsocial_low	n/a	16	n/a	n/a
350.181500	1.566457	dec_nonsocial_low	1.566457	16	n/a	8
350.181500	1.566457	dec_nonsocial_low_accept	1.566457	16	accept	8
355.055180	2	cue_social	n/a	16	n/a	n/a
355.055180	2	cue_social_low	n/a	16	n/a	n/a
357.015470	0.649624	dec_social_low	0.649624	16	n/a	8
357.015470	0.649624	dec_social_low_reject	0.649624	16	reject	8
361.842100	2	cue_nonsocial	n/a	32	n/a	n/a
361.842100	2	cue_nonsocial_high	n/a	32	n/a	n/a
363.847530	0.284120	dec_nonsocial_high	0.284120	32	n/a	2
363.847530	0.284120	dec_nonsocial_high_reject	0.284120	32	reject	2
368.675450	2	cue_nonsocial	n/a	16	n/a	n/a
368.675450	2	cue_nonsocial_low	n/a	16	n/a	n/a
370.681430	0.433416	dec_nonsocial_low	0.433416	16	n/a	2
370.681430	0.433416	dec_nonsocial_low_reject	0.433416	16	reject	2
