onset	duration	trial_type	response_time	Endowment	Endowment_pmod	Decision	Decision_pmod	Offer_pmod
4.590663	2	cue_social	n/a	16	-6	n/a	n/a	n/a
4.590663	2	cue_social_low	n/a	16	-8	n/a	n/a	n/a
13.844298	2	cue_social	n/a	16	-6	n/a	n/a	n/a
13.844298	2	cue_social_low	n/a	16	-8	n/a	n/a	n/a
26.259623	2	cue_nonsocial	n/a	16	-8	n/a	n/a	n/a
26.259623	2	cue_nonsocial_low	n/a	16	-6	n/a	n/a	n/a
33.092903	2	cue_nonsocial	n/a	32	8	n/a	n/a	n/a
33.092903	2	cue_nonsocial_high	n/a	32	10	n/a	n/a	n/a
44.040485	2	cue_social	n/a	16	-6	n/a	n/a	n/a
44.040485	2	cue_social_low	n/a	16	-8	n/a	n/a	n/a
50.866530	2	cue_social	n/a	32	10	n/a	n/a	n/a
50.866530	2	cue_social_high	n/a	32	8	n/a	n/a	n/a
60.123028	2	cue_social	n/a	16	-6	n/a	n/a	n/a
60.123028	2	cue_social_low	n/a	16	-8	n/a	n/a	n/a
66.876434	2	cue_nonsocial	n/a	32	8	n/a	n/a	n/a
66.876434	2	cue_nonsocial_high	n/a	32	10	n/a	n/a	n/a
73.818970	2	cue_social	n/a	16	-6	n/a	n/a	n/a
73.818970	2	cue_social_low	n/a	16	-8	n/a	n/a	n/a
82.968940	2	cue_nonsocial	n/a	32	8	n/a	n/a	n/a
82.968940	2	cue_nonsocial_high	n/a	32	10	n/a	n/a	n/a
90.676930	2	cue_social	n/a	32	10	n/a	n/a	n/a
90.676930	2	cue_social_high	n/a	32	8	n/a	n/a	n/a
98.259610	2	cue_nonsocial	n/a	32	8	n/a	n/a	n/a
98.259610	2	cue_nonsocial_high	n/a	32	10	n/a	n/a	n/a
105.092850	2	cue_nonsocial	n/a	32	8	n/a	n/a	n/a
105.092850	2	cue_nonsocial_high	n/a	32	10	n/a	n/a	n/a
112.818085	2	cue_social	n/a	32	10	n/a	n/a	n/a
112.818085	2	cue_social_high	n/a	32	8	n/a	n/a	n/a
120.480260	2	cue_social	n/a	16	-6	n/a	n/a	n/a
120.480260	2	cue_social_low	n/a	16	-8	n/a	n/a	n/a
127.225700	2	cue_nonsocial	n/a	16	-8	n/a	n/a	n/a
127.225700	2	cue_nonsocial_low	n/a	16	-6	n/a	n/a	n/a
134.875980	2	cue_nonsocial	n/a	16	-8	n/a	n/a	n/a
134.875980	2	cue_nonsocial_low	n/a	16	-6	n/a	n/a	n/a
141.776150	2	cue_social	n/a	16	-6	n/a	n/a	n/a
141.776150	2	cue_social_low	n/a	16	-8	n/a	n/a	n/a
148.542680	2	cue_nonsocial	n/a	32	8	n/a	n/a	n/a
148.542680	2	cue_nonsocial_high	n/a	32	10	n/a	n/a	n/a
159.488950	2	cue_social	n/a	32	10	n/a	n/a	n/a
159.488950	2	cue_social_high	n/a	32	8	n/a	n/a	n/a
166.259170	2	cue_nonsocial	n/a	16	-8	n/a	n/a	n/a
166.259170	2	cue_nonsocial_low	n/a	16	-6	n/a	n/a	n/a
173.092160	2	cue_nonsocial	n/a	16	-8	n/a	n/a	n/a
173.092160	2	cue_nonsocial_low	n/a	16	-6	n/a	n/a	n/a
179.925810	2	cue_nonsocial	n/a	32	8	n/a	n/a	n/a
179.925810	2	cue_nonsocial_high	n/a	32	10	n/a	n/a	n/a
187.622680	2	cue_social	n/a	32	10	n/a	n/a	n/a
187.622680	2	cue_social_high	n/a	32	8	n/a	n/a	n/a
195.226000	2	cue_nonsocial	n/a	32	8	n/a	n/a	n/a
195.226000	2	cue_nonsocial_high	n/a	32	10	n/a	n/a	n/a
202.118030	2	cue_social	n/a	16	-6	n/a	n/a	n/a
202.118030	2	cue_social_low	n/a	16	-8	n/a	n/a	n/a
212.957020	2	cue_social	n/a	16	-6	n/a	n/a	n/a
212.957020	2	cue_social_low	n/a	16	-8	n/a	n/a	n/a
222.175640	2	cue_nonsocial	n/a	32	8	n/a	n/a	n/a
222.175640	2	cue_nonsocial_high	n/a	32	10	n/a	n/a	n/a
231.425750	2	cue_nonsocial	n/a	16	-8	n/a	n/a	n/a
231.425750	2	cue_nonsocial_low	n/a	16	-6	n/a	n/a	n/a
238.315720	2	cue_social	n/a	32	10	n/a	n/a	n/a
238.315720	2	cue_social_high	n/a	32	8	n/a	n/a	n/a
245.092480	2	cue_nonsocial	n/a	16	-8	n/a	n/a	n/a
245.092480	2	cue_nonsocial_low	n/a	16	-6	n/a	n/a	n/a
251.998050	2	cue_social	n/a	16	-6	n/a	n/a	n/a
251.998050	2	cue_social_low	n/a	16	-8	n/a	n/a	n/a
259.658630	2	cue_social	n/a	16	-6	n/a	n/a	n/a
259.658630	2	cue_social_low	n/a	16	-8	n/a	n/a	n/a
267.263760	2	cue_social	n/a	32	10	n/a	n/a	n/a
267.263760	2	cue_social_high	n/a	32	8	n/a	n/a	n/a
274.058840	2	cue_nonsocial	n/a	16	-8	n/a	n/a	n/a
274.058840	2	cue_nonsocial_low	n/a	16	-6	n/a	n/a	n/a
280.949250	2	cue_social	n/a	16	-6	n/a	n/a	n/a
280.949250	2	cue_social_low	n/a	16	-8	n/a	n/a	n/a
288.590000	2	cue_social	n/a	32	10	n/a	n/a	n/a
288.590000	2	cue_social_high	n/a	32	8	n/a	n/a	n/a
295.375400	2	cue_nonsocial	n/a	32	8	n/a	n/a	n/a
295.375400	2	cue_nonsocial_high	n/a	32	10	n/a	n/a	n/a
304.625730	2	cue_nonsocial	n/a	32	8	n/a	n/a	n/a
304.625730	2	cue_nonsocial_high	n/a	32	10	n/a	n/a	n/a
311.512100	2	cue_social	n/a	16	-6	n/a	n/a	n/a
311.512100	2	cue_social_low	n/a	16	-8	n/a	n/a	n/a
318.292140	2	cue_nonsocial	n/a	16	-8	n/a	n/a	n/a
318.292140	2	cue_nonsocial_low	n/a	16	-6	n/a	n/a	n/a
325.125580	2	cue_nonsocial	n/a	32	8	n/a	n/a	n/a
325.125580	2	cue_nonsocial_high	n/a	32	10	n/a	n/a	n/a
332.775600	2	cue_nonsocial	n/a	16	-8	n/a	n/a	n/a
332.775600	2	cue_nonsocial_low	n/a	16	-6	n/a	n/a	n/a
339.662840	2	cue_social	n/a	32	10	n/a	n/a	n/a
339.662840	2	cue_social_high	n/a	32	8	n/a	n/a	n/a
347.290040	2	cue_social	n/a	16	-6	n/a	n/a	n/a
347.290040	2	cue_social_low	n/a	16	-8	n/a	n/a	n/a
354.892360	2	cue_nonsocial	n/a	16	-8	n/a	n/a	n/a
354.892360	2	cue_nonsocial_low	n/a	16	-6	n/a	n/a	n/a
361.725400	2	cue_nonsocial	n/a	16	-8	n/a	n/a	n/a
361.725400	2	cue_nonsocial_low	n/a	16	-6	n/a	n/a	n/a
371.012150	2	cue_social	n/a	16	-6	n/a	n/a	n/a
371.012150	2	cue_social_low	n/a	16	-8	n/a	n/a	n/a
6.514946	2.850538	dec_social_choice	2.850538	16.000000	n/a	1	-1.686198e-01	-1.686198e-01
6.514946	2.850538	dec_choice	2.850538	16.000000	n/a	1	-1.692708e-01	-1.692708e-01
6.514946	2.850538	dec_social_accept	2.850538	16.000000	n/a	1	-1.686198e-01	-1.686198e-01
6.514946	2.850538	dec_accept	2.850538	16.000000	n/a	1	-1.692708e-01	-1.692708e-01
6.514946	2.850538	dec_social_low	2.850538	16.000000	n/a	1	-1.692708e-01	-1.692708e-01
6.514946	2.850538	dec_social_accept_low	2.850538	16.000000	n/a	1	-1.692708e-01	-1.692708e-01
15.781940	3.250113	dec_social_choice	3.250113	16.000000	n/a	4	1.888021e-02	1.888021e-02
15.781940	3.250113	dec_choice	3.250113	16.000000	n/a	4	1.822917e-02	1.822917e-02
15.781940	3.250113	dec_social_accept	3.250113	16.000000	n/a	4	1.888021e-02	1.888021e-02
15.781940	3.250113	dec_accept	3.250113	16.000000	n/a	4	1.822917e-02	1.822917e-02
15.781940	3.250113	dec_social_high	3.250113	16.000000	n/a	4	1.822917e-02	1.822917e-02
15.781940	3.250113	dec_social_accept_high	3.250113	16.000000	n/a	4	1.822917e-02	1.822917e-02
28.265884	2.099395	dec_nonsocial_choice	2.099395	16.000000	n/a	2	-1.061198e-01	-1.061198e-01
28.265884	2.099395	dec_choice	2.099395	16.000000	n/a	2	-1.054688e-01	-1.054688e-01
28.265884	2.099395	dec_nonsocial_accept	2.099395	16.000000	n/a	2	-1.061198e-01	-1.061198e-01
28.265884	2.099395	dec_accept	2.099395	16.000000	n/a	2	-1.054688e-01	-1.054688e-01
28.265884	2.099395	dec_nonsocial_low	2.099395	16.000000	n/a	2	-1.054688e-01	-1.054688e-01
28.265884	2.099395	dec_nonsocial_accept_low	2.099395	16.000000	n/a	2	-1.054688e-01	-1.054688e-01
35.098810	2.449990	dec_nonsocial_choice	2.449990	32.000000	n/a	8	1.888021e-02	1.888021e-02
35.098810	2.449990	dec_choice	2.449990	32.000000	n/a	8	1.953125e-02	1.953125e-02
35.098810	2.449990	dec_nonsocial_accept	2.449990	32.000000	n/a	8	1.888021e-02	1.888021e-02
35.098810	2.449990	dec_accept	2.449990	32.000000	n/a	8	1.953125e-02	1.953125e-02
35.098810	2.449990	dec_nonsocial_accept_high	2.449990	32.000000	n/a	8	1.822917e-02	1.822917e-02
45.963852	2.268136	dec_social_choice	2.268136	16.000000	n/a	8	2.688802e-01	2.688802e-01
45.963852	2.268136	dec_choice	2.268136	16.000000	n/a	8	2.682292e-01	2.682292e-01
45.963852	2.268136	dec_social_accept	2.268136	16.000000	n/a	8	2.688802e-01	2.688802e-01
45.963852	2.268136	dec_accept	2.268136	16.000000	n/a	8	2.682292e-01	2.682292e-01
45.963852	2.268136	dec_social_high	2.268136	16.000000	n/a	8	2.682292e-01	2.682292e-01
45.963852	2.268136	dec_social_accept_high	2.268136	16.000000	n/a	8	2.682292e-01	2.682292e-01
52.797695	2.183404	dec_social_choice	2.183404	32.000000	n/a	16	2.688802e-01	2.688802e-01
52.797695	2.183404	dec_choice	2.183404	32.000000	n/a	16	2.682292e-01	2.682292e-01
52.797695	2.183404	dec_social_accept	2.183404	32.000000	n/a	16	2.688802e-01	2.688802e-01
52.797695	2.183404	dec_accept	2.183404	32.000000	n/a	16	2.682292e-01	2.682292e-01
52.797695	2.183404	dec_social_accept_high	2.183404	32.000000	n/a	16	2.682292e-01	2.682292e-01
62.048832	1.799760	dec_social_choice	1.799760	16.000000	n/a	1	-1.686198e-01	-1.686198e-01
62.048832	1.799760	dec_choice	1.799760	16.000000	n/a	1	-1.692708e-01	-1.692708e-01
62.048832	1.799760	dec_social_accept	1.799760	16.000000	n/a	1	-1.686198e-01	-1.686198e-01
62.048832	1.799760	dec_accept	1.799760	16.000000	n/a	1	-1.692708e-01	-1.692708e-01
62.048832	1.799760	dec_social_accept_low	1.799760	16.000000	n/a	1	-1.692708e-01	-1.692708e-01
68.881900	1.683323	dec_nonsocial_choice	1.683323	32.000000	n/a	3	-1.373698e-01	-1.373698e-01
68.881900	1.683323	dec_choice	1.683323	32.000000	n/a	3	-1.367188e-01	-1.367188e-01
68.881900	1.683323	dec_nonsocial_accept	1.683323	32.000000	n/a	3	-1.373698e-01	-1.373698e-01
68.881900	1.683323	dec_accept	1.683323	32.000000	n/a	3	-1.367188e-01	-1.367188e-01
68.881900	1.683323	dec_nonsocial_accept_low	1.683323	32.000000	n/a	3	-1.380208e-01	-1.380208e-01
75.716240	1.749078	dec_social_choice	1.749078	16.000000	n/a	8	2.688802e-01	2.688802e-01
75.716240	1.749078	dec_choice	1.749078	16.000000	n/a	8	2.682292e-01	2.682292e-01
75.716240	1.749078	dec_social_accept	1.749078	16.000000	n/a	8	2.688802e-01	2.688802e-01
75.716240	1.749078	dec_accept	1.749078	16.000000	n/a	8	2.682292e-01	2.682292e-01
75.716240	1.749078	dec_social_high	1.749078	16.000000	n/a	8	2.682292e-01	2.682292e-01
75.716240	1.749078	dec_social_accept_high	1.749078	16.000000	n/a	8	2.682292e-01	2.682292e-01
84.965480	2.065599	dec_nonsocial_choice	2.065599	32.000000	n/a	2	-1.686198e-01	-1.686198e-01
84.965480	2.065599	dec_choice	2.065599	32.000000	n/a	2	-1.679688e-01	-1.679688e-01
84.965480	2.065599	dec_nonsocial_accept	2.065599	32.000000	n/a	2	-1.686198e-01	-1.686198e-01
84.965480	2.065599	dec_accept	2.065599	32.000000	n/a	2	-1.679688e-01	-1.679688e-01
84.965480	2.065599	dec_nonsocial_low	2.065599	32.000000	n/a	2	-1.679688e-01	-1.679688e-01
84.965480	2.065599	dec_nonsocial_accept_low	2.065599	32.000000	n/a	2	-1.679688e-01	-1.679688e-01
92.614890	1.750268	dec_social_choice	1.750268	32.000000	n/a	8	1.888021e-02	1.888021e-02
92.614890	1.750268	dec_choice	1.750268	32.000000	n/a	8	1.822917e-02	1.822917e-02
92.614890	1.750268	dec_social_accept	1.750268	32.000000	n/a	8	1.888021e-02	1.888021e-02
92.614890	1.750268	dec_accept	1.750268	32.000000	n/a	8	1.822917e-02	1.822917e-02
92.614890	1.750268	dec_social_high	1.750268	32.000000	n/a	8	1.822917e-02	1.822917e-02
92.614890	1.750268	dec_social_accept_high	1.750268	32.000000	n/a	8	1.822917e-02	1.822917e-02
100.265780	1.665249	dec_nonsocial_choice	1.665249	32.000000	n/a	8	1.888021e-02	1.888021e-02
100.265780	1.665249	dec_choice	1.665249	32.000000	n/a	8	1.953125e-02	1.953125e-02
100.265780	1.665249	dec_nonsocial_accept	1.665249	32.000000	n/a	8	1.888021e-02	1.888021e-02
100.265780	1.665249	dec_accept	1.665249	32.000000	n/a	8	1.953125e-02	1.953125e-02
100.265780	1.665249	dec_nonsocial_high	1.665249	32.000000	n/a	8	1.953125e-02	1.953125e-02
100.265780	1.665249	dec_nonsocial_accept_high	1.665249	32.000000	n/a	8	1.953125e-02	1.953125e-02
107.098740	1.549793	dec_nonsocial_choice	1.549793	32.000000	n/a	16	2.688802e-01	2.688802e-01
107.098740	1.549793	dec_choice	1.549793	32.000000	n/a	16	2.695312e-01	2.695312e-01
107.098740	1.549793	dec_nonsocial_accept	1.549793	32.000000	n/a	16	2.688802e-01	2.688802e-01
107.098740	1.549793	dec_accept	1.549793	32.000000	n/a	16	2.695312e-01	2.695312e-01
107.098740	1.549793	dec_nonsocial_accept_high	1.549793	32.000000	n/a	16	2.682292e-01	2.682292e-01
114.747800	1.733196	dec_social_choice	1.733196	32.000000	n/a	8	1.888021e-02	1.888021e-02
114.747800	1.733196	dec_choice	1.733196	32.000000	n/a	8	1.822917e-02	1.822917e-02
114.747800	1.733196	dec_social_accept	1.733196	32.000000	n/a	8	1.888021e-02	1.888021e-02
114.747800	1.733196	dec_accept	1.733196	32.000000	n/a	8	1.822917e-02	1.822917e-02
114.747800	1.733196	dec_social_accept_high	1.733196	32.000000	n/a	8	1.822917e-02	1.822917e-02
122.398900	1.315289	dec_social_choice	1.315289	16.000000	n/a	2	-1.061198e-01	-1.061198e-01
122.398900	1.315289	dec_choice	1.315289	16.000000	n/a	2	-1.067708e-01	-1.067708e-01
122.398900	1.315289	dec_social_accept	1.315289	16.000000	n/a	2	-1.061198e-01	-1.061198e-01
122.398900	1.315289	dec_accept	1.315289	16.000000	n/a	2	-1.067708e-01	-1.067708e-01
122.398900	1.315289	dec_social_accept_low	1.315289	16.000000	n/a	2	-1.067708e-01	-1.067708e-01
129.232570	1.899173	dec_nonsocial_choice	1.899173	16.000000	n/a	1	-1.686198e-01	-1.686198e-01
129.232570	1.899173	dec_choice	1.899173	16.000000	n/a	1	-1.679688e-01	-1.679688e-01
129.232570	1.899173	dec_nonsocial_accept	1.899173	16.000000	n/a	1	-1.686198e-01	-1.686198e-01
129.232570	1.899173	dec_accept	1.899173	16.000000	n/a	1	-1.679688e-01	-1.679688e-01
129.232570	1.899173	dec_nonsocial_accept_low	1.899173	16.000000	n/a	1	-1.692708e-01	-1.692708e-01
136.881800	1.483240	dec_nonsocial_choice	1.483240	16.000000	n/a	8	2.688802e-01	2.688802e-01
136.881800	1.483240	dec_choice	1.483240	16.000000	n/a	8	2.695312e-01	2.695312e-01
136.881800	1.483240	dec_nonsocial_accept	1.483240	16.000000	n/a	8	2.688802e-01	2.688802e-01
136.881800	1.483240	dec_accept	1.483240	16.000000	n/a	8	2.695312e-01	2.695312e-01
136.881800	1.483240	dec_nonsocial_high	1.483240	16.000000	n/a	8	2.695312e-01	2.695312e-01
136.881800	1.483240	dec_nonsocial_accept_high	1.483240	16.000000	n/a	8	2.695312e-01	2.695312e-01
143.715120	1.050413	dec_social_choice	1.050413	16.000000	n/a	2	-1.061198e-01	-1.061198e-01
143.715120	1.050413	dec_choice	1.050413	16.000000	n/a	2	-1.067708e-01	-1.067708e-01
143.715120	1.050413	dec_social_accept	1.050413	16.000000	n/a	2	-1.061198e-01	-1.061198e-01
143.715120	1.050413	dec_accept	1.050413	16.000000	n/a	2	-1.067708e-01	-1.067708e-01
143.715120	1.050413	dec_social_accept_low	1.050413	16.000000	n/a	2	-1.067708e-01	-1.067708e-01
150.548890	1.515049	dec_nonsocial_choice	1.515049	32.000000	n/a	16	2.688802e-01	2.688802e-01
150.548890	1.515049	dec_choice	1.515049	32.000000	n/a	16	2.695312e-01	2.695312e-01
150.548890	1.515049	dec_nonsocial_accept	1.515049	32.000000	n/a	16	2.688802e-01	2.688802e-01
150.548890	1.515049	dec_accept	1.515049	32.000000	n/a	16	2.695312e-01	2.695312e-01
150.548890	1.515049	dec_nonsocial_accept_high	1.515049	32.000000	n/a	16	2.682292e-01	2.682292e-01
161.431720	1.499992	dec_social_choice	1.499992	32.000000	n/a	16	2.688802e-01	2.688802e-01
161.431720	1.499992	dec_choice	1.499992	32.000000	n/a	16	2.682292e-01	2.682292e-01
161.431720	1.499992	dec_social_accept	1.499992	32.000000	n/a	16	2.688802e-01	2.688802e-01
161.431720	1.499992	dec_accept	1.499992	32.000000	n/a	16	2.682292e-01	2.682292e-01
161.431720	1.499992	dec_social_accept_high	1.499992	32.000000	n/a	16	2.682292e-01	2.682292e-01
168.264850	0.966036	dec_nonsocial_choice	0.966036	16.000000	n/a	1	-1.686198e-01	-1.686198e-01
168.264850	0.966036	dec_choice	0.966036	16.000000	n/a	1	-1.679688e-01	-1.679688e-01
168.264850	0.966036	dec_nonsocial_accept	0.966036	16.000000	n/a	1	-1.686198e-01	-1.686198e-01
168.264850	0.966036	dec_accept	0.966036	16.000000	n/a	1	-1.679688e-01	-1.679688e-01
168.264850	0.966036	dec_nonsocial_low	0.966036	16.000000	n/a	1	-1.679688e-01	-1.679688e-01
168.264850	0.966036	dec_nonsocial_accept_low	0.966036	16.000000	n/a	1	-1.679688e-01	-1.679688e-01
175.098370	1.565832	dec_nonsocial_choice	1.565832	16.000000	n/a	2	-1.061198e-01	-1.061198e-01
175.098370	1.565832	dec_choice	1.565832	16.000000	n/a	2	-1.054688e-01	-1.054688e-01
175.098370	1.565832	dec_nonsocial_accept	1.565832	16.000000	n/a	2	-1.061198e-01	-1.061198e-01
175.098370	1.565832	dec_accept	1.565832	16.000000	n/a	2	-1.054688e-01	-1.054688e-01
175.098370	1.565832	dec_nonsocial_accept_low	1.565832	16.000000	n/a	2	-1.067708e-01	-1.067708e-01
181.931690	1.399930	dec_nonsocial_choice	1.399930	32.000000	n/a	8	1.888021e-02	1.888021e-02
181.931690	1.399930	dec_choice	1.399930	32.000000	n/a	8	1.953125e-02	1.953125e-02
181.931690	1.399930	dec_nonsocial_accept	1.399930	32.000000	n/a	8	1.888021e-02	1.888021e-02
181.931690	1.399930	dec_accept	1.399930	32.000000	n/a	8	1.953125e-02	1.953125e-02
181.931690	1.399930	dec_nonsocial_high	1.399930	32.000000	n/a	8	1.953125e-02	1.953125e-02
181.931690	1.399930	dec_nonsocial_accept_high	1.399930	32.000000	n/a	8	1.953125e-02	1.953125e-02
189.582750	1.114802	dec_social_choice	1.114802	32.000000	n/a	2	-1.686198e-01	-1.686198e-01
189.582750	1.114802	dec_choice	1.114802	32.000000	n/a	2	-1.692708e-01	-1.692708e-01
189.582750	1.114802	dec_social_accept	1.114802	32.000000	n/a	2	-1.686198e-01	-1.686198e-01
189.582750	1.114802	dec_accept	1.114802	32.000000	n/a	2	-1.692708e-01	-1.692708e-01
189.582750	1.114802	dec_social_accept_low	1.114802	32.000000	n/a	2	-1.692708e-01	-1.692708e-01
197.231340	1.000219	dec_nonsocial_choice	1.000219	32.000000	n/a	3	-1.373698e-01	-1.373698e-01
197.231340	1.000219	dec_choice	1.000219	32.000000	n/a	3	-1.367188e-01	-1.367188e-01
197.231340	1.000219	dec_nonsocial_accept	1.000219	32.000000	n/a	3	-1.373698e-01	-1.373698e-01
197.231340	1.000219	dec_accept	1.000219	32.000000	n/a	3	-1.367188e-01	-1.367188e-01
197.231340	1.000219	dec_nonsocial_accept_low	1.000219	32.000000	n/a	3	-1.380208e-01	-1.380208e-01
204.064760	1.133521	dec_social_choice	1.133521	16.000000	n/a	1	-1.686198e-01	-1.686198e-01
204.064760	1.133521	dec_choice	1.133521	16.000000	n/a	1	-1.692708e-01	-1.692708e-01
204.064760	1.133521	dec_social_accept	1.133521	16.000000	n/a	1	-1.686198e-01	-1.686198e-01
204.064760	1.133521	dec_accept	1.133521	16.000000	n/a	1	-1.692708e-01	-1.692708e-01
204.064760	1.133521	dec_social_low	1.133521	16.000000	n/a	1	-1.692708e-01	-1.692708e-01
204.064760	1.133521	dec_social_accept_low	1.133521	16.000000	n/a	1	-1.692708e-01	-1.692708e-01
214.930770	1.167429	dec_social_choice	1.167429	16.000000	n/a	4	1.888021e-02	1.888021e-02
214.930770	1.167429	dec_choice	1.167429	16.000000	n/a	4	1.822917e-02	1.822917e-02
214.930770	1.167429	dec_social_accept	1.167429	16.000000	n/a	4	1.888021e-02	1.888021e-02
214.930770	1.167429	dec_accept	1.167429	16.000000	n/a	4	1.822917e-02	1.822917e-02
214.930770	1.167429	dec_social_high	1.167429	16.000000	n/a	4	1.822917e-02	1.822917e-02
214.930770	1.167429	dec_social_accept_high	1.167429	16.000000	n/a	4	1.822917e-02	1.822917e-02
224.181200	1.283497	dec_nonsocial_choice	1.283497	32.000000	n/a	8	1.888021e-02	1.888021e-02
224.181200	1.283497	dec_choice	1.283497	32.000000	n/a	8	1.953125e-02	1.953125e-02
224.181200	1.283497	dec_nonsocial_accept	1.283497	32.000000	n/a	8	1.888021e-02	1.888021e-02
224.181200	1.283497	dec_accept	1.283497	32.000000	n/a	8	1.953125e-02	1.953125e-02
224.181200	1.283497	dec_nonsocial_accept_high	1.283497	32.000000	n/a	8	1.822917e-02	1.822917e-02
233.431670	1.333166	dec_nonsocial_choice	1.333166	16.000000	n/a	8	2.688802e-01	2.688802e-01
233.431670	1.333166	dec_choice	1.333166	16.000000	n/a	8	2.695312e-01	2.695312e-01
233.431670	1.333166	dec_nonsocial_accept	1.333166	16.000000	n/a	8	2.688802e-01	2.688802e-01
233.431670	1.333166	dec_accept	1.333166	16.000000	n/a	8	2.695312e-01	2.695312e-01
233.431670	1.333166	dec_nonsocial_high	1.333166	16.000000	n/a	8	2.695312e-01	2.695312e-01
233.431670	1.333166	dec_nonsocial_accept_high	1.333166	16.000000	n/a	8	2.695312e-01	2.695312e-01
240.265720	1.698993	dec_social_choice	1.698993	32.000000	n/a	3	-1.373698e-01	-1.373698e-01
240.265720	1.698993	dec_choice	1.698993	32.000000	n/a	3	-1.380208e-01	-1.380208e-01
240.265720	1.698993	dec_social_accept	1.698993	32.000000	n/a	3	-1.373698e-01	-1.373698e-01
240.265720	1.698993	dec_accept	1.698993	32.000000	n/a	3	-1.380208e-01	-1.380208e-01
240.265720	1.698993	dec_social_low	1.698993	32.000000	n/a	3	-1.380208e-01	-1.380208e-01
240.265720	1.698993	dec_social_accept_low	1.698993	32.000000	n/a	3	-1.380208e-01	-1.380208e-01
247.098600	1.149468	dec_nonsocial_choice	1.149468	16.000000	n/a	1	-1.686198e-01	-1.686198e-01
247.098600	1.149468	dec_choice	1.149468	16.000000	n/a	1	-1.679688e-01	-1.679688e-01
247.098600	1.149468	dec_nonsocial_accept	1.149468	16.000000	n/a	1	-1.686198e-01	-1.686198e-01
247.098600	1.149468	dec_accept	1.149468	16.000000	n/a	1	-1.679688e-01	-1.679688e-01
247.098600	1.149468	dec_nonsocial_low	1.149468	16.000000	n/a	1	-1.679688e-01	-1.679688e-01
247.098600	1.149468	dec_nonsocial_accept_low	1.149468	16.000000	n/a	1	-1.679688e-01	-1.679688e-01
253.930050	0.951385	dec_social_choice	0.951385	16.000000	n/a	2	-1.061198e-01	-1.061198e-01
253.930050	0.951385	dec_choice	0.951385	16.000000	n/a	2	-1.067708e-01	-1.067708e-01
253.930050	0.951385	dec_social_accept	0.951385	16.000000	n/a	2	-1.061198e-01	-1.061198e-01
253.930050	0.951385	dec_accept	0.951385	16.000000	n/a	2	-1.067708e-01	-1.067708e-01
253.930050	0.951385	dec_social_low	0.951385	16.000000	n/a	2	-1.067708e-01	-1.067708e-01
253.930050	0.951385	dec_social_accept_low	0.951385	16.000000	n/a	2	-1.067708e-01	-1.067708e-01
261.580630	1.100775	dec_social_choice	1.100775	16.000000	n/a	8	2.688802e-01	2.688802e-01
261.580630	1.100775	dec_choice	1.100775	16.000000	n/a	8	2.682292e-01	2.682292e-01
261.580630	1.100775	dec_social_accept	1.100775	16.000000	n/a	8	2.688802e-01	2.688802e-01
261.580630	1.100775	dec_accept	1.100775	16.000000	n/a	8	2.682292e-01	2.682292e-01
261.580630	1.100775	dec_social_high	1.100775	16.000000	n/a	8	2.682292e-01	2.682292e-01
261.580630	1.100775	dec_social_accept_high	1.100775	16.000000	n/a	8	2.682292e-01	2.682292e-01
269.231570	0.983102	dec_social_choice	0.983102	32.000000	n/a	3	-1.373698e-01	-1.373698e-01
269.231570	0.983102	dec_choice	0.983102	32.000000	n/a	3	-1.380208e-01	-1.380208e-01
269.231570	0.983102	dec_social_accept	0.983102	32.000000	n/a	3	-1.373698e-01	-1.373698e-01
269.231570	0.983102	dec_accept	0.983102	32.000000	n/a	3	-1.380208e-01	-1.380208e-01
269.231570	0.983102	dec_social_accept_low	0.983102	32.000000	n/a	3	-1.380208e-01	-1.380208e-01
276.065550	0.982506	dec_nonsocial_choice	0.982506	16.000000	n/a	2	-1.061198e-01	-1.061198e-01
276.065550	0.982506	dec_choice	0.982506	16.000000	n/a	2	-1.054688e-01	-1.054688e-01
276.065550	0.982506	dec_nonsocial_accept	0.982506	16.000000	n/a	2	-1.061198e-01	-1.061198e-01
276.065550	0.982506	dec_accept	0.982506	16.000000	n/a	2	-1.054688e-01	-1.054688e-01
276.065550	0.982506	dec_nonsocial_accept_low	0.982506	16.000000	n/a	2	-1.067708e-01	-1.067708e-01
282.898000	1.065730	dec_social_choice	1.065730	16.000000	n/a	1	-1.686198e-01	-1.686198e-01
282.898000	1.065730	dec_choice	1.065730	16.000000	n/a	1	-1.692708e-01	-1.692708e-01
282.898000	1.065730	dec_social_accept	1.065730	16.000000	n/a	1	-1.686198e-01	-1.686198e-01
282.898000	1.065730	dec_accept	1.065730	16.000000	n/a	1	-1.692708e-01	-1.692708e-01
282.898000	1.065730	dec_social_accept_low	1.065730	16.000000	n/a	1	-1.692708e-01	-1.692708e-01
290.548550	0.899652	dec_social_choice	0.899652	32.000000	n/a	2	-1.686198e-01	-1.686198e-01
290.548550	0.899652	dec_choice	0.899652	32.000000	n/a	2	-1.692708e-01	-1.692708e-01
290.548550	0.899652	dec_social_accept	0.899652	32.000000	n/a	2	-1.686198e-01	-1.686198e-01
290.548550	0.899652	dec_accept	0.899652	32.000000	n/a	2	-1.692708e-01	-1.692708e-01
290.548550	0.899652	dec_social_accept_low	0.899652	32.000000	n/a	2	-1.692708e-01	-1.692708e-01
297.380900	1.500814	dec_nonsocial_choice	1.500814	32.000000	n/a	16	2.688802e-01	2.688802e-01
297.380900	1.500814	dec_choice	1.500814	32.000000	n/a	16	2.695312e-01	2.695312e-01
297.380900	1.500814	dec_nonsocial_accept	1.500814	32.000000	n/a	16	2.688802e-01	2.688802e-01
297.380900	1.500814	dec_accept	1.500814	32.000000	n/a	16	2.695312e-01	2.695312e-01
297.380900	1.500814	dec_nonsocial_accept_high	1.500814	32.000000	n/a	16	2.682292e-01	2.682292e-01
306.631500	1.199713	dec_nonsocial_choice	1.199713	32.000000	n/a	3	-1.373698e-01	-1.373698e-01
306.631500	1.199713	dec_choice	1.199713	32.000000	n/a	3	-1.367188e-01	-1.367188e-01
306.631500	1.199713	dec_nonsocial_accept	1.199713	32.000000	n/a	3	-1.373698e-01	-1.373698e-01
306.631500	1.199713	dec_accept	1.199713	32.000000	n/a	3	-1.367188e-01	-1.367188e-01
306.631500	1.199713	dec_nonsocial_low	1.199713	32.000000	n/a	3	-1.367188e-01	-1.367188e-01
306.631500	1.199713	dec_nonsocial_accept_low	1.199713	32.000000	n/a	3	-1.367188e-01	-1.367188e-01
313.464400	1.116029	dec_social_choice	1.116029	16.000000	n/a	4	1.888021e-02	1.888021e-02
313.464400	1.116029	dec_choice	1.116029	16.000000	n/a	4	1.822917e-02	1.822917e-02
313.464400	1.116029	dec_social_accept	1.116029	16.000000	n/a	4	1.888021e-02	1.888021e-02
313.464400	1.116029	dec_accept	1.116029	16.000000	n/a	4	1.822917e-02	1.822917e-02
313.464400	1.116029	dec_social_high	1.116029	16.000000	n/a	4	1.822917e-02	1.822917e-02
313.464400	1.116029	dec_social_accept_high	1.116029	16.000000	n/a	4	1.822917e-02	1.822917e-02
320.298000	1.383287	dec_nonsocial_choice	1.383287	16.000000	n/a	1	-1.686198e-01	-1.686198e-01
320.298000	1.383287	dec_choice	1.383287	16.000000	n/a	1	-1.679688e-01	-1.679688e-01
320.298000	1.383287	dec_nonsocial_accept	1.383287	16.000000	n/a	1	-1.686198e-01	-1.686198e-01
320.298000	1.383287	dec_accept	1.383287	16.000000	n/a	1	-1.679688e-01	-1.679688e-01
320.298000	1.383287	dec_nonsocial_low	1.383287	16.000000	n/a	1	-1.679688e-01	-1.679688e-01
320.298000	1.383287	dec_nonsocial_accept_low	1.383287	16.000000	n/a	1	-1.679688e-01	-1.679688e-01
327.131650	0.999584	dec_nonsocial_choice	0.999584	32.000000	n/a	16	2.688802e-01	2.688802e-01
327.131650	0.999584	dec_choice	0.999584	32.000000	n/a	16	2.695312e-01	2.695312e-01
327.131650	0.999584	dec_nonsocial_accept	0.999584	32.000000	n/a	16	2.688802e-01	2.688802e-01
327.131650	0.999584	dec_accept	0.999584	32.000000	n/a	16	2.695312e-01	2.695312e-01
327.131650	0.999584	dec_nonsocial_high	0.999584	32.000000	n/a	16	2.695312e-01	2.695312e-01
327.131650	0.999584	dec_nonsocial_accept_high	0.999584	32.000000	n/a	16	2.695312e-01	2.695312e-01
334.781600	1.715168	dec_nonsocial_choice	1.715168	16.000000	n/a	1	-1.686198e-01	-1.686198e-01
334.781600	1.715168	dec_choice	1.715168	16.000000	n/a	1	-1.679688e-01	-1.679688e-01
334.781600	1.715168	dec_nonsocial_accept	1.715168	16.000000	n/a	1	-1.686198e-01	-1.686198e-01
334.781600	1.715168	dec_accept	1.715168	16.000000	n/a	1	-1.679688e-01	-1.679688e-01
334.781600	1.715168	dec_nonsocial_accept_low	1.715168	16.000000	n/a	1	-1.692708e-01	-1.692708e-01
341.613830	1.800549	dec_social_choice	1.800549	32.000000	n/a	8	1.888021e-02	1.888021e-02
341.613830	1.800549	dec_choice	1.800549	32.000000	n/a	8	1.822917e-02	1.822917e-02
341.613830	1.800549	dec_social_accept	1.800549	32.000000	n/a	8	1.888021e-02	1.888021e-02
341.613830	1.800549	dec_accept	1.800549	32.000000	n/a	8	1.822917e-02	1.822917e-02
341.613830	1.800549	dec_social_accept_high	1.800549	32.000000	n/a	8	1.822917e-02	1.822917e-02
349.263500	1.484188	dec_social_choice	1.484188	16.000000	n/a	2	-1.061198e-01	-1.061198e-01
349.263500	1.484188	dec_choice	1.484188	16.000000	n/a	2	-1.067708e-01	-1.067708e-01
349.263500	1.484188	dec_social_accept	1.484188	16.000000	n/a	2	-1.061198e-01	-1.061198e-01
349.263500	1.484188	dec_accept	1.484188	16.000000	n/a	2	-1.067708e-01	-1.067708e-01
349.263500	1.484188	dec_social_low	1.484188	16.000000	n/a	2	-1.067708e-01	-1.067708e-01
349.263500	1.484188	dec_social_accept_low	1.484188	16.000000	n/a	2	-1.067708e-01	-1.067708e-01
356.898440	1.049514	dec_nonsocial_choice	1.049514	16.000000	n/a	4	1.888021e-02	1.888021e-02
356.898440	1.049514	dec_choice	1.049514	16.000000	n/a	4	1.953125e-02	1.953125e-02
356.898440	1.049514	dec_nonsocial_accept	1.049514	16.000000	n/a	4	1.888021e-02	1.888021e-02
356.898440	1.049514	dec_accept	1.049514	16.000000	n/a	4	1.953125e-02	1.953125e-02
356.898440	1.049514	dec_nonsocial_accept_high	1.049514	16.000000	n/a	4	1.822917e-02	1.822917e-02
363.730870	0.983235	dec_nonsocial_choice	0.983235	16.000000	n/a	4	1.888021e-02	1.888021e-02
363.730870	0.983235	dec_choice	0.983235	16.000000	n/a	4	1.953125e-02	1.953125e-02
363.730870	0.983235	dec_nonsocial_accept	0.983235	16.000000	n/a	4	1.888021e-02	1.888021e-02
363.730870	0.983235	dec_accept	0.983235	16.000000	n/a	4	1.953125e-02	1.953125e-02
363.730870	0.983235	dec_nonsocial_high	0.983235	16.000000	n/a	4	1.953125e-02	1.953125e-02
363.730870	0.983235	dec_nonsocial_accept_high	0.983235	16.000000	n/a	4	1.953125e-02	1.953125e-02
372.981480	1.482825	dec_social_choice	1.482825	16.000000	n/a	8	2.688802e-01	2.688802e-01
372.981480	1.482825	dec_choice	1.482825	16.000000	n/a	8	2.682292e-01	2.682292e-01
372.981480	1.482825	dec_social_accept	1.482825	16.000000	n/a	8	2.688802e-01	2.688802e-01
372.981480	1.482825	dec_accept	1.482825	16.000000	n/a	8	2.682292e-01	2.682292e-01
372.981480	1.482825	dec_social_high	1.482825	16.000000	n/a	8	2.682292e-01	2.682292e-01
372.981480	1.482825	dec_social_accept_high	1.482825	16.000000	n/a	8	2.682292e-01	2.682292e-01
