onset	duration	trial_type	response_time	Endowment	Endowment_pmod	Decision	Decision_pmod	Offer_pmod
4.518353	2	cue_nonsocial	n/a	16	-7	n/a	n/a	n/a
4.518353	2	cue_nonsocial_low	n/a	16	-7	n/a	n/a	n/a
11.400796	2	cue_social	n/a	16	-7	n/a	n/a	n/a
11.400796	2	cue_social_low	n/a	16	-7	n/a	n/a	n/a
18.184956	2	cue_nonsocial	n/a	32	9	n/a	n/a	n/a
18.184956	2	cue_nonsocial_high	n/a	32	9	n/a	n/a	n/a
29.127773	2	cue_social	n/a	16	-7	n/a	n/a	n/a
29.127773	2	cue_social_low	n/a	16	-7	n/a	n/a	n/a
38.400610	2	cue_social	n/a	16	-7	n/a	n/a	n/a
38.400610	2	cue_social_low	n/a	16	-7	n/a	n/a	n/a
49.259930	2	cue_social	n/a	16	-7	n/a	n/a	n/a
49.259930	2	cue_social_low	n/a	16	-7	n/a	n/a	n/a
56.054485	2	cue_social	n/a	16	-7	n/a	n/a	n/a
56.054485	2	cue_social_low	n/a	16	-7	n/a	n/a	n/a
62.879303	2	cue_social	n/a	32	9	n/a	n/a	n/a
62.879303	2	cue_social_high	n/a	32	9	n/a	n/a	n/a
69.731110	2	cue_social	n/a	32	9	n/a	n/a	n/a
69.731110	2	cue_social_high	n/a	32	9	n/a	n/a	n/a
77.317790	2	cue_nonsocial	n/a	32	9	n/a	n/a	n/a
77.317790	2	cue_nonsocial_high	n/a	32	9	n/a	n/a	n/a
89.843810	2	cue_social	n/a	32	9	n/a	n/a	n/a
89.843810	2	cue_social_high	n/a	32	9	n/a	n/a	n/a
96.677530	2	cue_social	n/a	16	-7	n/a	n/a	n/a
96.677530	2	cue_social_low	n/a	16	-7	n/a	n/a	n/a
103.467890	2	cue_nonsocial	n/a	32	9	n/a	n/a	n/a
103.467890	2	cue_nonsocial_high	n/a	32	9	n/a	n/a	n/a
110.354416	2	cue_social	n/a	32	9	n/a	n/a	n/a
110.354416	2	cue_social_high	n/a	32	9	n/a	n/a	n/a
117.951380	2	cue_nonsocial	n/a	16	-7	n/a	n/a	n/a
117.951380	2	cue_nonsocial_low	n/a	16	-7	n/a	n/a	n/a
124.784190	2	cue_nonsocial	n/a	32	9	n/a	n/a	n/a
124.784190	2	cue_nonsocial_high	n/a	32	9	n/a	n/a	n/a
131.617980	2	cue_nonsocial	n/a	32	9	n/a	n/a	n/a
131.617980	2	cue_nonsocial_high	n/a	32	9	n/a	n/a	n/a
139.267760	2	cue_nonsocial	n/a	16	-7	n/a	n/a	n/a
139.267760	2	cue_nonsocial_low	n/a	16	-7	n/a	n/a	n/a
146.101410	2	cue_nonsocial	n/a	16	-7	n/a	n/a	n/a
146.101410	2	cue_nonsocial_low	n/a	16	-7	n/a	n/a	n/a
153.799420	2	cue_social	n/a	16	-7	n/a	n/a	n/a
153.799420	2	cue_social_low	n/a	16	-7	n/a	n/a	n/a
161.384110	2	cue_nonsocial	n/a	16	-7	n/a	n/a	n/a
161.384110	2	cue_nonsocial_low	n/a	16	-7	n/a	n/a	n/a
168.217330	2	cue_nonsocial	n/a	16	-7	n/a	n/a	n/a
168.217330	2	cue_nonsocial_low	n/a	16	-7	n/a	n/a	n/a
175.104260	2	cue_social	n/a	32	9	n/a	n/a	n/a
175.104260	2	cue_social_high	n/a	32	9	n/a	n/a	n/a
182.701870	2	cue_social	n/a	32	9	n/a	n/a	n/a
182.701870	2	cue_social_high	n/a	32	9	n/a	n/a	n/a
189.534380	2	cue_nonsocial	n/a	32	9	n/a	n/a	n/a
189.534380	2	cue_nonsocial_high	n/a	32	9	n/a	n/a	n/a
198.784200	2	cue_nonsocial	n/a	16	-7	n/a	n/a	n/a
198.784200	2	cue_nonsocial_low	n/a	16	-7	n/a	n/a	n/a
206.434250	2	cue_nonsocial	n/a	16	-7	n/a	n/a	n/a
206.434250	2	cue_nonsocial_low	n/a	16	-7	n/a	n/a	n/a
213.267100	2	cue_nonsocial	n/a	32	9	n/a	n/a	n/a
213.267100	2	cue_nonsocial_high	n/a	32	9	n/a	n/a	n/a
222.517290	2	cue_nonsocial	n/a	16	-7	n/a	n/a	n/a
222.517290	2	cue_nonsocial_low	n/a	16	-7	n/a	n/a	n/a
229.391480	2	cue_social	n/a	16	-7	n/a	n/a	n/a
229.391480	2	cue_social_low	n/a	16	-7	n/a	n/a	n/a
237.029390	2	cue_social	n/a	16	-7	n/a	n/a	n/a
237.029390	2	cue_social_low	n/a	16	-7	n/a	n/a	n/a
247.867450	2	cue_nonsocial	n/a	32	9	n/a	n/a	n/a
247.867450	2	cue_nonsocial_high	n/a	32	9	n/a	n/a	n/a
254.700670	2	cue_nonsocial	n/a	32	9	n/a	n/a	n/a
254.700670	2	cue_nonsocial_high	n/a	32	9	n/a	n/a	n/a
261.584230	2	cue_social	n/a	16	-7	n/a	n/a	n/a
261.584230	2	cue_social_low	n/a	16	-7	n/a	n/a	n/a
269.205380	2	cue_social	n/a	32	9	n/a	n/a	n/a
269.205380	2	cue_social_high	n/a	32	9	n/a	n/a	n/a
276.000700	2	cue_nonsocial	n/a	16	-7	n/a	n/a	n/a
276.000700	2	cue_nonsocial_low	n/a	16	-7	n/a	n/a	n/a
285.250120	2	cue_nonsocial	n/a	16	-7	n/a	n/a	n/a
285.250120	2	cue_nonsocial_low	n/a	16	-7	n/a	n/a	n/a
292.083980	2	cue_nonsocial	n/a	16	-7	n/a	n/a	n/a
292.083980	2	cue_nonsocial_low	n/a	16	-7	n/a	n/a	n/a
301.383120	2	cue_social	n/a	16	-7	n/a	n/a	n/a
301.383120	2	cue_social_low	n/a	16	-7	n/a	n/a	n/a
310.638580	2	cue_social	n/a	32	9	n/a	n/a	n/a
310.638580	2	cue_social_high	n/a	32	9	n/a	n/a	n/a
318.292050	2	cue_social	n/a	32	9	n/a	n/a	n/a
318.292050	2	cue_social_high	n/a	32	9	n/a	n/a	n/a
325.134500	2	cue_social	n/a	32	9	n/a	n/a	n/a
325.134500	2	cue_social_high	n/a	32	9	n/a	n/a	n/a
334.333530	2	cue_nonsocial	n/a	16	-7	n/a	n/a	n/a
334.333530	2	cue_nonsocial_low	n/a	16	-7	n/a	n/a	n/a
342.027370	2	cue_social	n/a	32	9	n/a	n/a	n/a
342.027370	2	cue_social_high	n/a	32	9	n/a	n/a	n/a
348.860900	2	cue_social	n/a	16	-7	n/a	n/a	n/a
348.860900	2	cue_social_low	n/a	16	-7	n/a	n/a	n/a
355.650420	2	cue_nonsocial	n/a	32	9	n/a	n/a	n/a
355.650420	2	cue_nonsocial_high	n/a	32	9	n/a	n/a	n/a
362.529720	2	cue_social	n/a	16	-7	n/a	n/a	n/a
362.529720	2	cue_social_low	n/a	16	-7	n/a	n/a	n/a
370.133400	2	cue_nonsocial	n/a	16	-7	n/a	n/a	n/a
370.133400	2	cue_nonsocial_low	n/a	16	-7	n/a	n/a	n/a
6.523969	1.600186	dec_nonsocial_choice	1.600186	16.000000	n/a	2	-1.067708e-01	-1.067708e-01
6.523969	1.600186	dec_choice	1.600186	16.000000	n/a	2	-1.067708e-01	-1.067708e-01
6.523969	1.600186	dec_nonsocial_accept	1.600186	16.000000	n/a	2	-1.067708e-01	-1.067708e-01
6.523969	1.600186	dec_accept	1.600186	16.000000	n/a	2	-1.067708e-01	-1.067708e-01
6.523969	1.600186	dec_nonsocial_accept_low	1.600186	16.000000	n/a	2	-1.067708e-01	-1.067708e-01
13.357436	1.333258	dec_social_choice	1.333258	16.000000	n/a	1	-1.692708e-01	-1.692708e-01
13.357436	1.333258	dec_choice	1.333258	16.000000	n/a	1	-1.692708e-01	-1.692708e-01
13.357436	1.333258	dec_social_accept	1.333258	16.000000	n/a	1	-1.692708e-01	-1.692708e-01
13.357436	1.333258	dec_accept	1.333258	16.000000	n/a	1	-1.692708e-01	-1.692708e-01
13.357436	1.333258	dec_social_low	1.333258	16.000000	n/a	1	-1.692708e-01	-1.692708e-01
13.357436	1.333258	dec_social_accept_low	1.333258	16.000000	n/a	1	-1.692708e-01	-1.692708e-01
20.190643	1.483147	dec_nonsocial_choice	1.483147	32.000000	n/a	16	2.682292e-01	2.682292e-01
20.190643	1.483147	dec_choice	1.483147	32.000000	n/a	16	2.682292e-01	2.682292e-01
20.190643	1.483147	dec_nonsocial_accept	1.483147	32.000000	n/a	16	2.682292e-01	2.682292e-01
20.190643	1.483147	dec_accept	1.483147	32.000000	n/a	16	2.682292e-01	2.682292e-01
20.190643	1.483147	dec_nonsocial_high	1.483147	32.000000	n/a	16	2.682292e-01	2.682292e-01
20.190643	1.483147	dec_nonsocial_accept_high	1.483147	32.000000	n/a	16	2.682292e-01	2.682292e-01
31.056887	1.717056	dec_social_choice	1.717056	16.000000	n/a	2	-1.067708e-01	-1.067708e-01
31.056887	1.717056	dec_choice	1.717056	16.000000	n/a	2	-1.067708e-01	-1.067708e-01
31.056887	1.717056	dec_social_accept	1.717056	16.000000	n/a	2	-1.067708e-01	-1.067708e-01
31.056887	1.717056	dec_accept	1.717056	16.000000	n/a	2	-1.067708e-01	-1.067708e-01
31.056887	1.717056	dec_social_accept_low	1.717056	16.000000	n/a	2	-1.067708e-01	-1.067708e-01
40.307827	1.132745	dec_social_choice	1.132745	16.000000	n/a	8	2.682292e-01	2.682292e-01
40.307827	1.132745	dec_choice	1.132745	16.000000	n/a	8	2.682292e-01	2.682292e-01
40.307827	1.132745	dec_social_accept	1.132745	16.000000	n/a	8	2.682292e-01	2.682292e-01
40.307827	1.132745	dec_accept	1.132745	16.000000	n/a	8	2.682292e-01	2.682292e-01
40.307827	1.132745	dec_social_accept_high	1.132745	16.000000	n/a	8	2.682292e-01	2.682292e-01
51.174040	1.299705	dec_social_choice	1.299705	16.000000	n/a	8	2.682292e-01	2.682292e-01
51.174040	1.299705	dec_choice	1.299705	16.000000	n/a	8	2.682292e-01	2.682292e-01
51.174040	1.299705	dec_social_accept	1.299705	16.000000	n/a	8	2.682292e-01	2.682292e-01
51.174040	1.299705	dec_accept	1.299705	16.000000	n/a	8	2.682292e-01	2.682292e-01
51.174040	1.299705	dec_social_accept_high	1.299705	16.000000	n/a	8	2.682292e-01	2.682292e-01
58.006916	1.050086	dec_social_choice	1.050086	16.000000	n/a	1	-1.692708e-01	-1.692708e-01
58.006916	1.050086	dec_choice	1.050086	16.000000	n/a	1	-1.692708e-01	-1.692708e-01
58.006916	1.050086	dec_social_accept	1.050086	16.000000	n/a	1	-1.692708e-01	-1.692708e-01
58.006916	1.050086	dec_accept	1.050086	16.000000	n/a	1	-1.692708e-01	-1.692708e-01
58.006916	1.050086	dec_social_low	1.050086	16.000000	n/a	1	-1.692708e-01	-1.692708e-01
58.006916	1.050086	dec_social_accept_low	1.050086	16.000000	n/a	1	-1.692708e-01	-1.692708e-01
64.840190	1.366014	dec_social_choice	1.366014	32.000000	n/a	8	1.822917e-02	1.822917e-02
64.840190	1.366014	dec_choice	1.366014	32.000000	n/a	8	1.822917e-02	1.822917e-02
64.840190	1.366014	dec_social_accept	1.366014	32.000000	n/a	8	1.822917e-02	1.822917e-02
64.840190	1.366014	dec_accept	1.366014	32.000000	n/a	8	1.822917e-02	1.822917e-02
64.840190	1.366014	dec_social_accept_high	1.366014	32.000000	n/a	8	1.822917e-02	1.822917e-02
71.673590	1.333234	dec_social_choice	1.333234	32.000000	n/a	2	-1.692708e-01	-1.692708e-01
71.673590	1.333234	dec_choice	1.333234	32.000000	n/a	2	-1.692708e-01	-1.692708e-01
71.673590	1.333234	dec_social_accept	1.333234	32.000000	n/a	2	-1.692708e-01	-1.692708e-01
71.673590	1.333234	dec_accept	1.333234	32.000000	n/a	2	-1.692708e-01	-1.692708e-01
71.673590	1.333234	dec_social_accept_low	1.333234	32.000000	n/a	2	-1.692708e-01	-1.692708e-01
79.323770	1.415804	dec_nonsocial_choice	1.415804	32.000000	n/a	8	1.822917e-02	1.822917e-02
79.323770	1.415804	dec_choice	1.415804	32.000000	n/a	8	1.822917e-02	1.822917e-02
79.323770	1.415804	dec_nonsocial_accept	1.415804	32.000000	n/a	8	1.822917e-02	1.822917e-02
79.323770	1.415804	dec_accept	1.415804	32.000000	n/a	8	1.822917e-02	1.822917e-02
79.323770	1.415804	dec_nonsocial_accept_high	1.415804	32.000000	n/a	8	1.822917e-02	1.822917e-02
91.806854	0.933534	dec_social_choice	0.933534	32.000000	n/a	2	-1.692708e-01	-1.692708e-01
91.806854	0.933534	dec_choice	0.933534	32.000000	n/a	2	-1.692708e-01	-1.692708e-01
91.806854	0.933534	dec_social_accept	0.933534	32.000000	n/a	2	-1.692708e-01	-1.692708e-01
91.806854	0.933534	dec_accept	0.933534	32.000000	n/a	2	-1.692708e-01	-1.692708e-01
91.806854	0.933534	dec_social_low	0.933534	32.000000	n/a	2	-1.692708e-01	-1.692708e-01
91.806854	0.933534	dec_social_accept_low	0.933534	32.000000	n/a	2	-1.692708e-01	-1.692708e-01
98.640460	1.183732	dec_social_choice	1.183732	16.000000	n/a	8	2.682292e-01	2.682292e-01
98.640460	1.183732	dec_choice	1.183732	16.000000	n/a	8	2.682292e-01	2.682292e-01
98.640460	1.183732	dec_social_accept	1.183732	16.000000	n/a	8	2.682292e-01	2.682292e-01
98.640460	1.183732	dec_accept	1.183732	16.000000	n/a	8	2.682292e-01	2.682292e-01
98.640460	1.183732	dec_social_accept_high	1.183732	16.000000	n/a	8	2.682292e-01	2.682292e-01
105.473760	1.133140	dec_nonsocial_choice	1.133140	32.000000	n/a	2	-1.692708e-01	-1.692708e-01
105.473760	1.133140	dec_choice	1.133140	32.000000	n/a	2	-1.692708e-01	-1.692708e-01
105.473760	1.133140	dec_nonsocial_accept	1.133140	32.000000	n/a	2	-1.692708e-01	-1.692708e-01
105.473760	1.133140	dec_accept	1.133140	32.000000	n/a	2	-1.692708e-01	-1.692708e-01
105.473760	1.133140	dec_nonsocial_low	1.133140	32.000000	n/a	2	-1.692708e-01	-1.692708e-01
105.473760	1.133140	dec_nonsocial_accept_low	1.133140	32.000000	n/a	2	-1.692708e-01	-1.692708e-01
112.307790	0.949187	dec_social_choice	0.949187	32.000000	n/a	2	-1.692708e-01	-1.692708e-01
112.307790	0.949187	dec_choice	0.949187	32.000000	n/a	2	-1.692708e-01	-1.692708e-01
112.307790	0.949187	dec_social_accept	0.949187	32.000000	n/a	2	-1.692708e-01	-1.692708e-01
112.307790	0.949187	dec_accept	0.949187	32.000000	n/a	2	-1.692708e-01	-1.692708e-01
112.307790	0.949187	dec_social_accept_low	0.949187	32.000000	n/a	2	-1.692708e-01	-1.692708e-01
119.957184	0.865802	dec_nonsocial_choice	0.865802	16.000000	n/a	4	1.822917e-02	1.822917e-02
119.957184	0.865802	dec_choice	0.865802	16.000000	n/a	4	1.822917e-02	1.822917e-02
119.957184	0.865802	dec_nonsocial_accept	0.865802	16.000000	n/a	4	1.822917e-02	1.822917e-02
119.957184	0.865802	dec_accept	0.865802	16.000000	n/a	4	1.822917e-02	1.822917e-02
119.957184	0.865802	dec_nonsocial_high	0.865802	16.000000	n/a	4	1.822917e-02	1.822917e-02
119.957184	0.865802	dec_nonsocial_accept_high	0.865802	16.000000	n/a	4	1.822917e-02	1.822917e-02
126.790184	0.900024	dec_nonsocial_choice	0.900024	32.000000	n/a	16	2.682292e-01	2.682292e-01
126.790184	0.900024	dec_choice	0.900024	32.000000	n/a	16	2.682292e-01	2.682292e-01
126.790184	0.900024	dec_nonsocial_accept	0.900024	32.000000	n/a	16	2.682292e-01	2.682292e-01
126.790184	0.900024	dec_accept	0.900024	32.000000	n/a	16	2.682292e-01	2.682292e-01
126.790184	0.900024	dec_nonsocial_high	0.900024	32.000000	n/a	16	2.682292e-01	2.682292e-01
126.790184	0.900024	dec_nonsocial_accept_high	0.900024	32.000000	n/a	16	2.682292e-01	2.682292e-01
133.623720	1.315720	dec_nonsocial_choice	1.315720	32.000000	n/a	3	-1.380208e-01	-1.380208e-01
133.623720	1.315720	dec_choice	1.315720	32.000000	n/a	3	-1.380208e-01	-1.380208e-01
133.623720	1.315720	dec_nonsocial_accept	1.315720	32.000000	n/a	3	-1.380208e-01	-1.380208e-01
133.623720	1.315720	dec_accept	1.315720	32.000000	n/a	3	-1.380208e-01	-1.380208e-01
133.623720	1.315720	dec_nonsocial_accept_low	1.315720	32.000000	n/a	3	-1.380208e-01	-1.380208e-01
141.273830	1.783076	dec_nonsocial_choice	1.783076	16.000000	n/a	4	1.822917e-02	1.822917e-02
141.273830	1.783076	dec_choice	1.783076	16.000000	n/a	4	1.822917e-02	1.822917e-02
141.273830	1.783076	dec_nonsocial_accept	1.783076	16.000000	n/a	4	1.822917e-02	1.822917e-02
141.273830	1.783076	dec_accept	1.783076	16.000000	n/a	4	1.822917e-02	1.822917e-02
141.273830	1.783076	dec_nonsocial_accept_high	1.783076	16.000000	n/a	4	1.822917e-02	1.822917e-02
148.107350	1.215314	dec_nonsocial_choice	1.215314	16.000000	n/a	1	-1.692708e-01	-1.692708e-01
148.107350	1.215314	dec_choice	1.215314	16.000000	n/a	1	-1.692708e-01	-1.692708e-01
148.107350	1.215314	dec_nonsocial_accept	1.215314	16.000000	n/a	1	-1.692708e-01	-1.692708e-01
148.107350	1.215314	dec_accept	1.215314	16.000000	n/a	1	-1.692708e-01	-1.692708e-01
148.107350	1.215314	dec_nonsocial_accept_low	1.215314	16.000000	n/a	1	-1.692708e-01	-1.692708e-01
155.756700	0.950150	dec_social_choice	0.950150	16.000000	n/a	4	1.822917e-02	1.822917e-02
155.756700	0.950150	dec_choice	0.950150	16.000000	n/a	4	1.822917e-02	1.822917e-02
155.756700	0.950150	dec_social_accept	0.950150	16.000000	n/a	4	1.822917e-02	1.822917e-02
155.756700	0.950150	dec_accept	0.950150	16.000000	n/a	4	1.822917e-02	1.822917e-02
155.756700	0.950150	dec_social_high	0.950150	16.000000	n/a	4	1.822917e-02	1.822917e-02
155.756700	0.950150	dec_social_accept_high	0.950150	16.000000	n/a	4	1.822917e-02	1.822917e-02
163.390500	1.132925	dec_nonsocial_choice	1.132925	16.000000	n/a	2	-1.067708e-01	-1.067708e-01
163.390500	1.132925	dec_choice	1.132925	16.000000	n/a	2	-1.067708e-01	-1.067708e-01
163.390500	1.132925	dec_nonsocial_accept	1.132925	16.000000	n/a	2	-1.067708e-01	-1.067708e-01
163.390500	1.132925	dec_accept	1.132925	16.000000	n/a	2	-1.067708e-01	-1.067708e-01
163.390500	1.132925	dec_nonsocial_low	1.132925	16.000000	n/a	2	-1.067708e-01	-1.067708e-01
163.390500	1.132925	dec_nonsocial_accept_low	1.132925	16.000000	n/a	2	-1.067708e-01	-1.067708e-01
170.223660	0.849541	dec_nonsocial_choice	0.849541	16.000000	n/a	4	1.822917e-02	1.822917e-02
170.223660	0.849541	dec_choice	0.849541	16.000000	n/a	4	1.822917e-02	1.822917e-02
170.223660	0.849541	dec_nonsocial_accept	0.849541	16.000000	n/a	4	1.822917e-02	1.822917e-02
170.223660	0.849541	dec_accept	0.849541	16.000000	n/a	4	1.822917e-02	1.822917e-02
170.223660	0.849541	dec_nonsocial_high	0.849541	16.000000	n/a	4	1.822917e-02	1.822917e-02
170.223660	0.849541	dec_nonsocial_accept_high	0.849541	16.000000	n/a	4	1.822917e-02	1.822917e-02
177.056920	1.233183	dec_social_choice	1.233183	32.000000	n/a	8	1.822917e-02	1.822917e-02
177.056920	1.233183	dec_choice	1.233183	32.000000	n/a	8	1.822917e-02	1.822917e-02
177.056920	1.233183	dec_social_accept	1.233183	32.000000	n/a	8	1.822917e-02	1.822917e-02
177.056920	1.233183	dec_accept	1.233183	32.000000	n/a	8	1.822917e-02	1.822917e-02
177.056920	1.233183	dec_social_high	1.233183	32.000000	n/a	8	1.822917e-02	1.822917e-02
177.056920	1.233183	dec_social_accept_high	1.233183	32.000000	n/a	8	1.822917e-02	1.822917e-02
184.707630	0.932352	dec_social_choice	0.932352	32.000000	n/a	3	-1.380208e-01	-1.380208e-01
184.707630	0.932352	dec_choice	0.932352	32.000000	n/a	3	-1.380208e-01	-1.380208e-01
184.707630	0.932352	dec_social_accept	0.932352	32.000000	n/a	3	-1.380208e-01	-1.380208e-01
184.707630	0.932352	dec_accept	0.932352	32.000000	n/a	3	-1.380208e-01	-1.380208e-01
184.707630	0.932352	dec_social_low	0.932352	32.000000	n/a	3	-1.380208e-01	-1.380208e-01
184.707630	0.932352	dec_social_accept_low	0.932352	32.000000	n/a	3	-1.380208e-01	-1.380208e-01
191.540760	1.449252	dec_nonsocial_choice	1.449252	32.000000	n/a	16	2.682292e-01	2.682292e-01
191.540760	1.449252	dec_choice	1.449252	32.000000	n/a	16	2.682292e-01	2.682292e-01
191.540760	1.449252	dec_nonsocial_accept	1.449252	32.000000	n/a	16	2.682292e-01	2.682292e-01
191.540760	1.449252	dec_accept	1.449252	32.000000	n/a	16	2.682292e-01	2.682292e-01
191.540760	1.449252	dec_nonsocial_high	1.449252	32.000000	n/a	16	2.682292e-01	2.682292e-01
191.540760	1.449252	dec_nonsocial_accept_high	1.449252	32.000000	n/a	16	2.682292e-01	2.682292e-01
200.790200	1.033052	dec_nonsocial_choice	1.033052	16.000000	n/a	4	1.822917e-02	1.822917e-02
200.790200	1.033052	dec_choice	1.033052	16.000000	n/a	4	1.822917e-02	1.822917e-02
200.790200	1.033052	dec_nonsocial_accept	1.033052	16.000000	n/a	4	1.822917e-02	1.822917e-02
200.790200	1.033052	dec_accept	1.033052	16.000000	n/a	4	1.822917e-02	1.822917e-02
200.790200	1.033052	dec_nonsocial_high	1.033052	16.000000	n/a	4	1.822917e-02	1.822917e-02
200.790200	1.033052	dec_nonsocial_accept_high	1.033052	16.000000	n/a	4	1.822917e-02	1.822917e-02
208.439650	1.433606	dec_nonsocial_choice	1.433606	16.000000	n/a	2	-1.067708e-01	-1.067708e-01
208.439650	1.433606	dec_choice	1.433606	16.000000	n/a	2	-1.067708e-01	-1.067708e-01
208.439650	1.433606	dec_nonsocial_accept	1.433606	16.000000	n/a	2	-1.067708e-01	-1.067708e-01
208.439650	1.433606	dec_accept	1.433606	16.000000	n/a	2	-1.067708e-01	-1.067708e-01
208.439650	1.433606	dec_nonsocial_low	1.433606	16.000000	n/a	2	-1.067708e-01	-1.067708e-01
208.439650	1.433606	dec_nonsocial_accept_low	1.433606	16.000000	n/a	2	-1.067708e-01	-1.067708e-01
215.273590	1.299718	dec_nonsocial_choice	1.299718	32.000000	n/a	8	1.822917e-02	1.822917e-02
215.273590	1.299718	dec_choice	1.299718	32.000000	n/a	8	1.822917e-02	1.822917e-02
215.273590	1.299718	dec_nonsocial_accept	1.299718	32.000000	n/a	8	1.822917e-02	1.822917e-02
215.273590	1.299718	dec_accept	1.299718	32.000000	n/a	8	1.822917e-02	1.822917e-02
215.273590	1.299718	dec_nonsocial_accept_high	1.299718	32.000000	n/a	8	1.822917e-02	1.822917e-02
224.523590	1.165389	dec_nonsocial_choice	1.165389	16.000000	n/a	8	2.682292e-01	2.682292e-01
224.523590	1.165389	dec_choice	1.165389	16.000000	n/a	8	2.682292e-01	2.682292e-01
224.523590	1.165389	dec_nonsocial_accept	1.165389	16.000000	n/a	8	2.682292e-01	2.682292e-01
224.523590	1.165389	dec_accept	1.165389	16.000000	n/a	8	2.682292e-01	2.682292e-01
224.523590	1.165389	dec_nonsocial_high	1.165389	16.000000	n/a	8	2.682292e-01	2.682292e-01
224.523590	1.165389	dec_nonsocial_accept_high	1.165389	16.000000	n/a	8	2.682292e-01	2.682292e-01
231.356570	1.333262	dec_social_choice	1.333262	16.000000	n/a	8	2.682292e-01	2.682292e-01
231.356570	1.333262	dec_choice	1.333262	16.000000	n/a	8	2.682292e-01	2.682292e-01
231.356570	1.333262	dec_social_accept	1.333262	16.000000	n/a	8	2.682292e-01	2.682292e-01
231.356570	1.333262	dec_accept	1.333262	16.000000	n/a	8	2.682292e-01	2.682292e-01
231.356570	1.333262	dec_social_high	1.333262	16.000000	n/a	8	2.682292e-01	2.682292e-01
231.356570	1.333262	dec_social_accept_high	1.333262	16.000000	n/a	8	2.682292e-01	2.682292e-01
239.006560	1.282594	dec_social_choice	1.282594	16.000000	n/a	2	-1.067708e-01	-1.067708e-01
239.006560	1.282594	dec_choice	1.282594	16.000000	n/a	2	-1.067708e-01	-1.067708e-01
239.006560	1.282594	dec_social_accept	1.282594	16.000000	n/a	2	-1.067708e-01	-1.067708e-01
239.006560	1.282594	dec_accept	1.282594	16.000000	n/a	2	-1.067708e-01	-1.067708e-01
239.006560	1.282594	dec_social_accept_low	1.282594	16.000000	n/a	2	-1.067708e-01	-1.067708e-01
249.873080	0.950097	dec_nonsocial_choice	0.950097	32.000000	n/a	16	2.682292e-01	2.682292e-01
249.873080	0.950097	dec_choice	0.950097	32.000000	n/a	16	2.682292e-01	2.682292e-01
249.873080	0.950097	dec_nonsocial_accept	0.950097	32.000000	n/a	16	2.682292e-01	2.682292e-01
249.873080	0.950097	dec_accept	0.950097	32.000000	n/a	16	2.682292e-01	2.682292e-01
249.873080	0.950097	dec_nonsocial_high	0.950097	32.000000	n/a	16	2.682292e-01	2.682292e-01
249.873080	0.950097	dec_nonsocial_accept_high	0.950097	32.000000	n/a	16	2.682292e-01	2.682292e-01
256.706670	1.399720	dec_nonsocial_choice	1.399720	32.000000	n/a	3	-1.380208e-01	-1.380208e-01
256.706670	1.399720	dec_choice	1.399720	32.000000	n/a	3	-1.380208e-01	-1.380208e-01
256.706670	1.399720	dec_nonsocial_accept	1.399720	32.000000	n/a	3	-1.380208e-01	-1.380208e-01
256.706670	1.399720	dec_accept	1.399720	32.000000	n/a	3	-1.380208e-01	-1.380208e-01
256.706670	1.399720	dec_nonsocial_accept_low	1.399720	32.000000	n/a	3	-1.380208e-01	-1.380208e-01
263.539640	1.199985	dec_social_choice	1.199985	16.000000	n/a	4	1.822917e-02	1.822917e-02
263.539640	1.199985	dec_choice	1.199985	16.000000	n/a	4	1.822917e-02	1.822917e-02
263.539640	1.199985	dec_social_accept	1.199985	16.000000	n/a	4	1.822917e-02	1.822917e-02
263.539640	1.199985	dec_accept	1.199985	16.000000	n/a	4	1.822917e-02	1.822917e-02
263.539640	1.199985	dec_social_high	1.199985	16.000000	n/a	4	1.822917e-02	1.822917e-02
263.539640	1.199985	dec_social_accept_high	1.199985	16.000000	n/a	4	1.822917e-02	1.822917e-02
271.173520	1.649455	dec_social_choice	1.649455	32.000000	n/a	16	2.682292e-01	2.682292e-01
271.173520	1.649455	dec_choice	1.649455	32.000000	n/a	16	2.682292e-01	2.682292e-01
271.173520	1.649455	dec_social_accept	1.649455	32.000000	n/a	16	2.682292e-01	2.682292e-01
271.173520	1.649455	dec_accept	1.649455	32.000000	n/a	16	2.682292e-01	2.682292e-01
271.173520	1.649455	dec_social_accept_high	1.649455	32.000000	n/a	16	2.682292e-01	2.682292e-01
278.006530	1.233101	dec_nonsocial_choice	1.233101	16.000000	n/a	1	-1.692708e-01	-1.692708e-01
278.006530	1.233101	dec_choice	1.233101	16.000000	n/a	1	-1.692708e-01	-1.692708e-01
278.006530	1.233101	dec_nonsocial_accept	1.233101	16.000000	n/a	1	-1.692708e-01	-1.692708e-01
278.006530	1.233101	dec_accept	1.233101	16.000000	n/a	1	-1.692708e-01	-1.692708e-01
278.006530	1.233101	dec_nonsocial_low	1.233101	16.000000	n/a	1	-1.692708e-01	-1.692708e-01
278.006530	1.233101	dec_nonsocial_accept_low	1.233101	16.000000	n/a	1	-1.692708e-01	-1.692708e-01
287.256870	1.015179	dec_nonsocial_choice	1.015179	16.000000	n/a	1	-1.692708e-01	-1.692708e-01
287.256870	1.015179	dec_choice	1.015179	16.000000	n/a	1	-1.692708e-01	-1.692708e-01
287.256870	1.015179	dec_nonsocial_accept	1.015179	16.000000	n/a	1	-1.692708e-01	-1.692708e-01
287.256870	1.015179	dec_accept	1.015179	16.000000	n/a	1	-1.692708e-01	-1.692708e-01
287.256870	1.015179	dec_nonsocial_accept_low	1.015179	16.000000	n/a	1	-1.692708e-01	-1.692708e-01
294.089630	1.600016	dec_nonsocial_choice	1.600016	16.000000	n/a	8	2.682292e-01	2.682292e-01
294.089630	1.600016	dec_choice	1.600016	16.000000	n/a	8	2.682292e-01	2.682292e-01
294.089630	1.600016	dec_nonsocial_accept	1.600016	16.000000	n/a	8	2.682292e-01	2.682292e-01
294.089630	1.600016	dec_accept	1.600016	16.000000	n/a	8	2.682292e-01	2.682292e-01
294.089630	1.600016	dec_nonsocial_high	1.600016	16.000000	n/a	8	2.682292e-01	2.682292e-01
294.089630	1.600016	dec_nonsocial_accept_high	1.600016	16.000000	n/a	8	2.682292e-01	2.682292e-01
303.340480	1.565048	dec_social_choice	1.565048	16.000000	n/a	1	-1.692708e-01	-1.692708e-01
303.340480	1.565048	dec_choice	1.565048	16.000000	n/a	1	-1.692708e-01	-1.692708e-01
303.340480	1.565048	dec_social_accept	1.565048	16.000000	n/a	1	-1.692708e-01	-1.692708e-01
303.340480	1.565048	dec_accept	1.565048	16.000000	n/a	1	-1.692708e-01	-1.692708e-01
303.340480	1.565048	dec_social_accept_low	1.565048	16.000000	n/a	1	-1.692708e-01	-1.692708e-01
312.606570	0.916325	dec_social_choice	0.916325	32.000000	n/a	8	1.822917e-02	1.822917e-02
312.606570	0.916325	dec_choice	0.916325	32.000000	n/a	8	1.822917e-02	1.822917e-02
312.606570	0.916325	dec_social_accept	0.916325	32.000000	n/a	8	1.822917e-02	1.822917e-02
312.606570	0.916325	dec_accept	0.916325	32.000000	n/a	8	1.822917e-02	1.822917e-02
312.606570	0.916325	dec_social_accept_high	0.916325	32.000000	n/a	8	1.822917e-02	1.822917e-02
320.256160	1.965859	dec_social_choice	1.965859	32.000000	n/a	3	-1.380208e-01	-1.380208e-01
320.256160	1.965859	dec_choice	1.965859	32.000000	n/a	3	-1.380208e-01	-1.380208e-01
320.256160	1.965859	dec_social_accept	1.965859	32.000000	n/a	3	-1.380208e-01	-1.380208e-01
320.256160	1.965859	dec_accept	1.965859	32.000000	n/a	3	-1.380208e-01	-1.380208e-01
320.256160	1.965859	dec_social_low	1.965859	32.000000	n/a	3	-1.380208e-01	-1.380208e-01
320.256160	1.965859	dec_social_accept_low	1.965859	32.000000	n/a	3	-1.380208e-01	-1.380208e-01
327.090450	1.199079	dec_social_choice	1.199079	32.000000	n/a	16	2.682292e-01	2.682292e-01
327.090450	1.199079	dec_choice	1.199079	32.000000	n/a	16	2.682292e-01	2.682292e-01
327.090450	1.199079	dec_social_accept	1.199079	32.000000	n/a	16	2.682292e-01	2.682292e-01
327.090450	1.199079	dec_accept	1.199079	32.000000	n/a	16	2.682292e-01	2.682292e-01
327.090450	1.199079	dec_social_accept_high	1.199079	32.000000	n/a	16	2.682292e-01	2.682292e-01
336.339600	1.082906	dec_nonsocial_choice	1.082906	16.000000	n/a	1	-1.692708e-01	-1.692708e-01
336.339600	1.082906	dec_choice	1.082906	16.000000	n/a	1	-1.692708e-01	-1.692708e-01
336.339600	1.082906	dec_nonsocial_accept	1.082906	16.000000	n/a	1	-1.692708e-01	-1.692708e-01
336.339600	1.082906	dec_accept	1.082906	16.000000	n/a	1	-1.692708e-01	-1.692708e-01
336.339600	1.082906	dec_nonsocial_low	1.082906	16.000000	n/a	1	-1.692708e-01	-1.692708e-01
336.339600	1.082906	dec_nonsocial_accept_low	1.082906	16.000000	n/a	1	-1.692708e-01	-1.692708e-01
343.989440	1.100123	dec_social_choice	1.100123	32.000000	n/a	8	1.822917e-02	1.822917e-02
343.989440	1.100123	dec_choice	1.100123	32.000000	n/a	8	1.822917e-02	1.822917e-02
343.989440	1.100123	dec_social_accept	1.100123	32.000000	n/a	8	1.822917e-02	1.822917e-02
343.989440	1.100123	dec_accept	1.100123	32.000000	n/a	8	1.822917e-02	1.822917e-02
343.989440	1.100123	dec_social_accept_high	1.100123	32.000000	n/a	8	1.822917e-02	1.822917e-02
350.822420	1.216207	dec_social_choice	1.216207	16.000000	n/a	2	-1.067708e-01	-1.067708e-01
350.822420	1.216207	dec_choice	1.216207	16.000000	n/a	2	-1.067708e-01	-1.067708e-01
350.822420	1.216207	dec_social_accept	1.216207	16.000000	n/a	2	-1.067708e-01	-1.067708e-01
350.822420	1.216207	dec_accept	1.216207	16.000000	n/a	2	-1.067708e-01	-1.067708e-01
350.822420	1.216207	dec_social_accept_low	1.216207	16.000000	n/a	2	-1.067708e-01	-1.067708e-01
357.656600	1.082795	dec_nonsocial_choice	1.082795	32.000000	n/a	2	-1.692708e-01	-1.692708e-01
357.656600	1.082795	dec_choice	1.082795	32.000000	n/a	2	-1.692708e-01	-1.692708e-01
357.656600	1.082795	dec_nonsocial_accept	1.082795	32.000000	n/a	2	-1.692708e-01	-1.692708e-01
357.656600	1.082795	dec_accept	1.082795	32.000000	n/a	2	-1.692708e-01	-1.692708e-01
357.656600	1.082795	dec_nonsocial_accept_low	1.082795	32.000000	n/a	2	-1.692708e-01	-1.692708e-01
364.489400	0.949935	dec_social_choice	0.949935	16.000000	n/a	2	-1.067708e-01	-1.067708e-01
364.489400	0.949935	dec_choice	0.949935	16.000000	n/a	2	-1.067708e-01	-1.067708e-01
364.489400	0.949935	dec_social_accept	0.949935	16.000000	n/a	2	-1.067708e-01	-1.067708e-01
364.489400	0.949935	dec_accept	0.949935	16.000000	n/a	2	-1.067708e-01	-1.067708e-01
364.489400	0.949935	dec_social_accept_low	0.949935	16.000000	n/a	2	-1.067708e-01	-1.067708e-01
372.139370	0.849966	dec_nonsocial_choice	0.849966	16.000000	n/a	2	-1.067708e-01	-1.067708e-01
372.139370	0.849966	dec_choice	0.849966	16.000000	n/a	2	-1.067708e-01	-1.067708e-01
372.139370	0.849966	dec_nonsocial_accept	0.849966	16.000000	n/a	2	-1.067708e-01	-1.067708e-01
372.139370	0.849966	dec_accept	0.849966	16.000000	n/a	2	-1.067708e-01	-1.067708e-01
372.139370	0.849966	dec_nonsocial_accept_low	0.849966	16.000000	n/a	2	-1.067708e-01	-1.067708e-01
