onset	duration	trial_type	response_time	Endowment	Endowment_pmod	Decision	Decision_pmod	Offer_pmod
4.519442	2	cue_nonsocial	n/a	32	10	n/a	n/a	n/a
4.519442	2	cue_nonsocial_high	n/a	32	9	n/a	n/a	n/a
11.430943	2	cue_social	n/a	16	-7	n/a	n/a	n/a
11.430943	2	cue_social_low	n/a	16	-6	n/a	n/a	n/a
23.836340	2	cue_nonsocial	n/a	16	-6	n/a	n/a	n/a
23.836340	2	cue_nonsocial_low	n/a	16	-7	n/a	n/a	n/a
31.469510	2	cue_nonsocial	n/a	32	10	n/a	n/a	n/a
31.469510	2	cue_nonsocial_high	n/a	32	9	n/a	n/a	n/a
40.823242	2	cue_social	n/a	16	-7	n/a	n/a	n/a
40.823242	2	cue_social_low	n/a	16	-6	n/a	n/a	n/a
48.369040	2	cue_nonsocial	n/a	32	10	n/a	n/a	n/a
48.369040	2	cue_nonsocial_high	n/a	32	9	n/a	n/a	n/a
56.019135	2	cue_nonsocial	n/a	16	-6	n/a	n/a	n/a
56.019135	2	cue_nonsocial_low	n/a	16	-7	n/a	n/a	n/a
65.268980	2	cue_nonsocial	n/a	16	-6	n/a	n/a	n/a
65.268980	2	cue_nonsocial_low	n/a	16	-7	n/a	n/a	n/a
72.995890	2	cue_social	n/a	32	9	n/a	n/a	n/a
72.995890	2	cue_social_high	n/a	32	10	n/a	n/a	n/a
83.852280	2	cue_social	n/a	16	-7	n/a	n/a	n/a
83.852280	2	cue_social_low	n/a	16	-6	n/a	n/a	n/a
90.619210	2	cue_nonsocial	n/a	32	10	n/a	n/a	n/a
90.619210	2	cue_nonsocial_high	n/a	32	9	n/a	n/a	n/a
97.452225	2	cue_nonsocial	n/a	16	-6	n/a	n/a	n/a
97.452225	2	cue_nonsocial_low	n/a	16	-7	n/a	n/a	n/a
104.370544	2	cue_social	n/a	16	-7	n/a	n/a	n/a
104.370544	2	cue_social_low	n/a	16	-6	n/a	n/a	n/a
115.269840	2	cue_social	n/a	16	-7	n/a	n/a	n/a
115.269840	2	cue_social_low	n/a	16	-6	n/a	n/a	n/a
122.829790	2	cue_social	n/a	16	-7	n/a	n/a	n/a
122.829790	2	cue_social_low	n/a	16	-6	n/a	n/a	n/a
129.703720	2	cue_social	n/a	32	9	n/a	n/a	n/a
129.703720	2	cue_social_high	n/a	32	10	n/a	n/a	n/a
136.468730	2	cue_nonsocial	n/a	16	-6	n/a	n/a	n/a
136.468730	2	cue_nonsocial_low	n/a	16	-7	n/a	n/a	n/a
144.184480	2	cue_social	n/a	32	9	n/a	n/a	n/a
144.184480	2	cue_social_high	n/a	32	10	n/a	n/a	n/a
151.019580	2	cue_social	n/a	16	-7	n/a	n/a	n/a
151.019580	2	cue_social_low	n/a	16	-6	n/a	n/a	n/a
158.631100	2	cue_social	n/a	16	-7	n/a	n/a	n/a
158.631100	2	cue_social_low	n/a	16	-6	n/a	n/a	n/a
166.253460	2	cue_nonsocial	n/a	32	10	n/a	n/a	n/a
166.253460	2	cue_nonsocial_high	n/a	32	9	n/a	n/a	n/a
173.085530	2	cue_nonsocial	n/a	32	10	n/a	n/a	n/a
173.085530	2	cue_nonsocial_high	n/a	32	9	n/a	n/a	n/a
179.939850	2	cue_nonsocial	n/a	16	-6	n/a	n/a	n/a
179.939850	2	cue_nonsocial_low	n/a	16	-7	n/a	n/a	n/a
189.168700	2	cue_nonsocial	n/a	32	10	n/a	n/a	n/a
189.168700	2	cue_nonsocial_high	n/a	32	9	n/a	n/a	n/a
196.093100	2	cue_social	n/a	32	9	n/a	n/a	n/a
196.093100	2	cue_social_high	n/a	32	10	n/a	n/a	n/a
203.720830	2	cue_social	n/a	16	-7	n/a	n/a	n/a
203.720830	2	cue_social_low	n/a	16	-6	n/a	n/a	n/a
210.485120	2	cue_nonsocial	n/a	16	-6	n/a	n/a	n/a
210.485120	2	cue_nonsocial_low	n/a	16	-7	n/a	n/a	n/a
218.135030	2	cue_nonsocial	n/a	32	10	n/a	n/a	n/a
218.135030	2	cue_nonsocial_high	n/a	32	9	n/a	n/a	n/a
225.084850	2	cue_social	n/a	32	9	n/a	n/a	n/a
225.084850	2	cue_social_high	n/a	32	10	n/a	n/a	n/a
231.859240	2	cue_social	n/a	16	-7	n/a	n/a	n/a
231.859240	2	cue_social_low	n/a	16	-6	n/a	n/a	n/a
239.451720	2	cue_nonsocial	n/a	32	10	n/a	n/a	n/a
239.451720	2	cue_nonsocial_high	n/a	32	9	n/a	n/a	n/a
248.701570	2	cue_nonsocial	n/a	16	-6	n/a	n/a	n/a
248.701570	2	cue_nonsocial_low	n/a	16	-7	n/a	n/a	n/a
255.610260	2	cue_social	n/a	16	-7	n/a	n/a	n/a
255.610260	2	cue_social_low	n/a	16	-6	n/a	n/a	n/a
264.884400	2	cue_social	n/a	32	9	n/a	n/a	n/a
264.884400	2	cue_social_high	n/a	32	10	n/a	n/a	n/a
271.632450	2	cue_social	n/a	16	-7	n/a	n/a	n/a
271.632450	2	cue_social_low	n/a	16	-6	n/a	n/a	n/a
279.327970	2	cue_social	n/a	32	9	n/a	n/a	n/a
279.327970	2	cue_social_high	n/a	32	10	n/a	n/a	n/a
286.085050	2	cue_nonsocial	n/a	16	-6	n/a	n/a	n/a
286.085050	2	cue_nonsocial_low	n/a	16	-7	n/a	n/a	n/a
295.351560	2	cue_nonsocial	n/a	16	-6	n/a	n/a	n/a
295.351560	2	cue_nonsocial_low	n/a	16	-7	n/a	n/a	n/a
302.184800	2	cue_nonsocial	n/a	16	-6	n/a	n/a	n/a
302.184800	2	cue_nonsocial_low	n/a	16	-7	n/a	n/a	n/a
313.051540	2	cue_nonsocial	n/a	16	-6	n/a	n/a	n/a
313.051540	2	cue_nonsocial_low	n/a	16	-7	n/a	n/a	n/a
319.884640	2	cue_nonsocial	n/a	16	-6	n/a	n/a	n/a
319.884640	2	cue_nonsocial_low	n/a	16	-7	n/a	n/a	n/a
326.794650	2	cue_social	n/a	16	-7	n/a	n/a	n/a
326.794650	2	cue_social_low	n/a	16	-6	n/a	n/a	n/a
333.552400	2	cue_nonsocial	n/a	16	-6	n/a	n/a	n/a
333.552400	2	cue_nonsocial_low	n/a	16	-7	n/a	n/a	n/a
341.255580	2	cue_social	n/a	32	9	n/a	n/a	n/a
341.255580	2	cue_social_high	n/a	32	10	n/a	n/a	n/a
348.093600	2	cue_social	n/a	32	9	n/a	n/a	n/a
348.093600	2	cue_social_high	n/a	32	10	n/a	n/a	n/a
354.939420	2	cue_social	n/a	32	9	n/a	n/a	n/a
354.939420	2	cue_social_high	n/a	32	10	n/a	n/a	n/a
361.701300	2	cue_nonsocial	n/a	16	-6	n/a	n/a	n/a
361.701300	2	cue_nonsocial_low	n/a	16	-7	n/a	n/a	n/a
368.616150	2	cue_social	n/a	16	-7	n/a	n/a	n/a
368.616150	2	cue_social_low	n/a	16	-6	n/a	n/a	n/a
6.524929	1.000027	dec_nonsocial_choice	1.000027	32.000000	n/a	2	-1.679688e-01	-1.679688e-01
6.524929	1.000027	dec_choice	1.000027	32.000000	n/a	2	-1.692708e-01	-1.692708e-01
6.524929	1.000027	dec_nonsocial_accept	1.000027	32.000000	n/a	2	-1.679688e-01	-1.679688e-01
6.524929	1.000027	dec_accept	1.000027	32.000000	n/a	2	-1.692708e-01	-1.692708e-01
6.524929	1.000027	dec_nonsocial_low	1.000027	32.000000	n/a	2	-1.692708e-01	-1.692708e-01
6.524929	1.000027	dec_nonsocial_accept_low	1.000027	32.000000	n/a	2	-1.692708e-01	-1.692708e-01
13.358873	0.999638	dec_social_choice	0.999638	16.000000	n/a	1	-1.679688e-01	-1.679688e-01
13.358873	0.999638	dec_choice	0.999638	16.000000	n/a	1	-1.666667e-01	-1.666667e-01
13.358873	0.999638	dec_social_accept	0.999638	16.000000	n/a	1	-1.679688e-01	-1.679688e-01
13.358873	0.999638	dec_accept	0.999638	16.000000	n/a	1	-1.666667e-01	-1.666667e-01
13.358873	0.999638	dec_social_accept_low	0.999638	16.000000	n/a	1	-1.666667e-01	-1.666667e-01
25.841106	1.067016	dec_nonsocial_choice	1.067016	16.000000	n/a	1	-1.679688e-01	-1.679688e-01
25.841106	1.067016	dec_choice	1.067016	16.000000	n/a	1	-1.692708e-01	-1.692708e-01
25.841106	1.067016	dec_nonsocial_accept	1.067016	16.000000	n/a	1	-1.679688e-01	-1.679688e-01
25.841106	1.067016	dec_accept	1.067016	16.000000	n/a	1	-1.692708e-01	-1.692708e-01
25.841106	1.067016	dec_nonsocial_accept_low	1.067016	16.000000	n/a	1	-1.666667e-01	-1.666667e-01
33.475746	1.099274	dec_nonsocial_choice	1.099274	32.000000	n/a	2	-1.679688e-01	-1.679688e-01
33.475746	1.099274	dec_choice	1.099274	32.000000	n/a	2	-1.692708e-01	-1.692708e-01
33.475746	1.099274	dec_nonsocial_accept	1.099274	32.000000	n/a	2	-1.679688e-01	-1.679688e-01
33.475746	1.099274	dec_accept	1.099274	32.000000	n/a	2	-1.692708e-01	-1.692708e-01
33.475746	1.099274	dec_nonsocial_accept_low	1.099274	32.000000	n/a	2	-1.666667e-01	-1.666667e-01
42.724827	1.016250	dec_social_choice	1.016250	16.000000	n/a	2	-1.054688e-01	-1.054688e-01
42.724827	1.016250	dec_choice	1.016250	16.000000	n/a	2	-1.041667e-01	-1.041667e-01
42.724827	1.016250	dec_social_accept	1.016250	16.000000	n/a	2	-1.054688e-01	-1.054688e-01
42.724827	1.016250	dec_accept	1.016250	16.000000	n/a	2	-1.041667e-01	-1.041667e-01
42.724827	1.016250	dec_social_accept_low	1.016250	16.000000	n/a	2	-1.041667e-01	-1.041667e-01
50.375850	1.065549	dec_nonsocial_choice	1.065549	32.000000	n/a	2	-1.679688e-01	-1.679688e-01
50.375850	1.065549	dec_choice	1.065549	32.000000	n/a	2	-1.692708e-01	-1.692708e-01
50.375850	1.065549	dec_nonsocial_accept	1.065549	32.000000	n/a	2	-1.679688e-01	-1.679688e-01
50.375850	1.065549	dec_accept	1.065549	32.000000	n/a	2	-1.692708e-01	-1.692708e-01
50.375850	1.065549	dec_nonsocial_low	1.065549	32.000000	n/a	2	-1.692708e-01	-1.692708e-01
50.375850	1.065549	dec_nonsocial_accept_low	1.065549	32.000000	n/a	2	-1.692708e-01	-1.692708e-01
58.025833	0.732409	dec_nonsocial_choice	0.732409	16.000000	n/a	8	2.695312e-01	2.695312e-01
58.025833	0.732409	dec_choice	0.732409	16.000000	n/a	8	2.682292e-01	2.682292e-01
58.025833	0.732409	dec_nonsocial_accept	0.732409	16.000000	n/a	8	2.695312e-01	2.695312e-01
58.025833	0.732409	dec_accept	0.732409	16.000000	n/a	8	2.682292e-01	2.682292e-01
58.025833	0.732409	dec_nonsocial_accept_high	0.732409	16.000000	n/a	8	2.708333e-01	2.708333e-01
67.274800	0.866349	dec_nonsocial_choice	0.866349	16.000000	n/a	8	2.695312e-01	2.695312e-01
67.274800	0.866349	dec_choice	0.866349	16.000000	n/a	8	2.682292e-01	2.682292e-01
67.274800	0.866349	dec_nonsocial_accept	0.866349	16.000000	n/a	8	2.695312e-01	2.695312e-01
67.274800	0.866349	dec_accept	0.866349	16.000000	n/a	8	2.682292e-01	2.682292e-01
67.274800	0.866349	dec_nonsocial_accept_high	0.866349	16.000000	n/a	8	2.708333e-01	2.708333e-01
74.923904	0.683999	dec_social_choice	0.683999	32.000000	n/a	3	-1.367188e-01	-1.367188e-01
74.923904	0.683999	dec_choice	0.683999	32.000000	n/a	3	-1.354167e-01	-1.354167e-01
74.923904	0.683999	dec_social_accept	0.683999	32.000000	n/a	3	-1.367188e-01	-1.367188e-01
74.923904	0.683999	dec_accept	0.683999	32.000000	n/a	3	-1.354167e-01	-1.354167e-01
74.923904	0.683999	dec_social_low	0.683999	32.000000	n/a	3	-1.354167e-01	-1.354167e-01
74.923904	0.683999	dec_social_accept_low	0.683999	32.000000	n/a	3	-1.354167e-01	-1.354167e-01
85.791790	0.599755	dec_social_choice	0.599755	16.000000	n/a	8	2.695312e-01	2.695312e-01
85.791790	0.599755	dec_choice	0.599755	16.000000	n/a	8	2.708333e-01	2.708333e-01
85.791790	0.599755	dec_social_accept	0.599755	16.000000	n/a	8	2.695312e-01	2.695312e-01
85.791790	0.599755	dec_accept	0.599755	16.000000	n/a	8	2.708333e-01	2.708333e-01
85.791790	0.599755	dec_social_high	0.599755	16.000000	n/a	8	2.708333e-01	2.708333e-01
85.791790	0.599755	dec_social_accept_high	0.599755	16.000000	n/a	8	2.708333e-01	2.708333e-01
92.624756	0.850450	dec_nonsocial_choice	0.850450	32.000000	n/a	16	2.695312e-01	2.695312e-01
92.624756	0.850450	dec_choice	0.850450	32.000000	n/a	16	2.682292e-01	2.682292e-01
92.624756	0.850450	dec_nonsocial_accept	0.850450	32.000000	n/a	16	2.695312e-01	2.695312e-01
92.624756	0.850450	dec_accept	0.850450	32.000000	n/a	16	2.682292e-01	2.682292e-01
92.624756	0.850450	dec_nonsocial_high	0.850450	32.000000	n/a	16	2.682292e-01	2.682292e-01
92.624756	0.850450	dec_nonsocial_accept_high	0.850450	32.000000	n/a	16	2.682292e-01	2.682292e-01
99.457740	1.483578	dec_nonsocial_choice	1.483578	16.000000	n/a	8	2.695312e-01	2.695312e-01
99.457740	1.483578	dec_choice	1.483578	16.000000	n/a	8	2.682292e-01	2.682292e-01
99.457740	1.483578	dec_nonsocial_accept	1.483578	16.000000	n/a	8	2.695312e-01	2.695312e-01
99.457740	1.483578	dec_accept	1.483578	16.000000	n/a	8	2.682292e-01	2.682292e-01
99.457740	1.483578	dec_nonsocial_high	1.483578	16.000000	n/a	8	2.682292e-01	2.682292e-01
99.457740	1.483578	dec_nonsocial_accept_high	1.483578	16.000000	n/a	8	2.682292e-01	2.682292e-01
106.290800	0.867034	dec_social_choice	0.867034	16.000000	n/a	2	-1.054688e-01	-1.054688e-01
106.290800	0.867034	dec_choice	0.867034	16.000000	n/a	2	-1.041667e-01	-1.041667e-01
106.290800	0.867034	dec_social_accept	0.867034	16.000000	n/a	2	-1.054688e-01	-1.054688e-01
106.290800	0.867034	dec_accept	0.867034	16.000000	n/a	2	-1.041667e-01	-1.041667e-01
106.290800	0.867034	dec_social_low	0.867034	16.000000	n/a	2	-1.041667e-01	-1.041667e-01
106.290800	0.867034	dec_social_accept_low	0.867034	16.000000	n/a	2	-1.041667e-01	-1.041667e-01
117.158210	0.699908	dec_social_choice	0.699908	16.000000	n/a	4	1.953125e-02	1.953125e-02
117.158210	0.699908	dec_choice	0.699908	16.000000	n/a	4	2.083333e-02	2.083333e-02
117.158210	0.699908	dec_social_accept	0.699908	16.000000	n/a	4	1.953125e-02	1.953125e-02
117.158210	0.699908	dec_accept	0.699908	16.000000	n/a	4	2.083333e-02	2.083333e-02
117.158210	0.699908	dec_social_accept_high	0.699908	16.000000	n/a	4	2.083333e-02	2.083333e-02
124.807495	0.849830	dec_social_choice	0.849830	16.000000	n/a	1	-1.679688e-01	-1.679688e-01
124.807495	0.849830	dec_choice	0.849830	16.000000	n/a	1	-1.666667e-01	-1.666667e-01
124.807495	0.849830	dec_social_accept	0.849830	16.000000	n/a	1	-1.679688e-01	-1.679688e-01
124.807495	0.849830	dec_accept	0.849830	16.000000	n/a	1	-1.666667e-01	-1.666667e-01
124.807495	0.849830	dec_social_low	0.849830	16.000000	n/a	1	-1.666667e-01	-1.666667e-01
124.807495	0.849830	dec_social_accept_low	0.849830	16.000000	n/a	1	-1.666667e-01	-1.666667e-01
131.640690	1.034389	dec_social_choice	1.034389	32.000000	n/a	8	1.953125e-02	1.953125e-02
131.640690	1.034389	dec_choice	1.034389	32.000000	n/a	8	2.083333e-02	2.083333e-02
131.640690	1.034389	dec_social_accept	1.034389	32.000000	n/a	8	1.953125e-02	1.953125e-02
131.640690	1.034389	dec_accept	1.034389	32.000000	n/a	8	2.083333e-02	2.083333e-02
131.640690	1.034389	dec_social_high	1.034389	32.000000	n/a	8	2.083333e-02	2.083333e-02
131.640690	1.034389	dec_social_accept_high	1.034389	32.000000	n/a	8	2.083333e-02	2.083333e-02
138.474640	1.132810	dec_nonsocial_choice	1.132810	16.000000	n/a	1	-1.679688e-01	-1.679688e-01
138.474640	1.132810	dec_choice	1.132810	16.000000	n/a	1	-1.692708e-01	-1.692708e-01
138.474640	1.132810	dec_nonsocial_accept	1.132810	16.000000	n/a	1	-1.679688e-01	-1.679688e-01
138.474640	1.132810	dec_accept	1.132810	16.000000	n/a	1	-1.692708e-01	-1.692708e-01
138.474640	1.132810	dec_nonsocial_accept_low	1.132810	16.000000	n/a	1	-1.666667e-01	-1.666667e-01
146.124850	2.116157	dec_social_choice	2.116157	32.000000	n/a	3	-1.367188e-01	-1.367188e-01
146.124850	2.116157	dec_choice	2.116157	32.000000	n/a	3	-1.354167e-01	-1.354167e-01
146.124850	2.116157	dec_social_accept	2.116157	32.000000	n/a	3	-1.367188e-01	-1.367188e-01
146.124850	2.116157	dec_accept	2.116157	32.000000	n/a	3	-1.354167e-01	-1.354167e-01
146.124850	2.116157	dec_social_accept_low	2.116157	32.000000	n/a	3	-1.354167e-01	-1.354167e-01
152.957690	0.616619	dec_social_choice	0.616619	16.000000	n/a	8	2.695312e-01	2.695312e-01
152.957690	0.616619	dec_choice	0.616619	16.000000	n/a	8	2.708333e-01	2.708333e-01
152.957690	0.616619	dec_social_accept	0.616619	16.000000	n/a	8	2.695312e-01	2.695312e-01
152.957690	0.616619	dec_accept	0.616619	16.000000	n/a	8	2.708333e-01	2.708333e-01
152.957690	0.616619	dec_social_accept_high	0.616619	16.000000	n/a	8	2.708333e-01	2.708333e-01
160.606740	0.701145	dec_social_choice	0.701145	16.000000	n/a	1	-1.679688e-01	-1.679688e-01
160.606740	0.701145	dec_choice	0.701145	16.000000	n/a	1	-1.666667e-01	-1.666667e-01
160.606740	0.701145	dec_social_accept	0.701145	16.000000	n/a	1	-1.679688e-01	-1.679688e-01
160.606740	0.701145	dec_accept	0.701145	16.000000	n/a	1	-1.666667e-01	-1.666667e-01
160.606740	0.701145	dec_social_accept_low	0.701145	16.000000	n/a	1	-1.666667e-01	-1.666667e-01
168.257770	0.650103	dec_nonsocial_choice	0.650103	32.000000	n/a	8	1.953125e-02	1.953125e-02
168.257770	0.650103	dec_choice	0.650103	32.000000	n/a	8	1.822917e-02	1.822917e-02
168.257770	0.650103	dec_nonsocial_accept	0.650103	32.000000	n/a	8	1.953125e-02	1.953125e-02
168.257770	0.650103	dec_accept	0.650103	32.000000	n/a	8	1.822917e-02	1.822917e-02
168.257770	0.650103	dec_nonsocial_high	0.650103	32.000000	n/a	8	1.822917e-02	1.822917e-02
168.257770	0.650103	dec_nonsocial_accept_high	0.650103	32.000000	n/a	8	1.822917e-02	1.822917e-02
175.091720	0.849176	dec_nonsocial_choice	0.849176	32.000000	n/a	16	2.695312e-01	2.695312e-01
175.091720	0.849176	dec_choice	0.849176	32.000000	n/a	16	2.682292e-01	2.682292e-01
175.091720	0.849176	dec_nonsocial_accept	0.849176	32.000000	n/a	16	2.695312e-01	2.695312e-01
175.091720	0.849176	dec_accept	0.849176	32.000000	n/a	16	2.682292e-01	2.682292e-01
175.091720	0.849176	dec_nonsocial_high	0.849176	32.000000	n/a	16	2.682292e-01	2.682292e-01
175.091720	0.849176	dec_nonsocial_accept_high	0.849176	32.000000	n/a	16	2.682292e-01	2.682292e-01
181.923630	1.301283	dec_nonsocial_choice	1.301283	16.000000	n/a	8	2.695312e-01	2.695312e-01
181.923630	1.301283	dec_choice	1.301283	16.000000	n/a	8	2.682292e-01	2.682292e-01
181.923630	1.301283	dec_nonsocial_accept	1.301283	16.000000	n/a	8	2.695312e-01	2.695312e-01
181.923630	1.301283	dec_accept	1.301283	16.000000	n/a	8	2.682292e-01	2.682292e-01
181.923630	1.301283	dec_nonsocial_high	1.301283	16.000000	n/a	8	2.682292e-01	2.682292e-01
181.923630	1.301283	dec_nonsocial_accept_high	1.301283	16.000000	n/a	8	2.682292e-01	2.682292e-01
191.173720	1.200554	dec_nonsocial_choice	1.200554	32.000000	n/a	3	-1.367188e-01	-1.367188e-01
191.173720	1.200554	dec_choice	1.200554	32.000000	n/a	3	-1.380208e-01	-1.380208e-01
191.173720	1.200554	dec_nonsocial_accept	1.200554	32.000000	n/a	3	-1.367188e-01	-1.367188e-01
191.173720	1.200554	dec_accept	1.200554	32.000000	n/a	3	-1.380208e-01	-1.380208e-01
191.173720	1.200554	dec_nonsocial_accept_low	1.200554	32.000000	n/a	3	-1.354167e-01	-1.354167e-01
198.008530	0.616493	dec_social_choice	0.616493	32.000000	n/a	16	2.695312e-01	2.695312e-01
198.008530	0.616493	dec_choice	0.616493	32.000000	n/a	16	2.708333e-01	2.708333e-01
198.008530	0.616493	dec_social_accept	0.616493	32.000000	n/a	16	2.695312e-01	2.695312e-01
198.008530	0.616493	dec_accept	0.616493	32.000000	n/a	16	2.708333e-01	2.708333e-01
198.008530	0.616493	dec_social_high	0.616493	32.000000	n/a	16	2.708333e-01	2.708333e-01
198.008530	0.616493	dec_social_accept_high	0.616493	32.000000	n/a	16	2.708333e-01	2.708333e-01
205.657640	1.366272	dec_social_choice	1.366272	16.000000	n/a	8	2.695312e-01	2.695312e-01
205.657640	1.366272	dec_choice	1.366272	16.000000	n/a	8	2.708333e-01	2.708333e-01
205.657640	1.366272	dec_social_accept	1.366272	16.000000	n/a	8	2.695312e-01	2.695312e-01
205.657640	1.366272	dec_accept	1.366272	16.000000	n/a	8	2.708333e-01	2.708333e-01
205.657640	1.366272	dec_social_accept_high	1.366272	16.000000	n/a	8	2.708333e-01	2.708333e-01
212.491760	1.248968	dec_nonsocial_choice	1.248968	16.000000	n/a	2	-1.054688e-01	-1.054688e-01
212.491760	1.248968	dec_choice	1.248968	16.000000	n/a	2	-1.067708e-01	-1.067708e-01
212.491760	1.248968	dec_nonsocial_accept	1.248968	16.000000	n/a	2	-1.054688e-01	-1.054688e-01
212.491760	1.248968	dec_accept	1.248968	16.000000	n/a	2	-1.067708e-01	-1.067708e-01
212.491760	1.248968	dec_nonsocial_low	1.248968	16.000000	n/a	2	-1.067708e-01	-1.067708e-01
212.491760	1.248968	dec_nonsocial_accept_low	1.248968	16.000000	n/a	2	-1.067708e-01	-1.067708e-01
220.140380	1.316972	dec_nonsocial_choice	1.316972	32.000000	n/a	3	-1.367188e-01	-1.367188e-01
220.140380	1.316972	dec_choice	1.316972	32.000000	n/a	3	-1.380208e-01	-1.380208e-01
220.140380	1.316972	dec_nonsocial_accept	1.316972	32.000000	n/a	3	-1.367188e-01	-1.367188e-01
220.140380	1.316972	dec_accept	1.316972	32.000000	n/a	3	-1.380208e-01	-1.380208e-01
220.140380	1.316972	dec_nonsocial_low	1.316972	32.000000	n/a	3	-1.380208e-01	-1.380208e-01
220.140380	1.316972	dec_nonsocial_accept_low	1.316972	32.000000	n/a	3	-1.380208e-01	-1.380208e-01
226.974460	1.116500	dec_social_choice	1.116500	32.000000	n/a	3	-1.367188e-01	-1.367188e-01
226.974460	1.116500	dec_choice	1.116500	32.000000	n/a	3	-1.354167e-01	-1.354167e-01
226.974460	1.116500	dec_social_accept	1.116500	32.000000	n/a	3	-1.367188e-01	-1.367188e-01
226.974460	1.116500	dec_accept	1.116500	32.000000	n/a	3	-1.354167e-01	-1.354167e-01
226.974460	1.116500	dec_social_accept_low	1.116500	32.000000	n/a	3	-1.354167e-01	-1.354167e-01
233.807600	0.883146	dec_social_choice	0.883146	16.000000	n/a	1	-1.679688e-01	-1.679688e-01
233.807600	0.883146	dec_choice	0.883146	16.000000	n/a	1	-1.666667e-01	-1.666667e-01
233.807600	0.883146	dec_social_accept	0.883146	16.000000	n/a	1	-1.679688e-01	-1.679688e-01
233.807600	0.883146	dec_accept	0.883146	16.000000	n/a	1	-1.666667e-01	-1.666667e-01
233.807600	0.883146	dec_social_accept_low	0.883146	16.000000	n/a	1	-1.666667e-01	-1.666667e-01
241.457570	1.499766	dec_nonsocial_choice	1.499766	32.000000	n/a	8	1.953125e-02	1.953125e-02
241.457570	1.499766	dec_choice	1.499766	32.000000	n/a	8	1.822917e-02	1.822917e-02
241.457570	1.499766	dec_nonsocial_accept	1.499766	32.000000	n/a	8	1.953125e-02	1.953125e-02
241.457570	1.499766	dec_accept	1.499766	32.000000	n/a	8	1.822917e-02	1.822917e-02
241.457570	1.499766	dec_nonsocial_accept_high	1.499766	32.000000	n/a	8	2.083333e-02	2.083333e-02
250.707570	0.950250	dec_nonsocial_choice	0.950250	16.000000	n/a	4	1.953125e-02	1.953125e-02
250.707570	0.950250	dec_choice	0.950250	16.000000	n/a	4	1.822917e-02	1.822917e-02
250.707570	0.950250	dec_nonsocial_accept	0.950250	16.000000	n/a	4	1.953125e-02	1.953125e-02
250.707570	0.950250	dec_accept	0.950250	16.000000	n/a	4	1.822917e-02	1.822917e-02
250.707570	0.950250	dec_nonsocial_accept_high	0.950250	16.000000	n/a	4	2.083333e-02	2.083333e-02
257.540340	1.100267	dec_social_choice	1.100267	16.000000	n/a	4	1.953125e-02	1.953125e-02
257.540340	1.100267	dec_choice	1.100267	16.000000	n/a	4	2.083333e-02	2.083333e-02
257.540340	1.100267	dec_social_accept	1.100267	16.000000	n/a	4	1.953125e-02	1.953125e-02
257.540340	1.100267	dec_accept	1.100267	16.000000	n/a	4	2.083333e-02	2.083333e-02
257.540340	1.100267	dec_social_high	1.100267	16.000000	n/a	4	2.083333e-02	2.083333e-02
257.540340	1.100267	dec_social_accept_high	1.100267	16.000000	n/a	4	2.083333e-02	2.083333e-02
266.790560	1.133498	dec_social_choice	1.133498	32.000000	n/a	8	1.953125e-02	1.953125e-02
266.790560	1.133498	dec_choice	1.133498	32.000000	n/a	8	2.083333e-02	2.083333e-02
266.790560	1.133498	dec_social_accept	1.133498	32.000000	n/a	8	1.953125e-02	1.953125e-02
266.790560	1.133498	dec_accept	1.133498	32.000000	n/a	8	2.083333e-02	2.083333e-02
266.790560	1.133498	dec_social_accept_high	1.133498	32.000000	n/a	8	2.083333e-02	2.083333e-02
273.623570	1.251122	dec_social_choice	1.251122	16.000000	n/a	1	-1.679688e-01	-1.679688e-01
273.623570	1.251122	dec_choice	1.251122	16.000000	n/a	1	-1.666667e-01	-1.666667e-01
273.623570	1.251122	dec_social_accept	1.251122	16.000000	n/a	1	-1.679688e-01	-1.679688e-01
273.623570	1.251122	dec_accept	1.251122	16.000000	n/a	1	-1.666667e-01	-1.666667e-01
273.623570	1.251122	dec_social_accept_low	1.251122	16.000000	n/a	1	-1.666667e-01	-1.666667e-01
281.256530	1.101118	dec_social_choice	1.101118	32.000000	n/a	8	1.953125e-02	1.953125e-02
281.256530	1.101118	dec_choice	1.101118	32.000000	n/a	8	2.083333e-02	2.083333e-02
281.256530	1.101118	dec_social_accept	1.101118	32.000000	n/a	8	1.953125e-02	1.953125e-02
281.256530	1.101118	dec_accept	1.101118	32.000000	n/a	8	2.083333e-02	2.083333e-02
281.256530	1.101118	dec_social_accept_high	1.101118	32.000000	n/a	8	2.083333e-02	2.083333e-02
288.090940	0.849367	dec_nonsocial_choice	0.849367	16.000000	n/a	2	-1.054688e-01	-1.054688e-01
288.090940	0.849367	dec_choice	0.849367	16.000000	n/a	2	-1.067708e-01	-1.067708e-01
288.090940	0.849367	dec_nonsocial_accept	0.849367	16.000000	n/a	2	-1.054688e-01	-1.054688e-01
288.090940	0.849367	dec_accept	0.849367	16.000000	n/a	2	-1.067708e-01	-1.067708e-01
288.090940	0.849367	dec_nonsocial_low	0.849367	16.000000	n/a	2	-1.067708e-01	-1.067708e-01
288.090940	0.849367	dec_nonsocial_accept_low	0.849367	16.000000	n/a	2	-1.067708e-01	-1.067708e-01
297.358520	0.964885	dec_nonsocial_choice	0.964885	16.000000	n/a	1	-1.679688e-01	-1.679688e-01
297.358520	0.964885	dec_choice	0.964885	16.000000	n/a	1	-1.692708e-01	-1.692708e-01
297.358520	0.964885	dec_nonsocial_accept	0.964885	16.000000	n/a	1	-1.679688e-01	-1.679688e-01
297.358520	0.964885	dec_accept	0.964885	16.000000	n/a	1	-1.692708e-01	-1.692708e-01
297.358520	0.964885	dec_nonsocial_low	0.964885	16.000000	n/a	1	-1.692708e-01	-1.692708e-01
297.358520	0.964885	dec_nonsocial_accept_low	0.964885	16.000000	n/a	1	-1.692708e-01	-1.692708e-01
304.190460	1.283562	dec_nonsocial_choice	1.283562	16.000000	n/a	2	-1.054688e-01	-1.054688e-01
304.190460	1.283562	dec_choice	1.283562	16.000000	n/a	2	-1.067708e-01	-1.067708e-01
304.190460	1.283562	dec_nonsocial_accept	1.283562	16.000000	n/a	2	-1.054688e-01	-1.054688e-01
304.190460	1.283562	dec_accept	1.283562	16.000000	n/a	2	-1.067708e-01	-1.067708e-01
304.190460	1.283562	dec_nonsocial_accept_low	1.283562	16.000000	n/a	2	-1.041667e-01	-1.041667e-01
315.057460	1.350004	dec_nonsocial_choice	1.350004	16.000000	n/a	2	-1.054688e-01	-1.054688e-01
315.057460	1.350004	dec_choice	1.350004	16.000000	n/a	2	-1.067708e-01	-1.067708e-01
315.057460	1.350004	dec_nonsocial_accept	1.350004	16.000000	n/a	2	-1.054688e-01	-1.054688e-01
315.057460	1.350004	dec_accept	1.350004	16.000000	n/a	2	-1.067708e-01	-1.067708e-01
315.057460	1.350004	dec_nonsocial_low	1.350004	16.000000	n/a	2	-1.067708e-01	-1.067708e-01
315.057460	1.350004	dec_nonsocial_accept_low	1.350004	16.000000	n/a	2	-1.067708e-01	-1.067708e-01
321.890440	1.433415	dec_nonsocial_choice	1.433415	16.000000	n/a	4	1.953125e-02	1.953125e-02
321.890440	1.433415	dec_choice	1.433415	16.000000	n/a	4	1.822917e-02	1.822917e-02
321.890440	1.433415	dec_nonsocial_accept	1.433415	16.000000	n/a	4	1.953125e-02	1.953125e-02
321.890440	1.433415	dec_accept	1.433415	16.000000	n/a	4	1.822917e-02	1.822917e-02
321.890440	1.433415	dec_nonsocial_high	1.433415	16.000000	n/a	4	1.822917e-02	1.822917e-02
321.890440	1.433415	dec_nonsocial_accept_high	1.433415	16.000000	n/a	4	1.822917e-02	1.822917e-02
328.723270	0.733590	dec_social_choice	0.733590	16.000000	n/a	8	2.695312e-01	2.695312e-01
328.723270	0.733590	dec_choice	0.733590	16.000000	n/a	8	2.708333e-01	2.708333e-01
328.723270	0.733590	dec_social_accept	0.733590	16.000000	n/a	8	2.695312e-01	2.695312e-01
328.723270	0.733590	dec_accept	0.733590	16.000000	n/a	8	2.708333e-01	2.708333e-01
328.723270	0.733590	dec_social_accept_high	0.733590	16.000000	n/a	8	2.708333e-01	2.708333e-01
335.557430	0.766541	dec_nonsocial_choice	0.766541	16.000000	n/a	4	1.953125e-02	1.953125e-02
335.557430	0.766541	dec_choice	0.766541	16.000000	n/a	4	1.822917e-02	1.822917e-02
335.557430	0.766541	dec_nonsocial_accept	0.766541	16.000000	n/a	4	1.953125e-02	1.953125e-02
335.557430	0.766541	dec_accept	0.766541	16.000000	n/a	4	1.822917e-02	1.822917e-02
335.557430	0.766541	dec_nonsocial_high	0.766541	16.000000	n/a	4	1.822917e-02	1.822917e-02
335.557430	0.766541	dec_nonsocial_accept_high	0.766541	16.000000	n/a	4	1.822917e-02	1.822917e-02
343.207430	0.733071	dec_social_choice	0.733071	32.000000	n/a	2	-1.679688e-01	-1.679688e-01
343.207430	0.733071	dec_choice	0.733071	32.000000	n/a	2	-1.666667e-01	-1.666667e-01
343.207430	0.733071	dec_social_accept	0.733071	32.000000	n/a	2	-1.679688e-01	-1.679688e-01
343.207430	0.733071	dec_accept	0.733071	32.000000	n/a	2	-1.666667e-01	-1.666667e-01
343.207430	0.733071	dec_social_accept_low	0.733071	32.000000	n/a	2	-1.666667e-01	-1.666667e-01
350.039500	0.800853	dec_social_choice	0.800853	32.000000	n/a	3	-1.367188e-01	-1.367188e-01
350.039500	0.800853	dec_choice	0.800853	32.000000	n/a	3	-1.354167e-01	-1.354167e-01
350.039500	0.800853	dec_social_accept	0.800853	32.000000	n/a	3	-1.367188e-01	-1.367188e-01
350.039500	0.800853	dec_accept	0.800853	32.000000	n/a	3	-1.354167e-01	-1.354167e-01
350.039500	0.800853	dec_social_accept_low	0.800853	32.000000	n/a	3	-1.354167e-01	-1.354167e-01
356.874420	0.782666	dec_social_choice	0.782666	32.000000	n/a	16	2.695312e-01	2.695312e-01
356.874420	0.782666	dec_choice	0.782666	32.000000	n/a	16	2.708333e-01	2.708333e-01
356.874420	0.782666	dec_social_accept	0.782666	32.000000	n/a	16	2.695312e-01	2.695312e-01
356.874420	0.782666	dec_accept	0.782666	32.000000	n/a	16	2.708333e-01	2.708333e-01
356.874420	0.782666	dec_social_high	0.782666	32.000000	n/a	16	2.708333e-01	2.708333e-01
356.874420	0.782666	dec_social_accept_high	0.782666	32.000000	n/a	16	2.708333e-01	2.708333e-01
363.707400	1.115754	dec_nonsocial_choice	1.115754	16.000000	n/a	4	1.953125e-02	1.953125e-02
363.707400	1.115754	dec_choice	1.115754	16.000000	n/a	4	1.822917e-02	1.822917e-02
363.707400	1.115754	dec_nonsocial_accept	1.115754	16.000000	n/a	4	1.953125e-02	1.953125e-02
363.707400	1.115754	dec_accept	1.115754	16.000000	n/a	4	1.822917e-02	1.822917e-02
363.707400	1.115754	dec_nonsocial_accept_high	1.115754	16.000000	n/a	4	2.083333e-02	2.083333e-02
370.539400	0.984046	dec_social_choice	0.984046	16.000000	n/a	4	1.953125e-02	1.953125e-02
370.539400	0.984046	dec_choice	0.984046	16.000000	n/a	4	2.083333e-02	2.083333e-02
370.539400	0.984046	dec_social_accept	0.984046	16.000000	n/a	4	1.953125e-02	1.953125e-02
370.539400	0.984046	dec_accept	0.984046	16.000000	n/a	4	2.083333e-02	2.083333e-02
370.539400	0.984046	dec_social_accept_high	0.984046	16.000000	n/a	4	2.083333e-02	2.083333e-02
