onset	duration	trial_type	response_time	Endowment	Endowment_pmod	Decision	Decision_pmod	Offer_pmod
4.634450	2	cue_social	n/a	16	-7	n/a	n/a	n/a
4.634450	2	cue_social_low	n/a	16	-5	n/a	n/a	n/a
12.261172	2	cue_social	n/a	16	-7	n/a	n/a	n/a
12.261172	2	cue_social_low	n/a	16	-5	n/a	n/a	n/a
19.917503	2	cue_social	n/a	16	-7	n/a	n/a	n/a
19.917503	2	cue_social_low	n/a	16	-5	n/a	n/a	n/a
27.467570	2	cue_social	n/a	16	-7	n/a	n/a	n/a
27.467570	2	cue_social_low	n/a	16	-5	n/a	n/a	n/a
36.712303	2	cue_social	n/a	32	9	n/a	n/a	n/a
36.712303	2	cue_social_high	n/a	32	11	n/a	n/a	n/a
43.555347	2	cue_nonsocial	n/a	16	-5	n/a	n/a	n/a
43.555347	2	cue_nonsocial_low	n/a	16	-7	n/a	n/a	n/a
51.205387	2	cue_nonsocial	n/a	16	-5	n/a	n/a	n/a
51.205387	2	cue_nonsocial_low	n/a	16	-7	n/a	n/a	n/a
58.038452	2	cue_nonsocial	n/a	32	11	n/a	n/a	n/a
58.038452	2	cue_nonsocial_high	n/a	32	9	n/a	n/a	n/a
64.957880	2	cue_social	n/a	32	9	n/a	n/a	n/a
64.957880	2	cue_social_high	n/a	32	11	n/a	n/a	n/a
74.199780	2	cue_social	n/a	16	-7	n/a	n/a	n/a
74.199780	2	cue_social_low	n/a	16	-5	n/a	n/a	n/a
83.455986	2	cue_social	n/a	32	9	n/a	n/a	n/a
83.455986	2	cue_social_high	n/a	32	11	n/a	n/a	n/a
90.222010	2	cue_nonsocial	n/a	16	-5	n/a	n/a	n/a
90.222010	2	cue_nonsocial_low	n/a	16	-7	n/a	n/a	n/a
97.177880	2	cue_social	n/a	16	-7	n/a	n/a	n/a
97.177880	2	cue_social_low	n/a	16	-5	n/a	n/a	n/a
104.810104	2	cue_social	n/a	16	-7	n/a	n/a	n/a
104.810104	2	cue_social_low	n/a	16	-5	n/a	n/a	n/a
114.032470	2	cue_social	n/a	16	-7	n/a	n/a	n/a
114.032470	2	cue_social_low	n/a	16	-5	n/a	n/a	n/a
120.788360	2	cue_nonsocial	n/a	32	11	n/a	n/a	n/a
120.788360	2	cue_nonsocial_high	n/a	32	9	n/a	n/a	n/a
127.691510	2	cue_social	n/a	32	9	n/a	n/a	n/a
127.691510	2	cue_social_high	n/a	32	11	n/a	n/a	n/a
134.466060	2	cue_social	n/a	32	9	n/a	n/a	n/a
134.466060	2	cue_social_high	n/a	32	11	n/a	n/a	n/a
141.346510	2	cue_social	n/a	16	-7	n/a	n/a	n/a
141.346510	2	cue_social_low	n/a	16	-5	n/a	n/a	n/a
153.772110	2	cue_nonsocial	n/a	16	-5	n/a	n/a	n/a
153.772110	2	cue_nonsocial_low	n/a	16	-7	n/a	n/a	n/a
161.489650	2	cue_social	n/a	16	-7	n/a	n/a	n/a
161.489650	2	cue_social_low	n/a	16	-5	n/a	n/a	n/a
168.305560	2	cue_social	n/a	32	9	n/a	n/a	n/a
168.305560	2	cue_social_high	n/a	32	11	n/a	n/a	n/a
175.904790	2	cue_nonsocial	n/a	16	-5	n/a	n/a	n/a
175.904790	2	cue_nonsocial_low	n/a	16	-7	n/a	n/a	n/a
182.738270	2	cue_nonsocial	n/a	16	-5	n/a	n/a	n/a
182.738270	2	cue_nonsocial_low	n/a	16	-7	n/a	n/a	n/a
190.388300	2	cue_nonsocial	n/a	16	-5	n/a	n/a	n/a
190.388300	2	cue_nonsocial_low	n/a	16	-7	n/a	n/a	n/a
198.087750	2	cue_social	n/a	32	9	n/a	n/a	n/a
198.087750	2	cue_social_high	n/a	32	11	n/a	n/a	n/a
205.688050	2	cue_nonsocial	n/a	16	-5	n/a	n/a	n/a
205.688050	2	cue_nonsocial_low	n/a	16	-7	n/a	n/a	n/a
214.954620	2	cue_nonsocial	n/a	16	-5	n/a	n/a	n/a
214.954620	2	cue_nonsocial_low	n/a	16	-7	n/a	n/a	n/a
221.878680	2	cue_social	n/a	32	9	n/a	n/a	n/a
221.878680	2	cue_social_high	n/a	32	11	n/a	n/a	n/a
228.689200	2	cue_social	n/a	32	9	n/a	n/a	n/a
228.689200	2	cue_social_high	n/a	32	11	n/a	n/a	n/a
235.454420	2	cue_nonsocial	n/a	32	11	n/a	n/a	n/a
235.454420	2	cue_nonsocial_high	n/a	32	9	n/a	n/a	n/a
242.389340	2	cue_social	n/a	32	9	n/a	n/a	n/a
242.389340	2	cue_social_high	n/a	32	11	n/a	n/a	n/a
249.121320	2	cue_nonsocial	n/a	16	-5	n/a	n/a	n/a
249.121320	2	cue_nonsocial_low	n/a	16	-7	n/a	n/a	n/a
256.846000	2	cue_social	n/a	16	-7	n/a	n/a	n/a
256.846000	2	cue_social_low	n/a	16	-5	n/a	n/a	n/a
263.588040	2	cue_nonsocial	n/a	16	-5	n/a	n/a	n/a
263.588040	2	cue_nonsocial_low	n/a	16	-7	n/a	n/a	n/a
271.238560	2	cue_nonsocial	n/a	32	11	n/a	n/a	n/a
271.238560	2	cue_nonsocial_high	n/a	32	9	n/a	n/a	n/a
278.071380	2	cue_nonsocial	n/a	16	-5	n/a	n/a	n/a
278.071380	2	cue_nonsocial_low	n/a	16	-7	n/a	n/a	n/a
284.904500	2	cue_nonsocial	n/a	32	11	n/a	n/a	n/a
284.904500	2	cue_nonsocial_high	n/a	32	9	n/a	n/a	n/a
292.554660	2	cue_nonsocial	n/a	16	-5	n/a	n/a	n/a
292.554660	2	cue_nonsocial_low	n/a	16	-7	n/a	n/a	n/a
301.821380	2	cue_nonsocial	n/a	32	11	n/a	n/a	n/a
301.821380	2	cue_nonsocial_high	n/a	32	9	n/a	n/a	n/a
311.087650	2	cue_nonsocial	n/a	16	-5	n/a	n/a	n/a
311.087650	2	cue_nonsocial_low	n/a	16	-7	n/a	n/a	n/a
321.954700	2	cue_nonsocial	n/a	16	-5	n/a	n/a	n/a
321.954700	2	cue_nonsocial_low	n/a	16	-7	n/a	n/a	n/a
332.933620	2	cue_social	n/a	16	-7	n/a	n/a	n/a
332.933620	2	cue_social_low	n/a	16	-5	n/a	n/a	n/a
339.654420	2	cue_nonsocial	n/a	16	-5	n/a	n/a	n/a
339.654420	2	cue_nonsocial_low	n/a	16	-7	n/a	n/a	n/a
346.575230	2	cue_social	n/a	16	-7	n/a	n/a	n/a
346.575230	2	cue_social_low	n/a	16	-5	n/a	n/a	n/a
357.451420	2	cue_social	n/a	32	9	n/a	n/a	n/a
357.451420	2	cue_social_high	n/a	32	11	n/a	n/a	n/a
364.187770	2	cue_nonsocial	n/a	32	11	n/a	n/a	n/a
364.187770	2	cue_nonsocial_high	n/a	32	9	n/a	n/a	n/a
371.021450	2	cue_nonsocial	n/a	32	11	n/a	n/a	n/a
371.021450	2	cue_nonsocial_high	n/a	32	9	n/a	n/a	n/a
6.510072	1.151214	dec_social_choice	1.151214	16.000000	n/a	8	2.688802e-01	2.688802e-01
6.510072	1.151214	dec_choice	1.151214	16.000000	n/a	8	2.708333e-01	2.708333e-01
6.510072	1.151214	dec_social_accept	1.151214	16.000000	n/a	8	2.688802e-01	2.688802e-01
6.510072	1.151214	dec_accept	1.151214	16.000000	n/a	8	2.708333e-01	2.708333e-01
6.510072	1.151214	dec_social_high	1.151214	16.000000	n/a	8	2.708333e-01	2.708333e-01
6.510072	1.151214	dec_social_accept_high	1.151214	16.000000	n/a	8	2.708333e-01	2.708333e-01
14.161219	0.816371	dec_social_choice	0.816371	16.000000	n/a	8	2.688802e-01	2.688802e-01
14.161219	0.816371	dec_choice	0.816371	16.000000	n/a	8	2.708333e-01	2.708333e-01
14.161219	0.816371	dec_social_accept	0.816371	16.000000	n/a	8	2.688802e-01	2.688802e-01
14.161219	0.816371	dec_accept	0.816371	16.000000	n/a	8	2.708333e-01	2.708333e-01
14.161219	0.816371	dec_social_high	0.816371	16.000000	n/a	8	2.708333e-01	2.708333e-01
14.161219	0.816371	dec_social_accept_high	0.816371	16.000000	n/a	8	2.708333e-01	2.708333e-01
21.810968	0.715977	dec_social_choice	0.715977	16.000000	n/a	1	-1.686198e-01	-1.686198e-01
21.810968	0.715977	dec_choice	0.715977	16.000000	n/a	1	-1.666667e-01	-1.666667e-01
21.810968	0.715977	dec_social_accept	0.715977	16.000000	n/a	1	-1.686198e-01	-1.686198e-01
21.810968	0.715977	dec_accept	0.715977	16.000000	n/a	1	-1.666667e-01	-1.666667e-01
21.810968	0.715977	dec_social_low	0.715977	16.000000	n/a	1	-1.666667e-01	-1.666667e-01
21.810968	0.715977	dec_social_accept_low	0.715977	16.000000	n/a	1	-1.666667e-01	-1.666667e-01
29.461094	1.066407	dec_social_choice	1.066407	16.000000	n/a	8	2.688802e-01	2.688802e-01
29.461094	1.066407	dec_choice	1.066407	16.000000	n/a	8	2.708333e-01	2.708333e-01
29.461094	1.066407	dec_social_accept	1.066407	16.000000	n/a	8	2.688802e-01	2.688802e-01
29.461094	1.066407	dec_accept	1.066407	16.000000	n/a	8	2.708333e-01	2.708333e-01
29.461094	1.066407	dec_social_high	1.066407	16.000000	n/a	8	2.708333e-01	2.708333e-01
29.461094	1.066407	dec_social_accept_high	1.066407	16.000000	n/a	8	2.708333e-01	2.708333e-01
38.727974	1.399920	dec_social_choice	1.399920	32.000000	n/a	8	1.888021e-02	1.888021e-02
38.727974	1.399920	dec_choice	1.399920	32.000000	n/a	8	2.083333e-02	2.083333e-02
38.727974	1.399920	dec_social_accept	1.399920	32.000000	n/a	8	1.888021e-02	1.888021e-02
38.727974	1.399920	dec_accept	1.399920	32.000000	n/a	8	2.083333e-02	2.083333e-02
38.727974	1.399920	dec_social_accept_high	1.399920	32.000000	n/a	8	2.083333e-02	2.083333e-02
45.560970	1.016083	dec_nonsocial_choice	1.016083	16.000000	n/a	8	2.688802e-01	2.688802e-01
45.560970	1.016083	dec_choice	1.016083	16.000000	n/a	8	2.669271e-01	2.669271e-01
45.560970	1.016083	dec_nonsocial_accept	1.016083	16.000000	n/a	8	2.688802e-01	2.688802e-01
45.560970	1.016083	dec_accept	1.016083	16.000000	n/a	8	2.669271e-01	2.669271e-01
45.560970	1.016083	dec_nonsocial_high	1.016083	16.000000	n/a	8	2.669271e-01	2.669271e-01
45.560970	1.016083	dec_nonsocial_accept_high	1.016083	16.000000	n/a	8	2.669271e-01	2.669271e-01
53.210960	0.999893	dec_nonsocial_choice	0.999893	16.000000	n/a	2	-1.061198e-01	-1.061198e-01
53.210960	0.999893	dec_choice	0.999893	16.000000	n/a	2	-1.080729e-01	-1.080729e-01
53.210960	0.999893	dec_nonsocial_accept	0.999893	16.000000	n/a	2	-1.061198e-01	-1.061198e-01
53.210960	0.999893	dec_accept	0.999893	16.000000	n/a	2	-1.080729e-01	-1.080729e-01
53.210960	0.999893	dec_nonsocial_accept_low	0.999893	16.000000	n/a	2	-1.041667e-01	-1.041667e-01
60.045050	1.299117	dec_nonsocial_choice	1.299117	32.000000	n/a	8	1.888021e-02	1.888021e-02
60.045050	1.299117	dec_choice	1.299117	32.000000	n/a	8	1.692708e-02	1.692708e-02
60.045050	1.299117	dec_nonsocial_accept	1.299117	32.000000	n/a	8	1.888021e-02	1.888021e-02
60.045050	1.299117	dec_accept	1.299117	32.000000	n/a	8	1.692708e-02	1.692708e-02
60.045050	1.299117	dec_nonsocial_high	1.299117	32.000000	n/a	8	1.692708e-02	1.692708e-02
60.045050	1.299117	dec_nonsocial_accept_high	1.299117	32.000000	n/a	8	1.692708e-02	1.692708e-02
66.877150	1.367169	dec_social_choice	1.367169	32.000000	n/a	3	-1.373698e-01	-1.373698e-01
66.877150	1.367169	dec_choice	1.367169	32.000000	n/a	3	-1.354167e-01	-1.354167e-01
66.877150	1.367169	dec_social_accept	1.367169	32.000000	n/a	3	-1.373698e-01	-1.373698e-01
66.877150	1.367169	dec_accept	1.367169	32.000000	n/a	3	-1.354167e-01	-1.354167e-01
66.877150	1.367169	dec_social_accept_low	1.367169	32.000000	n/a	3	-1.354167e-01	-1.354167e-01
76.126900	0.983742	dec_social_choice	0.983742	16.000000	n/a	2	-1.061198e-01	-1.061198e-01
76.126900	0.983742	dec_choice	0.983742	16.000000	n/a	2	-1.041667e-01	-1.041667e-01
76.126900	0.983742	dec_social_accept	0.983742	16.000000	n/a	2	-1.061198e-01	-1.061198e-01
76.126900	0.983742	dec_accept	0.983742	16.000000	n/a	2	-1.041667e-01	-1.041667e-01
76.126900	0.983742	dec_social_accept_low	0.983742	16.000000	n/a	2	-1.041667e-01	-1.041667e-01
85.395004	0.898869	dec_social_choice	0.898869	32.000000	n/a	16	2.688802e-01	2.688802e-01
85.395004	0.898869	dec_choice	0.898869	32.000000	n/a	16	2.708333e-01	2.708333e-01
85.395004	0.898869	dec_social_accept	0.898869	32.000000	n/a	16	2.688802e-01	2.688802e-01
85.395004	0.898869	dec_accept	0.898869	32.000000	n/a	16	2.708333e-01	2.708333e-01
85.395004	0.898869	dec_social_accept_high	0.898869	32.000000	n/a	16	2.708333e-01	2.708333e-01
92.227844	1.349994	dec_nonsocial_choice	1.349994	16.000000	n/a	2	-1.061198e-01	-1.061198e-01
92.227844	1.349994	dec_choice	1.349994	16.000000	n/a	2	-1.080729e-01	-1.080729e-01
92.227844	1.349994	dec_nonsocial_accept	1.349994	16.000000	n/a	2	-1.061198e-01	-1.061198e-01
92.227844	1.349994	dec_accept	1.349994	16.000000	n/a	2	-1.080729e-01	-1.080729e-01
92.227844	1.349994	dec_nonsocial_accept_low	1.349994	16.000000	n/a	2	-1.041667e-01	-1.041667e-01
99.060900	1.500009	dec_social_choice	1.500009	16.000000	n/a	1	-1.686198e-01	-1.686198e-01
99.060900	1.500009	dec_choice	1.500009	16.000000	n/a	1	-1.666667e-01	-1.666667e-01
99.060900	1.500009	dec_social_accept	1.500009	16.000000	n/a	1	-1.686198e-01	-1.686198e-01
99.060900	1.500009	dec_accept	1.500009	16.000000	n/a	1	-1.666667e-01	-1.666667e-01
99.060900	1.500009	dec_social_low	1.500009	16.000000	n/a	1	-1.666667e-01	-1.666667e-01
99.060900	1.500009	dec_social_accept_low	1.500009	16.000000	n/a	1	-1.666667e-01	-1.666667e-01
106.711655	1.132445	dec_social_choice	1.132445	16.000000	n/a	4	1.888021e-02	1.888021e-02
106.711655	1.132445	dec_choice	1.132445	16.000000	n/a	4	2.083333e-02	2.083333e-02
106.711655	1.132445	dec_social_accept	1.132445	16.000000	n/a	4	1.888021e-02	1.888021e-02
106.711655	1.132445	dec_accept	1.132445	16.000000	n/a	4	2.083333e-02	2.083333e-02
106.711655	1.132445	dec_social_accept_high	1.132445	16.000000	n/a	4	2.083333e-02	2.083333e-02
115.960850	0.750149	dec_social_choice	0.750149	16.000000	n/a	2	-1.061198e-01	-1.061198e-01
115.960850	0.750149	dec_choice	0.750149	16.000000	n/a	2	-1.041667e-01	-1.041667e-01
115.960850	0.750149	dec_social_accept	0.750149	16.000000	n/a	2	-1.061198e-01	-1.061198e-01
115.960850	0.750149	dec_accept	0.750149	16.000000	n/a	2	-1.041667e-01	-1.041667e-01
115.960850	0.750149	dec_social_low	0.750149	16.000000	n/a	2	-1.041667e-01	-1.041667e-01
115.960850	0.750149	dec_social_accept_low	0.750149	16.000000	n/a	2	-1.041667e-01	-1.041667e-01
122.793910	1.133536	dec_nonsocial_choice	1.133536	32.000000	n/a	16	2.688802e-01	2.688802e-01
122.793910	1.133536	dec_choice	1.133536	32.000000	n/a	16	2.669271e-01	2.669271e-01
122.793910	1.133536	dec_nonsocial_accept	1.133536	32.000000	n/a	16	2.688802e-01	2.688802e-01
122.793910	1.133536	dec_accept	1.133536	32.000000	n/a	16	2.669271e-01	2.669271e-01
122.793910	1.133536	dec_nonsocial_accept_high	1.133536	32.000000	n/a	16	2.708333e-01	2.708333e-01
129.626860	0.866820	dec_social_choice	0.866820	32.000000	n/a	3	-1.373698e-01	-1.373698e-01
129.626860	0.866820	dec_choice	0.866820	32.000000	n/a	3	-1.354167e-01	-1.354167e-01
129.626860	0.866820	dec_social_accept	0.866820	32.000000	n/a	3	-1.373698e-01	-1.373698e-01
129.626860	0.866820	dec_accept	0.866820	32.000000	n/a	3	-1.354167e-01	-1.354167e-01
129.626860	0.866820	dec_social_accept_low	0.866820	32.000000	n/a	3	-1.354167e-01	-1.354167e-01
136.461260	1.215672	dec_social_choice	1.215672	32.000000	n/a	8	1.888021e-02	1.888021e-02
136.461260	1.215672	dec_choice	1.215672	32.000000	n/a	8	2.083333e-02	2.083333e-02
136.461260	1.215672	dec_social_accept	1.215672	32.000000	n/a	8	1.888021e-02	1.888021e-02
136.461260	1.215672	dec_accept	1.215672	32.000000	n/a	8	2.083333e-02	2.083333e-02
136.461260	1.215672	dec_social_high	1.215672	32.000000	n/a	8	2.083333e-02	2.083333e-02
136.461260	1.215672	dec_social_accept_high	1.215672	32.000000	n/a	8	2.083333e-02	2.083333e-02
143.294830	1.066161	dec_social_choice	1.066161	16.000000	n/a	4	1.888021e-02	1.888021e-02
143.294830	1.066161	dec_choice	1.066161	16.000000	n/a	4	2.083333e-02	2.083333e-02
143.294830	1.066161	dec_social_accept	1.066161	16.000000	n/a	4	1.888021e-02	1.888021e-02
143.294830	1.066161	dec_accept	1.066161	16.000000	n/a	4	2.083333e-02	2.083333e-02
143.294830	1.066161	dec_social_accept_high	1.066161	16.000000	n/a	4	2.083333e-02	2.083333e-02
155.777970	0.865933	dec_nonsocial_choice	0.865933	16.000000	n/a	4	1.888021e-02	1.888021e-02
155.777970	0.865933	dec_choice	0.865933	16.000000	n/a	4	1.692708e-02	1.692708e-02
155.777970	0.865933	dec_nonsocial_accept	0.865933	16.000000	n/a	4	1.888021e-02	1.888021e-02
155.777970	0.865933	dec_accept	0.865933	16.000000	n/a	4	1.692708e-02	1.692708e-02
155.777970	0.865933	dec_nonsocial_high	0.865933	16.000000	n/a	4	1.692708e-02	1.692708e-02
155.777970	0.865933	dec_nonsocial_accept_high	0.865933	16.000000	n/a	4	1.692708e-02	1.692708e-02
163.426960	0.816625	dec_social_choice	0.816625	16.000000	n/a	8	2.688802e-01	2.688802e-01
163.426960	0.816625	dec_choice	0.816625	16.000000	n/a	8	2.708333e-01	2.708333e-01
163.426960	0.816625	dec_social_accept	0.816625	16.000000	n/a	8	2.688802e-01	2.688802e-01
163.426960	0.816625	dec_accept	0.816625	16.000000	n/a	8	2.708333e-01	2.708333e-01
163.426960	0.816625	dec_social_accept_high	0.816625	16.000000	n/a	8	2.708333e-01	2.708333e-01
170.260420	0.683667	dec_social_choice	0.683667	32.000000	n/a	3	-1.373698e-01	-1.373698e-01
170.260420	0.683667	dec_choice	0.683667	32.000000	n/a	3	-1.354167e-01	-1.354167e-01
170.260420	0.683667	dec_social_accept	0.683667	32.000000	n/a	3	-1.373698e-01	-1.373698e-01
170.260420	0.683667	dec_accept	0.683667	32.000000	n/a	3	-1.354167e-01	-1.354167e-01
170.260420	0.683667	dec_social_low	0.683667	32.000000	n/a	3	-1.354167e-01	-1.354167e-01
170.260420	0.683667	dec_social_accept_low	0.683667	32.000000	n/a	3	-1.354167e-01	-1.354167e-01
177.910870	1.165741	dec_nonsocial_choice	1.165741	16.000000	n/a	2	-1.061198e-01	-1.061198e-01
177.910870	1.165741	dec_choice	1.165741	16.000000	n/a	2	-1.080729e-01	-1.080729e-01
177.910870	1.165741	dec_nonsocial_accept	1.165741	16.000000	n/a	2	-1.061198e-01	-1.061198e-01
177.910870	1.165741	dec_accept	1.165741	16.000000	n/a	2	-1.080729e-01	-1.080729e-01
177.910870	1.165741	dec_nonsocial_low	1.165741	16.000000	n/a	2	-1.080729e-01	-1.080729e-01
177.910870	1.165741	dec_nonsocial_accept_low	1.165741	16.000000	n/a	2	-1.080729e-01	-1.080729e-01
184.742900	0.817138	dec_nonsocial_choice	0.817138	16.000000	n/a	4	1.888021e-02	1.888021e-02
184.742900	0.817138	dec_choice	0.817138	16.000000	n/a	4	1.692708e-02	1.692708e-02
184.742900	0.817138	dec_nonsocial_accept	0.817138	16.000000	n/a	4	1.888021e-02	1.888021e-02
184.742900	0.817138	dec_accept	0.817138	16.000000	n/a	4	1.692708e-02	1.692708e-02
184.742900	0.817138	dec_nonsocial_accept_high	0.817138	16.000000	n/a	4	2.083333e-02	2.083333e-02
192.393780	0.533716	dec_nonsocial_choice	0.533716	16.000000	n/a	1	-1.686198e-01	-1.686198e-01
192.393780	0.533716	dec_choice	0.533716	16.000000	n/a	1	-1.705729e-01	-1.705729e-01
192.393780	0.533716	dec_nonsocial_accept	0.533716	16.000000	n/a	1	-1.686198e-01	-1.686198e-01
192.393780	0.533716	dec_accept	0.533716	16.000000	n/a	1	-1.705729e-01	-1.705729e-01
192.393780	0.533716	dec_nonsocial_low	0.533716	16.000000	n/a	1	-1.705729e-01	-1.705729e-01
192.393780	0.533716	dec_nonsocial_accept_low	0.533716	16.000000	n/a	1	-1.705729e-01	-1.705729e-01
200.043870	0.466156	dec_social_choice	0.466156	32.000000	n/a	2	-1.686198e-01	-1.686198e-01
200.043870	0.466156	dec_choice	0.466156	32.000000	n/a	2	-1.666667e-01	-1.666667e-01
200.043870	0.466156	dec_social_accept	0.466156	32.000000	n/a	2	-1.686198e-01	-1.686198e-01
200.043870	0.466156	dec_accept	0.466156	32.000000	n/a	2	-1.666667e-01	-1.666667e-01
200.043870	0.466156	dec_social_low	0.466156	32.000000	n/a	2	-1.666667e-01	-1.666667e-01
200.043870	0.466156	dec_social_accept_low	0.466156	32.000000	n/a	2	-1.666667e-01	-1.666667e-01
207.694760	0.949277	dec_nonsocial_choice	0.949277	16.000000	n/a	8	2.688802e-01	2.688802e-01
207.694760	0.949277	dec_choice	0.949277	16.000000	n/a	8	2.669271e-01	2.669271e-01
207.694760	0.949277	dec_nonsocial_accept	0.949277	16.000000	n/a	8	2.688802e-01	2.688802e-01
207.694760	0.949277	dec_accept	0.949277	16.000000	n/a	8	2.669271e-01	2.669271e-01
207.694760	0.949277	dec_nonsocial_accept_high	0.949277	16.000000	n/a	8	2.708333e-01	2.708333e-01
216.960770	0.699962	dec_nonsocial_choice	0.699962	16.000000	n/a	8	2.688802e-01	2.688802e-01
216.960770	0.699962	dec_choice	0.699962	16.000000	n/a	8	2.669271e-01	2.669271e-01
216.960770	0.699962	dec_nonsocial_accept	0.699962	16.000000	n/a	8	2.688802e-01	2.688802e-01
216.960770	0.699962	dec_accept	0.699962	16.000000	n/a	8	2.669271e-01	2.669271e-01
216.960770	0.699962	dec_nonsocial_high	0.699962	16.000000	n/a	8	2.669271e-01	2.669271e-01
216.960770	0.699962	dec_nonsocial_accept_high	0.699962	16.000000	n/a	8	2.669271e-01	2.669271e-01
223.793750	0.900184	dec_social_choice	0.900184	32.000000	n/a	2	-1.686198e-01	-1.686198e-01
223.793750	0.900184	dec_choice	0.900184	32.000000	n/a	2	-1.666667e-01	-1.666667e-01
223.793750	0.900184	dec_social_accept	0.900184	32.000000	n/a	2	-1.686198e-01	-1.686198e-01
223.793750	0.900184	dec_accept	0.900184	32.000000	n/a	2	-1.666667e-01	-1.666667e-01
223.793750	0.900184	dec_social_accept_low	0.900184	32.000000	n/a	2	-1.666667e-01	-1.666667e-01
230.627150	0.633492	dec_social_choice	0.633492	32.000000	n/a	2	-1.686198e-01	-1.686198e-01
230.627150	0.633492	dec_choice	0.633492	32.000000	n/a	2	-1.666667e-01	-1.666667e-01
230.627150	0.633492	dec_social_accept	0.633492	32.000000	n/a	2	-1.686198e-01	-1.686198e-01
230.627150	0.633492	dec_accept	0.633492	32.000000	n/a	2	-1.666667e-01	-1.666667e-01
230.627150	0.633492	dec_social_low	0.633492	32.000000	n/a	2	-1.666667e-01	-1.666667e-01
230.627150	0.633492	dec_social_accept_low	0.633492	32.000000	n/a	2	-1.666667e-01	-1.666667e-01
237.460360	0.550388	dec_nonsocial_choice	0.550388	32.000000	n/a	8	1.888021e-02	1.888021e-02
237.460360	0.550388	dec_choice	0.550388	32.000000	n/a	8	1.692708e-02	1.692708e-02
237.460360	0.550388	dec_nonsocial_accept	0.550388	32.000000	n/a	8	1.888021e-02	1.888021e-02
237.460360	0.550388	dec_accept	0.550388	32.000000	n/a	8	1.692708e-02	1.692708e-02
237.460360	0.550388	dec_nonsocial_high	0.550388	32.000000	n/a	8	1.692708e-02	1.692708e-02
237.460360	0.550388	dec_nonsocial_accept_high	0.550388	32.000000	n/a	8	1.692708e-02	1.692708e-02
244.293720	0.583353	dec_social_choice	0.583353	32.000000	n/a	3	-1.373698e-01	-1.373698e-01
244.293720	0.583353	dec_choice	0.583353	32.000000	n/a	3	-1.354167e-01	-1.354167e-01
244.293720	0.583353	dec_social_accept	0.583353	32.000000	n/a	3	-1.373698e-01	-1.373698e-01
244.293720	0.583353	dec_accept	0.583353	32.000000	n/a	3	-1.354167e-01	-1.354167e-01
244.293720	0.583353	dec_social_low	0.583353	32.000000	n/a	3	-1.354167e-01	-1.354167e-01
244.293720	0.583353	dec_social_accept_low	0.583353	32.000000	n/a	3	-1.354167e-01	-1.354167e-01
251.126860	0.550221	dec_nonsocial_choice	0.550221	16.000000	n/a	1	-1.686198e-01	-1.686198e-01
251.126860	0.550221	dec_choice	0.550221	16.000000	n/a	1	-1.705729e-01	-1.705729e-01
251.126860	0.550221	dec_nonsocial_accept	0.550221	16.000000	n/a	1	-1.686198e-01	-1.686198e-01
251.126860	0.550221	dec_accept	0.550221	16.000000	n/a	1	-1.705729e-01	-1.705729e-01
251.126860	0.550221	dec_nonsocial_low	0.550221	16.000000	n/a	1	-1.705729e-01	-1.705729e-01
251.126860	0.550221	dec_nonsocial_accept_low	0.550221	16.000000	n/a	1	-1.705729e-01	-1.705729e-01
258.760620	1.133143	dec_social_choice	1.133143	16.000000	n/a	4	1.888021e-02	1.888021e-02
258.760620	1.133143	dec_choice	1.133143	16.000000	n/a	4	2.083333e-02	2.083333e-02
258.760620	1.133143	dec_social_accept	1.133143	16.000000	n/a	4	1.888021e-02	1.888021e-02
258.760620	1.133143	dec_accept	1.133143	16.000000	n/a	4	2.083333e-02	2.083333e-02
258.760620	1.133143	dec_social_high	1.133143	16.000000	n/a	4	2.083333e-02	2.083333e-02
258.760620	1.133143	dec_social_accept_high	1.133143	16.000000	n/a	4	2.083333e-02	2.083333e-02
265.593780	1.115993	dec_nonsocial_choice	1.115993	16.000000	n/a	2	-1.061198e-01	-1.061198e-01
265.593780	1.115993	dec_choice	1.115993	16.000000	n/a	2	-1.080729e-01	-1.080729e-01
265.593780	1.115993	dec_nonsocial_accept	1.115993	16.000000	n/a	2	-1.061198e-01	-1.061198e-01
265.593780	1.115993	dec_accept	1.115993	16.000000	n/a	2	-1.080729e-01	-1.080729e-01
265.593780	1.115993	dec_nonsocial_low	1.115993	16.000000	n/a	2	-1.080729e-01	-1.080729e-01
265.593780	1.115993	dec_nonsocial_accept_low	1.115993	16.000000	n/a	2	-1.080729e-01	-1.080729e-01
273.243740	1.216113	dec_nonsocial_choice	1.216113	32.000000	n/a	8	1.888021e-02	1.888021e-02
273.243740	1.216113	dec_choice	1.216113	32.000000	n/a	8	1.692708e-02	1.692708e-02
273.243740	1.216113	dec_nonsocial_accept	1.216113	32.000000	n/a	8	1.888021e-02	1.888021e-02
273.243740	1.216113	dec_accept	1.216113	32.000000	n/a	8	1.692708e-02	1.692708e-02
273.243740	1.216113	dec_nonsocial_accept_high	1.216113	32.000000	n/a	8	2.083333e-02	2.083333e-02
280.076630	1.400714	dec_nonsocial_choice	1.400714	16.000000	n/a	1	-1.686198e-01	-1.686198e-01
280.076630	1.400714	dec_choice	1.400714	16.000000	n/a	1	-1.705729e-01	-1.705729e-01
280.076630	1.400714	dec_nonsocial_accept	1.400714	16.000000	n/a	1	-1.686198e-01	-1.686198e-01
280.076630	1.400714	dec_accept	1.400714	16.000000	n/a	1	-1.705729e-01	-1.705729e-01
280.076630	1.400714	dec_nonsocial_accept_low	1.400714	16.000000	n/a	1	-1.666667e-01	-1.666667e-01
286.909670	1.250572	dec_nonsocial_choice	1.250572	32.000000	n/a	8	1.888021e-02	1.888021e-02
286.909670	1.250572	dec_choice	1.250572	32.000000	n/a	8	1.692708e-02	1.692708e-02
286.909670	1.250572	dec_nonsocial_accept	1.250572	32.000000	n/a	8	1.888021e-02	1.888021e-02
286.909670	1.250572	dec_accept	1.250572	32.000000	n/a	8	1.692708e-02	1.692708e-02
286.909670	1.250572	dec_nonsocial_high	1.250572	32.000000	n/a	8	1.692708e-02	1.692708e-02
286.909670	1.250572	dec_nonsocial_accept_high	1.250572	32.000000	n/a	8	1.692708e-02	1.692708e-02
294.560330	0.966107	dec_nonsocial_choice	0.966107	16.000000	n/a	1	-1.686198e-01	-1.686198e-01
294.560330	0.966107	dec_choice	0.966107	16.000000	n/a	1	-1.705729e-01	-1.705729e-01
294.560330	0.966107	dec_nonsocial_accept	0.966107	16.000000	n/a	1	-1.686198e-01	-1.686198e-01
294.560330	0.966107	dec_accept	0.966107	16.000000	n/a	1	-1.705729e-01	-1.705729e-01
294.560330	0.966107	dec_nonsocial_accept_low	0.966107	16.000000	n/a	1	-1.666667e-01	-1.666667e-01
303.827600	1.782776	dec_nonsocial_choice	1.782776	32.000000	n/a	16	2.688802e-01	2.688802e-01
303.827600	1.782776	dec_choice	1.782776	32.000000	n/a	16	2.669271e-01	2.669271e-01
303.827600	1.782776	dec_nonsocial_accept	1.782776	32.000000	n/a	16	2.688802e-01	2.688802e-01
303.827600	1.782776	dec_accept	1.782776	32.000000	n/a	16	2.669271e-01	2.669271e-01
303.827600	1.782776	dec_nonsocial_high	1.782776	32.000000	n/a	16	2.669271e-01	2.669271e-01
303.827600	1.782776	dec_nonsocial_accept_high	1.782776	32.000000	n/a	16	2.669271e-01	2.669271e-01
313.094240	1.299441	dec_nonsocial_choice	1.299441	16.000000	n/a	1	-1.686198e-01	-1.686198e-01
313.094240	1.299441	dec_choice	1.299441	16.000000	n/a	1	-1.705729e-01	-1.705729e-01
313.094240	1.299441	dec_nonsocial_accept	1.299441	16.000000	n/a	1	-1.686198e-01	-1.686198e-01
313.094240	1.299441	dec_accept	1.299441	16.000000	n/a	1	-1.705729e-01	-1.705729e-01
313.094240	1.299441	dec_nonsocial_low	1.299441	16.000000	n/a	1	-1.705729e-01	-1.705729e-01
313.094240	1.299441	dec_nonsocial_accept_low	1.299441	16.000000	n/a	1	-1.705729e-01	-1.705729e-01
323.960400	1.149635	dec_nonsocial_choice	1.149635	16.000000	n/a	2	-1.061198e-01	-1.061198e-01
323.960400	1.149635	dec_choice	1.149635	16.000000	n/a	2	-1.080729e-01	-1.080729e-01
323.960400	1.149635	dec_nonsocial_accept	1.149635	16.000000	n/a	2	-1.061198e-01	-1.061198e-01
323.960400	1.149635	dec_accept	1.149635	16.000000	n/a	2	-1.080729e-01	-1.080729e-01
323.960400	1.149635	dec_nonsocial_accept_low	1.149635	16.000000	n/a	2	-1.041667e-01	-1.041667e-01
334.826600	1.349907	dec_social_choice	1.349907	16.000000	n/a	1	-1.686198e-01	-1.686198e-01
334.826600	1.349907	dec_choice	1.349907	16.000000	n/a	1	-1.666667e-01	-1.666667e-01
334.826600	1.349907	dec_social_accept	1.349907	16.000000	n/a	1	-1.686198e-01	-1.686198e-01
334.826600	1.349907	dec_accept	1.349907	16.000000	n/a	1	-1.666667e-01	-1.666667e-01
334.826600	1.349907	dec_social_accept_low	1.349907	16.000000	n/a	1	-1.666667e-01	-1.666667e-01
341.659520	1.334041	dec_nonsocial_choice	1.334041	16.000000	n/a	8	2.688802e-01	2.688802e-01
341.659520	1.334041	dec_choice	1.334041	16.000000	n/a	8	2.669271e-01	2.669271e-01
341.659520	1.334041	dec_nonsocial_accept	1.334041	16.000000	n/a	8	2.688802e-01	2.688802e-01
341.659520	1.334041	dec_accept	1.334041	16.000000	n/a	8	2.669271e-01	2.669271e-01
341.659520	1.334041	dec_nonsocial_high	1.334041	16.000000	n/a	8	2.669271e-01	2.669271e-01
341.659520	1.334041	dec_nonsocial_accept_high	1.334041	16.000000	n/a	8	2.669271e-01	2.669271e-01
348.492650	0.833755	dec_social_choice	0.833755	16.000000	n/a	8	2.688802e-01	2.688802e-01
348.492650	0.833755	dec_choice	0.833755	16.000000	n/a	8	2.708333e-01	2.708333e-01
348.492650	0.833755	dec_social_accept	0.833755	16.000000	n/a	8	2.688802e-01	2.688802e-01
348.492650	0.833755	dec_accept	0.833755	16.000000	n/a	8	2.708333e-01	2.708333e-01
348.492650	0.833755	dec_social_accept_high	0.833755	16.000000	n/a	8	2.708333e-01	2.708333e-01
359.360320	1.333030	dec_social_choice	1.333030	32.000000	n/a	8	1.888021e-02	1.888021e-02
359.360320	1.333030	dec_choice	1.333030	32.000000	n/a	8	2.083333e-02	2.083333e-02
359.360320	1.333030	dec_social_accept	1.333030	32.000000	n/a	8	1.888021e-02	1.888021e-02
359.360320	1.333030	dec_accept	1.333030	32.000000	n/a	8	2.083333e-02	2.083333e-02
359.360320	1.333030	dec_social_accept_high	1.333030	32.000000	n/a	8	2.083333e-02	2.083333e-02
366.192900	0.933909	dec_nonsocial_choice	0.933909	32.000000	n/a	2	-1.686198e-01	-1.686198e-01
366.192900	0.933909	dec_choice	0.933909	32.000000	n/a	2	-1.705729e-01	-1.705729e-01
366.192900	0.933909	dec_nonsocial_accept	0.933909	32.000000	n/a	2	-1.686198e-01	-1.686198e-01
366.192900	0.933909	dec_accept	0.933909	32.000000	n/a	2	-1.705729e-01	-1.705729e-01
366.192900	0.933909	dec_nonsocial_accept_low	0.933909	32.000000	n/a	2	-1.666667e-01	-1.666667e-01
373.027300	0.965644	dec_nonsocial_choice	0.965644	32.000000	n/a	3	-1.373698e-01	-1.373698e-01
373.027300	0.965644	dec_choice	0.965644	32.000000	n/a	3	-1.393229e-01	-1.393229e-01
373.027300	0.965644	dec_nonsocial_accept	0.965644	32.000000	n/a	3	-1.373698e-01	-1.373698e-01
373.027300	0.965644	dec_accept	0.965644	32.000000	n/a	3	-1.393229e-01	-1.393229e-01
373.027300	0.965644	dec_nonsocial_low	0.965644	32.000000	n/a	3	-1.393229e-01	-1.393229e-01
373.027300	0.965644	dec_nonsocial_accept_low	0.965644	32.000000	n/a	3	-1.393229e-01	-1.393229e-01
