TrialNumber,Trialn,TrialType,Partner,Feedback,ITI,ISI,ran,order,studyStart,InitFixOnset,decision_onset,resp,resp_onset,rt,ISI_onset,isi_for_trial,ISI_offset,outcome_val,outcome_onset,outcome_offset,trialDuration,ITIonset,ITIoffset,final_fix_offset
1,1,7,3,1,2.422500e+00,8.075000e-01,1.0,0.0,2.5001355e-06,0.009744899,4.0433493,2.0,5.5918155,1.5484664,5.6922383,1.9590336,7.6529016,1.0,7.653052,8.260704,4.217355,8.260889,10.686941,--
2,2,1,1,1,8.075000e-01,2.422500e+00,1.0,1.0,--,--,10.692627,2.0,11.523327,0.8306996,11.6237,4.2918005,15.916967,2.0,15.917081,16.522072,5.829445,16.522219,17.331732,--
3,3,9,3,3,8.075000e-01,8.075000e-01,1.0,2.0,--,--,17.351807,2.0,18.390202,1.0383953,18.49056,2.4691048,20.96308,7.0,20.963194,21.56984,4.218034,21.569988,22.379885,--
4,4,6,2,3,8.075000e-01,1.615000e+00,1.0,3.0,--,--,22.392372,1.0,23.440144,1.0477726,23.54054,3.2672274,26.81014,3.0,26.810257,27.414768,5.0223956,27.414917,28.224699,--
5,5,6,2,3,2.422500e+00,1.615000e+00,1.0,4.0,--,--,28.235285,1.0,28.973475,0.7381901,29.073833,3.57681,32.653244,1.0,32.653362,33.25744,5.022155,33.25759,35.682266,--
6,6,1,1,1,4.037500e+00,1.615000e+00,1.0,5.0,--,--,35.685677,1.0,36.30834,0.6226629,36.40875,3.692337,40.10284,7.0,40.102955,40.707493,5.0218167,40.707645,44.74707,--
7,7,7,3,1,8.075000e-01,1.615000e+00,1.0,6.0,--,--,44.76578,2.0,46.62325,1.8574677,46.723606,2.4575324,49.182487,3.0,49.18261,49.78607,5.0202894,49.78622,50.5955,--
8,8,4,2,1,2.422500e+00,8.075000e-01,1.0,7.0,--,--,50.606865,2.0,51.640766,1.0339044,51.741142,2.4735956,54.216785,4.0,54.216904,54.821873,4.2150106,54.82202,57.24704,--
9,9,6,2,3,4.037500e+00,1.615000e+00,1.0,8.0,--,--,57.25755,2.0,57.88991,0.6323616,57.99031,3.6826384,61.674988,7.0,61.675102,62.279926,5.0223775,62.28007,66.32027,--
10,10,1,1,1,8.075000e-01,8.075000e-01,1.0,9.0,--,--,66.32356,0.0,69.10222,2.7786539,69.20258,0.7288461,69.9327,999.0,69.932816,70.53789,4.214324,70.53804,71.348854,--
11,11,4,2,1,8.075000e-01,8.075000e-01,1.0,10.0,--,--,71.360405,2.0,72.40643,1.0460268,72.50683,2.4614732,74.97028,2.0,74.9704,75.57485,4.21445,75.575005,76.38452,--
12,12,9,3,3,8.075000e-01,8.075000e-01,1.0,11.0,--,--,76.403275,2.0,77.43991,1.0366355,77.5403,2.4708645,80.01278,6.0,80.0129,80.61888,4.2156076,80.61904,81.42847,--
13,13,7,3,1,8.075000e-01,1.615000e+00,1.0,12.0,--,--,81.44546,1.0,82.173134,0.7276777,82.273476,3.5873222,85.86291,6.0,85.86302,86.467964,5.022512,86.46812,87.27832,--
14,14,8,3,2,4.037500e+00,8.075000e-01,1.0,13.0,--,--,87.29506,1.0,88.02313,0.7280736,88.12348,2.7794263,90.90565,5.0,90.90577,91.51187,4.2168126,91.51203,95.55172,--
15,15,3,1,3,4.037500e+00,1.615000e+00,1.0,14.0,--,--,95.55512,2.0,96.28994,0.7348156,96.390305,3.5801845,99.97285,6.0,99.97296,100.57766,5.02253,100.577805,104.617645,--
16,16,3,1,3,8.075000e-01,1.615000e+00,1.0,15.0,--,--,104.61951,2.0,106.68976,2.0702553,106.790146,2.2447448,109.03652,8.0,109.03664,109.64129,5.021781,109.64143,110.45059,--
17,17,4,2,1,2.422500e+00,8.075000e-01,1.0,16.0,--,--,110.46246,1.0,111.28998,0.827518,111.39036,2.679982,114.07161,7.0,114.071724,114.677376,4.2149124,114.67754,117.101845,--
18,18,7,3,1,8.075000e-01,8.075000e-01,1.0,17.0,--,--,117.12066,2.0,117.85641,0.7357517,117.95677,2.7717483,120.730515,2.0,120.73065,121.33473,4.2140727,121.33488,122.1445,--
19,19,1,1,1,2.422500e+00,2.422500e+00,1.0,18.0,--,--,122.14833,1.0,123.60641,1.4580708,123.70677,3.6644292,127.373505,9.0,127.37363,127.97858,5.830241,127.97872,130.40384,--
20,20,6,2,3,8.075000e-01,2.422500e+00,1.0,19.0,--,--,130.41513,2.0,131.03943,0.624302,131.13979,4.498198,135.6404,7.0,135.64053,136.24577,5.8306437,136.24591,137.05574,--
21,21,6,2,3,2.422500e+00,8.075000e-01,1.0,20.0,--,--,137.06664,1.0,137.9062,0.839569,138.00658,2.667931,140.67569,4.0,140.6758,141.2805,4.213877,141.28067,143.7049,--
22,22,6,2,3,8.075000e-01,1.615000e+00,1.0,21.0,--,--,143.71532,1.0,144.33939,0.6240636,144.43976,3.6909363,148.13162,2.0,148.13173,148.73529,5.019972,148.73544,149.54556,--
23,23,9,3,3,5.652500e+00,1.615000e+00,1.0,22.0,--,--,149.5645,2.0,150.2897,0.7252023,150.39005,3.5897977,153.98111,7.0,153.98123,154.58476,5.0202556,154.5849,160.23965,--
24,24,6,2,3,8.075000e-01,2.422500e+00,1.0,23.0,--,--,160.25093,1.0,160.88953,0.6385988,160.98988,4.483901,165.47556,3.0,165.47568,166.07977,5.82884,166.07993,166.88997,--
25,25,9,3,3,8.075000e-01,2.422500e+00,1.0,24.0,--,--,166.90852,2.0,169.18973,2.281205,169.29013,2.841295,172.13455,8.0,172.13466,172.73828,5.829762,172.73846,173.54791,--
26,26,7,3,1,8.075000e-01,1.615000e+00,1.0,25.0,--,--,173.565,2.0,174.92302,1.3580147,175.02342,2.9569852,177.98242,1.0,177.98253,178.5882,5.0231915,178.58835,179.39816,--
27,27,2,1,2,2.422500e+00,8.075000e-01,1.0,26.0,--,--,179.40164,2.0,180.95618,1.5545315,181.05653,1.9529685,183.01123,5.0,183.01134,183.61577,4.2141175,183.61592,186.04016,--
28,28,1,1,1,8.075000e-01,8.075000e-01,1.0,27.0,--,--,186.04198,1.0,187.90614,1.8641615,188.00656,1.6433384,189.65201,6.0,189.65213,190.25757,4.2155967,190.25772,191.06676,--
29,29,4,2,1,4.037500e+00,1.615000e+00,1.0,28.0,--,--,191.07777,1.0,192.1229,1.0451221,192.22325,3.269878,195.4947,9.0,195.49483,196.09978,5.0220103,196.09993,200.13947,--
30,30,3,1,3,8.075000e-01,1.615000e+00,1.0,29.0,--,--,200.14241,1.0,200.97273,0.8303325,201.07307,3.4846675,204.56021,1.0,204.56032,205.16515,5.0227466,205.16531,205.97447,--
31,31,4,2,1,5.652500e+00,8.075000e-01,1.0,30.0,--,--,205.98581,0.0,208.76503,2.779217,208.86539,0.728283,209.59581,999.0,209.59593,210.19943,4.21363,210.19958,215.85458,--
32,32,9,3,3,8.075000e-01,2.422500e+00,1.0,31.0,--,--,215.87335,2.0,216.60612,0.7327805,216.70648,4.3897195,221.09787,7.0,221.09798,221.70297,5.82962,221.70312,222.51305,--
33,33,3,1,3,7.267500e+00,2.422500e+00,1.0,32.0,--,--,222.51636,2.0,223.97275,1.456394,224.07309,3.666106,227.74153,7.0,227.74164,228.34535,5.8289986,228.3455,235.61555,--
34,34,4,2,1,8.075000e-01,2.422500e+00,1.0,33.0,--,--,235.62665,1.0,236.15594,0.5292982,236.2563,4.5932016,240.85214,9.0,240.85226,241.45732,5.8306656,241.45746,242.26753,--
35,35,7,3,1,2.422500e+00,2.422500e+00,1.0,34.0,--,--,242.28627,1.0,245.07246,2.7861829,245.17284,2.336317,247.5115,6.0,247.51163,248.11554,5.8292637,248.11569,250.53998,--
36,36,9,3,3,8.075000e-01,8.075000e-01,1.0,35.0,--,--,250.55688,2.0,251.59073,1.0338391,251.6911,2.473661,254.16655,8.0,254.16667,254.7713,4.214402,254.77144,255.58055,--
37,37,3,1,3,2.422500e+00,2.422500e+00,1.0,36.0,--,--,255.58415,0.0,258.36252,2.7783704,258.46292,2.3441296,260.80957,999.0,260.80966,261.41373,5.829577,261.41388,263.83835,--
38,38,1,1,1,2.422500e+00,8.075000e-01,1.0,37.0,--,--,263.84018,1.0,265.18918,1.3490021,265.28955,2.1584978,267.45032,6.0,267.45044,268.0556,4.2154326,268.05576,270.48032,--
39,39,3,1,3,4.037500e+00,2.422500e+00,1.0,38.0,--,--,270.48218,2.0,271.3227,0.8405068,271.42303,4.2819934,275.70654,7.0,275.70667,276.31253,5.830363,276.31268,280.35196,--
40,40,7,3,1,2.422500e+00,1.615000e+00,1.0,39.0,--,--,280.37003,1.0,280.88995,0.5199293,280.9903,3.7950706,284.78748,6.0,284.7876,285.39398,5.0239596,285.39413,287.8189,--
41,41,2,1,2,8.075000e-01,1.615000e+00,1.0,40.0,--,--,287.82184,0.0,290.60022,2.778373,290.70065,1.5366269,292.23853,999.0,292.23865,292.84247,5.020619,292.84262,293.65344,--
42,42,1,1,1,8.882500e+00,2.422500e+00,1.0,41.0,--,--,293.65576,1.0,294.3891,0.733366,294.48947,4.389134,298.8811,8.0,298.88123,299.48663,5.8309007,299.4868,308.37122,--
43,43,5,2,2,8.075000e-01,8.075000e-01,1.0,42.0,--,--,308.38248,2.0,309.12225,0.7397783,309.2226,2.7677217,311.99146,5.0,311.99158,312.5966,4.2141347,312.59674,313.4064,--
44,44,5,2,2,2.422500e+00,2.422500e+00,1.0,43.0,--,--,313.4168,1.0,314.15573,0.7389218,314.2561,4.3835783,318.6426,5.0,318.64273,319.24744,5.8306055,319.2476,321.67233,--
45,45,6,2,3,8.075000e-01,1.615000e+00,1.0,44.0,--,--,321.6826,0.0,324.4614,2.7787943,324.56177,1.5362058,326.1007,999.0,326.10083,326.70413,5.02154,326.70428,327.51523,--
46,46,3,1,3,8.075000e-01,1.615000e+00,1.0,45.0,--,--,327.51868,0.0,330.29697,2.7782676,330.3973,1.5367324,331.93582,999.0,331.93594,332.5385,5.019839,332.53867,333.34842,--
47,47,9,3,3,5.652500e+00,2.422500e+00,1.0,46.0,--,--,333.3674,2.0,334.10532,0.7379061,334.2057,4.384594,338.5924,7.0,338.59253,339.20322,5.835814,339.20337,344.85843,--
48,48,1,1,1,5.652500e+00,1.615000e+00,1.0,47.0,--,--,344.86145,1.0,345.5887,0.7272584,345.68906,3.5877416,349.27844,8.0,349.27853,349.88306,5.0215974,349.8832,355.53748,--
49,49,8,3,2,8.075000e-01,8.075000e-01,1.0,48.0,--,--,355.5553,2.0,356.3887,0.8334177,356.48907,2.6740823,359.1652,5.0,359.1653,359.76974,4.2144537,359.7699,360.58038,--
50,50,9,3,3,8.075000e-01,2.422500e+00,1.0,49.0,--,--,360.59723,2.0,361.73886,1.1416231,361.83923,3.980877,365.82202,7.0,365.82214,366.42752,5.8302746,366.42767,367.2371,--
51,51,3,1,3,8.075000e-01,8.075000e-01,1.0,50.0,--,--,367.24002,0.0,370.02002,2.7800162,370.12042,0.7274838,370.85052,999.0,370.85065,371.45462,4.214615,371.4548,372.26416,--
52,52,4,2,1,4.037500e+00,2.422500e+00,1.0,51.0,--,--,372.2754,1.0,373.62192,1.34655,373.7223,3.77595,377.50085,6.0,377.50095,378.10614,5.8307605,378.1063,382.14615,--
53,53,4,2,1,7.267500e+00,2.422500e+00,1.0,52.0,--,--,382.15668,1.0,382.88876,0.732087,382.98914,4.390413,387.38144,9.0,387.38156,387.98645,5.8297596,387.98657,395.25607,--
54,54,7,3,1,2.422500e+00,2.422500e+00,1.0,53.0,--,--,395.27505,2.0,395.90546,0.6303848,396.0058,4.492115,400.50027,4.0,400.5004,401.1046,5.8295374,401.10474,403.52902,412.00128
