instrText,stimDoor,stimDoorLure,stimFace,stimFaceLure,Instructions.thisRepN,Instructions.thisTrialN,Instructions.thisN,Instructions.thisIndex,Trials.thisRepN,Trials.thisTrialN,Trials.thisN,Trials.thisIndex,Func,Keys,Text,RespTime,Onset,Offset,SystemTime_Start,SystemTime_Stop,Stim,Lure,Participant*,Age,date,expName,psychopyVersion,frameRate,
"In the earlier Feedback Games, you chose which doors contained a prize, and which peers liked you. 

You then saw positive or negative feedback (green check mark or red X) from the door or peer you selected.

You will now see a series of doors and peers, some of which you saw during the earlier Feedback Games, and some that you have never seen before.

Please press the spacebar to continue.",,,,,0,0,0,0,,,,,instrFunc,space,"In the earlier Feedback Games, you chose which doors contained a prize, and which peers liked you. 

You then saw positive or negative feedback (green check mark or red X) from the door or peer you selected.

You will now see a series of doors and peers, some of which you saw during the earlier Feedback Games, and some that you have never seen before.

Please press the spacebar to continue.",1.0003295000642538,12.412364500109106,13.523378629703075,2023-03-19 14:58:34.442125,2023-03-19 14:58:35.550898,,,10606,18-29,2023_Mar_19_1458,Recall,2021.2.3,59.81015058090845,
"For doors/peers that you remember selecting and getting feedback from, your job is to RECALL what feedback you received. 

Press '1' if you recall positive feedback. 

Press '2' if you recall negative feedback

Press the spacebar to continue.",,,,,0,1,1,1,,,,,instrFunc,space,"For doors/peers that you remember selecting and getting feedback from, your job is to RECALL what feedback you received. 

Press '1' if you recall positive feedback. 

Press '2' if you recall negative feedback

Press the spacebar to continue.",0.2555185998789966,13.461075700353831,13.784985390957445,2023-03-19 14:58:35.552710,2023-03-19 14:58:35.866541,,,10606,18-29,2023_Mar_19_1458,Recall,2021.2.3,59.81015058090845,
"For doors/peers that you don't remember getting feedback from, your job is to PREDICT what feedback you WOULD HAVE received.

Press '9' if you predict positive feedback.

Press '0' if you predict negative feedback. 

Please press the spacebar to continue.",,,,,0,2,2,2,,,,,instrFunc,space,"For doors/peers that you don't remember getting feedback from, your job is to PREDICT what feedback you WOULD HAVE received.

Press '9' if you predict positive feedback.

Press '0' if you predict negative feedback. 

Please press the spacebar to continue.",0.3098907000385225,13.774603500030935,14.148439290001988,2023-03-19 14:58:35.868374,2023-03-19 14:58:36.232711,,,10606,18-29,2023_Mar_19_1458,Recall,2021.2.3,59.81015058090845,
"This task is self-paced, and the prompts will always stay on the screen so that you know which buttons to press.

On the next screen we will show you what those prompts look like, so that you know exactly what to expect. 

You will start with either doors or peers, and then switch halfway through. 

Please press the spacebar to continue.",,,,,0,3,3,3,,,,,instrFunc,space,"This task is self-paced, and the prompts will always stay on the screen so that you know which buttons to press.

On the next screen we will show you what those prompts look like, so that you know exactly what to expect. 

You will start with either doors or peers, and then switch halfway through. 

Please press the spacebar to continue.",0.433113900013268,14.131384700071067,14.623735890258104,2023-03-19 14:58:36.234709,2023-03-19 14:58:36.716487,,,10606,18-29,2023_Mar_19_1458,Recall,2021.2.3,59.81015058090845,
,,,,,,,,,,,,,imgtextFunc,space,"Here is what the screen will look like while you make your ratings.
The green circles remind you to press 1 or 9 for positive feedback.
The red circles remind you to press 2 or 0 for positive feedback.









Please let the experimenter know if you have any questions.

Whenever you're ready, press the spacebar to start the task.",1.060289700049907,14.816013799980283,16.117841580417007,2023-03-19 14:58:36.729432,2023-03-19 14:58:38.016687,,,10606,18-29,2023_Mar_19_1458,Recall,2021.2.3,59.81015058090845,
,DD010.jpg,0,FF010.jpg,0,,,,,0,0,0,9,imgFunc,9,NA,8.50923869991675,16.10306140035391,24.79021846037358,2023-03-19 14:58:38.069360,2023-03-19 14:58:46.749103,DD010.jpg,0,10606,18-29,2023_Mar_19_1458,Recall,2021.2.3,59.81015058090845,
,SD011.jpg,0,MF011.jpg,0,,,,,0,1,1,60,imgFunc,9,NA,3.065046400297433,24.74747780011967,27.96129458025098,2023-03-19 14:58:46.764075,2023-03-19 14:58:49.966031,SD011.jpg,0,10606,18-29,2023_Mar_19_1458,Recall,2021.2.3,59.81015058090845,
,SD028.jpg,0,MF028.jpg,0,,,,,0,2,2,77,imgFunc,0,NA,3.8811877998523414,27.963219200260937,31.966341590043157,2023-03-19 14:58:49.976831,2023-03-19 14:58:53.981029,SD028.jpg,0,10606,18-29,2023_Mar_19_1458,Recall,2021.2.3,59.81015058090845,
,SD016.jpg,0,MF016.jpg,0,,,,,0,3,3,65,imgFunc,9,NA,4.07748410012573,31.975096000358462,36.18199539044872,2023-03-19 14:58:53.991025,2023-03-19 14:58:58.198192,SD016.jpg,0,10606,18-29,2023_Mar_19_1458,Recall,2021.2.3,59.81015058090845,
,DD037.jpg,0,FF037.jpg,0,,,,,0,4,4,36,imgFunc,0,NA,1.6145764999091625,36.181959100067616,37.91937609016895,2023-03-19 14:58:58.209002,2023-03-19 14:58:59.947205,DD037.jpg,0,10606,18-29,2023_Mar_19_1458,Recall,2021.2.3,59.81015058090845,
,DD034.jpg,0,FF034.jpg,0,,,,,0,5,5,33,imgFunc,9,NA,2.662902900017798,37.933694700244814,40.72421899018809,2023-03-19 14:58:59.958009,2023-03-19 14:59:02.747275,DD034.jpg,0,10606,18-29,2023_Mar_19_1458,Recall,2021.2.3,59.81015058090845,
,DD020.jpg,0,FF020.jpg,0,,,,,0,6,6,19,imgFunc,0,NA,2.358785000164062,40.73368970025331,43.20595499034971,2023-03-19 14:59:02.758075,2023-03-19 14:59:05.230196,DD020.jpg,0,10606,18-29,2023_Mar_19_1458,Recall,2021.2.3,59.81015058090845,
,DD035.jpg,0,FF035.jpg,0,,,,,0,7,7,34,imgFunc,9,NA,9.445771099999547,43.21476580016315,52.76949759013951,2023-03-19 14:59:05.241168,2023-03-19 14:59:14.797171,DD035.jpg,0,10606,18-29,2023_Mar_19_1458,Recall,2021.2.3,59.81015058090845,
,DD033.jpg,0,FF033.jpg,0,,,,,0,8,8,32,imgFunc,0,NA,1.7780017997138202,52.786559000145644,54.70175238046795,2023-03-19 14:59:14.810359,2023-03-19 14:59:16.712454,DD033.jpg,0,10606,18-29,2023_Mar_19_1458,Recall,2021.2.3,59.81015058090845,
,DD002.jpg,0,FF002.jpg,0,,,,,0,9,9,1,imgFunc,9,NA,1.7717906995676458,54.69654530007392,56.58462389046326,2023-03-19 14:59:16.724254,2023-03-19 14:59:18.612834,DD002.jpg,0,10606,18-29,2023_Mar_19_1458,Recall,2021.2.3,59.81015058090845,
,DD022.jpg,0,FF022.jpg,0,,,,,0,10,10,21,imgFunc,0,NA,1.6536778998561203,56.606641500256956,58.39523719064891,2023-03-19 14:59:18.623807,2023-03-19 14:59:20.412797,DD022.jpg,0,10606,18-29,2023_Mar_19_1458,Recall,2021.2.3,59.81015058090845,
,DD029.jpg,0,FF029.jpg,0,,,,,0,11,11,28,imgFunc,9,NA,0.8511777999810874,58.401253500021994,59.37302929023281,2023-03-19 14:59:20.423601,2023-03-19 14:59:21.396324,DD029.jpg,0,10606,18-29,2023_Mar_19_1458,Recall,2021.2.3,59.81015058090845,
,DD008.jpg,0,FF008.jpg,0,,,,,0,12,12,7,imgFunc,0,NA,0.8321243999525905,59.38014860032126,60.33417929057032,2023-03-19 14:59:21.407113,2023-03-19 14:59:22.362362,DD008.jpg,0,10606,18-29,2023_Mar_19_1458,Recall,2021.2.3,59.81015058090845,
,DD015.jpg,0,FF015.jpg,0,,,,,0,13,13,14,imgFunc,9,NA,0.7537220004014671,60.33855370013043,61.19441008986905,2023-03-19 14:59:22.373166,2023-03-19 14:59:23.229121,DD015.jpg,0,10606,18-29,2023_Mar_19_1458,Recall,2021.2.3,59.81015058090845,
,DD005.jpg,0,FF005.jpg,0,,,,,0,14,14,4,imgFunc,0,NA,0.45747420005500317,61.211120600346476,61.78290709014982,2023-03-19 14:59:23.240120,2023-03-19 14:59:23.812363,DD005.jpg,0,10606,18-29,2023_Mar_19_1458,Recall,2021.2.3,59.81015058090845,
,DD013.jpg,0,FF013.jpg,0,,,,,0,15,15,12,imgFunc,9,NA,2.580087599810213,61.792354700155556,64.47932799067348,2023-03-19 14:59:23.823194,2023-03-19 14:59:26.511427,DD013.jpg,0,10606,18-29,2023_Mar_19_1458,Recall,2021.2.3,59.81015058090845,
,SD037.jpg,0,MF037.jpg,0,,,,,0,16,16,86,imgFunc,0,NA,1.0843969001434743,64.50417210021988,65.71031819004565,2023-03-19 14:59:26.522239,2023-03-19 14:59:27.727485,SD037.jpg,0,10606,18-29,2023_Mar_19_1458,Recall,2021.2.3,59.81015058090845,
,L_SD504.jpg,1,L_MF504.jpg,1,,,,,0,17,17,93,imgFunc,9,NA,0.6589056998491287,65.71329470025375,66.48617869010195,2023-03-19 14:59:27.738288,2023-03-19 14:59:28.510789,L_SD504.jpg,1,10606,18-29,2023_Mar_19_1458,Recall,2021.2.3,59.81015058090845,
,L_DD503.jpg,1,L_FF503.jpg,1,,,,,0,18,18,42,imgFunc,0,NA,1.1190041000954807,66.50138150015846,67.73950439039618,2023-03-19 14:59:28.522726,2023-03-19 14:59:29.762035,L_DD503.jpg,1,10606,18-29,2023_Mar_19_1458,Recall,2021.2.3,59.81015058090845,
,SD019.jpg,0,MF019.jpg,0,,,,,0,19,19,68,imgFunc,9,NA,1.2041346998885274,67.74449060019106,69.06677888985723,2023-03-19 14:59:29.772033,2023-03-19 14:59:31.094969,SD019.jpg,0,10606,18-29,2023_Mar_19_1458,Recall,2021.2.3,59.81015058090845,
,DD019.jpg,0,FF019.jpg,0,,,,,0,20,20,18,imgFunc,0,NA,0.8257980002090335,69.08269080007449,70.0372630902566,2023-03-19 14:59:31.105777,2023-03-19 14:59:32.061635,DD019.jpg,0,10606,18-29,2023_Mar_19_1458,Recall,2021.2.3,59.81015058090845,
,L_SD510.jpg,1,L_MF510.jpg,1,,,,,0,21,21,99,imgFunc,9,NA,1.0672303000465035,70.04129770025611,71.23111259005964,2023-03-19 14:59:32.071424,2023-03-19 14:59:33.261680,L_SD510.jpg,1,10606,18-29,2023_Mar_19_1458,Recall,2021.2.3,59.81015058090845,
,L_SD502.jpg,1,L_MF502.jpg,1,,,,,0,22,22,91,imgFunc,0,NA,1.0399516997858882,71.23652360029519,72.39187739044428,2023-03-19 14:59:33.271490,2023-03-19 14:59:34.427557,L_SD502.jpg,1,10606,18-29,2023_Mar_19_1458,Recall,2021.2.3,59.81015058090845,
,SD023.jpg,0,MF023.jpg,0,,,,,0,23,23,72,imgFunc,9,NA,0.5908722002059221,72.4055975000374,73.11112808994949,2023-03-19 14:59:34.438356,2023-03-19 14:59:35.143235,SD023.jpg,0,10606,18-29,2023_Mar_19_1458,Recall,2021.2.3,59.81015058090845,
,L_DD510.jpg,1,L_FF510.jpg,1,,,,,0,24,24,49,imgFunc,0,NA,0.5442349999211729,73.12428240012378,73.78124389005825,2023-03-19 14:59:35.154019,2023-03-19 14:59:35.809928,L_DD510.jpg,1,10606,18-29,2023_Mar_19_1458,Recall,2021.2.3,59.81015058090845,
,SD014.jpg,0,MF014.jpg,0,,,,,0,25,25,63,imgFunc,9,NA,0.4765422996133566,73.78395830001682,74.37747678998858,2023-03-19 14:59:35.819710,2023-03-19 14:59:36.411245,SD014.jpg,0,10606,18-29,2023_Mar_19_1458,Recall,2021.2.3,59.81015058090845,
,SD005.jpg,0,MF005.jpg,0,,,,,0,26,26,54,imgFunc,0,NA,0.4916055998764932,74.39271760033444,74.99676679028198,2023-03-19 14:59:36.422240,2023-03-19 14:59:37.027508,SD005.jpg,0,10606,18-29,2023_Mar_19_1458,Recall,2021.2.3,59.81015058090845,
,DD027.jpg,0,FF027.jpg,0,,,,,0,27,27,26,imgFunc,1,NA,3.244993799831718,75.01553800003603,78.38672479055822,2023-03-19 14:59:37.038501,2023-03-19 14:59:40.411150,DD027.jpg,0,10606,18-29,2023_Mar_19_1458,Recall,2021.2.3,59.81015058090845,
,DD028.jpg,0,FF028.jpg,0,,,,,0,28,28,27,imgFunc,0,NA,3.4691244000568986,78.39156000036746,81.97981209075078,2023-03-19 14:59:40.421965,2023-03-19 14:59:44.010527,DD028.jpg,0,10606,18-29,2023_Mar_19_1458,Recall,2021.2.3,59.81015058090845,
,SD020.jpg,0,MF020.jpg,0,,,,,0,29,29,69,imgFunc,0,NA,1.6349968002177775,82.00155630009249,83.7586429901421,2023-03-19 14:59:44.020334,2023-03-19 14:59:45.777433,SD020.jpg,0,10606,18-29,2023_Mar_19_1458,Recall,2021.2.3,59.81015058090845,
,DD023.jpg,0,FF023.jpg,0,,,,,0,30,30,22,imgFunc,9,NA,0.7779433997347951,83.75457760039717,84.64247509045526,2023-03-19 14:59:45.788234,2023-03-19 14:59:46.676879,DD023.jpg,0,10606,18-29,2023_Mar_19_1458,Recall,2021.2.3,59.81015058090845,
,SD026.jpg,0,MF026.jpg,0,,,,,0,31,31,75,imgFunc,0,NA,1.1126338001340628,84.65169570036232,85.87304219044745,2023-03-19 14:59:46.687690,2023-03-19 14:59:47.909765,SD026.jpg,0,10606,18-29,2023_Mar_19_1458,Recall,2021.2.3,59.81015058090845,
,L_SD501.jpg,1,L_MF501.jpg,1,,,,,0,32,32,90,imgFunc,0,NA,0.9520336999557912,85.88447120040655,86.94054919062182,2023-03-19 14:59:47.919727,2023-03-19 14:59:48.976736,L_SD501.jpg,1,10606,18-29,2023_Mar_19_1458,Recall,2021.2.3,59.81015058090845,
,SD035.jpg,0,MF035.jpg,0,,,,,0,33,33,84,imgFunc,0,NA,1.1935008000582457,86.95457990001887,88.25940228998661,2023-03-19 14:59:48.986729,2023-03-19 14:59:50.291924,SD035.jpg,0,10606,18-29,2023_Mar_19_1458,Recall,2021.2.3,59.81015058090845,
,DD003.jpg,0,FF003.jpg,0,,,,,0,34,34,2,imgFunc,0,NA,0.5567955002188683,88.27948370017111,88.9481693902053,2023-03-19 14:59:50.304889,2023-03-19 14:59:50.975456,DD003.jpg,0,10606,18-29,2023_Mar_19_1458,Recall,2021.2.3,59.81015058090845,
,L_SD508.jpg,1,L_MF508.jpg,1,,,,,0,35,35,97,imgFunc,9,NA,1.7326497002504766,88.95952829997987,90.81394719006494,2023-03-19 14:59:50.987452,2023-03-19 14:59:52.841925,L_SD508.jpg,1,10606,18-29,2023_Mar_19_1458,Recall,2021.2.3,59.81015058090845,
,L_DD507.jpg,1,L_FF507.jpg,1,,,,,0,36,36,46,imgFunc,0,NA,0.5609650001861155,90.81956070009619,91.49414549022913,2023-03-19 14:59:52.851901,2023-03-19 14:59:53.526075,L_DD507.jpg,1,10606,18-29,2023_Mar_19_1458,Recall,2021.2.3,59.81015058090845,
,DD040.jpg,0,FF040.jpg,0,,,,,0,37,37,39,imgFunc,9,NA,0.5940875001251698,91.50624550040811,92.21218868996948,2023-03-19 14:59:53.536025,2023-03-19 14:59:54.241515,DD040.jpg,0,10606,18-29,2023_Mar_19_1458,Recall,2021.2.3,59.81015058090845,
,SD004.jpg,0,MF004.jpg,0,,,,,0,38,38,53,imgFunc,0,NA,0.7411620002239943,92.22341750003397,93.079046189785,2023-03-19 14:59:54.252514,2023-03-19 14:59:55.108596,SD004.jpg,0,10606,18-29,2023_Mar_19_1458,Recall,2021.2.3,59.81015058090845,
,DD017.jpg,0,FF017.jpg,0,,,,,0,39,39,16,imgFunc,0,NA,0.7819578000344336,93.09441100014374,94.00135278981179,2023-03-19 14:59:55.118834,2023-03-19 14:59:56.026024,DD017.jpg,0,10606,18-29,2023_Mar_19_1458,Recall,2021.2.3,59.81015058090845,
,SD031.jpg,0,MF031.jpg,0,,,,,0,40,40,80,imgFunc,9,NA,0.6734377997927368,94.0026595001109,94.7915581902489,2023-03-19 14:59:56.035829,2023-03-19 14:59:56.824819,SD031.jpg,0,10606,18-29,2023_Mar_19_1458,Recall,2021.2.3,59.81015058090845,
,DD018.jpg,0,FF018.jpg,0,,,,,0,41,41,17,imgFunc,1,NA,1.293910900130868,94.80633970024064,96.21068379050121,2023-03-19 14:59:56.836761,2023-03-19 14:59:58.242516,DD018.jpg,0,10606,18-29,2023_Mar_19_1458,Recall,2021.2.3,59.81015058090845,
,SD015.jpg,0,MF015.jpg,0,,,,,0,42,42,64,imgFunc,1,NA,0.7405281998217106,96.22412600042298,97.07960469042882,2023-03-19 14:59:58.252302,2023-03-19 14:59:59.107900,SD015.jpg,0,10606,18-29,2023_Mar_19_1458,Recall,2021.2.3,59.81015058090845,
,DD039.jpg,0,FF039.jpg,0,,,,,0,43,43,38,imgFunc,0,NA,1.2079582000151277,97.08420220017433,98.4068397898227,2023-03-19 14:59:59.118681,2023-03-19 15:00:00.440932,DD039.jpg,0,10606,18-29,2023_Mar_19_1458,Recall,2021.2.3,59.81015058090845,
,DD016.jpg,0,FF016.jpg,0,,,,,0,44,44,15,imgFunc,0,NA,3.1413384997285903,98.43094060011208,101.70265399059281,2023-03-19 15:00:00.451881,2023-03-19 15:00:03.724806,DD016.jpg,0,10606,18-29,2023_Mar_19_1458,Recall,2021.2.3,59.81015058090845,
,DD011.jpg,0,FF011.jpg,0,,,,,0,45,45,10,imgFunc,9,NA,1.5718352999538183,101.71236000023782,103.39750128984451,2023-03-19 15:00:03.736749,2023-03-19 15:00:05.424416,DD011.jpg,0,10606,18-29,2023_Mar_19_1458,Recall,2021.2.3,59.81015058090845,
,SD003.jpg,0,MF003.jpg,0,,,,,0,46,46,52,imgFunc,9,NA,1.1896085999906063,103.40679390029982,104.71335529070348,2023-03-19 15:00:05.435199,2023-03-19 15:00:06.741735,SD003.jpg,0,10606,18-29,2023_Mar_19_1458,Recall,2021.2.3,59.81015058090845,
,L_DD509.jpg,1,L_FF509.jpg,1,,,,,0,47,47,48,imgFunc,9,NA,2.176465299911797,104.7240266003646,107.0135739906691,2023-03-19 15:00:06.751708,2023-03-19 15:00:09.041629,L_DD509.jpg,1,10606,18-29,2023_Mar_19_1458,Recall,2021.2.3,59.81015058090845,
,DD004.jpg,0,FF004.jpg,0,,,,,0,48,48,3,imgFunc,0,NA,0.7464323998428881,107.0181065001525,107.87197179021314,2023-03-19 15:00:09.052437,2023-03-19 15:00:09.907923,DD004.jpg,0,10606,18-29,2023_Mar_19_1458,Recall,2021.2.3,59.81015058090845,
,SD038.jpg,0,MF038.jpg,0,,,,,0,49,49,87,imgFunc,9,NA,0.7557250997051597,107.88883700035512,108.7603189907968,2023-03-19 15:00:09.918705,2023-03-19 15:00:10.791263,SD038.jpg,0,10606,18-29,2023_Mar_19_1458,Recall,2021.2.3,59.81015058090845,
,SD025.jpg,0,MF025.jpg,0,,,,,0,50,50,74,imgFunc,0,NA,0.5794020998291671,108.76902320003137,109.4556580898352,2023-03-19 15:00:10.803090,2023-03-19 15:00:11.490917,SD025.jpg,0,10606,18-29,2023_Mar_19_1458,Recall,2021.2.3,59.81015058090845,
,SD021.jpg,0,MF021.jpg,0,,,,,0,51,51,70,imgFunc,9,NA,0.4241524999961257,109.46832390036434,110.00700579024851,2023-03-19 15:00:11.501879,2023-03-19 15:00:12.040352,SD021.jpg,0,10606,18-29,2023_Mar_19_1458,Recall,2021.2.3,59.81015058090845,
,L_DD508.jpg,1,L_FF508.jpg,1,,,,,0,52,52,47,imgFunc,0,NA,0.6220209999009967,110.0225520003587,110.76374848978594,2023-03-19 15:00:12.050139,2023-03-19 15:00:12.790252,L_DD508.jpg,1,10606,18-29,2023_Mar_19_1458,Recall,2021.2.3,59.81015058090845,
,L_SD505.jpg,1,L_MF505.jpg,1,,,,,0,53,53,94,imgFunc,9,NA,0.5330639001913369,110.76743510039523,111.40811329102144,2023-03-19 15:00:12.801034,2023-03-19 15:00:13.440790,L_SD505.jpg,1,10606,18-29,2023_Mar_19_1458,Recall,2021.2.3,59.81015058090845,
,DD026.jpg,0,FF026.jpg,0,,,,,0,54,54,25,imgFunc,0,NA,0.5086573003791273,111.41549949999899,112.03832919010893,2023-03-19 15:00:13.450786,2023-03-19 15:00:14.073903,DD026.jpg,0,10606,18-29,2023_Mar_19_1458,Recall,2021.2.3,59.81015058090845,
,L_DD505.jpg,1,L_FF505.jpg,1,,,,,0,55,55,44,imgFunc,9,NA,0.642780200112611,112.04969780007377,112.80491189006716,2023-03-19 15:00:14.084876,2023-03-19 15:00:14.840832,L_DD505.jpg,1,10606,18-29,2023_Mar_19_1458,Recall,2021.2.3,59.81015058090845,
,SD002.jpg,0,MF002.jpg,0,,,,,0,56,56,51,imgFunc,9,NA,1.045558299869299,112.81497080018744,113.97007399005815,2023-03-19 15:00:14.851620,2023-03-19 15:00:16.007284,SD002.jpg,0,10606,18-29,2023_Mar_19_1458,Recall,2021.2.3,59.81015058090845,
,SD008.jpg,0,MF008.jpg,0,,,,,0,57,57,57,imgFunc,0,NA,0.9801370999775827,113.98422920005396,115.07243639044464,2023-03-19 15:00:16.018084,2023-03-19 15:00:17.107339,SD008.jpg,0,10606,18-29,2023_Mar_19_1458,Recall,2021.2.3,59.81015058090845,
,SD039.jpg,0,MF039.jpg,0,,,,,0,58,58,88,imgFunc,9,NA,1.1435436997562647,115.08494130009785,116.33860959019512,2023-03-19 15:00:17.118153,2023-03-19 15:00:18.373514,SD039.jpg,0,10606,18-29,2023_Mar_19_1458,Recall,2021.2.3,59.81015058090845,
,L_SD503.jpg,1,L_MF503.jpg,1,,,,,0,59,59,92,imgFunc,0,NA,0.9990555001422763,116.34912120038643,117.4538847906515,2023-03-19 15:00:18.384321,2023-03-19 15:00:19.490505,L_SD503.jpg,1,10606,18-29,2023_Mar_19_1458,Recall,2021.2.3,59.81015058090845,
,SD040.jpg,0,MF040.jpg,0,,,,,0,60,60,89,imgFunc,0,NA,0.6666998001746833,117.46589450025931,118.23863358981907,2023-03-19 15:00:19.500314,2023-03-19 15:00:20.273963,SD040.jpg,0,10606,18-29,2023_Mar_19_1458,Recall,2021.2.3,59.81015058090845,
,SD024.jpg,0,MF024.jpg,0,,,,,0,61,61,73,imgFunc,0,NA,0.6038602995686233,118.24858610006049,118.95532769011334,2023-03-19 15:00:20.283798,2023-03-19 15:00:20.989763,SD024.jpg,0,10606,18-29,2023_Mar_19_1458,Recall,2021.2.3,59.81015058090845,
,DD009.jpg,0,FF009.jpg,0,,,,,0,62,62,8,imgFunc,9,NA,0.6393458996899426,118.965147100389,119.72286729048938,2023-03-19 15:00:20.999578,2023-03-19 15:00:21.756869,DD009.jpg,0,10606,18-29,2023_Mar_19_1458,Recall,2021.2.3,59.81015058090845,
,SD017.jpg,0,MF017.jpg,0,,,,,0,63,63,66,imgFunc,9,NA,0.8587882001884282,119.73759880010039,120.71063899016008,2023-03-19 15:00:21.766661,2023-03-19 15:00:22.739278,SD017.jpg,0,10606,18-29,2023_Mar_19_1458,Recall,2021.2.3,59.81015058090845,
,SD013.jpg,0,MF013.jpg,0,,,,,0,64,64,62,imgFunc,0,NA,1.6284544002264738,120.71198260039091,122.452065190766,2023-03-19 15:00:22.749068,2023-03-19 15:00:24.488326,SD013.jpg,0,10606,18-29,2023_Mar_19_1458,Recall,2021.2.3,59.81015058090845,
,SD018.jpg,0,MF018.jpg,0,,,,,0,65,65,67,imgFunc,9,NA,2.3852865998633206,122.4672937002033,124.9749239902012,2023-03-19 15:00:24.499104,2023-03-19 15:00:27.006443,SD018.jpg,0,10606,18-29,2023_Mar_19_1458,Recall,2021.2.3,59.81015058090845,
,SD007.jpg,0,MF007.jpg,0,,,,,0,66,66,56,imgFunc,0,NA,1.5497884000651538,124.98243100009859,126.65026728017256,2023-03-19 15:00:27.018262,2023-03-19 15:00:28.672277,SD007.jpg,0,10606,18-29,2023_Mar_19_1458,Recall,2021.2.3,59.81015058090845,
,SD009.jpg,0,MF009.jpg,0,,,,,0,67,67,58,imgFunc,0,NA,1.3025044002570212,126.65390450041741,128.07827819045633,2023-03-19 15:00:28.682254,2023-03-19 15:00:30.105978,SD009.jpg,0,10606,18-29,2023_Mar_19_1458,Recall,2021.2.3,59.81015058090845,
,SD036.jpg,0,MF036.jpg,0,,,,,0,68,68,85,imgFunc,9,NA,0.5579874999821186,128.086184900254,128.75773659022525,2023-03-19 15:00:30.115952,2023-03-19 15:00:30.788284,SD036.jpg,0,10606,18-29,2023_Mar_19_1458,Recall,2021.2.3,59.81015058090845,
,DD036.jpg,0,FF036.jpg,0,,,,,0,69,69,35,imgFunc,9,NA,0.4172396999783814,128.7710247002542,129.3114443900995,2023-03-19 15:00:30.798253,2023-03-19 15:00:31.338579,DD036.jpg,0,10606,18-29,2023_Mar_19_1458,Recall,2021.2.3,59.81015058090845,
,SD006.jpg,0,MF006.jpg,0,,,,,0,70,70,55,imgFunc,9,NA,0.8526178002357483,129.31195170013234,130.26901829009876,2023-03-19 15:00:31.348393,2023-03-19 15:00:32.305325,SD006.jpg,0,10606,18-29,2023_Mar_19_1458,Recall,2021.2.3,59.81015058090845,
,SD030.jpg,0,MF030.jpg,0,,,,,0,71,71,79,imgFunc,0,NA,1.591097000055015,130.28535710042343,131.992435391061,2023-03-19 15:00:32.315124,2023-03-19 15:00:34.022237,SD030.jpg,0,10606,18-29,2023_Mar_19_1458,Recall,2021.2.3,59.81015058090845,
,DD006.jpg,0,FF006.jpg,0,,,,,0,72,72,5,imgFunc,9,NA,0.7530221003107727,132.00335080036893,132.8738682908006,2023-03-19 15:00:34.033044,2023-03-19 15:00:34.904042,DD006.jpg,0,10606,18-29,2023_Mar_19_1458,Recall,2021.2.3,59.81015058090845,
,L_DD502.jpg,1,L_FF502.jpg,1,,,,,0,73,73,41,imgFunc,9,NA,0.8221955001354218,132.87831610022113,133.80295279016718,2023-03-19 15:00:34.914036,2023-03-19 15:00:35.838434,L_DD502.jpg,1,10606,18-29,2023_Mar_19_1458,Recall,2021.2.3,59.81015058090845,
,SD033.jpg,0,MF033.jpg,0,,,,,0,74,74,82,imgFunc,0,NA,2.4006592999212444,133.82734800036997,136.3456939905882,2023-03-19 15:00:35.850234,2023-03-19 15:00:38.370426,SD033.jpg,0,10606,18-29,2023_Mar_19_1458,Recall,2021.2.3,59.81015058090845,
,SD001.jpg,0,MF001.jpg,0,,,,,0,75,75,50,imgFunc,9,NA,1.081463800277561,136.34692220017314,137.53813259024173,2023-03-19 15:00:38.380428,2023-03-19 15:00:39.571565,SD001.jpg,0,10606,18-29,2023_Mar_19_1458,Recall,2021.2.3,59.81015058090845,
,L_SD506.jpg,1,L_MF506.jpg,1,,,,,0,76,76,95,imgFunc,0,NA,0.6461551999673247,137.55040910001844,138.3074564896524,2023-03-19 15:00:39.581374,2023-03-19 15:00:40.338496,L_SD506.jpg,1,10606,18-29,2023_Mar_19_1458,Recall,2021.2.3,59.81015058090845,
,SD032.jpg,0,MF032.jpg,0,,,,,0,77,77,81,imgFunc,0,NA,1.3656166000291705,138.31864030007273,139.80506468983367,2023-03-19 15:00:40.350466,2023-03-19 15:00:41.838259,SD032.jpg,0,10606,18-29,2023_Mar_19_1458,Recall,2021.2.3,59.81015058090845,
,L_SD509.jpg,1,L_MF509.jpg,1,,,,,0,78,78,98,imgFunc,9,NA,0.5753538999706507,139.81316680042073,140.5020023905672,2023-03-19 15:00:41.849065,2023-03-19 15:00:42.538039,L_SD509.jpg,1,10606,18-29,2023_Mar_19_1458,Recall,2021.2.3,59.81015058090845,
,DD014.jpg,0,FF014.jpg,0,,,,,0,79,79,13,imgFunc,0,NA,1.4838308999314904,140.5201841001399,142.1234957901761,2023-03-19 15:00:42.549034,2023-03-19 15:00:44.153224,DD014.jpg,0,10606,18-29,2023_Mar_19_1458,Recall,2021.2.3,59.81015058090845,
,L_DD501.jpg,1,L_FF501.jpg,1,,,,,0,80,80,40,imgFunc,9,NA,0.6173796001821756,142.13898020004854,142.87620669044554,2023-03-19 15:00:44.165192,2023-03-19 15:00:44.903852,L_DD501.jpg,1,10606,18-29,2023_Mar_19_1458,Recall,2021.2.3,59.81015058090845,
,DD021.jpg,0,FF021.jpg,0,,,,,0,81,81,20,imgFunc,0,NA,0.5939750000834465,142.88225380005315,143.58867269009352,2023-03-19 15:00:44.914638,2023-03-19 15:00:45.621019,DD021.jpg,0,10606,18-29,2023_Mar_19_1458,Recall,2021.2.3,59.81015058090845,
,L_DD504.jpg,1,L_FF504.jpg,1,,,,,0,82,82,43,imgFunc,9,NA,0.36909900000318885,143.60325580043718,144.0915520908311,2023-03-19 15:00:45.631826,2023-03-19 15:00:46.120998,L_DD504.jpg,1,10606,18-29,2023_Mar_19_1458,Recall,2021.2.3,59.81015058090845,
,SD010.jpg,0,MF010.jpg,0,,,,,0,83,83,59,imgFunc,0,NA,0.37324809981510043,144.09485410014167,144.58337148977444,2023-03-19 15:00:46.131803,2023-03-19 15:00:46.619692,SD010.jpg,0,10606,18-29,2023_Mar_19_1458,Recall,2021.2.3,59.81015058090845,
,SD029.jpg,0,MF029.jpg,0,,,,,0,84,84,78,imgFunc,9,NA,0.36904009990394115,144.59536000015214,145.0698491903022,2023-03-19 15:00:46.629691,2023-03-19 15:00:47.104393,SD029.jpg,0,10606,18-29,2023_Mar_19_1458,Recall,2021.2.3,59.81015058090845,
,L_SD507.jpg,1,L_MF507.jpg,1,,,,,0,85,85,96,imgFunc,9,NA,0.6520014000125229,145.08045580005273,145.83499429002404,2023-03-19 15:00:47.115197,2023-03-19 15:00:47.869591,L_SD507.jpg,1,10606,18-29,2023_Mar_19_1458,Recall,2021.2.3,59.81015058090845,
,DD030.jpg,0,FF030.jpg,0,,,,,0,86,86,29,imgFunc,0,NA,0.39633370004594326,145.8480212003924,146.35540328966454,2023-03-19 15:00:47.880401,2023-03-19 15:00:48.387324,DD030.jpg,0,10606,18-29,2023_Mar_19_1458,Recall,2021.2.3,59.81015058090845,
,DD031.jpg,0,FF031.jpg,0,,,,,0,87,87,30,imgFunc,0,NA,0.4164391001686454,146.37200440000743,146.9094655904919,2023-03-19 15:00:48.398140,2023-03-19 15:00:48.937390,DD031.jpg,0,10606,18-29,2023_Mar_19_1458,Recall,2021.2.3,59.81015058090845,
,DD038.jpg,0,FF038.jpg,0,,,,,0,88,88,37,imgFunc,9,NA,0.4520686003379524,146.91206000000238,147.46856308961287,2023-03-19 15:00:48.947388,2023-03-19 15:00:49.503829,DD038.jpg,0,10606,18-29,2023_Mar_19_1458,Recall,2021.2.3,59.81015058090845,
,SD027.jpg,0,MF027.jpg,0,,,,,0,89,89,76,imgFunc,0,NA,1.0281165996566415,147.48819630034268,148.64240029035136,2023-03-19 15:00:49.514827,2023-03-19 15:00:50.669483,SD027.jpg,0,10606,18-29,2023_Mar_19_1458,Recall,2021.2.3,59.81015058090845,
,DD001.jpg,0,FF001.jpg,0,,,,,0,90,90,0,imgFunc,9,NA,0.49669079994782805,148.64376720041037,149.2528290906921,2023-03-19 15:00:50.679459,2023-03-19 15:00:51.287157,DD001.jpg,0,10606,18-29,2023_Mar_19_1458,Recall,2021.2.3,59.81015058090845,
,DD024.jpg,0,FF024.jpg,0,,,,,0,91,91,23,imgFunc,0,NA,0.29463979974389076,149.2617635000497,149.66662119003013,2023-03-19 15:00:51.296983,2023-03-19 15:00:51.702059,DD024.jpg,0,10606,18-29,2023_Mar_19_1458,Recall,2021.2.3,59.81015058090845,
,L_DD506.jpg,1,L_FF506.jpg,1,,,,,0,92,92,45,imgFunc,9,NA,0.7045489000156522,149.68384480010718,150.5088459905237,2023-03-19 15:00:51.712859,2023-03-19 15:00:52.537057,L_DD506.jpg,1,10606,18-29,2023_Mar_19_1458,Recall,2021.2.3,59.81015058090845,
,SD022.jpg,0,MF022.jpg,0,,,,,0,93,93,71,imgFunc,9,NA,1.6947913998737931,150.51766160037369,152.3221768909134,2023-03-19 15:00:52.547888,2023-03-19 15:00:54.353770,SD022.jpg,0,10606,18-29,2023_Mar_19_1458,Recall,2021.2.3,59.81015058090845,
,DD025.jpg,0,FF025.jpg,0,,,,,0,94,94,24,imgFunc,0,NA,0.6497426996938884,152.33089700015262,153.08540369011462,2023-03-19 15:00:54.364552,2023-03-19 15:00:55.119464,DD025.jpg,0,10606,18-29,2023_Mar_19_1458,Recall,2021.2.3,59.81015058090845,
,DD012.jpg,0,FF012.jpg,0,,,,,0,95,95,11,imgFunc,9,NA,0.7153095998801291,153.09715240029618,153.9205560903065,2023-03-19 15:00:55.129442,2023-03-19 15:00:55.953766,DD012.jpg,0,10606,18-29,2023_Mar_19_1458,Recall,2021.2.3,59.81015058090845,
,DD032.jpg,0,FF032.jpg,0,,,,,0,96,96,31,imgFunc,0,NA,0.9364041998051107,153.93208410032094,154.98782149050385,2023-03-19 15:00:55.963570,2023-03-19 15:00:57.019912,DD032.jpg,0,10606,18-29,2023_Mar_19_1458,Recall,2021.2.3,59.81015058090845,
,DD007.jpg,0,FF007.jpg,0,,,,,0,97,97,6,imgFunc,0,NA,1.4818469998426735,155.00217250036076,156.60759299015626,2023-03-19 15:00:57.030888,2023-03-19 15:00:58.636252,DD007.jpg,0,10606,18-29,2023_Mar_19_1458,Recall,2021.2.3,59.81015058090845,
,SD034.jpg,0,MF034.jpg,0,,,,,0,98,98,83,imgFunc,0,NA,0.46357679972425103,156.61248710006475,157.18585989018902,2023-03-19 15:00:58.646233,2023-03-19 15:00:59.219095,SD034.jpg,0,10606,18-29,2023_Mar_19_1458,Recall,2021.2.3,59.81015058090845,
,SD012.jpg,0,MF012.jpg,0,,,,,0,99,99,61,imgFunc,0,NA,1.1039674999192357,157.20427630003542,158.4233084898442,2023-03-19 15:00:59.230899,2023-03-19 15:01:00.451585,SD012.jpg,0,10606,18-29,2023_Mar_19_1458,Recall,2021.2.3,59.81015058090845,
,,,,,,,,,,,,,instrFunc,space,"Great work! 

 Now you will switch to the other image type.

 Press the spacebar whenever you are ready to start.",1.1883016000501812,158.33620080025867,159.56279058987275,2023-03-19 15:01:00.452547,2023-03-19 15:01:01.668477,,,10606,18-29,2023_Mar_19_1458,Recall,2021.2.3,59.81015058090845,
,L_DD508.jpg,1,L_FF508.jpg,1,,,,,0,0,0,47,imgFunc,9,NA,22.328427699860185,159.70794890029356,182.17409256007522,2023-03-19 15:01:01.723155,2023-03-19 15:01:24.183718,L_FF508.jpg,1,10606,18-29,2023_Mar_19_1458,Recall,2021.2.3,59.81015058090845,
,DD004.jpg,0,FF004.jpg,0,,,,,0,1,1,3,imgFunc,0,NA,1.7260524998418987,182.21418960019946,184.10616608010605,2023-03-19 15:01:24.201491,2023-03-19 15:01:26.083997,FF004.jpg,0,10606,18-29,2023_Mar_19_1458,Recall,2021.2.3,59.81015058090845,
,DD026.jpg,0,FF026.jpg,0,,,,,0,2,2,25,imgFunc,0,NA,4.8630777997896075,184.06941700028256,189.05730279022828,2023-03-19 15:01:26.093806,2023-03-19 15:01:31.082255,FF026.jpg,0,10606,18-29,2023_Mar_19_1458,Recall,2021.2.3,59.81015058090845,
,SD011.jpg,0,MF011.jpg,0,,,,,0,3,3,60,imgFunc,0,NA,1.1515549002215266,189.07657290017232,190.36264309007674,2023-03-19 15:01:31.094245,2023-03-19 15:01:32.382661,MF011.jpg,0,10606,18-29,2023_Mar_19_1458,Recall,2021.2.3,59.81015058090845,
,SD031.jpg,0,MF031.jpg,0,,,,,0,4,4,80,imgFunc,9,NA,1.957066500093788,190.36733910022303,192.43899869034067,2023-03-19 15:01:32.393571,2023-03-19 15:01:34.466024,MF031.jpg,0,10606,18-29,2023_Mar_19_1458,Recall,2021.2.3,59.81015058090845,
,DD029.jpg,0,FF029.jpg,0,,,,,0,5,5,28,imgFunc,0,NA,0.7830576999112964,192.453370900359,193.35943919001147,2023-03-19 15:01:34.476000,2023-03-19 15:01:35.382644,FF029.jpg,0,10606,18-29,2023_Mar_19_1458,Recall,2021.2.3,59.81015058090845,
,L_DD502.jpg,1,L_FF502.jpg,1,,,,,0,6,6,41,imgFunc,9,NA,0.9900873000733554,193.36634840024635,194.47328329039738,2023-03-19 15:01:35.392453,2023-03-19 15:01:36.499466,L_FF502.jpg,1,10606,18-29,2023_Mar_19_1458,Recall,2021.2.3,59.81015058090845,
,SD039.jpg,0,MF039.jpg,0,,,,,0,7,7,88,imgFunc,2,NA,3.0159539999440312,194.49235519999638,197.63075159071013,2023-03-19 15:01:36.510273,2023-03-19 15:01:39.649680,MF039.jpg,0,10606,18-29,2023_Mar_19_1458,Recall,2021.2.3,59.81015058090845,
,SD020.jpg,0,MF020.jpg,0,,,,,0,8,8,69,imgFunc,2,NA,3.3278702995739877,197.63648750027642,201.09049499034882,2023-03-19 15:01:39.660464,2023-03-19 15:01:43.114666,MF020.jpg,0,10606,18-29,2023_Mar_19_1458,Recall,2021.2.3,59.81015058090845,
,SD004.jpg,0,MF004.jpg,0,,,,,0,9,9,53,imgFunc,1,NA,3.1073679998517036,201.10479810042307,204.34486598987132,2023-03-19 15:01:43.124450,2023-03-19 15:01:46.364842,MF004.jpg,0,10606,18-29,2023_Mar_19_1458,Recall,2021.2.3,59.81015058090845,
,SD033.jpg,0,MF033.jpg,0,,,,,0,10,10,82,imgFunc,0,NA,3.512174400035292,204.3479834003374,207.98599089076743,2023-03-19 15:01:46.375649,2023-03-19 15:01:50.014170,MF033.jpg,0,10606,18-29,2023_Mar_19_1458,Recall,2021.2.3,59.81015058090845,
,L_DD510.jpg,1,L_FF510.jpg,1,,,,,0,11,11,49,imgFunc,1,NA,1.4635042999871075,207.99677950004116,209.58582619018853,2023-03-19 15:01:50.023981,2023-03-19 15:01:51.614010,L_FF510.jpg,1,10606,18-29,2023_Mar_19_1458,Recall,2021.2.3,59.81015058090845,
,L_SD506.jpg,1,L_MF506.jpg,1,,,,,0,12,12,95,imgFunc,9,NA,3.3055963004007936,209.59489840036258,213.0184143902734,2023-03-19 15:01:51.623850,2023-03-19 15:01:55.047426,L_MF506.jpg,1,10606,18-29,2023_Mar_19_1458,Recall,2021.2.3,59.81015058090845,
,SD026.jpg,0,MF026.jpg,0,,,,,0,13,13,75,imgFunc,0,NA,1.292655199766159,213.03177800029516,214.43572249030694,2023-03-19 15:01:55.058302,2023-03-19 15:01:56.463542,MF026.jpg,0,10606,18-29,2023_Mar_19_1458,Recall,2021.2.3,59.81015058090845,
,SD024.jpg,0,MF024.jpg,0,,,,,0,14,14,73,imgFunc,0,NA,0.793308800086379,214.44306490011513,215.34909619018435,2023-03-19 15:01:56.473360,2023-03-19 15:01:57.380232,MF024.jpg,0,10606,18-29,2023_Mar_19_1458,Recall,2021.2.3,59.81015058090845,
,SD005.jpg,0,MF005.jpg,0,,,,,0,15,15,54,imgFunc,0,NA,1.3123441999778152,215.36396580003202,216.80401889048517,2023-03-19 15:01:57.390034,2023-03-19 15:01:58.830077,MF005.jpg,0,10606,18-29,2023_Mar_19_1458,Recall,2021.2.3,59.81015058090845,
,L_SD507.jpg,1,L_MF507.jpg,1,,,,,0,16,16,96,imgFunc,2,NA,1.9120017001405358,216.81228620000184,218.833883990068,2023-03-19 15:01:58.840860,2023-03-19 15:02:00.862255,L_MF507.jpg,1,10606,18-29,2023_Mar_19_1458,Recall,2021.2.3,59.81015058090845,
,SD040.jpg,0,MF040.jpg,0,,,,,0,17,17,89,imgFunc,0,NA,0.8579997001215816,218.842510800343,219.81502329045907,2023-03-19 15:02:00.873062,2023-03-19 15:02:01.845351,MF040.jpg,0,10606,18-29,2023_Mar_19_1458,Recall,2021.2.3,59.81015058090845,
,SD006.jpg,0,MF006.jpg,0,,,,,0,18,18,55,imgFunc,0,NA,1.052736199926585,219.83176600001752,221.00727728987113,2023-03-19 15:02:01.855304,2023-03-19 15:02:03.030009,MF006.jpg,0,10606,18-29,2023_Mar_19_1458,Recall,2021.2.3,59.81015058090845,
,DD013.jpg,0,FF013.jpg,0,,,,,0,19,19,12,imgFunc,9,NA,2.0882201003842056,221.02016050042585,223.24185929074883,2023-03-19 15:02:03.040007,2023-03-19 15:02:05.261910,FF013.jpg,0,10606,18-29,2023_Mar_19_1458,Recall,2021.2.3,59.81015058090845,
,DD021.jpg,0,FF021.jpg,0,,,,,0,20,20,20,imgFunc,9,NA,0.825201400090009,223.2430111002177,224.18497458985075,2023-03-19 15:02:05.271700,2023-03-19 15:02:06.212063,FF021.jpg,0,10606,18-29,2023_Mar_19_1458,Recall,2021.2.3,59.81015058090845,
,DD015.jpg,0,FF015.jpg,0,,,,,0,21,21,14,imgFunc,9,NA,0.9768412001430988,224.1954489001073,225.28458839002997,2023-03-19 15:02:06.223035,2023-03-19 15:02:07.311718,FF015.jpg,0,10606,18-29,2023_Mar_19_1458,Recall,2021.2.3,59.81015058090845,
,SD019.jpg,0,MF019.jpg,0,,,,,0,22,22,68,imgFunc,9,NA,1.061570500023663,225.29463080037385,226.46855239057913,2023-03-19 15:02:07.322496,2023-03-19 15:02:08.495002,MF019.jpg,0,10606,18-29,2023_Mar_19_1458,Recall,2021.2.3,59.81015058090845,
,DD009.jpg,0,FF009.jpg,0,,,,,0,23,23,8,imgFunc,9,NA,0.7757055996917188,226.47654800023884,227.36717939050868,2023-03-19 15:02:08.505815,2023-03-19 15:02:09.395841,FF009.jpg,0,10606,18-29,2023_Mar_19_1458,Recall,2021.2.3,59.81015058090845,
,SD007.jpg,0,MF007.jpg,0,,,,,0,24,24,56,imgFunc,9,NA,0.878779100254178,227.3812250001356,228.3878632900305,2023-03-19 15:02:09.405839,2023-03-19 15:02:10.412654,MF007.jpg,0,10606,18-29,2023_Mar_19_1458,Recall,2021.2.3,59.81015058090845,
,DD001.jpg,0,FF001.jpg,0,,,,,0,25,25,0,imgFunc,9,NA,0.7905927998945117,228.39766850043088,229.30069559020922,2023-03-19 15:02:10.424432,2023-03-19 15:02:11.328897,FF001.jpg,0,10606,18-29,2023_Mar_19_1458,Recall,2021.2.3,59.81015058090845,
,L_SD509.jpg,1,L_MF509.jpg,1,,,,,0,26,26,98,imgFunc,0,NA,1.5051782000809908,229.31517230020836,230.93921589059755,2023-03-19 15:02:11.338895,2023-03-19 15:02:12.962498,L_MF509.jpg,1,10606,18-29,2023_Mar_19_1458,Recall,2021.2.3,59.81015058090845,
,SD035.jpg,0,MF035.jpg,0,,,,,0,27,27,84,imgFunc,9,NA,2.7705544997006655,230.94576829997823,233.83493728982285,2023-03-19 15:02:12.972306,2023-03-19 15:02:15.860983,MF035.jpg,0,10606,18-29,2023_Mar_19_1458,Recall,2021.2.3,59.81015058090845,
,DD030.jpg,0,FF030.jpg,0,,,,,0,28,28,29,imgFunc,0,NA,0.8656113999895751,233.8426694003865,234.83308199048042,2023-03-19 15:02:15.870771,2023-03-19 15:02:16.859992,FF030.jpg,0,10606,18-29,2023_Mar_19_1458,Recall,2021.2.3,59.81015058090845,
,DD036.jpg,0,FF036.jpg,0,,,,,0,29,29,35,imgFunc,0,NA,0.5841826996766031,234.8441347000189,235.55210559023544,2023-03-19 15:02:16.870798,2023-03-19 15:02:17.578170,FF036.jpg,0,10606,18-29,2023_Mar_19_1458,Recall,2021.2.3,59.81015058090845,
,SD002.jpg,0,MF002.jpg,0,,,,,0,30,30,51,imgFunc,0,NA,0.6348590003326535,235.56125670019537,236.31692299060524,2023-03-19 15:02:17.589012,2023-03-19 15:02:18.344921,MF002.jpg,0,10606,18-29,2023_Mar_19_1458,Recall,2021.2.3,59.81015058090845,
,L_SD501.jpg,1,L_MF501.jpg,1,,,,,0,31,31,90,imgFunc,0,NA,0.6996885999105871,236.32877490017563,237.15061418991536,2023-03-19 15:02:18.355700,2023-03-19 15:02:19.177884,L_MF501.jpg,1,10606,18-29,2023_Mar_19_1458,Recall,2021.2.3,59.81015058090845,
,DD018.jpg,0,FF018.jpg,0,,,,,0,32,32,17,imgFunc,0,NA,1.387773099821061,237.16050590015948,238.6663200906478,2023-03-19 15:02:19.188845,2023-03-19 15:02:20.694755,FF018.jpg,0,10606,18-29,2023_Mar_19_1458,Recall,2021.2.3,59.81015058090845,
,DD006.jpg,0,FF006.jpg,0,,,,,0,33,33,5,imgFunc,0,NA,1.033049600198865,238.6833522003144,239.83660599030554,2023-03-19 15:02:20.706556,2023-03-19 15:02:21.861015,FF006.jpg,0,10606,18-29,2023_Mar_19_1458,Recall,2021.2.3,59.81015058090845,
,DD017.jpg,0,FF017.jpg,0,,,,,0,34,34,16,imgFunc,0,NA,2.080611300189048,239.8435402000323,242.04993248963729,2023-03-19 15:02:21.870821,2023-03-19 15:02:24.077893,FF017.jpg,0,10606,18-29,2023_Mar_19_1458,Recall,2021.2.3,59.81015058090845,
,SD018.jpg,0,MF018.jpg,0,,,,,0,35,35,67,imgFunc,0,NA,0.5683335997164249,242.06018690019846,242.74970189016312,2023-03-19 15:02:24.087798,2023-03-19 15:02:24.777501,MF018.jpg,0,10606,18-29,2023_Mar_19_1458,Recall,2021.2.3,59.81015058090845,
,DD016.jpg,0,FF016.jpg,0,,,,,0,36,36,15,imgFunc,9,NA,0.9081174000166357,242.76024810038507,243.78329129051417,2023-03-19 15:02:24.787474,2023-03-19 15:02:25.810048,FF016.jpg,0,10606,18-29,2023_Mar_19_1458,Recall,2021.2.3,59.81015058090845,
,L_SD502.jpg,1,L_MF502.jpg,1,,,,,0,37,37,91,imgFunc,9,NA,0.5589510002173483,243.7972500002943,244.48816329054534,2023-03-19 15:02:25.819886,2023-03-19 15:02:26.510109,L_MF502.jpg,1,10606,18-29,2023_Mar_19_1458,Recall,2021.2.3,59.81015058090845,
,SD034.jpg,0,MF034.jpg,0,,,,,0,38,38,83,imgFunc,9,NA,0.7908970997668803,244.49346730019897,245.40093359025195,2023-03-19 15:02:26.520907,2023-03-19 15:02:27.427647,MF034.jpg,0,10606,18-29,2023_Mar_19_1458,Recall,2021.2.3,59.81015058090845,
,DD032.jpg,0,FF032.jpg,0,,,,,0,39,39,31,imgFunc,0,NA,0.7181498999707401,245.41428380040452,246.2529293904081,2023-03-19 15:02:27.437450,2023-03-19 15:02:28.276218,FF032.jpg,0,10606,18-29,2023_Mar_19_1458,Recall,2021.2.3,59.81015058090845,
,DD035.jpg,0,FF035.jpg,0,,,,,0,40,40,34,imgFunc,0,NA,0.7013948997482657,246.26309590041637,247.08686289051548,2023-03-19 15:02:28.287026,2023-03-19 15:02:29.110450,FF035.jpg,0,10606,18-29,2023_Mar_19_1458,Recall,2021.2.3,59.81015058090845,
,SD003.jpg,0,MF003.jpg,0,,,,,0,41,41,52,imgFunc,9,NA,0.8760991999879479,247.09628600021824,248.10125329066068,2023-03-19 15:02:29.121232,2023-03-19 15:02:30.126947,MF003.jpg,0,10606,18-29,2023_Mar_19_1458,Recall,2021.2.3,59.81015058090845,
,SD023.jpg,0,MF023.jpg,0,,,,,0,42,42,72,imgFunc,0,NA,0.8872626000083983,248.10917280009016,249.11437249043956,2023-03-19 15:02:30.137754,2023-03-19 15:02:31.143715,MF023.jpg,0,10606,18-29,2023_Mar_19_1458,Recall,2021.2.3,59.81015058090845,
,SD014.jpg,0,MF014.jpg,0,,,,,0,43,43,63,imgFunc,0,NA,0.6014179000630975,249.13053190009668,249.85278488975018,2023-03-19 15:02:31.153550,2023-03-19 15:02:31.875804,MF014.jpg,0,10606,18-29,2023_Mar_19_1458,Recall,2021.2.3,59.81015058090845,
,L_SD503.jpg,1,L_MF503.jpg,1,,,,,0,44,44,92,imgFunc,9,NA,2.73185530025512,249.88046980043873,252.74983789073303,2023-03-19 15:02:31.888770,2023-03-19 15:02:34.759955,L_MF503.jpg,1,10606,18-29,2023_Mar_19_1458,Recall,2021.2.3,59.81015058090845,
,DD023.jpg,0,FF023.jpg,0,,,,,0,45,45,22,imgFunc,9,NA,1.336637799628079,252.74754260014743,254.20199919026345,2023-03-19 15:02:34.770762,2023-03-19 15:02:36.226265,FF023.jpg,0,10606,18-29,2023_Mar_19_1458,Recall,2021.2.3,59.81015058090845,
,SD022.jpg,0,MF022.jpg,0,,,,,0,46,46,71,imgFunc,0,NA,3.7903738003224134,254.21389700006694,258.13307298952714,2023-03-19 15:02:36.238067,2023-03-19 15:02:40.159188,MF022.jpg,0,10606,18-29,2023_Mar_19_1458,Recall,2021.2.3,59.81015058090845,
,DD040.jpg,0,FF040.jpg,0,,,,,0,47,47,39,imgFunc,9,NA,0.6822242997586727,258.15405130013824,258.95938209071755,2023-03-19 15:02:40.169997,2023-03-19 15:02:40.975080,FF040.jpg,0,10606,18-29,2023_Mar_19_1458,Recall,2021.2.3,59.81015058090845,
,SD012.jpg,0,MF012.jpg,0,,,,,0,48,48,61,imgFunc,9,NA,1.4054335998371243,258.9664842002094,260.5073498901911,2023-03-19 15:02:40.985862,2023-03-19 15:02:42.525865,MF012.jpg,0,10606,18-29,2023_Mar_19_1458,Recall,2021.2.3,59.81015058090845,
,DD024.jpg,0,FF024.jpg,0,,,,,0,49,49,23,imgFunc,0,NA,0.8835430000908673,260.5128205004148,261.5176368900575,2023-03-19 15:02:42.536677,2023-03-19 15:02:43.542152,FF024.jpg,0,10606,18-29,2023_Mar_19_1458,Recall,2021.2.3,59.81015058090845,
,DD034.jpg,0,FF034.jpg,0,,,,,0,50,50,33,imgFunc,0,NA,0.6519705001264811,261.52837570011616,262.3006562902592,2023-03-19 15:02:43.552929,2023-03-19 15:02:44.325572,FF034.jpg,0,10606,18-29,2023_Mar_19_1458,Recall,2021.2.3,59.81015058090845,
,SD029.jpg,0,MF029.jpg,0,,,,,0,51,51,78,imgFunc,0,NA,0.5603203000500798,262.32386110024527,263.01173419039696,2023-03-19 15:02:44.336378,2023-03-19 15:02:45.025079,MF029.jpg,0,10606,18-29,2023_Mar_19_1458,Recall,2021.2.3,59.81015058090845,
,L_DD509.jpg,1,L_FF509.jpg,1,,,,,0,52,52,48,imgFunc,0,NA,0.9968953998759389,263.00713380007073,264.12944399006665,2023-03-19 15:02:45.035963,2023-03-19 15:02:46.158622,L_FF509.jpg,1,10606,18-29,2023_Mar_19_1458,Recall,2021.2.3,59.81015058090845,
,DD039.jpg,0,FF039.jpg,0,,,,,0,53,53,38,imgFunc,9,NA,0.8215128998272121,264.1425362001173,265.08137228991836,2023-03-19 15:02:46.168469,2023-03-19 15:02:47.108476,FF039.jpg,0,10606,18-29,2023_Mar_19_1458,Recall,2021.2.3,59.81015058090845,
,L_SD505.jpg,1,L_MF505.jpg,1,,,,,0,54,54,94,imgFunc,9,NA,1.0541799999773502,265.0939633999951,266.2672785897739,2023-03-19 15:02:47.118286,2023-03-19 15:02:48.291592,L_MF505.jpg,1,10606,18-29,2023_Mar_19_1458,Recall,2021.2.3,59.81015058090845,
,DD005.jpg,0,FF005.jpg,0,,,,,0,55,55,4,imgFunc,9,NA,0.6975209000520408,266.2668043002486,267.072296790313,2023-03-19 15:02:48.302588,2023-03-19 15:02:49.108311,FF005.jpg,0,10606,18-29,2023_Mar_19_1458,Recall,2021.2.3,59.81015058090845,
,SD010.jpg,0,MF010.jpg,0,,,,,0,56,56,59,imgFunc,0,NA,0.6360423001460731,267.0960277002305,267.85058749001473,2023-03-19 15:02:49.119303,2023-03-19 15:02:49.874318,MF010.jpg,0,10606,18-29,2023_Mar_19_1458,Recall,2021.2.3,59.81015058090845,
,L_DD503.jpg,1,L_FF503.jpg,1,,,,,0,57,57,42,imgFunc,9,NA,0.5204920000396669,267.8519230000675,268.49340009037405,2023-03-19 15:02:49.884263,2023-03-19 15:02:50.525220,L_FF503.jpg,1,10606,18-29,2023_Mar_19_1458,Recall,2021.2.3,59.81015058090845,
,L_DD507.jpg,1,L_FF507.jpg,1,,,,,0,58,58,46,imgFunc,0,NA,1.3620342002250254,268.5143555002287,270.0027429899201,2023-03-19 15:02:50.536004,2023-03-19 15:02:52.024816,L_FF507.jpg,1,10606,18-29,2023_Mar_19_1458,Recall,2021.2.3,59.81015058090845,
,SD036.jpg,0,MF036.jpg,0,,,,,0,59,59,85,imgFunc,0,NA,0.5778458998538554,270.0021475004032,270.691106590908,2023-03-19 15:02:52.035630,2023-03-19 15:02:52.724737,MF036.jpg,0,10606,18-29,2023_Mar_19_1458,Recall,2021.2.3,59.81015058090845,
,SD009.jpg,0,MF009.jpg,0,,,,,0,60,60,58,imgFunc,0,NA,0.4949555997736752,270.70936300000176,271.3319352902472,2023-03-19 15:02:52.735546,2023-03-19 15:02:53.358313,MF009.jpg,0,10606,18-29,2023_Mar_19_1458,Recall,2021.2.3,59.81015058090845,
,DD010.jpg,0,FF010.jpg,0,,,,,0,61,61,9,imgFunc,9,NA,1.3405273999087512,271.3358187000267,272.791272290051,2023-03-19 15:02:53.368166,2023-03-19 15:02:54.824449,FF010.jpg,0,10606,18-29,2023_Mar_19_1458,Recall,2021.2.3,59.81015058090845,
,DD007.jpg,0,FF007.jpg,0,,,,,0,62,62,6,imgFunc,0,NA,0.8513740003108978,272.8008030001074,273.77328869048506,2023-03-19 15:02:54.834258,2023-03-19 15:02:55.807846,FF007.jpg,0,10606,18-29,2023_Mar_19_1458,Recall,2021.2.3,59.81015058090845,
,DD008.jpg,0,FF008.jpg,0,,,,,0,63,63,7,imgFunc,0,NA,1.314828300382942,273.79305690014735,275.22947529004887,2023-03-19 15:02:55.819610,2023-03-19 15:02:57.257815,FF008.jpg,0,10606,18-29,2023_Mar_19_1458,Recall,2021.2.3,59.81015058090845,
,DD002.jpg,0,FF002.jpg,0,,,,,0,64,64,1,imgFunc,9,NA,1.4702343000099063,275.23804339999333,276.8253103904426,2023-03-19 15:02:57.268623,2023-03-19 15:02:58.857419,FF002.jpg,0,10606,18-29,2023_Mar_19_1458,Recall,2021.2.3,59.81015058090845,
,DD011.jpg,0,FF011.jpg,0,,,,,0,65,65,10,imgFunc,9,NA,1.662293199915439,276.8378111002967,278.6268081907183,2023-03-19 15:02:58.867261,2023-03-19 15:03:00.656616,FF011.jpg,0,10606,18-29,2023_Mar_19_1458,Recall,2021.2.3,59.81015058090845,
,L_DD504.jpg,1,L_FF504.jpg,1,,,,,0,66,66,43,imgFunc,9,NA,0.984786500222981,278.6354066003114,279.7424404900521,2023-03-19 15:03:00.666569,2023-03-19 15:03:01.774085,L_FF504.jpg,1,10606,18-29,2023_Mar_19_1458,Recall,2021.2.3,59.81015058090845,
,SD017.jpg,0,MF017.jpg,0,,,,,0,67,67,66,imgFunc,0,NA,2.326503500342369,279.75776479998603,282.2131332899444,2023-03-19 15:03:01.784888,2023-03-19 15:03:04.240421,MF017.jpg,0,10606,18-29,2023_Mar_19_1458,Recall,2021.2.3,59.81015058090845,
,SD027.jpg,0,MF027.jpg,0,,,,,0,68,68,76,imgFunc,9,NA,1.1147317998111248,282.21748970029876,283.4406792903319,2023-03-19 15:03:04.250251,2023-03-19 15:03:05.473466,MF027.jpg,0,10606,18-29,2023_Mar_19_1458,Recall,2021.2.3,59.81015058090845,
,SD015.jpg,0,MF015.jpg,0,,,,,0,69,69,64,imgFunc,9,NA,0.8080342998728156,283.45226819999516,284.37491458980367,2023-03-19 15:03:05.483466,2023-03-19 15:03:06.405720,MF015.jpg,0,10606,18-29,2023_Mar_19_1458,Recall,2021.2.3,59.81015058090845,
,SD001.jpg,0,MF001.jpg,0,,,,,0,70,70,50,imgFunc,0,NA,1.184142000041902,284.3877297001891,285.69558429019526,2023-03-19 15:03:06.415503,2023-03-19 15:03:07.723358,MF001.jpg,0,10606,18-29,2023_Mar_19_1458,Recall,2021.2.3,59.81015058090845,
,SD008.jpg,0,MF008.jpg,0,,,,,0,71,71,57,imgFunc,0,NA,0.5357440002262592,285.70830950001255,286.36271808994934,2023-03-19 15:03:07.734143,2023-03-19 15:03:08.389867,MF008.jpg,0,10606,18-29,2023_Mar_19_1458,Recall,2021.2.3,59.81015058090845,
,L_SD504.jpg,1,L_MF504.jpg,1,,,,,0,72,72,93,imgFunc,0,NA,0.4352958998642862,286.3688186001964,286.92433119006455,2023-03-19 15:03:08.400677,2023-03-19 15:03:08.956325,L_MF504.jpg,1,10606,18-29,2023_Mar_19_1458,Recall,2021.2.3,59.81015058090845,
,L_SD508.jpg,1,L_MF508.jpg,1,,,,,0,73,73,97,imgFunc,0,NA,0.47889290004968643,286.9334464999847,287.5224198899232,2023-03-19 15:03:08.967108,2023-03-19 15:03:09.556841,L_MF508.jpg,1,10606,18-29,2023_Mar_19_1458,Recall,2021.2.3,59.81015058090845,
,L_DD501.jpg,1,L_FF501.jpg,1,,,,,0,74,74,40,imgFunc,0,NA,0.4812297997996211,287.5391906001605,288.1453962898813,2023-03-19 15:03:09.566650,2023-03-19 15:03:10.173067,L_FF501.jpg,1,10606,18-29,2023_Mar_19_1458,Recall,2021.2.3,59.81015058090845,
,L_DD506.jpg,1,L_FF506.jpg,1,,,,,0,75,75,45,imgFunc,9,NA,1.0318005997687578,288.1565568000078,289.3100736895576,2023-03-19 15:03:10.184867,2023-03-19 15:03:11.339637,L_FF506.jpg,1,10606,18-29,2023_Mar_19_1458,Recall,2021.2.3,59.81015058090845,
,SD021.jpg,0,MF021.jpg,0,,,,,0,76,76,70,imgFunc,9,NA,0.5700813997536898,289.3221788001247,290.01099819038063,2023-03-19 15:03:11.349613,2023-03-19 15:03:12.039596,MF021.jpg,0,10606,18-29,2023_Mar_19_1458,Recall,2021.2.3,59.81015058090845,
,SD016.jpg,0,MF016.jpg,0,,,,,0,77,77,65,imgFunc,9,NA,2.0801460002548993,290.01999360043555,292.2259949906729,2023-03-19 15:03:12.049408,2023-03-19 15:03:14.255646,MF016.jpg,0,10606,18-29,2023_Mar_19_1458,Recall,2021.2.3,59.81015058090845,
,DD020.jpg,0,FF020.jpg,0,,,,,0,78,78,19,imgFunc,9,NA,0.7335870997048914,292.23056260030717,293.0702367904596,2023-03-19 15:03:14.265451,2023-03-19 15:03:15.105771,FF020.jpg,0,10606,18-29,2023_Mar_19_1458,Recall,2021.2.3,59.81015058090845,
,SD028.jpg,0,MF028.jpg,0,,,,,0,79,79,77,imgFunc,0,NA,1.0461744000203907,293.08597260015085,294.2601264901459,2023-03-19 15:03:15.115578,2023-03-19 15:03:16.289269,MF028.jpg,0,10606,18-29,2023_Mar_19_1458,Recall,2021.2.3,59.81015058090845,
,DD025.jpg,0,FF025.jpg,0,,,,,0,80,80,24,imgFunc,0,NA,2.918743799906224,294.26927980035543,297.3059710902162,2023-03-19 15:03:16.300094,2023-03-19 15:03:19.338710,FF025.jpg,0,10606,18-29,2023_Mar_19_1458,Recall,2021.2.3,59.81015058090845,
,L_SD510.jpg,1,L_MF510.jpg,1,,,,,0,81,81,99,imgFunc,0,NA,0.7337139002047479,297.31823249999434,298.1746158897877,2023-03-19 15:03:19.348652,2023-03-19 15:03:20.205498,L_MF510.jpg,1,10606,18-29,2023_Mar_19_1458,Recall,2021.2.3,59.81015058090845,
,SD032.jpg,0,MF032.jpg,0,,,,,0,82,82,81,imgFunc,0,NA,0.7140103997662663,298.18616940034553,299.0257389904,2023-03-19 15:03:20.215472,2023-03-19 15:03:21.055264,MF032.jpg,0,10606,18-29,2023_Mar_19_1458,Recall,2021.2.3,59.81015058090845,
,SD025.jpg,0,MF025.jpg,0,,,,,0,83,83,74,imgFunc,0,NA,0.5509164999239147,299.03734320029616,299.7090650908649,2023-03-19 15:03:21.065074,2023-03-19 15:03:21.737868,MF025.jpg,0,10606,18-29,2023_Mar_19_1458,Recall,2021.2.3,59.81015058090845,
,DD031.jpg,0,FF031.jpg,0,,,,,0,84,84,30,imgFunc,0,NA,0.6559898997657001,299.71632210025564,300.48891579080373,2023-03-19 15:03:21.747842,2023-03-19 15:03:22.520644,FF031.jpg,0,10606,18-29,2023_Mar_19_1458,Recall,2021.2.3,59.81015058090845,
,DD022.jpg,0,FF022.jpg,0,,,,,0,85,85,21,imgFunc,9,NA,0.9732894999906421,300.5029136002995,301.5940035902895,2023-03-19 15:03:22.530450,2023-03-19 15:03:23.621676,FF022.jpg,0,10606,18-29,2023_Mar_19_1458,Recall,2021.2.3,59.81015058090845,
,DD003.jpg,0,FF003.jpg,0,,,,,0,86,86,2,imgFunc,9,NA,0.6675028000026941,301.6087883003056,302.3976228903048,2023-03-19 15:03:23.631652,2023-03-19 15:03:24.421495,FF003.jpg,0,10606,18-29,2023_Mar_19_1458,Recall,2021.2.3,59.81015058090845,
,DD033.jpg,0,FF033.jpg,0,,,,,0,87,87,32,imgFunc,9,NA,0.6312100002542138,302.39703069999814,303.13364259013906,2023-03-19 15:03:24.433295,2023-03-19 15:03:25.170940,FF033.jpg,0,10606,18-29,2023_Mar_19_1458,Recall,2021.2.3,59.81015058090845,
,SD013.jpg,0,MF013.jpg,0,,,,,0,88,88,62,imgFunc,9,NA,0.7201736001297832,303.15602460037917,303.99618579028174,2023-03-19 15:03:25.181722,2023-03-19 15:03:26.021571,MF013.jpg,0,10606,18-29,2023_Mar_19_1458,Recall,2021.2.3,59.81015058090845,
,SD037.jpg,0,MF037.jpg,0,,,,,0,89,89,86,imgFunc,9,NA,0.9608109998516738,304.00327080022544,305.08797488035634,2023-03-19 15:03:26.033348,2023-03-19 15:03:27.104349,MF037.jpg,0,10606,18-29,2023_Mar_19_1458,Recall,2021.2.3,59.81015058090845,
,L_DD505.jpg,1,L_FF505.jpg,1,,,,,0,90,90,44,imgFunc,0,NA,1.720910099800676,305.0832911999896,306.9223371902481,2023-03-19 15:03:27.115138,2023-03-19 15:03:28.954690,L_FF505.jpg,1,10606,18-29,2023_Mar_19_1458,Recall,2021.2.3,59.81015058090845,
,SD038.jpg,0,MF038.jpg,0,,,,,0,91,91,87,imgFunc,0,NA,0.7008965001441538,306.93546529999,307.757074189838,2023-03-19 15:03:28.964503,2023-03-19 15:03:29.786110,MF038.jpg,0,10606,18-29,2023_Mar_19_1458,Recall,2021.2.3,59.81015058090845,
,DD014.jpg,0,FF014.jpg,0,,,,,0,92,92,13,imgFunc,0,NA,0.6390439001843333,307.7652186001651,308.5240833903663,2023-03-19 15:03:29.796890,2023-03-19 15:03:30.554384,FF014.jpg,0,10606,18-29,2023_Mar_19_1458,Recall,2021.2.3,59.81015058090845,
,DD012.jpg,0,FF012.jpg,0,,,,,0,93,93,11,imgFunc,0,NA,0.888507999945432,308.5397350001149,309.54553999053314,2023-03-19 15:03:30.564219,2023-03-19 15:03:31.571133,FF012.jpg,0,10606,18-29,2023_Mar_19_1458,Recall,2021.2.3,59.81015058090845,
,DD037.jpg,0,FF037.jpg,0,,,,,0,94,94,36,imgFunc,9,NA,0.8551403996534646,309.54911270039156,310.5206439900212,2023-03-19 15:03:31.581896,2023-03-19 15:03:32.553883,FF037.jpg,0,10606,18-29,2023_Mar_19_1458,Recall,2021.2.3,59.81015058090845,
,DD038.jpg,0,FF038.jpg,0,,,,,0,95,95,37,imgFunc,9,NA,0.6346774999983609,310.5371925001964,311.29126029042527,2023-03-19 15:03:32.564724,2023-03-19 15:03:33.320045,FF038.jpg,0,10606,18-29,2023_Mar_19_1458,Recall,2021.2.3,59.81015058090845,
,DD019.jpg,0,FF019.jpg,0,,,,,0,96,96,18,imgFunc,9,NA,0.5088414000347257,311.3035804000683,311.9268552903086,2023-03-19 15:03:33.330940,2023-03-19 15:03:33.953137,FF019.jpg,0,10606,18-29,2023_Mar_19_1458,Recall,2021.2.3,59.81015058090845,
,DD028.jpg,0,FF028.jpg,0,,,,,0,97,97,27,imgFunc,9,NA,0.3876366000622511,311.93662380008027,312.4454247900285,2023-03-19 15:03:33.962919,2023-03-19 15:03:34.470711,FF028.jpg,0,10606,18-29,2023_Mar_19_1458,Recall,2021.2.3,59.81015058090845,
,SD030.jpg,0,MF030.jpg,0,,,,,0,98,98,79,imgFunc,9,NA,0.3380003999918699,312.45037600025535,312.9061813899316,2023-03-19 15:03:34.480546,2023-03-19 15:03:34.936965,MF030.jpg,0,10606,18-29,2023_Mar_19_1458,Recall,2021.2.3,59.81015058090845,
,DD027.jpg,0,FF027.jpg,0,,,,,0,99,99,26,imgFunc,9,NA,0.8479095995426178,312.916028900072,313.88958678999916,2023-03-19 15:03:34.946964,2023-03-19 15:03:35.920248,FF027.jpg,0,10606,18-29,2023_Mar_19_1458,Recall,2021.2.3,59.81015058090845,
