TrialNumber,nTrial,Block,Endowment,ITI,ISI,L_Option,R_Option,ran,order,cue_Onset,endowment_onset,endowment_offset,ISI_onset,ISI_offset,decision_onset,resp,rt,resp_onset,decision_offset,trialDuration,ITIonset,ITIoffset
1,1,3,32,2.98,1,3,0,1.0,0.0,4.583306,5.4959207,5.5121694,5.512282,6.512717,6.5128913,2.0,1.8999871,8.412878,10.279607,3.767369,10.280387,13.26182
2,2,3,16,1.365,1,8,0,1.0,1.0,13.847292,14.745732,14.762385,14.762468,15.762776,15.762923,1.0,1.2661455,17.029068,19.530333,3.7679708,19.531002,20.896793
3,3,3,16,0.5575,1,2,0,1.0,2.0,21.491072,22.395786,22.412197,22.412323,23.412403,23.412542,2.0,1.2329954,24.645536,27.179575,3.7675734,27.180222,27.739912
4,4,2,32,1.365,1,0,16,1.0,3.0,28.239832,29.22881,29.245813,29.24589,30.245941,30.246088,2.0,1.5000716,31.74616,34.01181,3.7662666,34.01246,35.379345
5,5,3,16,1.365,1,0,2,1.0,4.0,35.949097,36.87879,36.89588,36.89596,37.896446,37.896587,1.0,1.2993873,39.195976,41.663696,3.7676623,41.664356,43.030087
6,6,2,16,4.595,1,0,2,1.0,5.0,43.539337,44.52879,44.545845,44.545925,45.546032,45.546173,1.0,1.0661142,46.61229,49.312836,3.767229,49.31351,53.909344
7,7,2,32,4.595,1,0,2,1.0,6.0,54.406387,55.39537,55.412445,55.412518,56.411922,56.412064,1.0,0.9671568,57.37922,60.17898,3.767472,60.17965,64.77603
8,8,3,32,2.98,1,0,2,1.0,7.0,65.36473,66.2623,66.27909,66.27917,67.279724,67.27987,1.0,1.0156454,68.29552,71.046906,3.7675812,71.047554,74.02872
9,9,3,16,0.5575,1,1,0,1.0,8.0,74.60896,75.528435,75.54564,75.545715,76.54616,76.5463,2.0,1.5159651,78.06226,80.31346,3.7677183,80.314125,80.8733
10,10,2,32,0.5575,1,8,0,1.0,9.0,81.37303,82.36221,82.37916,82.379234,83.378654,83.37879,1.0,1.750974,85.12977,87.14525,3.7670202,87.14592,87.704796
11,11,2,32,0.5575,1,3,0,1.0,10.0,88.20633,89.19526,89.21234,89.21242,90.211784,90.21193,2.0,1.1170688,91.328995,93.97846,3.7671,93.97914,94.53843
12,12,2,32,2.98,1,3,0,1.0,11.0,95.03973,96.028694,96.0458,96.045876,97.04641,97.04655,2.0,1.1157047,98.162254,100.81484,3.768848,100.815506,103.79657
13,13,2,16,0.5575,1,8,0,1.0,12.0,104.30623,105.29523,105.31231,105.312386,106.31203,106.31217,1.0,1.1166728,107.42884,110.08082,3.7691991,110.08148,110.64136
14,14,2,32,2.98,1,8,0,1.0,13.0,111.13956,112.12867,112.14555,112.14565,113.14496,113.1451,1.0,1.7169933,114.8621,116.91305,3.7684863,116.9137,119.894806
15,15,3,32,1.365,1,0,8,1.0,14.0,120.44579,121.378654,121.395744,121.395874,122.39608,122.396225,2.0,1.8335179,124.229744,126.162224,3.766546,126.16288,127.529884
16,16,3,32,0.5575,1,16,0,1.0,15.0,128.15285,129.02852,129.04565,129.04573,130.04617,130.04631,1.0,1.1829252,131.22925,133.81282,3.7670593,133.81348,134.37239
17,17,2,16,1.365,1,8,0,1.0,16.0,134.87285,135.86191,135.87898,135.87906,136.87872,136.87886,1.0,2.4166267,139.29549,140.64642,3.7681282,140.6471,142.013
18,18,3,32,2.98,1,0,2,1.0,17.0,142.5805,143.51193,143.52896,143.52904,144.53012,144.53027,1.0,1.0822318,145.6125,148.29622,3.766479,148.29686,151.27803
19,19,3,32,0.5575,1,8,0,1.0,18.0,151.85378,152.76233,152.77847,152.77855,153.77824,153.7784,1.0,1.0675225,154.84592,157.54483,3.7669983,157.5455,158.10432
20,20,2,32,1.365,1,2,0,1.0,19.0,158.60606,159.59511,159.61214,159.61223,160.61198,160.61212,2.0,1.3838578,161.99599,164.37883,3.7672503,164.37949,165.74533
21,21,3,16,6.21,1,8,0,1.0,20.0,166.326,167.2451,167.26234,167.26244,168.26242,168.26257,1.0,0.9500578,169.21263,172.0279,3.765885,172.02855,178.23967
22,22,2,16,0.5575,1,0,4,1.0,21.0,178.73944,179.72849,179.74551,179.74559,180.74554,180.7457,1.0,1.5340774,182.27977,184.51215,3.7669883,184.51279,185.07173
23,23,3,16,0.5575,1,0,2,1.0,22.0,185.64697,186.56236,186.5784,186.57848,187.57837,187.57852,1.0,1.3835413,188.96207,191.34686,3.768896,191.34752,191.907
24,24,2,16,0.5575,1,0,1,1.0,23.0,192.40599,193.39516,193.41225,193.41234,194.41269,194.4129,1.0,1.1496826,195.56259,198.17966,3.7673101,198.18033,198.7397
25,25,2,16,0.5575,1,4,0,1.0,24.0,199.23941,200.22838,200.2455,200.24557,201.24602,201.24615,2.0,2.232541,203.4787,205.0139,3.7682865,205.01456,205.57426
26,26,3,32,1.365,1,0,2,1.0,25.0,206.17514,207.06241,207.07866,207.07875,208.07845,208.0786,1.0,1.1667144,209.2453,211.84676,3.7687366,211.84744,213.21509
27,27,3,32,0.5575,1,0,16,1.0,26.0,213.78079,214.71182,214.72882,214.7289,215.72948,215.72963,2.0,1.1657581,216.89539,219.49669,3.7676136,219.49734,220.05614
28,28,3,16,0.5575,1,1,0,1.0,27.0,220.64034,221.54556,221.56189,221.56204,222.56279,222.56293,2.0,1.1494062,223.71234,226.32884,3.7664585,226.3295,226.88855
29,29,2,32,0.5575,1,0,16,1.0,28.0,227.38931,228.37836,228.39569,228.39581,229.39682,229.39696,2.0,1.5649614,230.96193,233.16472,3.7683,233.16537,233.72499
30,30,2,32,0.5575,1,0,16,1.0,29.0,234.22289,235.21167,235.2289,235.22903,236.229,236.22914,2.0,0.8833869,237.11253,239.9968,3.7682185,239.99747,240.55777
31,31,3,16,1.365,1,0,4,1.0,30.0,241.16635,242.04503,242.0621,242.06218,243.06247,243.0626,2.0,1.2496691,244.31227,246.82872,3.7666624,246.82938,248.19608
32,32,2,32,1.365,1,16,0,1.0,31.0,248.70618,249.69505,249.71219,249.71227,250.71286,250.713,1.0,1.2493885,251.96239,254.47931,3.7668562,254.47997,255.8465
33,33,2,16,1.365,1,4,0,1.0,32.0,256.35605,257.3449,257.3622,257.36237,258.36237,258.36252,2.0,1.4332613,259.79578,262.1287,3.766741,262.12936,263.49515
34,34,3,32,2.98,1,3,0,1.0,33.0,264.05328,264.97845,264.99545,264.99557,265.99487,265.99503,2.0,1.0839014,267.07895,269.76178,3.7673068,269.76245,272.74393
35,35,3,32,0.5575,1,8,0,1.0,34.0,273.30902,274.22827,274.24536,274.24542,275.24567,275.24582,1.0,1.9497597,277.1956,279.0129,3.76765,279.01358,279.57288
36,36,2,32,0.5575,1,2,0,1.0,35.0,280.07257,281.06778,281.07864,281.0787,282.07956,282.0797,2.0,1.115272,283.19498,285.84747,3.7683446,285.84814,286.4078
37,37,3,16,0.5575,1,8,0,1.0,36.0,286.9906,287.89526,287.91153,287.91162,288.91174,288.9119,1.0,1.2000871,290.112,292.67886,3.7675037,292.6795,293.23856
38,38,2,32,1.365,1,0,3,1.0,37.0,293.73914,294.72815,294.74573,294.74588,295.7464,295.74655,1.0,1.2490296,296.99557,299.51312,3.767126,299.5138,300.87958
39,39,3,32,1.365,1,8,0,1.0,38.0,301.46118,302.37854,302.3949,302.395,303.39456,303.39468,1.0,1.7007865,305.0955,307.16202,3.7678926,307.1627,308.52853
40,40,2,16,1.365,1,0,1,1.0,39.0,309.03915,310.02817,310.04532,310.0454,311.0457,311.04584,1.0,1.0159906,312.06183,314.8147,3.7694013,314.81534,316.18234
41,41,2,32,0.5575,1,0,2,1.0,40.0,316.68903,317.6782,317.6952,317.69528,318.6954,318.69556,1.0,1.2161796,319.91174,322.4632,3.7682073,322.46387,323.02368
42,42,3,32,0.5575,1,0,3,1.0,41.0,323.5954,324.51193,324.52814,324.5282,325.52777,325.52792,1.0,1.3010021,326.82892,329.2939,3.7665534,329.2946,329.85345
43,43,3,16,0.5575,1,4,0,1.0,42.0,330.4564,331.3452,331.36182,331.3619,332.3618,332.3619,2.0,1.4335833,333.7955,336.12976,3.7683918,336.13043,336.68942
44,44,2,16,2.98,1,0,4,1.0,43.0,337.18906,338.178,338.1952,338.1953,339.19525,339.19537,1.0,1.4496766,340.64505,342.96213,3.7673092,342.9628,345.94366
45,45,2,32,0.5575,1,3,0,1.0,44.0,346.43903,347.428,347.44513,347.44522,348.44473,348.4449,2.0,1.166537,349.61142,352.21167,3.7673697,352.21234,352.77188
46,46,3,16,0.5575,1,0,1,1.0,45.0,353.3416,354.26132,354.27878,354.2789,355.27887,355.27902,1.0,1.3159297,356.59494,359.0461,3.7676566,359.04678,359.60577
47,47,2,16,0.5575,1,0,2,1.0,46.0,360.10577,361.09476,361.11172,361.1118,362.11142,362.11157,1.0,1.500369,363.61194,365.8783,3.7672849,365.87897,366.43777
48,48,3,32,4.595,1,0,16,1.0,47.0,367.0019,367.9281,367.94516,367.94522,368.9449,368.94504,2.0,1.166982,370.112,372.71176,3.7672884,372.71243,377.3101
