onset	duration	trial_type	rt	resp
0.0003819999983534217	0.6369290000293404	fixation_1	999	999
0.6373512999853119	3.0016400000313297	face	2.033427600050345	2
3.639028799952939	0.6369290000293404	fixation_2	999	999
4.187365200021304	1.0165884000016376	feedback win	999	999
5.203955600038171	5.316076899995096	ITI	999	999
10.536524099996313	0.6340413000434637	fixation_1	999	999
11.170609100023285	3.0008444000268355	face	2.283123799948953	1
14.171493300003931	0.6340413000434637	fixation_2	999	999
14.720625299960375	1.0166367000201717	feedback loss	999	999
15.737264099996537	1.1177326999604702	ITI	999	999
16.858115699957125	0.6294212000211701	fixation_1	999	999
17.487604400026612	3.0014823999954388	face	2.032673200010322	2
20.4891264999751	0.6294212000211701	fixation_2	999	999
21.037271699984558	1.0003881000448018	feedback win	999	999
22.03766200004611	1.1173485999461263	ITI	999	999
23.15823169995565	0.6291177000384778	fixation_1	999	999
23.787392999976873	3.0007929999846965	face	2.2826122000114992	1
26.788227700046264	0.6291177000384778	fixation_2	999	999
27.337252900004387	1.016450299997814	feedback win	999	999
28.35370530001819	3.2172202999936417	ITI	999	999
31.574156400049105	0.6297051999717951	fixation_1	999	999
32.20390800002497	3.0010373999830335	face	2.032625799998641	2
35.20498489995953	0.6297051999717951	fixation_2	999	999
35.75390150002204	1.0003014999674633	feedback loss	999	999
36.75420500000473	5.316691100015305	ITI	999	999
42.07424330001231	0.6296335000079125	fixation_1	999	999
42.70392400003038	3.0009669000282884	face	2.0342951000202447	1
45.70492689998355	0.6296335000079125	fixation_2	999	999
46.25383920001332	1.0000427999766544	feedback loss	999	999
47.25388420000672	3.2160568999825045	ITI	999	999
50.47324680001475	0.6306080999784172	fixation_1	999	999
51.103902200004086	3.0025904000503942	face	2.0339965999592096	1
54.10652879998088	0.6306080999784172	fixation_2	999	999
54.65393050003331	1.0166610999731347	feedback win	999	999
55.67059370002244	3.2172897999407724	ITI	999	999
58.89105119998567	0.6295480000553653	fixation_1	999	999
59.52066270005889	3.00122889992781	face	2.032497699954547	1
62.521933699958026	0.6295480000553653	fixation_2	999	999
63.070605500019155	1.0000367999309674	feedback loss	999	999
64.0706446999684	1.1170800999971107	ITI	999	999
65.1910421999637	0.6295510000782087	fixation_1	999	999
65.82064140005969	3.000826899893582	face	2.0330674999859184	1
68.82150710001588	0.6295510000782087	fixation_2	999	999
69.37062329996843	1.0165506000630558	feedback win	999	999
70.38717610004824	1.1168880999321118	ITI	999	999
71.50755470001604	0.6296695999335498	fixation_1	999	999
72.13727619999554	3.001260400051251	face	2.03368120000232	2
75.1385719999671	0.6296695999335498	fixation_2	999	999
75.6872330000624	1.0165952999377623	feedback win	999	999
76.70383060001768	1.1179072000086308	ITI	999	999
77.82504539994989	0.6287906001089141	fixation_1	999	999
78.45388739998452	3.0017026000423357	face	2.032645200029947	2
81.45562779996544	0.6287906001089141	fixation_2	999	999
82.00378350005485	1.016764699947089	feedback loss	999	999
83.02055030001793	3.2163211000151932	ITI	999	999
86.24021219997667	0.6303877000464126	fixation_1	999	999
86.87065050005913	3.001815599971451	face	1.7842213999247178	1
89.87250129994936	0.6303877000464126	fixation_2	999	999
90.42047110002022	1.0000575999729335	feedback loss	999	999
91.42053100001067	1.1171953999437392	ITI	999	999
92.54109199997038	0.6293563999934122	fixation_1	999	999
93.17049990000669	3.000549199990928	face	2.0331203000387177	1
96.17108690005261	0.6293563999934122	fixation_2	999	999
96.72058970003854	1.0165954999392852	feedback win	999	999
97.7371875999961	5.316867299959995	ITI	999	999
103.05752190004569	0.6296194000169635	fixation_1	999	999
103.68721190001816	3.0022765999892727	face	2.032783900038339	2
106.68952520005405	0.6296194000169635	fixation_2	999	999
107.23716600006446	1.00007289997302	feedback win	999	999
108.23724110005423	1.1170336999930441	ITI	999	999
109.35783550003543	0.6292443999554962	fixation_1	999	999
109.98713490006048	3.0019212999613956	face	2.0328892999095842	2
112.98909629997797	0.6292443999554962	fixation_2	999	999
113.53708459995687	1.0000298999948427	feedback win	999	999
114.53711649996694	5.316949800006114	ITI	999	999
119.85745909996331	0.629659500089474	fixation_1	999	999
120.48717950005084	3.0012032999657094	face	2.032632099930197	2
123.48843290004879	0.629659500089474	fixation_2	999	999
124.03720490005799	1.016504199942574	feedback win	999	999
125.05371120001655	3.2167961000232026	ITI	999	999
128.27407389995642	0.6298287000972778	fixation_1	999	999
128.9039735000115	3.001009100000374	face	2.0324897000100464	1
131.9050217999611	0.6298287000972778	fixation_2	999	999
132.45370980002917	1.000047600013204	feedback win	999	999
133.45375960005913	3.2160584999946877	ITI	999	999
136.6733503000578	0.6302830999484286	fixation_1	999	999
137.3036923999898	3.001455600024201	face	2.0332868000259623	2
140.30518729996402	0.6302830999484286	fixation_2	999	999
140.8537110000616	1.0169208999723196	feedback win	999	999
141.8706340000499	3.2162873999914154	ITI	999	999
145.09052389999852	0.6298616999993101	fixation_1	999	999
145.7204483000096	3.0015507000498474	face	2.032571200048551	1
148.72203489998356	0.6298616999993101	fixation_2	999	999
149.270457000006	1.016607700032182	feedback win	999	999
150.2870667000534	11.616677999962121	ITI	999	999
161.90741540002637	0.6299544000066817	fixation_1	999	999
162.53745000006165	3.001792899915017	face	2.5325375999091193	1
165.53928290004842	0.6299544000066817	fixation_2	999	999
166.0870857000118	1.0165813999483362	feedback loss	999	999
167.10366919997614	5.316237100050785	ITI	999	999
172.42359050002415	0.6300335000269115	fixation_1	999	999
173.0536892999662	3.00148109998554	face	2.2833707000827417	2
176.05521360004786	0.6300335000269115	fixation_2	999	999
176.6039361000294	1.016308099962771	feedback win	999	999
177.62024630000815	5.316761799971573	ITI	999	999
182.94065909995697	0.6297835001023486	fixation_1	999	999
183.5705077999737	3.0011924999998882	face	2.032484700088389	1
186.57173740002327	0.6297835001023486	fixation_2	999	999
187.12034070002846	1.0000813999213278	feedback loss	999	999
188.12042409996502	3.2165667000226676	ITI	999	999
191.34056709997822	0.6297696999972686	fixation_1	999	999
191.9704033000162	3.0010853999992833	face	1.7834649999858811	2
194.9715268999571	0.6297696999972686	fixation_2	999	999
195.52041909995023	1.0165530000813305	feedback loss	999	999
196.5369741000468	1.1175870000151917	ITI	999	999
197.6582427000394	0.6286926999455318	fixation_1	999	999
198.28700000001118	3.0010985999833792	face	2.2834536000154912	2
201.2881376000587	0.6286926999455318	fixation_2	999	999
201.83695500006434	1.0000136999879032	feedback loss	999	999
202.8369707999518	1.1174105000682175	ITI	999	999
203.95809039997403	0.6288837000029162	fixation_1	999	999
204.58704170002602	3.0014246000209823	face	2.2828133000293747	1
207.58850670000538	0.6288837000029162	fixation_2	999	999
208.1370159999933	1.0000546000665054	feedback win	999	999
209.1370726999594	5.316550499992445	ITI	999	999
214.45730839995667	0.6297303000465035	fixation_1	999	999
215.087141099968	3.0019089999841526	face	2.5327007999876514	2
218.0890875000041	0.6297303000465035	fixation_2	999	999
218.63704529998358	1.0165428000036627	feedback loss	999	999
219.65359010000248	5.316467300057411	ITI	999	999
224.97382419998758	0.6298028000164777	fixation_1	999	999
225.60369859996717	3.001242500031367	face	2.5326500000664964	2
228.60498159995768	0.6298028000164777	fixation_2	999	999
229.15366309997626	1.016634100000374	feedback win	999	999
230.17029919999186	3.2168260000180453	ITI	999	999
233.39096720004454	0.6292814000044018	fixation_1	999	999
234.02031819999684	3.0017641000449657	face	2.532757299952209	2
237.022123200004	0.6292814000044018	fixation_2	999	999
237.57033130002674	1.0165257999906316	feedback loss	999	999
238.58685920003336	1.117231099982746	ITI	999	999
239.7080169999972	0.6288345999782905	fixation_1	999	999
240.336955799954	3.0005902000702918	face	2.7841083999956027	2
243.3375755000161	0.6288345999782905	fixation_2	999	999
243.88718389999121	1.0168674000306055	feedback win	999	999
244.90405350003857	3.21644250000827	ITI	999	999
248.1242959999945	0.6293111999984831	fixation_1	999	999
248.7536953999661	3.001020000083372	face	2.2824078000849113	1
251.75475469999947	0.6293111999984831	fixation_2	999	999
252.30364209995605	1.016554000088945	feedback loss	999	999
253.320198200061	1.117809999966994	ITI	999	999
254.4418650000589	0.6283830999163911	fixation_1	999	999
255.070322799962	3.001644100062549	face	2.5335594000061974	1
258.07200729998294	0.6283830999163911	fixation_2	999	999
258.6201377999969	1.0164935999782756	feedback loss	999	999
259.63663349999115	1.1177039999747649	ITI	999	999
260.7581713000545	0.6286454999353737	fixation_1	999	999
261.3868922999827	3.001446600072086	face	2.283135800040327	2
264.38837910001166	0.6286454999353737	fixation_2	999	999
264.93675660004374	1.0000993999419734	feedback loss	999	999
265.93685820000246	1.1172844000393525	ITI	999	999
267.05799899995327	0.6288542000111192	fixation_1	999	999
267.6869289999595	3.000973500078544	face	2.282593300100416	1
270.68794099998195	0.6288542000111192	fixation_2	999	999
271.2367710999679	1.0000235000625253	feedback win	999	999
272.2367967000464	5.316789999953471	ITI	999	999
277.5575847000582	0.6292939999839291	fixation_1	999	999
278.18695550004486	3.001401099958457	face	2.2830652999691665	2
281.1883959999541	0.6292939999839291	fixation_2	999	999
281.7367626000196	1.000050500035286	feedback loss	999	999
282.73681539995596	1.1173395999940112	ITI	999	999
283.8581645999802	0.6287066000513732	fixation_1	999	999
284.4869657000527	3.0021292999153957	face	2.282680199947208	2
287.4891327000223	0.6287066000513732	fixation_2	999	999
288.036807000055	1.000129299936816	feedback loss	999	999
289.0369384000078	3.2159598999423906	ITI	999	999
292.2568990000291	0.6301238000160083	fixation_1	999	999
292.8871210999787	3.299376300070435	face	3.298910000012256	1
296.1865251000272	0.6301238000160083	fixation_2	999	999
296.7367780000204	1.0167255999986082	feedback win	999	999
297.753505700035	5.316652299952693	ITI	999	999
303.07415240001865	0.6294867999386042	fixation_1	999	999
303.7037195999874	3.00130420003552	face	2.2831335000228137	2
306.7050627999706	0.6294867999386042	fixation_2	999	999
307.25352989998646	1.000093700014986	feedback loss	999	999
308.25362570001744	5.317052599973977	ITI	999	999
313.57497560000047	0.6285584999714047	fixation_1	999	999
314.20361520000733	3.000550900003873	face	2.5321786999702454	1
317.2042059999658	0.6285584999714047	fixation_2	999	999
317.7536556000123	1.0164606999605894	feedback win	999	999
318.7701182999881	1.1179777999641374	ITI	999	999
319.892199599999	0.6278368000639603	fixation_1	999	999
320.52011819998734	3.001305300043896	face	2.782801700057462	1
323.5214557000436	0.6278368000639603	fixation_2	999	999
324.0700271000387	1.0000966999214143	feedback loss	999	999
325.0701261999784	1.118064400041476	ITI	999	999
326.1922409000108	0.6279273999389261	fixation_1	999	999
326.82026790000964	3.0017779000336304	face	2.782827500021085	1
329.8220798999537	0.6279273999389261	fixation_2	999	999
330.3700218000449	1.000510499929078	feedback loss	999	999
331.37053439999	5.316522000008263	ITI	999	999
