TrialNumber,nTrial,Block,Endowment,ITI,ISI,L_Option,R_Option,ran,order,cue_Onset,endowment_onset,endowment_offset,ISI_onset,ISI_offset,decision_onset,resp,rt,resp_onset,decision_offset,trialDuration,ITIonset,ITIoffset
1,1,3,32,0.5575,1,0,16,1.0,0.0,4.5632906,5.4986277,5.5154076,5.5155134,6.514816,6.514986,2.0,1.7669483,8.281935,10.282853,3.7684782,10.283599,10.843876
2,2,2,32,1.365,1,16,0,1.0,1.0,11.342845,12.331767,12.348654,12.348731,13.348855,13.348998,1.0,2.4164405,15.765438,17.115849,3.7674656,17.116581,18.48451
3,3,3,32,0.5575,1,0,8,1.0,2.0,19.016829,19.98219,19.99837,19.9985,20.998112,20.998257,1.0,2.1839702,23.182226,24.765862,3.768136,24.766497,25.326906
4,4,3,16,0.5575,1,2,0,1.0,3.0,25.881344,26.815298,26.832457,26.832605,27.83263,27.83277,2.0,1.6998659,29.532637,31.599136,3.766923,31.599804,32.158577
5,5,2,32,0.5575,1,0,3,1.0,4.0,32.65882,33.64842,33.665794,33.665936,34.66672,34.666866,999.0,999.0,999.0,37.931946,3.781316,38.448326,39.00787
6,6,2,16,2.98,1,0,1,1.0,5.0,39.50926,40.498177,40.51541,40.515488,41.514946,41.515095,1.0,1.0009804,42.516075,45.28286,3.7683003,45.2835,48.264835
7,7,2,16,1.365,1,2,0,1.0,6.0,48.758965,49.74818,49.76562,49.765755,50.76492,50.76506,2.0,1.7336922,52.498753,54.531998,3.7674975,54.53267,55.89868
8,8,2,32,0.5575,1,3,0,1.0,7.0,56.40919,57.398376,57.415623,57.415752,58.41582,58.415974,2.0,1.9157337,60.331707,62.184227,3.7687993,62.18488,62.74495
9,9,2,32,1.365,1,8,0,1.0,8.0,63.242626,64.2314,64.248604,64.24874,65.24864,65.24879,2.0,1.8166975,67.06548,69.015854,3.76763,69.016525,70.384285
10,10,2,16,0.5575,1,8,0,1.0,9.0,70.8927,71.88188,71.899055,71.89918,72.89982,72.89996,1.0,1.265314,74.165276,76.667114,3.7677357,76.6678,77.2279
11,11,3,32,0.5575,1,0,8,1.0,10.0,77.82149,78.71569,78.732,78.73214,79.73286,79.732994,2.0,1.7826827,81.51568,83.49928,3.766845,83.49995,84.05885
12,12,3,32,0.5575,1,16,0,1.0,11.0,84.57505,85.54835,85.56557,85.5657,86.56482,86.564964,1.0,1.334222,87.899185,90.33114,3.7667387,90.33181,90.89194
13,13,3,32,1.365,1,0,8,1.0,12.0,91.44659,92.381836,92.39875,92.39889,93.39887,93.399025,2.0,1.8831254,95.28215,97.16479,3.766332,97.16546,98.53229
14,14,2,16,1.365,1,0,8,1.0,13.0,99.04254,100.03149,100.04884,100.04899,101.04882,101.04896,1.0,1.516399,102.56535,104.816284,3.7678702,104.81693,106.183784
15,15,3,32,0.5575,1,3,0,1.0,14.0,106.754395,107.68175,107.69887,107.699005,108.69945,108.6996,2.0,1.0328789,109.73248,112.46784,3.768794,112.468506,113.02789
16,16,2,32,0.5575,1,8,0,1.0,15.0,113.52635,114.51473,114.5317,114.53178,115.53182,115.53197,2.0,2.0834093,117.61538,119.29797,3.766564,119.29864,119.85786
17,17,2,32,4.595,1,0,2,1.0,16.0,120.3586,121.34803,121.365036,121.36511,122.36454,122.364685,1.0,1.217153,123.58184,126.132805,3.7686498,126.13344,130.72989
18,18,2,16,0.5575,1,0,1,1.0,17.0,131.22581,132.21504,132.23203,132.23216,133.23286,133.233,1.0,1.0825415,134.31555,136.99983,3.767391,137.0005,137.56113
19,19,3,16,1.365,1,0,2,1.0,18.0,138.1048,139.04889,139.0655,139.06566,140.0658,140.06593,1.0,1.5331585,141.59909,143.83284,3.7674868,143.83354,145.20119
20,20,2,32,1.365,1,2,0,1.0,19.0,145.7091,146.69815,146.71568,146.7158,147.71541,147.71556,1.0,1.3497287,149.06529,151.48279,3.767762,151.48343,152.84981
21,21,3,32,0.5575,1,16,0,1.0,20.0,153.38829,154.34848,154.3649,154.36504,155.36578,155.36592,1.0,1.1495954,156.51552,159.13358,3.7681894,159.13422,159.69402
22,22,2,16,1.365,1,2,0,1.0,21.0,160.19235,161.1812,161.19846,161.19856,162.1988,162.19896,2.0,2.2334576,164.4324,165.96559,3.7671828,165.96625,167.33382
23,23,3,16,0.5575,1,4,0,1.0,22.0,167.89201,168.83179,168.84856,168.8487,169.84882,169.84895,2.0,1.9003333,171.74928,173.6148,3.7664032,173.61546,174.1748
24,24,2,32,0.5575,1,16,0,1.0,23.0,174.6758,175.66487,175.68192,175.68205,176.68181,176.68195,1.0,1.1665821,177.84853,180.4498,3.7683945,180.45045,181.00957
25,25,2,16,0.5575,1,8,0,1.0,24.0,181.5086,182.4982,182.51527,182.51541,183.51556,183.51572,2.0,1.4832256,184.99893,187.28279,3.7676475,187.28346,187.84381
26,26,2,16,1.365,1,0,1,1.0,25.0,188.34216,189.3311,189.34837,189.34845,190.34882,190.349,1.0,1.1330047,191.48201,194.11473,3.7662618,194.11537,195.48286
27,27,3,32,0.5575,1,2,0,1.0,26.0,196.0296,196.9816,196.99776,196.99791,197.9988,197.99893,2.0,1.0826848,199.08162,201.7657,3.7673097,201.76636,202.3258
28,28,3,32,4.595,1,16,0,1.0,27.0,202.86967,203.8154,203.83163,203.83177,204.83269,204.83284,1.0,1.4656318,206.29846,208.6,3.7677455,208.6007,213.19768
29,29,3,32,2.98,1,0,2,1.0,28.0,213.75237,214.68121,214.69827,214.69835,215.69836,215.69852,1.0,1.1165586,216.81508,219.46577,3.7678134,219.46645,222.44759
30,30,2,32,2.98,1,3,0,1.0,29.0,222.94196,223.93103,223.94821,223.9483,224.94876,224.9489,1.0,1.0832146,226.03212,228.71521,3.7668545,228.71587,231.69807
31,31,3,32,6.21,1,2,0,1.0,30.0,232.25096,233.18129,233.19867,233.19879,234.19977,234.1999,2.0,1.7822219,235.98213,237.96576,3.7663975,237.96642,244.17743
32,32,3,16,0.5575,1,0,2,1.0,31.0,244.74225,245.66425,245.68216,245.6823,246.68188,246.68205,1.0,1.4831094,248.16516,250.44812,3.7666283,250.44879,251.00784
33,33,3,32,2.98,1,2,0,1.0,32.0,251.57529,252.49796,252.51482,252.51494,253.51518,253.51532,2.0,2.065914,255.58124,257.2828,3.7680204,257.28345,260.26578
34,34,3,32,0.5575,1,3,0,1.0,33.0,260.8149,261.76486,261.78162,261.7817,262.78214,262.78226,2.0,1.5828322,264.3651,266.54877,3.7670426,266.5494,267.1085
35,35,3,32,1.365,1,0,3,1.0,34.0,267.6753,268.59766,268.6147,268.61475,269.6148,269.61496,999.0,999.0,999.0,272.86496,3.7671714,273.38226,274.74863
36,36,2,16,1.365,1,0,4,1.0,35.0,275.2587,276.248,276.26495,276.2651,277.26486,277.265,2.0,1.8500061,279.11502,281.03073,3.766277,281.0314,282.39777
37,37,3,32,0.5575,1,0,2,1.0,36.0,282.94754,283.89804,283.91458,283.91467,284.91382,284.91397,2.0,1.884711,286.7987,288.68152,3.768113,288.6822,289.242
38,38,2,16,0.5575,1,0,1,1.0,37.0,289.7416,290.7313,290.74844,290.74863,291.74792,291.74808,1.0,1.6666393,293.4147,295.51566,3.7681417,295.51633,296.0754
39,39,3,16,4.595,1,0,4,1.0,38.0,296.65384,297.56454,297.58124,297.58136,298.58142,298.58157,2.0,1.4330388,300.01462,302.34875,3.7677083,302.34937,306.94577
40,40,2,32,0.5575,1,8,0,1.0,39.0,307.44235,308.43118,308.44794,308.44806,309.4481,309.44824,1.0,1.6161853,311.06442,313.21573,3.7680464,313.2164,313.77673
41,41,3,32,2.98,1,0,8,1.0,40.0,314.32898,315.26474,315.2816,315.2817,316.2827,316.28287,2.0,1.7821614,318.06503,320.04962,3.7673247,320.0503,323.03284
42,42,2,32,0.5575,1,0,8,1.0,41.0,323.54166,324.53113,324.5482,324.5483,325.5477,325.54782,1.0,1.2841423,326.83197,329.31473,3.7674837,329.31543,329.87582
43,43,2,32,0.5575,1,0,3,1.0,42.0,330.3751,331.36423,331.38153,331.38168,332.38174,332.38187,2.0,1.7661767,334.14804,336.1496,3.768291,336.15027,336.7107
44,44,2,32,2.98,1,0,16,1.0,43.0,337.20847,338.19775,338.2146,338.21472,339.21472,339.21487,1.0,1.3000646,340.51495,342.98062,3.766298,342.9813,345.96234
45,45,3,16,2.98,1,0,8,1.0,44.0,346.52365,347.44742,347.46442,347.46448,348.46478,348.46494,2.0,2.1501307,350.61505,352.2307,3.766328,352.23138,355.21274
46,46,3,16,1.365,1,8,0,1.0,45.0,355.76297,356.69772,356.7148,356.71497,357.71472,357.71487,2.0,1.7001224,359.415,361.481,3.7666433,361.48163,362.8478
47,47,3,32,0.5575,1,2,0,1.0,46.0,363.41226,364.3477,364.36438,364.3645,365.36423,365.36438,2.0,1.450422,366.8148,369.1316,3.7677689,369.13223,369.6913
48,48,2,32,1.365,1,0,8,1.0,47.0,370.19135,371.181,371.19797,371.19812,372.1988,372.19894,2.0,1.632778,373.83173,375.96527,3.766904,375.96594,377.3337
