instrText,stimDoor,stimDoorLure,stimFace,stimFaceLure,Instructions.thisRepN,Instructions.thisTrialN,Instructions.thisN,Instructions.thisIndex,Trials.thisRepN,Trials.thisTrialN,Trials.thisN,Trials.thisIndex,Func,Keys,Text,RespTime,Onset,Offset,SystemTime_Start,SystemTime_Stop,Stim,Lure,Participant*,Age,date,expName,psychopyVersion,frameRate,
"In the earlier Feedback Games, you chose which doors contained a prize, and which peers liked you. 

You then saw positive or negative feedback (green check mark or red X) from the door or peer you selected.

You will now see a series of doors and peers, some of which you saw during the earlier Feedback Games, and some that you have never seen before.

Please press the spacebar to continue.",,,,,0,0,0,0,,,,,instrFunc,space,"In the earlier Feedback Games, you chose which doors contained a prize, and which peers liked you. 

You then saw positive or negative feedback (green check mark or red X) from the door or peer you selected.

You will now see a series of doors and peers, some of which you saw during the earlier Feedback Games, and some that you have never seen before.

Please press the spacebar to continue.",22.1477194998879,157.54550799983554,179.7547580797691,2023-10-16 15:08:59.200985,2023-10-16 15:09:21.397625,,,10801,30-49,2023-10-16_15h08.55.520,Recall,2021.2.3,59.95448257317843,
"For doors/peers that you remember selecting and getting feedback from, your job is to RECALL what feedback you received. 

Press '1' if you recall positive feedback. 

Press '2' if you recall negative feedback

Press the spacebar to continue.",,,,,0,1,1,1,,,,,instrFunc,space,"For doors/peers that you remember selecting and getting feedback from, your job is to RECALL what feedback you received. 

Press '1' if you recall positive feedback. 

Press '2' if you recall negative feedback

Press the spacebar to continue.",16.37471290002577,179.7265388998203,196.15206997981295,2023-10-16 15:09:21.398625,2023-10-16 15:09:37.808720,,,10801,30-49,2023-10-16_15h08.55.520,Recall,2021.2.3,59.95448257317843,
"For doors/peers that you don't remember getting feedback from, your job is to PREDICT what feedback you WOULD HAVE received.

Press '9' if you predict positive feedback.

Press '0' if you predict negative feedback. 

Please press the spacebar to continue.",,,,,0,2,2,2,,,,,instrFunc,space,"For doors/peers that you don't remember getting feedback from, your job is to PREDICT what feedback you WOULD HAVE received.

Press '9' if you predict positive feedback.

Press '0' if you predict negative feedback. 

Please press the spacebar to continue.",21.442693000193685,196.1386262997985,217.63505347981118,2023-10-16 15:09:37.809719,2023-10-16 15:09:59.290637,,,10801,30-49,2023-10-16_15h08.55.520,Recall,2021.2.3,59.95448257317843,
"This task is self-paced, and the prompts will always stay on the screen so that you know which buttons to press.

On the next screen we will show you what those prompts look like, so that you know exactly what to expect. 

You will start with either doors or peers, and then switch halfway through. 

Please press the spacebar to continue.",,,,,0,3,3,3,,,,,instrFunc,space,"This task is self-paced, and the prompts will always stay on the screen so that you know which buttons to press.

On the next screen we will show you what those prompts look like, so that you know exactly what to expect. 

You will start with either doors or peers, and then switch halfway through. 

Please press the spacebar to continue.",14.419585299910977,217.61741679999977,232.0926115801558,2023-10-16 15:09:59.291637,2023-10-16 15:10:13.751051,,,10801,30-49,2023-10-16_15h08.55.520,Recall,2021.2.3,59.95448257317843,
,,,,,,,,,,,,,imgtextFunc,space,"Here is what the screen will look like while you make your ratings.
The green circles remind you to press 1 or 9 for positive feedback.
The red circles remind you to press 2 or 0 for negative feedback.









Please let the experimenter know if you have any questions.

Whenever you're ready, press the spacebar to start the task.",17.99575740005821,232.2252690999303,250.40215207985602,2023-10-16 15:10:13.760981,2023-10-16 15:10:31.931231,,,10801,30-49,2023-10-16_15h08.55.520,Recall,2021.2.3,59.95448257317843,
,DD006.jpg,0,FF006.jpg,0,,,,,0,0,0,5,imgFunc,2,NA,9.430154199944809,250.3910357998684,259.9581820399035,2023-10-16 15:10:31.976086,2023-10-16 15:10:41.538284,FF006.jpg,0,10801,30-49,2023-10-16_15h08.55.520,Recall,2021.2.3,59.95448257317843,
,L_DD505.jpg,1,L_FF505.jpg,1,,,,,0,1,1,44,imgFunc,1,NA,2.284696899820119,259.92872019996867,262.3103244798258,2023-10-16 15:10:41.547593,2023-10-16 15:10:43.923250,L_FF505.jpg,1,10801,30-49,2023-10-16_15h08.55.520,Recall,2021.2.3,59.95448257317843,
,L_DD501.jpg,1,L_FF501.jpg,1,,,,,0,2,2,40,imgFunc,0,NA,3.4747850000858307,262.31455389992334,265.8845902797766,2023-10-16 15:10:43.931253,2023-10-16 15:10:47.492620,L_FF501.jpg,1,10801,30-49,2023-10-16_15h08.55.520,Recall,2021.2.3,59.95448257317843,
,L_DD502.jpg,1,L_FF502.jpg,1,,,,,0,3,3,41,imgFunc,1,NA,3.257692900020629,265.89180230000056,269.25317017990164,2023-10-16 15:10:47.504590,2023-10-16 15:10:50.861404,L_FF502.jpg,1,10801,30-49,2023-10-16_15h08.55.520,Recall,2021.2.3,59.95448257317843,
,DD019.jpg,0,FF019.jpg,0,,,,,0,4,4,18,imgFunc,9,NA,1.9405867999885231,269.25664649996907,271.30908538005315,2023-10-16 15:10:50.869208,2023-10-16 15:10:52.912418,FF019.jpg,0,10801,30-49,2023-10-16_15h08.55.520,Recall,2021.2.3,59.95448257317843,
,L_SD509.jpg,1,L_MF509.jpg,1,,,,,0,5,5,98,imgFunc,2,NA,2.103021200047806,271.30247539980337,273.5052845799364,2023-10-16 15:10:52.920420,2023-10-16 15:10:55.114619,L_MF509.jpg,1,10801,30-49,2023-10-16_15h08.55.520,Recall,2021.2.3,59.95448257317843,
,SD036.jpg,0,MF036.jpg,0,,,,,0,6,6,85,imgFunc,2,NA,1.1979785000439733,273.5034919998143,274.80599198001437,2023-10-16 15:10:55.121602,2023-10-16 15:10:56.415372,MF036.jpg,0,10801,30-49,2023-10-16_15h08.55.520,Recall,2021.2.3,59.95448257317843,
,SD019.jpg,0,MF019.jpg,0,,,,,0,7,7,68,imgFunc,1,NA,1.1336974001023918,274.81538799987175,276.05530977994204,2023-10-16 15:10:56.429359,2023-10-16 15:10:57.666512,MF019.jpg,0,10801,30-49,2023-10-16_15h08.55.520,Recall,2021.2.3,59.95448257317843,
,DD013.jpg,0,FF013.jpg,0,,,,,0,8,8,12,imgFunc,1,NA,5.082888500066474,276.0504668999929,281.2223495801445,2023-10-16 15:10:57.673740,2023-10-16 15:11:02.836887,FF013.jpg,0,10801,30-49,2023-10-16_15h08.55.520,Recall,2021.2.3,59.95448257317843,
,SD010.jpg,0,MF010.jpg,0,,,,,0,9,9,59,imgFunc,2,NA,3.757765799993649,281.247280200012,285.1307474800851,2023-10-16 15:11:02.845864,2023-10-16 15:11:06.722791,MF010.jpg,0,10801,30-49,2023-10-16_15h08.55.520,Recall,2021.2.3,59.95448257317843,
,L_SD507.jpg,1,L_MF507.jpg,1,,,,,0,10,10,96,imgFunc,2,NA,4.0953063000924885,285.12610819982365,289.3277970799245,2023-10-16 15:11:06.731769,2023-10-16 15:11:10.926032,L_MF507.jpg,1,10801,30-49,2023-10-16_15h08.55.520,Recall,2021.2.3,59.95448257317843,
,SD024.jpg,0,MF024.jpg,0,,,,,0,11,11,73,imgFunc,9,NA,1.9650701999198645,289.3362553999759,291.419516779948,2023-10-16 15:11:10.935031,2023-10-16 15:11:13.010506,MF024.jpg,0,10801,30-49,2023-10-16_15h08.55.520,Recall,2021.2.3,59.95448257317843,
,SD020.jpg,0,MF020.jpg,0,,,,,0,12,12,69,imgFunc,2,NA,3.949660399928689,291.41579839983024,295.47195457993075,2023-10-16 15:11:13.025489,2023-10-16 15:11:17.080205,MF020.jpg,0,10801,30-49,2023-10-16_15h08.55.520,Recall,2021.2.3,59.95448257317843,
,SD026.jpg,0,MF026.jpg,0,,,,,0,13,13,75,imgFunc,9,NA,3.496097900206223,295.46896849991754,299.0733392802067,2023-10-16 15:11:17.087188,2023-10-16 15:11:20.682757,MF026.jpg,0,10801,30-49,2023-10-16_15h08.55.520,Recall,2021.2.3,59.95448257317843,
,DD021.jpg,0,FF021.jpg,0,,,,,0,14,14,20,imgFunc,1,NA,1.5750909999478608,299.07827519997954,300.76458777999505,2023-10-16 15:11:20.689740,2023-10-16 15:11:22.367321,FF021.jpg,0,10801,30-49,2023-10-16_15h08.55.520,Recall,2021.2.3,59.95448257317843,
,SD006.jpg,0,MF006.jpg,0,,,,,0,15,15,55,imgFunc,1,NA,2.1188957998529077,300.7584667999763,302.97577497991733,2023-10-16 15:11:22.375315,2023-10-16 15:11:24.585557,MF006.jpg,0,10801,30-49,2023-10-16_15h08.55.520,Recall,2021.2.3,59.95448257317843,
,DD024.jpg,0,FF024.jpg,0,,,,,0,16,16,23,imgFunc,2,NA,3.89028330007568,302.9948940000031,306.99705738015473,2023-10-16 15:11:24.594535,2023-10-16 15:11:28.588623,FF024.jpg,0,10801,30-49,2023-10-16_15h08.55.520,Recall,2021.2.3,59.95448257317843,
,L_SD503.jpg,1,L_MF503.jpg,1,,,,,0,17,17,92,imgFunc,9,NA,1.8042806999292225,306.9770946998615,308.87972177984193,2023-10-16 15:11:28.595628,2023-10-16 15:11:30.489868,L_MF503.jpg,1,10801,30-49,2023-10-16_15h08.55.520,Recall,2021.2.3,59.95448257317843,
,SD040.jpg,0,MF040.jpg,0,,,,,0,18,18,89,imgFunc,2,NA,2.3845488999504596,308.87694029998966,311.3636905797757,2023-10-16 15:11:30.496851,2023-10-16 15:11:32.974774,MF040.jpg,0,10801,30-49,2023-10-16_15h08.55.520,Recall,2021.2.3,59.95448257317843,
,SD013.jpg,0,MF013.jpg,0,,,,,0,19,19,62,imgFunc,0,NA,4.253490900155157,311.3679384000134,315.7221746800933,2023-10-16 15:11:32.982777,2023-10-16 15:11:37.328131,MF013.jpg,0,10801,30-49,2023-10-16_15h08.55.520,Recall,2021.2.3,59.95448257317843,
,DD040.jpg,0,FF040.jpg,0,,,,,0,20,20,39,imgFunc,1,NA,2.1718693000730127,315.7375381998718,318.0218743798323,2023-10-16 15:11:37.336111,2023-10-16 15:11:39.613204,FF040.jpg,0,10801,30-49,2023-10-16_15h08.55.520,Recall,2021.2.3,59.95448257317843,
,L_SD502.jpg,1,L_MF502.jpg,1,,,,,0,21,21,91,imgFunc,9,NA,6.056307599879801,318.0211572998669,324.17990787979215,2023-10-16 15:11:39.627168,2023-10-16 15:11:45.784141,L_MF502.jpg,1,10801,30-49,2023-10-16_15h08.55.520,Recall,2021.2.3,59.95448257317843,
,DD018.jpg,0,FF018.jpg,0,,,,,0,22,22,17,imgFunc,1,NA,3.1160774000454694,324.185267199995,327.4179238800425,2023-10-16 15:11:45.793780,2023-10-16 15:11:49.019811,FF018.jpg,0,10801,30-49,2023-10-16_15h08.55.520,Recall,2021.2.3,59.95448257317843,
,DD020.jpg,0,FF020.jpg,0,,,,,0,23,23,19,imgFunc,1,NA,3.688787499908358,327.42062059999444,331.22473617992364,2023-10-16 15:11:49.026817,2023-10-16 15:11:52.822592,FF020.jpg,0,10801,30-49,2023-10-16_15h08.55.520,Recall,2021.2.3,59.95448257317843,
,DD015.jpg,0,FF015.jpg,0,,,,,0,24,24,14,imgFunc,9,NA,2.328103099949658,331.22932919999585,333.68076737993397,2023-10-16 15:11:52.831208,2023-10-16 15:11:55.274220,FF015.jpg,0,10801,30-49,2023-10-16_15h08.55.520,Recall,2021.2.3,59.95448257317843,
,L_DD509.jpg,1,L_FF509.jpg,1,,,,,0,25,25,48,imgFunc,1,NA,1.814413300016895,333.67905739997514,335.6153387799859,2023-10-16 15:11:55.281203,2023-10-16 15:11:57.209103,L_FF509.jpg,1,10801,30-49,2023-10-16_15h08.55.520,Recall,2021.2.3,59.95448257317843,
,DD008.jpg,0,FF008.jpg,0,,,,,0,26,26,7,imgFunc,1,NA,1.6811883999034762,335.61217059986666,337.40047528012656,2023-10-16 15:11:57.223068,2023-10-16 15:11:59.010189,FF008.jpg,0,10801,30-49,2023-10-16_15h08.55.520,Recall,2021.2.3,59.95448257317843,
,SD009.jpg,0,MF009.jpg,0,,,,,0,27,27,58,imgFunc,1,NA,1.748587200185284,337.4008132999297,339.2536507800687,2023-10-16 15:11:59.017983,2023-10-16 15:12:00.861651,MF009.jpg,0,10801,30-49,2023-10-16_15h08.55.520,Recall,2021.2.3,59.95448257317843,
,DD039.jpg,0,FF039.jpg,0,,,,,0,28,28,38,imgFunc,0,NA,2.4961119999643415,339.2611091998406,341.86503147985786,2023-10-16 15:12:00.868634,2023-10-16 15:12:03.463565,FF039.jpg,0,10801,30-49,2023-10-16_15h08.55.520,Recall,2021.2.3,59.95448257317843,
,L_DD504.jpg,1,L_FF504.jpg,1,,,,,0,29,29,43,imgFunc,0,NA,1.3792912000790238,341.8582166999113,343.3442743800115,2023-10-16 15:12:03.470548,2023-10-16 15:12:04.947786,L_FF504.jpg,1,10801,30-49,2023-10-16_15h08.55.520,Recall,2021.2.3,59.95448257317843,
,DD003.jpg,0,FF003.jpg,0,,,,,0,30,30,2,imgFunc,9,NA,2.986416900064796,343.3470246999059,346.45015977998264,2023-10-16 15:12:04.955767,2023-10-16 15:12:08.050003,FF003.jpg,0,10801,30-49,2023-10-16_15h08.55.520,Recall,2021.2.3,59.95448257317843,
,DD017.jpg,0,FF017.jpg,0,,,,,0,31,31,16,imgFunc,9,NA,4.150503900134936,346.4390189999249,350.69278968009166,2023-10-16 15:12:08.057984,2023-10-16 15:12:12.303069,FF017.jpg,0,10801,30-49,2023-10-16_15h08.55.520,Recall,2021.2.3,59.95448257317843,
,DD031.jpg,0,FF031.jpg,0,,,,,0,32,32,30,imgFunc,9,NA,1.0776213000062853,350.695907499874,351.88061557966284,2023-10-16 15:12:12.311049,2023-10-16 15:12:13.487379,FF031.jpg,0,10801,30-49,2023-10-16_15h08.55.520,Recall,2021.2.3,59.95448257317843,
,DD022.jpg,0,FF022.jpg,0,,,,,0,33,33,21,imgFunc,9,NA,2.8631538001354784,351.88601329992525,354.8561974798795,2023-10-16 15:12:13.494384,2023-10-16 15:12:16.456192,FF022.jpg,0,10801,30-49,2023-10-16_15h08.55.520,Recall,2021.2.3,59.95448257317843,
,L_DD507.jpg,1,L_FF507.jpg,1,,,,,0,34,34,46,imgFunc,1,NA,1.4246857999823987,354.86075899982825,356.3966886799317,2023-10-16 15:12:16.463175,2023-10-16 15:12:17.990369,L_FF507.jpg,1,10801,30-49,2023-10-16_15h08.55.520,Recall,2021.2.3,59.95448257317843,
,DD037.jpg,0,FF037.jpg,0,,,,,0,35,35,36,imgFunc,1,NA,1.518384899944067,356.3911224999465,358.0149366799742,2023-10-16 15:12:18.004315,2023-10-16 15:12:19.624978,FF037.jpg,0,10801,30-49,2023-10-16_15h08.55.520,Recall,2021.2.3,59.95448257317843,
,L_DD506.jpg,1,L_FF506.jpg,1,,,,,0,36,36,45,imgFunc,2,NA,1.90894480003044,358.0161579998676,360.03509437991306,2023-10-16 15:12:19.632958,2023-10-16 15:12:21.643241,L_FF506.jpg,1,10801,30-49,2023-10-16_15h08.55.520,Recall,2021.2.3,59.95448257317843,
,DD029.jpg,0,FF029.jpg,0,,,,,0,37,37,28,imgFunc,9,NA,6.532439599977806,360.0328087999951,366.67265957966447,2023-10-16 15:12:21.650224,2023-10-16 15:12:28.281231,FF029.jpg,0,10801,30-49,2023-10-16_15h08.55.520,Recall,2021.2.3,59.95448257317843,
,DD033.jpg,0,FF033.jpg,0,,,,,0,38,38,32,imgFunc,9,NA,1.7266881000250578,366.6947051999159,368.544069880154,2023-10-16 15:12:28.290231,2023-10-16 15:12:30.132627,FF033.jpg,0,10801,30-49,2023-10-16_15h08.55.520,Recall,2021.2.3,59.95448257317843,
,DD026.jpg,0,FF026.jpg,0,,,,,0,39,39,25,imgFunc,1,NA,1.9968296999577433,368.5445776998531,370.6632811797317,2023-10-16 15:12:30.140608,2023-10-16 15:12:32.250726,FF026.jpg,0,10801,30-49,2023-10-16_15h08.55.520,Recall,2021.2.3,59.95448257317843,
,SD028.jpg,0,MF028.jpg,0,,,,,0,40,40,77,imgFunc,1,NA,1.8183054998517036,370.6511861998588,372.5728485798463,2023-10-16 15:12:32.265688,2023-10-16 15:12:34.185451,MF028.jpg,0,10801,30-49,2023-10-16_15h08.55.520,Recall,2021.2.3,59.95448257317843,
,DD011.jpg,0,FF011.jpg,0,,,,,0,41,41,10,imgFunc,9,NA,2.328813400119543,372.57252159994096,374.99285298003815,2023-10-16 15:12:34.192435,2023-10-16 15:12:36.604057,FF011.jpg,0,10801,30-49,2023-10-16_15h08.55.520,Recall,2021.2.3,59.95448257317843,
,SD039.jpg,0,MF039.jpg,0,,,,,0,42,42,88,imgFunc,1,NA,1.8223029000218958,374.9991473997943,376.93514167983085,2023-10-16 15:12:36.611040,2023-10-16 15:12:38.538478,MF039.jpg,0,10801,30-49,2023-10-16_15h08.55.520,Recall,2021.2.3,59.95448257317843,
,DD028.jpg,0,FF028.jpg,0,,,,,0,43,43,27,imgFunc,9,NA,1.7976057000923902,376.93547199992463,378.8385337800719,2023-10-16 15:12:38.545461,2023-10-16 15:12:40.439862,FF028.jpg,0,10801,30-49,2023-10-16_15h08.55.520,Recall,2021.2.3,59.95448257317843,
,L_SD506.jpg,1,L_MF506.jpg,1,,,,,0,44,44,95,imgFunc,2,NA,2.8433124001603574,378.8418744998053,381.7952887797728,2023-10-16 15:12:40.446868,2023-10-16 15:12:43.392086,L_MF506.jpg,1,10801,30-49,2023-10-16_15h08.55.520,Recall,2021.2.3,59.95448257317843,
,SD037.jpg,0,MF037.jpg,0,,,,,0,45,45,86,imgFunc,2,NA,0.7813625000417233,381.7841310999356,382.6691172802821,2023-10-16 15:12:43.400067,2023-10-16 15:12:44.276188,MF037.jpg,0,10801,30-49,2023-10-16_15h08.55.520,Recall,2021.2.3,59.95448257317843,
,L_DD503.jpg,1,L_FF503.jpg,1,,,,,0,46,46,42,imgFunc,0,NA,2.2784583000466228,382.662896099966,385.03296698001213,2023-10-16 15:12:44.283171,2023-10-16 15:12:46.644467,L_FF503.jpg,1,10801,30-49,2023-10-16_15h08.55.520,Recall,2021.2.3,59.95448257317843,
,DD035.jpg,0,FF035.jpg,0,,,,,0,47,47,34,imgFunc,9,NA,1.7907257000915706,385.03874739981256,386.94139188015833,2023-10-16 15:12:46.651450,2023-10-16 15:12:48.545669,FF035.jpg,0,10801,30-49,2023-10-16_15h08.55.520,Recall,2021.2.3,59.95448257317843,
,SD033.jpg,0,MF033.jpg,0,,,,,0,48,48,82,imgFunc,9,NA,3.0994722000323236,386.9460290998686,390.14954237965867,2023-10-16 15:12:48.553649,2023-10-16 15:12:51.748212,MF033.jpg,0,10801,30-49,2023-10-16_15h08.55.520,Recall,2021.2.3,59.95448257317843,
,DD027.jpg,0,FF027.jpg,0,,,,,0,49,49,26,imgFunc,9,NA,2.2127513999585062,390.15267959982157,392.4752418799326,2023-10-16 15:12:51.762175,2023-10-16 15:12:54.083214,FF027.jpg,0,10801,30-49,2023-10-16_15h08.55.520,Recall,2021.2.3,59.95448257317843,
,DD010.jpg,0,FF010.jpg,0,,,,,0,50,50,9,imgFunc,9,NA,1.7529395001474768,392.46851099980995,394.3215536798816,2023-10-16 15:12:54.090217,2023-10-16 15:12:55.934445,FF010.jpg,0,10801,30-49,2023-10-16_15h08.55.520,Recall,2021.2.3,59.95448257317843,
,SD004.jpg,0,MF004.jpg,0,,,,,0,51,51,53,imgFunc,9,NA,2.1453084000386298,394.332069600001,396.5855050799437,2023-10-16 15:12:55.941428,2023-10-16 15:12:58.185871,MF004.jpg,0,10801,30-49,2023-10-16_15h08.55.520,Recall,2021.2.3,59.95448257317843,
,L_SD505.jpg,1,L_MF505.jpg,1,,,,,0,52,52,94,imgFunc,1,NA,1.7994089999701828,396.58191499998793,398.4845611799974,2023-10-16 15:12:58.192855,2023-10-16 15:13:00.086955,L_MF505.jpg,1,10801,30-49,2023-10-16_15h08.55.520,Recall,2021.2.3,59.95448257317843,
,SD031.jpg,0,MF031.jpg,0,,,,,0,53,53,80,imgFunc,1,NA,0.9747434998862445,398.47838509990834,399.56438197987154,2023-10-16 15:13:00.093943,2023-10-16 15:13:01.171535,MF031.jpg,0,10801,30-49,2023-10-16_15h08.55.520,Recall,2021.2.3,59.95448257317843,
,DD005.jpg,0,FF005.jpg,0,,,,,0,54,54,4,imgFunc,9,NA,3.9002829999662936,399.56908469996415,403.5573630798608,2023-10-16 15:13:01.186497,2023-10-16 15:13:05.174549,FF005.jpg,0,10801,30-49,2023-10-16_15h08.55.520,Recall,2021.2.3,59.95448257317843,
,DD014.jpg,0,FF014.jpg,0,,,,,0,55,55,13,imgFunc,0,NA,1.2246407000347972,403.5646682998631,404.8840136800427,2023-10-16 15:13:05.181532,2023-10-16 15:13:06.492182,FF014.jpg,0,10801,30-49,2023-10-16_15h08.55.520,Recall,2021.2.3,59.95448257317843,
,DD012.jpg,0,FF012.jpg,0,,,,,0,56,56,11,imgFunc,9,NA,1.532524700043723,404.88892549998127,406.5249151799362,2023-10-16 15:13:06.499153,2023-10-16 15:13:08.126543,FF012.jpg,0,10801,30-49,2023-10-16_15h08.55.520,Recall,2021.2.3,59.95448257317843,
,L_DD510.jpg,1,L_FF510.jpg,1,,,,,0,57,57,49,imgFunc,0,NA,1.229772200109437,406.51164279994555,407.8306976798922,2023-10-16 15:13:08.133548,2023-10-16 15:13:09.444179,L_FF510.jpg,1,10801,30-49,2023-10-16_15h08.55.520,Recall,2021.2.3,59.95448257317843,
,DD038.jpg,0,FF038.jpg,0,,,,,0,58,58,37,imgFunc,0,NA,0.9099038001149893,407.83966870000586,408.858551079873,2023-10-16 15:13:09.451162,2023-10-16 15:13:10.461499,FF038.jpg,0,10801,30-49,2023-10-16_15h08.55.520,Recall,2021.2.3,59.95448257317843,
,SD029.jpg,0,MF029.jpg,0,,,,,0,59,59,78,imgFunc,1,NA,1.5090622000861913,408.84823819994926,410.45143317990005,2023-10-16 15:13:10.468482,2023-10-16 15:13:12.062769,MF029.jpg,0,10801,30-49,2023-10-16_15h08.55.520,Recall,2021.2.3,59.95448257317843,
,SD038.jpg,0,MF038.jpg,0,,,,,0,60,60,87,imgFunc,0,NA,2.0739698000252247,410.4515565999318,412.62169348006137,2023-10-16 15:13:12.069752,2023-10-16 15:13:14.230864,MF038.jpg,0,10801,30-49,2023-10-16_15h08.55.520,Recall,2021.2.3,59.95448257317843,
,DD004.jpg,0,FF004.jpg,0,,,,,0,61,61,3,imgFunc,9,NA,2.520960400113836,412.62069149990566,415.2406336800195,2023-10-16 15:13:14.237847,2023-10-16 15:13:16.849092,FF004.jpg,0,10801,30-49,2023-10-16_15h08.55.520,Recall,2021.2.3,59.95448257317843,
,SD017.jpg,0,MF017.jpg,0,,,,,0,62,62,66,imgFunc,9,NA,2.1632113999221474,415.2502923000138,417.52004198008217,2023-10-16 15:13:16.857095,2023-10-16 15:13:19.117963,MF017.jpg,0,10801,30-49,2023-10-16_15h08.55.520,Recall,2021.2.3,59.95448257317843,
,SD027.jpg,0,MF027.jpg,0,,,,,0,63,63,76,imgFunc,1,NA,1.7915987998712808,417.5094916999806,419.4002836798318,2023-10-16 15:13:19.130930,2023-10-16 15:13:21.018699,MF027.jpg,0,10801,30-49,2023-10-16_15h08.55.520,Recall,2021.2.3,59.95448257317843,
,DD007.jpg,0,FF007.jpg,0,,,,,0,64,64,6,imgFunc,1,NA,1.6044540000148118,419.40888709994033,421.1121541799512,2023-10-16 15:13:21.025679,2023-10-16 15:13:22.720453,FF007.jpg,0,10801,30-49,2023-10-16_15h08.55.520,Recall,2021.2.3,59.95448257317843,
,DD025.jpg,0,FF025.jpg,0,,,,,0,65,65,24,imgFunc,9,NA,3.2072962999809533,421.11017319979146,424.41471207980067,2023-10-16 15:13:22.727436,2023-10-16 15:13:26.022976,FF025.jpg,0,10801,30-49,2023-10-16_15h08.55.520,Recall,2021.2.3,59.95448257317843,
,SD008.jpg,0,MF008.jpg,0,,,,,0,66,66,57,imgFunc,9,NA,1.5050858000759035,424.4042636998929,426.00665588025004,2023-10-16 15:13:26.029958,2023-10-16 15:13:27.623618,MF008.jpg,0,10801,30-49,2023-10-16_15h08.55.520,Recall,2021.2.3,59.95448257317843,
,DD036.jpg,0,FF036.jpg,0,,,,,0,67,67,35,imgFunc,9,NA,2.222408600151539,426.01502149994485,428.33503067982383,2023-10-16 15:13:27.630601,2023-10-16 15:13:29.942057,FF036.jpg,0,10801,30-49,2023-10-16_15h08.55.520,Recall,2021.2.3,59.95448257317843,
,L_SD508.jpg,1,L_MF508.jpg,1,,,,,0,68,68,97,imgFunc,9,NA,1.4682350000366569,428.34522069990635,429.91584728006274,2023-10-16 15:13:29.957019,2023-10-16 15:13:31.526390,L_MF508.jpg,1,10801,30-49,2023-10-16_15h08.55.520,Recall,2021.2.3,59.95448257317843,
,SD032.jpg,0,MF032.jpg,0,,,,,0,69,69,81,imgFunc,9,NA,2.001794199924916,429.915671199793,432.01880787988193,2023-10-16 15:13:31.533373,2023-10-16 15:13:33.628017,MF032.jpg,0,10801,30-49,2023-10-16_15h08.55.520,Recall,2021.2.3,59.95448257317843,
,SD014.jpg,0,MF014.jpg,0,,,,,0,70,70,63,imgFunc,0,NA,1.5874838000163436,432.0100679998286,433.6965987798758,2023-10-16 15:13:33.635000,2023-10-16 15:13:35.312765,MF014.jpg,0,10801,30-49,2023-10-16_15h08.55.520,Recall,2021.2.3,59.95448257317843,
,L_SD504.jpg,1,L_MF504.jpg,1,,,,,0,71,71,93,imgFunc,0,NA,1.020005000056699,433.69752059993334,434.8167725801468,2023-10-16 15:13:35.319748,2023-10-16 15:13:36.429921,L_MF504.jpg,1,10801,30-49,2023-10-16_15h08.55.520,Recall,2021.2.3,59.95448257317843,
,L_SD510.jpg,1,L_MF510.jpg,1,,,,,0,72,72,99,imgFunc,0,NA,5.554144100053236,434.82719259988517,440.4830383800436,2023-10-16 15:13:36.436904,2023-10-16 15:13:42.084122,L_MF510.jpg,1,10801,30-49,2023-10-16_15h08.55.520,Recall,2021.2.3,59.95448257317843,
,DD023.jpg,0,FF023.jpg,0,,,,,0,73,73,22,imgFunc,9,NA,4.436190699925646,440.4813086998183,445.0153057796415,2023-10-16 15:13:42.093100,2023-10-16 15:13:46.620681,FF023.jpg,0,10801,30-49,2023-10-16_15h08.55.520,Recall,2021.2.3,59.95448257317843,
,SD016.jpg,0,MF016.jpg,0,,,,,0,74,74,65,imgFunc,9,NA,2.2767862998880446,445.0087301998865,447.3765773801133,2023-10-16 15:13:46.628610,2023-10-16 15:13:48.989056,MF016.jpg,0,10801,30-49,2023-10-16_15h08.55.520,Recall,2021.2.3,59.95448257317843,
,SD003.jpg,0,MF003.jpg,0,,,,,0,75,75,52,imgFunc,2,NA,3.3041133999358863,447.38936819997616,450.809961280087,2023-10-16 15:13:48.996039,2023-10-16 15:13:52.408000,MF003.jpg,0,10801,30-49,2023-10-16_15h08.55.520,Recall,2021.2.3,59.95448257317843,
,DD034.jpg,0,FF034.jpg,0,,,,,0,76,76,33,imgFunc,1,NA,2.1072582001797855,450.81007459992543,453.0289909800049,2023-10-16 15:13:52.415980,2023-10-16 15:13:54.626171,FF034.jpg,0,10801,30-49,2023-10-16_15h08.55.520,Recall,2021.2.3,59.95448257317843,
,DD032.jpg,0,FF032.jpg,0,,,,,0,77,77,31,imgFunc,9,NA,3.4962801001966,453.0212576999329,456.6133913800586,2023-10-16 15:13:54.639171,2023-10-16 15:13:58.229011,FF032.jpg,0,10801,30-49,2023-10-16_15h08.55.520,Recall,2021.2.3,59.95448257317843,
,SD022.jpg,0,MF022.jpg,0,,,,,0,78,78,71,imgFunc,9,NA,2.4283996999729425,456.6251989000011,459.1620044801384,2023-10-16 15:13:58.235994,2023-10-16 15:14:00.763999,MF022.jpg,0,10801,30-49,2023-10-16_15h08.55.520,Recall,2021.2.3,59.95448257317843,
,SD012.jpg,0,MF012.jpg,0,,,,,0,79,79,61,imgFunc,9,NA,0.6433836999349296,459.1539806998335,459.9061774800066,2023-10-16 15:14:00.770982,2023-10-16 15:14:01.514553,MF012.jpg,0,10801,30-49,2023-10-16_15h08.55.520,Recall,2021.2.3,59.95448257317843,
,SD001.jpg,0,MF001.jpg,0,,,,,0,80,80,50,imgFunc,9,NA,2.470756000140682,459.90260249981657,462.472217279952,2023-10-16 15:14:01.522533,2023-10-16 15:14:04.083190,MF001.jpg,0,10801,30-49,2023-10-16_15h08.55.520,Recall,2021.2.3,59.95448257317843,
,L_SD501.jpg,1,L_MF501.jpg,1,,,,,0,81,81,90,imgFunc,0,NA,1.558333800174296,462.47911909990944,464.14700038009323,2023-10-16 15:14:04.091192,2023-10-16 15:14:05.750882,L_MF501.jpg,1,10801,30-49,2023-10-16_15h08.55.520,Recall,2021.2.3,59.95448257317843,
,L_DD508.jpg,1,L_FF508.jpg,1,,,,,0,82,82,47,imgFunc,0,NA,1.1719176000915468,464.1535747000016,465.42262638011016,2023-10-16 15:14:05.766842,2023-10-16 15:14:07.035155,L_FF508.jpg,1,10801,30-49,2023-10-16_15h08.55.520,Recall,2021.2.3,59.95448257317843,
,SD025.jpg,0,MF025.jpg,0,,,,,0,83,83,74,imgFunc,9,NA,1.6374109000898898,465.42408559983596,467.1603830798995,2023-10-16 15:14:07.042138,2023-10-16 15:14:08.769470,MF025.jpg,0,10801,30-49,2023-10-16_15h08.55.520,Recall,2021.2.3,59.95448257317843,
,SD021.jpg,0,MF021.jpg,0,,,,,0,84,84,70,imgFunc,9,NA,1.3911516000516713,467.16599759995006,468.66946458024904,2023-10-16 15:14:08.776453,2023-10-16 15:14:10.270958,MF021.jpg,0,10801,30-49,2023-10-16_15h08.55.520,Recall,2021.2.3,59.95448257317843,
,SD002.jpg,0,MF002.jpg,0,,,,,0,85,85,51,imgFunc,0,NA,1.8981836000457406,468.6753663998097,470.6934670798946,2023-10-16 15:14:10.278937,2023-10-16 15:14:12.288863,MF002.jpg,0,10801,30-49,2023-10-16_15h08.55.520,Recall,2021.2.3,59.95448257317843,
,SD005.jpg,0,MF005.jpg,0,,,,,0,86,86,54,imgFunc,9,NA,2.476221799850464,470.68934659985825,473.27676287991926,2023-10-16 15:14:12.295846,2023-10-16 15:14:14.874248,MF005.jpg,0,10801,30-49,2023-10-16_15h08.55.520,Recall,2021.2.3,59.95448257317843,
,SD035.jpg,0,MF035.jpg,0,,,,,0,87,87,84,imgFunc,9,NA,1.231849699979648,473.26931989984587,474.6058416797314,2023-10-16 15:14:14.881231,2023-10-16 15:14:16.208653,MF035.jpg,0,10801,30-49,2023-10-16_15h08.55.520,Recall,2021.2.3,59.95448257317843,
,SD015.jpg,0,MF015.jpg,0,,,,,0,88,88,64,imgFunc,9,NA,0.800673799822107,474.59692569985054,475.4995483797975,2023-10-16 15:14:16.215635,2023-10-16 15:14:17.109179,MF015.jpg,0,10801,30-49,2023-10-16_15h08.55.520,Recall,2021.2.3,59.95448257317843,
,SD018.jpg,0,MF018.jpg,0,,,,,0,89,89,67,imgFunc,9,NA,0.5010142000392079,475.504297999898,476.10681338002905,2023-10-16 15:14:17.116162,2023-10-16 15:14:17.709618,MF018.jpg,0,10801,30-49,2023-10-16_15h08.55.520,Recall,2021.2.3,59.95448257317843,
,DD002.jpg,0,FF002.jpg,0,,,,,0,90,90,1,imgFunc,9,NA,0.6911875000223517,476.106460099807,476.9072148797568,2023-10-16 15:14:17.717598,2023-10-16 15:14:18.510094,FF002.jpg,0,10801,30-49,2023-10-16_15h08.55.520,Recall,2021.2.3,59.95448257317843,
,SD023.jpg,0,MF023.jpg,0,,,,,0,91,91,72,imgFunc,9,NA,6.7944660999346524,476.907041199971,483.8015247799922,2023-10-16 15:14:18.523094,2023-10-16 15:14:25.415152,MF023.jpg,0,10801,30-49,2023-10-16_15h08.55.520,Recall,2021.2.3,59.95448257317843,
,DD030.jpg,0,FF030.jpg,0,,,,,0,92,92,29,imgFunc,9,NA,1.8181701998692006,483.81136199994944,485.72813028027304,2023-10-16 15:14:25.424130,2023-10-16 15:14:27.333240,FF030.jpg,0,10801,30-49,2023-10-16_15h08.55.520,Recall,2021.2.3,59.95448257317843,
,SD007.jpg,0,MF007.jpg,0,,,,,0,93,93,56,imgFunc,9,NA,1.6155352999921888,485.73364549991675,487.4696548799984,2023-10-16 15:14:27.340223,2023-10-16 15:14:29.067640,MF007.jpg,0,10801,30-49,2023-10-16_15h08.55.520,Recall,2021.2.3,59.95448257317843,
,SD030.jpg,0,MF030.jpg,0,,,,,0,94,94,79,imgFunc,9,NA,4.237772900145501,487.47973299981095,491.8342387799639,2023-10-16 15:14:29.074623,2023-10-16 15:14:33.420678,MF030.jpg,0,10801,30-49,2023-10-16_15h08.55.520,Recall,2021.2.3,59.95448257317843,
,SD034.jpg,0,MF034.jpg,0,,,,,0,95,95,83,imgFunc,0,NA,1.220109999878332,491.83309079986066,493.18493527988903,2023-10-16 15:14:33.428659,2023-10-16 15:14:34.771557,MF034.jpg,0,10801,30-49,2023-10-16_15h08.55.520,Recall,2021.2.3,59.95448257317843,
,DD009.jpg,0,FF009.jpg,0,,,,,0,96,96,8,imgFunc,9,NA,3.1067429000977427,493.1785887000151,496.38429768010974,2023-10-16 15:14:34.786541,2023-10-16 15:14:37.991129,FF009.jpg,0,10801,30-49,2023-10-16_15h08.55.520,Recall,2021.2.3,59.95448257317843,
,DD016.jpg,0,FF016.jpg,0,,,,,0,97,97,15,imgFunc,0,NA,0.9927782998420298,496.3804901998956,497.4824771799613,2023-10-16 15:14:37.998135,2023-10-16 15:14:39.091400,FF016.jpg,0,10801,30-49,2023-10-16_15h08.55.520,Recall,2021.2.3,59.95448257317843,
,SD011.jpg,0,MF011.jpg,0,,,,,0,98,98,60,imgFunc,0,NA,0.975348899839446,497.4861122998409,498.57187027973123,2023-10-16 15:14:39.098383,2023-10-16 15:14:40.175559,MF011.jpg,0,10801,30-49,2023-10-16_15h08.55.520,Recall,2021.2.3,59.95448257317843,
,DD001.jpg,0,FF001.jpg,0,,,,,0,99,99,0,imgFunc,0,NA,0.8803810998797417,498.57337799994275,499.55944508011453,2023-10-16 15:14:40.182542,2023-10-16 15:14:41.159765,FF001.jpg,0,10801,30-49,2023-10-16_15h08.55.520,Recall,2021.2.3,59.95448257317843,
,,,,,,,,,,,,,instrFunc,space,"Great work! 

 Now you will switch to the other image type.

 Press the spacebar whenever you are ready to start.",2.2797063998878,499.4776651998982,501.8092251799535,2023-10-16 15:14:41.160765,2023-10-16 15:14:43.476463,,,10801,30-49,2023-10-16_15h08.55.520,Recall,2021.2.3,59.95448257317843,
,SD018.jpg,0,MF018.jpg,0,,,,,0,0,0,67,imgFunc,2,NA,7.48552339989692,501.8881087999325,509.47214736021124,2023-10-16 15:14:43.504390,2023-10-16 15:14:51.083501,SD018.jpg,0,10801,30-49,2023-10-16_15h08.55.520,Recall,2021.2.3,59.95448257317843,
,L_SD507.jpg,1,L_MF507.jpg,1,,,,,0,1,1,96,imgFunc,0,NA,2.953128500143066,509.4682497999165,512.5185751800891,2023-10-16 15:14:51.092479,2023-10-16 15:14:54.135811,L_SD507.jpg,1,10801,30-49,2023-10-16_15h08.55.520,Recall,2021.2.3,59.95448257317843,
,DD025.jpg,0,FF025.jpg,0,,,,,0,2,2,24,imgFunc,9,NA,8.384241099935025,512.5172170998994,520.9908827797044,2023-10-16 15:14:54.142795,2023-10-16 15:15:02.608440,DD025.jpg,0,10801,30-49,2023-10-16_15h08.55.520,Recall,2021.2.3,59.95448257317843,
,SD023.jpg,0,MF023.jpg,0,,,,,0,3,3,72,imgFunc,9,NA,2.9398751999251544,521.0097271997947,524.0515461799223,2023-10-16 15:15:02.621407,2023-10-16 15:15:05.660386,SD023.jpg,0,10801,30-49,2023-10-16_15h08.55.520,Recall,2021.2.3,59.95448257317843,
,DD002.jpg,0,FF002.jpg,0,,,,,0,4,4,1,imgFunc,1,NA,2.0669963997788727,524.0424577000085,526.1965173801873,2023-10-16 15:15:05.667369,2023-10-16 15:15:07.812780,DD002.jpg,0,10801,30-49,2023-10-16_15h08.55.520,Recall,2021.2.3,59.95448257317843,
,DD020.jpg,0,FF020.jpg,0,,,,,0,5,5,19,imgFunc,1,NA,3.6615422999020666,526.1999170999043,529.9539992802311,2023-10-16 15:15:07.819764,2023-10-16 15:15:11.564889,DD020.jpg,0,10801,30-49,2023-10-16_15h08.55.520,Recall,2021.2.3,59.95448257317843,
,DD034.jpg,0,FF034.jpg,0,,,,,0,6,6,33,imgFunc,1,NA,2.1570564000867307,529.9524065998849,532.2054059801158,2023-10-16 15:15:11.571872,2023-10-16 15:15:13.816389,DD034.jpg,0,10801,30-49,2023-10-16_15h08.55.520,Recall,2021.2.3,59.95448257317843,
,DD007.jpg,0,FF007.jpg,0,,,,,0,7,7,6,imgFunc,2,NA,1.5578259001486003,532.2158187997993,533.8854420799762,2023-10-16 15:15:13.823372,2023-10-16 15:15:15.484267,DD007.jpg,0,10801,30-49,2023-10-16_15h08.55.520,Recall,2021.2.3,59.95448257317843,
,DD039.jpg,0,FF039.jpg,0,,,,,0,8,8,38,imgFunc,1,NA,5.6533415000885725,533.8801103997976,539.6221748797689,2023-10-16 15:15:15.498231,2023-10-16 15:15:21.238411,DD039.jpg,0,10801,30-49,2023-10-16_15h08.55.520,Recall,2021.2.3,59.95448257317843,
,DD038.jpg,0,FF038.jpg,0,,,,,0,9,9,37,imgFunc,9,NA,2.6665597001556307,539.6189564999659,542.3691176800057,2023-10-16 15:15:21.247388,2023-10-16 15:15:23.990446,DD038.jpg,0,10801,30-49,2023-10-16_15h08.55.520,Recall,2021.2.3,59.95448257317843,
,L_SD508.jpg,1,L_MF508.jpg,1,,,,,0,10,10,97,imgFunc,0,NA,2.5187917000148445,542.366736299824,544.9698924797121,2023-10-16 15:15:23.997429,2023-10-16 15:15:26.592183,L_SD508.jpg,1,10801,30-49,2023-10-16_15h08.55.520,Recall,2021.2.3,59.95448257317843,
,SD031.jpg,0,MF031.jpg,0,,,,,0,11,11,80,imgFunc,0,NA,1.9792235000059009,544.9782686999533,547.0647590798326,2023-10-16 15:15:26.599167,2023-10-16 15:15:28.676944,SD031.jpg,0,10801,30-49,2023-10-16_15h08.55.520,Recall,2021.2.3,59.95448257317843,
,SD015.jpg,0,MF015.jpg,0,,,,,0,12,12,64,imgFunc,2,NA,3.7762522001285106,547.0774915998336,550.9650721796788,2023-10-16 15:15:28.683927,2023-10-16 15:15:32.562965,SD015.jpg,0,10801,30-49,2023-10-16_15h08.55.520,Recall,2021.2.3,59.95448257317843,
,DD005.jpg,0,FF005.jpg,0,,,,,0,13,13,4,imgFunc,0,NA,2.6528248998802155,550.9447617998812,553.698737379862,2023-10-16 15:15:32.569948,2023-10-16 15:15:35.314981,DD005.jpg,0,10801,30-49,2023-10-16_15h08.55.520,Recall,2021.2.3,59.95448257317843,
,SD025.jpg,0,MF025.jpg,0,,,,,0,14,14,74,imgFunc,9,NA,2.318871899973601,553.6947093999479,556.098018779885,2023-10-16 15:15:35.321964,2023-10-16 15:15:37.716998,SD025.jpg,0,10801,30-49,2023-10-16_15h08.55.520,Recall,2021.2.3,59.95448257317843,
,SD002.jpg,0,MF002.jpg,0,,,,,0,15,15,51,imgFunc,9,NA,1.3457913000602275,556.1078694998287,557.5601550797,2023-10-16 15:15:37.724001,2023-10-16 15:15:39.167698,SD002.jpg,0,10801,30-49,2023-10-16_15h08.55.520,Recall,2021.2.3,59.95448257317843,
,DD016.jpg,0,FF016.jpg,0,,,,,0,16,16,15,imgFunc,0,NA,2.0994301000609994,557.570180399809,559.7892395798117,2023-10-16 15:15:39.175485,2023-10-16 15:15:41.386024,DD016.jpg,0,10801,30-49,2023-10-16_15h08.55.520,Recall,2021.2.3,59.95448257317843,
,DD027.jpg,0,FF027.jpg,0,,,,,0,17,17,26,imgFunc,1,NA,1.597630500094965,559.7839824999683,561.4731848798692,2023-10-16 15:15:41.399988,2023-10-16 15:15:43.087550,DD027.jpg,0,10801,30-49,2023-10-16_15h08.55.520,Recall,2021.2.3,59.95448257317843,
,SD010.jpg,0,MF010.jpg,0,,,,,0,18,18,59,imgFunc,1,NA,1.1602203999646008,561.4773572999984,562.7466522799805,2023-10-16 15:15:43.094533,2023-10-16 15:15:44.354817,SD010.jpg,0,10801,30-49,2023-10-16_15h08.55.520,Recall,2021.2.3,59.95448257317843,
,L_SD503.jpg,1,L_MF503.jpg,1,,,,,0,19,19,92,imgFunc,0,NA,1.8844435999635607,562.7370052000042,564.7236052798107,2023-10-16 15:15:44.361800,2023-10-16 15:15:46.339979,L_SD503.jpg,1,10801,30-49,2023-10-16_15h08.55.520,Recall,2021.2.3,59.95448257317843,
,DD023.jpg,0,FF023.jpg,0,,,,,0,20,20,22,imgFunc,9,NA,1.7880737998057157,564.7214395999908,566.6077035800554,2023-10-16 15:15:46.346961,2023-10-16 15:15:48.224367,DD023.jpg,0,10801,30-49,2023-10-16_15h08.55.520,Recall,2021.2.3,59.95448257317843,
,SD035.jpg,0,MF035.jpg,0,,,,,0,21,21,84,imgFunc,0,NA,1.1018910999409854,566.6077517999802,567.8101611800957,2023-10-16 15:15:48.231350,2023-10-16 15:15:49.425015,SD035.jpg,0,10801,30-49,2023-10-16_15h08.55.520,Recall,2021.2.3,59.95448257317843,
,DD029.jpg,0,FF029.jpg,0,,,,,0,22,22,28,imgFunc,0,NA,2.749868599930778,567.8236714999657,570.66221647989,2023-10-16 15:15:49.439999,2023-10-16 15:15:52.277171,DD029.jpg,0,10801,30-49,2023-10-16_15h08.55.520,Recall,2021.2.3,59.95448257317843,
,SD014.jpg,0,MF014.jpg,0,,,,,0,23,23,63,imgFunc,0,NA,2.8875645000953227,570.6537754999008,573.6247450797819,2023-10-16 15:15:52.284154,2023-10-16 15:15:55.245690,SD014.jpg,0,10801,30-49,2023-10-16_15h08.55.520,Recall,2021.2.3,59.95448257317843,
,SD003.jpg,0,MF003.jpg,0,,,,,0,24,24,52,imgFunc,9,NA,1.7722412999719381,573.6253976000007,575.4943295801058,2023-10-16 15:15:55.253697,2023-10-16 15:15:57.113891,SD003.jpg,0,10801,30-49,2023-10-16_15h08.55.520,Recall,2021.2.3,59.95448257317843,
,DD013.jpg,0,FF013.jpg,0,,,,,0,25,25,12,imgFunc,0,NA,1.113551100017503,575.4999644998461,576.7189858797938,2023-10-16 15:15:57.120874,2023-10-16 15:15:58.331362,DD013.jpg,0,10801,30-49,2023-10-16_15h08.55.520,Recall,2021.2.3,59.95448257317843,
,DD033.jpg,0,FF033.jpg,0,,,,,0,26,26,32,imgFunc,9,NA,0.8480352000333369,576.70940159983,577.6451006797142,2023-10-16 15:15:58.338345,2023-10-16 15:15:59.265623,DD033.jpg,0,10801,30-49,2023-10-16_15h08.55.520,Recall,2021.2.3,59.95448257317843,
,SD021.jpg,0,MF021.jpg,0,,,,,0,27,27,70,imgFunc,0,NA,0.6953284000046551,577.6619223000016,578.4485190801788,2023-10-16 15:15:59.280585,2023-10-16 15:16:00.066006,SD021.jpg,0,10801,30-49,2023-10-16_15h08.55.520,Recall,2021.2.3,59.95448257317843,
,DD011.jpg,0,FF011.jpg,0,,,,,0,28,28,10,imgFunc,1,NA,1.6723065001424402,578.4533916998189,580.2219180800021,2023-10-16 15:16:00.073985,2023-10-16 15:16:01.833812,DD011.jpg,0,10801,30-49,2023-10-16_15h08.55.520,Recall,2021.2.3,59.95448257317843,
,L_DD501.jpg,1,L_FF501.jpg,1,,,,,0,29,29,40,imgFunc,9,NA,4.12288079992868,580.2186896998901,584.4395576799288,2023-10-16 15:16:01.841793,2023-10-16 15:16:06.053847,L_DD501.jpg,1,10801,30-49,2023-10-16_15h08.55.520,Recall,2021.2.3,59.95448257317843,
,SD026.jpg,0,MF026.jpg,0,,,,,0,30,30,75,imgFunc,9,NA,2.6199969998560846,584.4415749998298,587.1598663800396,2023-10-16 15:16:06.061846,2023-10-16 15:16:08.772249,SD026.jpg,0,10801,30-49,2023-10-16_15h08.55.520,Recall,2021.2.3,59.95448257317843,
,DD003.jpg,0,FF003.jpg,0,,,,,0,31,31,2,imgFunc,9,NA,3.145592600107193,587.1638964000158,590.4168465803377,2023-10-16 15:16:08.780229,2023-10-16 15:16:12.024609,DD003.jpg,0,10801,30-49,2023-10-16_15h08.55.520,Recall,2021.2.3,59.95448257317843,
,L_DD504.jpg,1,L_FF504.jpg,1,,,,,0,32,32,43,imgFunc,9,NA,5.407043599989265,590.4143504998647,595.9190191798843,2023-10-16 15:16:12.032589,2023-10-16 15:16:17.528635,L_DD504.jpg,1,10801,30-49,2023-10-16_15h08.55.520,Recall,2021.2.3,59.95448257317843,
,SD039.jpg,0,MF039.jpg,0,,,,,0,33,33,88,imgFunc,0,NA,1.4448539998847991,595.9127280998509,597.4442319797818,2023-10-16 15:16:17.538638,2023-10-16 15:16:19.063283,SD039.jpg,0,10801,30-49,2023-10-16_15h08.55.520,Recall,2021.2.3,59.95448257317843,
,SD006.jpg,0,MF006.jpg,0,,,,,0,34,34,55,imgFunc,9,NA,0.8518032999709249,597.4498514998704,598.4005599799566,2023-10-16 15:16:19.071264,2023-10-16 15:16:20.013626,SD006.jpg,0,10801,30-49,2023-10-16_15h08.55.520,Recall,2021.2.3,59.95448257317843,
,L_SD509.jpg,1,L_MF509.jpg,1,,,,,0,35,35,98,imgFunc,0,NA,1.0350073999725282,598.4102220998611,599.5600374799687,2023-10-16 15:16:20.022604,2023-10-16 15:16:21.164481,L_SD509.jpg,1,10801,30-49,2023-10-16_15h08.55.520,Recall,2021.2.3,59.95448257317843,
,DD010.jpg,0,FF010.jpg,0,,,,,0,36,36,9,imgFunc,9,NA,0.7856141000520438,599.5640970999375,600.4516334801447,2023-10-16 15:16:21.179443,2023-10-16 15:16:22.065223,DD010.jpg,0,10801,30-49,2023-10-16_15h08.55.520,Recall,2021.2.3,59.95448257317843,
,DD021.jpg,0,FF021.jpg,0,,,,,0,37,37,20,imgFunc,0,NA,0.9594302999321371,600.4540706998669,601.5217281798832,2023-10-16 15:16:22.073203,2023-10-16 15:16:23.131810,DD021.jpg,0,10801,30-49,2023-10-16_15h08.55.520,Recall,2021.2.3,59.95448257317843,
,SD004.jpg,0,MF004.jpg,0,,,,,0,38,38,53,imgFunc,9,NA,0.8236559999641031,601.5098617998883,602.4275988799054,2023-10-16 15:16:23.139762,2023-10-16 15:16:24.049855,SD004.jpg,0,10801,30-49,2023-10-16_15h08.55.520,Recall,2021.2.3,59.95448257317843,
,DD035.jpg,0,FF035.jpg,0,,,,,0,39,39,34,imgFunc,0,NA,1.6510253997985274,602.4346878000069,604.1865534801036,2023-10-16 15:16:24.057858,2023-10-16 15:16:25.801273,DD035.jpg,0,10801,30-49,2023-10-16_15h08.55.520,Recall,2021.2.3,59.95448257317843,
,DD006.jpg,0,FF006.jpg,0,,,,,0,40,40,5,imgFunc,1,NA,1.5028961999341846,604.1906731999479,605.7925550800283,2023-10-16 15:16:25.809254,2023-10-16 15:16:27.402195,DD006.jpg,0,10801,30-49,2023-10-16_15h08.55.520,Recall,2021.2.3,59.95448257317843,
,SD013.jpg,0,MF013.jpg,0,,,,,0,41,41,62,imgFunc,0,NA,2.0343071999959648,605.7951849999372,607.9171869801357,2023-10-16 15:16:27.416159,2023-10-16 15:16:29.537075,SD013.jpg,0,10801,30-49,2023-10-16_15h08.55.520,Recall,2021.2.3,59.95448257317843,
,L_SD505.jpg,1,L_MF505.jpg,1,,,,,0,42,42,94,imgFunc,1,NA,1.946832099929452,607.9147293998394,609.9503051796928,2023-10-16 15:16:29.545055,2023-10-16 15:16:31.571723,L_SD505.jpg,1,10801,30-49,2023-10-16_15h08.55.520,Recall,2021.2.3,59.95448257317843,
,SD027.jpg,0,MF027.jpg,0,,,,,0,43,43,76,imgFunc,1,NA,2.8576272998470813,609.9560376999434,612.9089540801942,2023-10-16 15:16:31.579704,2023-10-16 15:16:34.524118,SD027.jpg,0,10801,30-49,2023-10-16_15h08.55.520,Recall,2021.2.3,59.95448257317843,
,DD036.jpg,0,FF036.jpg,0,,,,,0,44,44,35,imgFunc,1,NA,1.2493813000619411,612.916286899941,614.2678452800028,2023-10-16 15:16:34.532098,2023-10-16 15:16:35.874882,DD036.jpg,0,10801,30-49,2023-10-16_15h08.55.520,Recall,2021.2.3,59.95448257317843,
,SD030.jpg,0,MF030.jpg,0,,,,,0,45,45,79,imgFunc,9,NA,3.792017700150609,614.2775677999016,618.1802425801288,2023-10-16 15:16:35.882672,2023-10-16 15:16:39.777878,SD030.jpg,0,10801,30-49,2023-10-16_15h08.55.520,Recall,2021.2.3,59.95448257317843,
,DD040.jpg,0,FF040.jpg,0,,,,,0,46,46,39,imgFunc,9,NA,2.670283199986443,618.183281299891,620.953826979734,2023-10-16 15:16:39.792840,2023-10-16 15:16:42.562977,DD040.jpg,0,10801,30-49,2023-10-16_15h08.55.520,Recall,2021.2.3,59.95448257317843,
,SD033.jpg,0,MF033.jpg,0,,,,,0,47,47,82,imgFunc,2,NA,2.747773600043729,620.9458366998006,623.7818608796224,2023-10-16 15:16:42.570957,2023-10-16 15:16:45.398644,SD033.jpg,0,10801,30-49,2023-10-16_15h08.55.520,Recall,2021.2.3,59.95448257317843,
,SD011.jpg,0,MF011.jpg,0,,,,,0,48,48,60,imgFunc,9,NA,3.107060199836269,623.7864615998697,626.9851149797905,2023-10-16 15:16:45.408619,2023-10-16 15:16:48.600728,SD011.jpg,0,10801,30-49,2023-10-16_15h08.55.520,Recall,2021.2.3,59.95448257317843,
,DD031.jpg,0,FF031.jpg,0,,,,,0,49,49,30,imgFunc,1,NA,16.603778100106865,626.993925599847,643.7065737796947,2023-10-16 15:16:48.608708,2023-10-16 15:17:05.312682,DD031.jpg,0,10801,30-49,2023-10-16_15h08.55.520,Recall,2021.2.3,59.95448257317843,
,SD038.jpg,0,MF038.jpg,0,,,,,0,50,50,87,imgFunc,2,NA,2.138933700043708,643.730619699927,645.9909347798675,2023-10-16 15:17:05.324652,2023-10-16 15:17:07.580922,SD038.jpg,0,10801,30-49,2023-10-16_15h08.55.520,Recall,2021.2.3,59.95448257317843,
,L_DD510.jpg,1,L_FF510.jpg,1,,,,,0,51,51,49,imgFunc,9,NA,2.7791263998951763,645.9623027998023,648.8315852796659,2023-10-16 15:17:07.588926,2023-10-16 15:17:10.449818,L_DD510.jpg,1,10801,30-49,2023-10-16_15h08.55.520,Recall,2021.2.3,59.95448257317843,
,SD029.jpg,0,MF029.jpg,0,,,,,0,52,52,78,imgFunc,9,NA,2.60521460021846,648.8324709997978,651.5347284798045,2023-10-16 15:17:10.457798,2023-10-16 15:17:13.151757,SD029.jpg,0,10801,30-49,2023-10-16_15h08.55.520,Recall,2021.2.3,59.95448257317843,
,SD001.jpg,0,MF001.jpg,0,,,,,0,53,53,50,imgFunc,0,NA,0.9733289000578225,651.5363892000169,652.6042935799342,2023-10-16 15:17:13.159737,2023-10-16 15:17:14.218965,SD001.jpg,0,10801,30-49,2023-10-16_15h08.55.520,Recall,2021.2.3,59.95448257317843,
,DD008.jpg,0,FF008.jpg,0,,,,,0,54,54,7,imgFunc,9,NA,0.7757462000008672,652.6056565998588,653.4738010796718,2023-10-16 15:17:14.226946,2023-10-16 15:17:15.086538,DD008.jpg,0,10801,30-49,2023-10-16_15h08.55.520,Recall,2021.2.3,59.95448257317843,
,L_SD502.jpg,1,L_MF502.jpg,1,,,,,0,55,55,91,imgFunc,0,NA,0.6185950001236051,653.4749533999711,654.1812997800298,2023-10-16 15:17:15.099505,2023-10-16 15:17:15.803538,L_SD502.jpg,1,10801,30-49,2023-10-16_15h08.55.520,Recall,2021.2.3,59.95448257317843,
,DD028.jpg,0,FF028.jpg,0,,,,,0,56,56,27,imgFunc,9,NA,0.6998813999816775,654.1855055999476,654.9862256799825,2023-10-16 15:17:15.811518,2023-10-16 15:17:16.604333,DD028.jpg,0,10801,30-49,2023-10-16_15h08.55.520,Recall,2021.2.3,59.95448257317843,
,DD022.jpg,0,FF022.jpg,0,,,,,0,57,57,21,imgFunc,0,NA,0.6335755998734385,654.9879725999199,655.7223230798263,2023-10-16 15:17:16.612313,2023-10-16 15:17:17.338126,DD022.jpg,0,10801,30-49,2023-10-16_15h08.55.520,Recall,2021.2.3,59.95448257317843,
,DD037.jpg,0,FF037.jpg,0,,,,,0,58,58,36,imgFunc,9,NA,1.2040866001043469,655.7294746998232,657.0314141798299,2023-10-16 15:17:17.346107,2023-10-16 15:17:18.639204,DD037.jpg,0,10801,30-49,2023-10-16_15h08.55.520,Recall,2021.2.3,59.95448257317843,
,SD008.jpg,0,MF008.jpg,0,,,,,0,59,59,57,imgFunc,0,NA,0.6890002000145614,657.0285846998449,657.8128829796333,2023-10-16 15:17:18.647185,2023-10-16 15:17:19.423063,SD008.jpg,0,10801,30-49,2023-10-16_15h08.55.520,Recall,2021.2.3,59.95448257317843,
,DD004.jpg,0,FF004.jpg,0,,,,,0,60,60,3,imgFunc,9,NA,1.9731599998194724,657.8244231999852,659.8956779800355,2023-10-16 15:17:19.438025,2023-10-16 15:17:21.507737,DD004.jpg,0,10801,30-49,2023-10-16_15h08.55.520,Recall,2021.2.3,59.95448257317843,
,SD036.jpg,0,MF036.jpg,0,,,,,0,61,61,85,imgFunc,0,NA,0.6113132000900805,659.8984220998827,660.6157440799288,2023-10-16 15:17:21.515721,2023-10-16 15:17:22.224621,SD036.jpg,0,10801,30-49,2023-10-16_15h08.55.520,Recall,2021.2.3,59.95448257317843,
,SD007.jpg,0,MF007.jpg,0,,,,,0,62,62,56,imgFunc,9,NA,0.6443374999798834,660.6013566998299,661.3359581797849,2023-10-16 15:17:22.232602,2023-10-16 15:17:22.958513,SD007.jpg,0,10801,30-49,2023-10-16_15h08.55.520,Recall,2021.2.3,59.95448257317843,
,L_DD507.jpg,1,L_FF507.jpg,1,,,,,0,63,63,46,imgFunc,0,NA,1.1334846999961883,661.3442116999067,662.5785092799924,2023-10-16 15:17:22.966495,2023-10-16 15:17:24.193018,L_DD507.jpg,1,10801,30-49,2023-10-16_15h08.55.520,Recall,2021.2.3,59.95448257317843,
,DD012.jpg,0,FF012.jpg,0,,,,,0,64,64,11,imgFunc,9,NA,0.7726531999651343,662.5770835999865,663.4454017798416,2023-10-16 15:17:24.200001,2023-10-16 15:17:25.060120,DD012.jpg,0,10801,30-49,2023-10-16_15h08.55.520,Recall,2021.2.3,59.95448257317843,
,SD009.jpg,0,MF009.jpg,0,,,,,0,65,65,58,imgFunc,1,NA,1.494232299970463,663.4554315998685,665.0443237798754,2023-10-16 15:17:25.074084,2023-10-16 15:17:26.661422,SD009.jpg,0,10801,30-49,2023-10-16_15h08.55.520,Recall,2021.2.3,59.95448257317843,
,DD018.jpg,0,FF018.jpg,0,,,,,0,66,66,17,imgFunc,0,NA,1.0583468000404537,665.0509360998403,666.2200735798106,2023-10-16 15:17:26.668405,2023-10-16 15:17:27.828792,DD018.jpg,0,10801,30-49,2023-10-16_15h08.55.520,Recall,2021.2.3,59.95448257317843,
,SD019.jpg,0,MF019.jpg,0,,,,,0,67,67,68,imgFunc,9,NA,0.746388099854812,666.2110845998395,667.0469972798601,2023-10-16 15:17:27.835775,2023-10-16 15:17:28.662972,SD019.jpg,0,10801,30-49,2023-10-16_15h08.55.520,Recall,2021.2.3,59.95448257317843,
,DD009.jpg,0,FF009.jpg,0,,,,,0,68,68,8,imgFunc,1,NA,1.4157201000489295,667.0456475999672,668.5653642797843,2023-10-16 15:17:28.669955,2023-10-16 15:17:30.180420,DD009.jpg,0,10801,30-49,2023-10-16_15h08.55.520,Recall,2021.2.3,59.95448257317843,
,L_DD505.jpg,1,L_FF505.jpg,1,,,,,0,69,69,44,imgFunc,0,NA,1.2718970000278205,668.5734442998655,669.9592834801879,2023-10-16 15:17:30.187404,2023-10-16 15:17:31.563772,L_DD505.jpg,1,10801,30-49,2023-10-16_15h08.55.520,Recall,2021.2.3,59.95448257317843,
,L_DD506.jpg,1,L_FF506.jpg,1,,,,,0,70,70,45,imgFunc,2,NA,1.6360016998369247,669.9455530999694,671.6817242801189,2023-10-16 15:17:31.571749,2023-10-16 15:17:33.299379,L_DD506.jpg,1,10801,30-49,2023-10-16_15h08.55.520,Recall,2021.2.3,59.95448257317843,
,L_DD503.jpg,1,L_FF503.jpg,1,,,,,0,71,71,42,imgFunc,0,NA,3.938314399914816,671.6833273998927,675.7213983801194,2023-10-16 15:17:33.306362,2023-10-16 15:17:37.335810,L_DD503.jpg,1,10801,30-49,2023-10-16_15h08.55.520,Recall,2021.2.3,59.95448257317843,
,SD034.jpg,0,MF034.jpg,0,,,,,0,72,72,83,imgFunc,9,NA,1.9847945999354124,675.724778899923,677.8112232801504,2023-10-16 15:17:37.342793,2023-10-16 15:17:39.420391,SD034.jpg,0,10801,30-49,2023-10-16_15h08.55.520,Recall,2021.2.3,59.95448257317843,
,SD024.jpg,0,MF024.jpg,0,,,,,0,73,73,73,imgFunc,0,NA,1.080786099890247,677.8128843999002,678.9984836799558,2023-10-16 15:17:39.427374,2023-10-16 15:17:40.604617,SD024.jpg,0,10801,30-49,2023-10-16_15h08.55.520,Recall,2021.2.3,59.95448257317843,
,DD017.jpg,0,FF017.jpg,0,,,,,0,74,74,16,imgFunc,0,NA,0.8957456999924034,679.0059378999285,679.9945951802656,2023-10-16 15:17:40.618581,2023-10-16 15:17:41.605450,DD017.jpg,0,10801,30-49,2023-10-16_15h08.55.520,Recall,2021.2.3,59.95448257317843,
,DD030.jpg,0,FF030.jpg,0,,,,,0,75,75,29,imgFunc,9,NA,1.142265000147745,679.9834357998334,681.2194407798816,2023-10-16 15:17:41.612433,2023-10-16 15:17:42.839627,DD030.jpg,0,10801,30-49,2023-10-16_15h08.55.520,Recall,2021.2.3,59.95448257317843,
,SD017.jpg,0,MF017.jpg,0,,,,,0,76,76,66,imgFunc,9,NA,1.2410625000484288,681.2285290998407,682.5620828797109,2023-10-16 15:17:42.847630,2023-10-16 15:17:44.173970,SD017.jpg,0,10801,30-49,2023-10-16_15h08.55.520,Recall,2021.2.3,59.95448257317843,
,L_DD508.jpg,1,L_FF508.jpg,1,,,,,0,77,77,47,imgFunc,9,NA,1.207630799850449,682.565891899867,683.8853858800139,2023-10-16 15:17:44.180953,2023-10-16 15:17:45.491430,L_DD508.jpg,1,10801,30-49,2023-10-16_15h08.55.520,Recall,2021.2.3,59.95448257317843,
,SD037.jpg,0,MF037.jpg,0,,,,,0,78,78,86,imgFunc,0,NA,0.7883125999942422,683.8893664998468,684.7914799801074,2023-10-16 15:17:45.498413,2023-10-16 15:17:46.391877,SD037.jpg,0,10801,30-49,2023-10-16_15h08.55.520,Recall,2021.2.3,59.95448257317843,
,L_DD509.jpg,1,L_FF509.jpg,1,,,,,0,79,79,48,imgFunc,1,NA,2.477719600079581,684.7839089999907,687.3567932799924,2023-10-16 15:17:46.405842,2023-10-16 15:17:48.977257,L_DD509.jpg,1,10801,30-49,2023-10-16_15h08.55.520,Recall,2021.2.3,59.95448257317843,
,SD028.jpg,0,MF028.jpg,0,,,,,0,80,80,77,imgFunc,9,NA,3.2800834998488426,687.3656232999638,690.7534291800112,2023-10-16 15:17:48.984240,2023-10-16 15:17:52.363059,SD028.jpg,0,10801,30-49,2023-10-16_15h08.55.520,Recall,2021.2.3,59.95448257317843,
,DD001.jpg,0,FF001.jpg,0,,,,,0,81,81,0,imgFunc,9,NA,1.1518222999293357,690.7574908998795,692.0089944798965,2023-10-16 15:17:52.371040,2023-10-16 15:17:53.613074,DD001.jpg,0,10801,30-49,2023-10-16_15h08.55.520,Recall,2021.2.3,59.95448257317843,
,DD014.jpg,0,FF014.jpg,0,,,,,0,82,82,13,imgFunc,0,NA,1.584984099958092,692.0127344999928,693.7116468800232,2023-10-16 15:17:53.623046,2023-10-16 15:17:55.315256,DD014.jpg,0,10801,30-49,2023-10-16_15h08.55.520,Recall,2021.2.3,59.95448257317843,
,SD032.jpg,0,MF032.jpg,0,,,,,0,83,83,81,imgFunc,9,NA,0.6019373000599444,693.7157487999648,694.4341860802379,2023-10-16 15:17:55.322239,2023-10-16 15:17:56.032231,SD032.jpg,0,10801,30-49,2023-10-16_15h08.55.520,Recall,2021.2.3,59.95448257317843,
,SD016.jpg,0,MF016.jpg,0,,,,,0,84,84,65,imgFunc,9,NA,1.5028200999367982,694.4309223999735,696.0348641800229,2023-10-16 15:17:56.047219,2023-10-16 15:17:57.650999,SD016.jpg,0,10801,30-49,2023-10-16_15h08.55.520,Recall,2021.2.3,59.95448257317843,
,SD022.jpg,0,MF022.jpg,0,,,,,0,85,85,71,imgFunc,9,NA,0.7895708999130875,696.0400113000069,696.9240202801302,2023-10-16 15:17:57.659001,2023-10-16 15:17:58.534313,SD022.jpg,0,10801,30-49,2023-10-16_15h08.55.520,Recall,2021.2.3,59.95448257317843,
,SD040.jpg,0,MF040.jpg,0,,,,,0,86,86,89,imgFunc,0,NA,0.558929500170052,696.926820699824,697.5953095799778,2023-10-16 15:17:58.541296,2023-10-16 15:17:59.201295,SD040.jpg,0,10801,30-49,2023-10-16_15h08.55.520,Recall,2021.2.3,59.95448257317843,
,DD015.jpg,0,FF015.jpg,0,,,,,0,87,87,14,imgFunc,9,NA,1.0581085002049804,697.5954828998074,698.7647299796809,2023-10-16 15:17:59.208278,2023-10-16 15:18:00.368695,DD015.jpg,0,10801,30-49,2023-10-16_15h08.55.520,Recall,2021.2.3,59.95448257317843,
,DD024.jpg,0,FF024.jpg,0,,,,,0,88,88,23,imgFunc,0,NA,0.6654614000581205,698.7722877999768,699.5575965801254,2023-10-16 15:18:00.375700,2023-10-16 15:18:01.152687,DD024.jpg,0,10801,30-49,2023-10-16_15h08.55.520,Recall,2021.2.3,59.95448257317843,
,SD005.jpg,0,MF005.jpg,0,,,,,0,89,89,54,imgFunc,9,NA,1.3509480999782681,699.5345774998423,700.9873938797973,2023-10-16 15:18:01.159670,2023-10-16 15:18:02.603748,SD005.jpg,0,10801,30-49,2023-10-16_15h08.55.520,Recall,2021.2.3,59.95448257317843,
,DD032.jpg,0,FF032.jpg,0,,,,,0,90,90,31,imgFunc,0,NA,0.9125648001208901,700.9887418998405,702.007599679986,2023-10-16 15:18:02.610754,2023-10-16 15:18:03.621065,DD032.jpg,0,10801,30-49,2023-10-16_15h08.55.520,Recall,2021.2.3,59.95448257317843,
,L_SD510.jpg,1,L_MF510.jpg,1,,,,,0,91,91,99,imgFunc,9,NA,0.8689401999581605,702.0088479998522,702.977719879942,2023-10-16 15:18:03.628049,2023-10-16 15:18:04.588627,L_SD510.jpg,1,10801,30-49,2023-10-16_15h08.55.520,Recall,2021.2.3,59.95448257317843,
,L_DD502.jpg,1,L_FF502.jpg,1,,,,,0,92,92,41,imgFunc,0,NA,0.6881866999901831,702.9735583998263,703.7590722797904,2023-10-16 15:18:04.595610,2023-10-16 15:18:05.372462,L_DD502.jpg,1,10801,30-49,2023-10-16_15h08.55.520,Recall,2021.2.3,59.95448257317843,
,DD019.jpg,0,FF019.jpg,0,,,,,0,93,93,18,imgFunc,9,NA,0.9695383000653237,703.7641815999523,704.8209665801842,2023-10-16 15:18:05.385539,2023-10-16 15:18:06.440081,DD019.jpg,0,10801,30-49,2023-10-16_15h08.55.520,Recall,2021.2.3,59.95448257317843,
,DD026.jpg,0,FF026.jpg,0,,,,,0,94,94,25,imgFunc,0,NA,0.534910700051114,704.8228704999201,705.457396480022,2023-10-16 15:18:06.447064,2023-10-16 15:18:07.073193,DD026.jpg,0,10801,30-49,2023-10-16_15h08.55.520,Recall,2021.2.3,59.95448257317843,
,SD012.jpg,0,MF012.jpg,0,,,,,0,95,95,61,imgFunc,9,NA,0.6840556999668479,705.4655330998357,706.2515077798162,2023-10-16 15:18:07.080177,2023-10-16 15:18:07.857647,SD012.jpg,0,10801,30-49,2023-10-16_15h08.55.520,Recall,2021.2.3,59.95448257317843,
,SD020.jpg,0,MF020.jpg,0,,,,,0,96,96,69,imgFunc,0,NA,0.6924333998467773,706.2569819998462,707.0591979799792,2023-10-16 15:18:07.864630,2023-10-16 15:18:08.658130,SD020.jpg,0,10801,30-49,2023-10-16_15h08.55.520,Recall,2021.2.3,59.95448257317843,
,L_SD504.jpg,1,L_MF504.jpg,1,,,,,0,97,97,93,imgFunc,9,NA,0.5821688000578433,707.055466099875,707.7413801799994,2023-10-16 15:18:08.665113,2023-10-16 15:18:09.342298,L_SD504.jpg,1,10801,30-49,2023-10-16_15h08.55.520,Recall,2021.2.3,59.95448257317843,
,L_SD506.jpg,1,L_MF506.jpg,1,,,,,0,98,98,95,imgFunc,0,NA,0.6999464000109583,707.7376078998204,708.5255716799293,2023-10-16 15:18:09.356263,2023-10-16 15:18:10.142512,L_SD506.jpg,1,10801,30-49,2023-10-16_15h08.55.520,Recall,2021.2.3,59.95448257317843,
,L_SD501.jpg,1,L_MF501.jpg,1,,,,,0,99,99,90,imgFunc,9,NA,0.7732134000398219,708.5203687998,709.3883703798056,2023-10-16 15:18:10.150514,2023-10-16 15:18:11.009715,L_SD501.jpg,1,10801,30-49,2023-10-16_15h08.55.520,Recall,2021.2.3,59.95448257317843,
