onset	duration	trial_type	response_time	Endowment	Endowment_pmod	Decision	Decision_pmod	Offer_pmod
4.501156	2	cue_nonsocial	n/a	32	6	n/a	n/a	n/a
4.501156	2	cue_nonsocial_high	n/a	32	8	n/a	n/a	n/a
11.417644	2	cue_social	n/a	16	-8	n/a	n/a	n/a
11.417644	2	cue_social_low	n/a	16	-10	n/a	n/a	n/a
18.168343	2	cue_nonsocial	n/a	32	6	n/a	n/a	n/a
18.168343	2	cue_nonsocial_high	n/a	32	8	n/a	n/a	n/a
25.000910	2	cue_nonsocial	n/a	16	-10	n/a	n/a	n/a
25.000910	2	cue_nonsocial_low	n/a	16	-8	n/a	n/a	n/a
31.833992	2	cue_nonsocial	n/a	32	6	n/a	n/a	n/a
31.833992	2	cue_nonsocial_high	n/a	32	8	n/a	n/a	n/a
42.765446	2	cue_social	n/a	32	8	n/a	n/a	n/a
42.765446	2	cue_social_high	n/a	32	6	n/a	n/a	n/a
51.950603	2	cue_nonsocial	n/a	32	6	n/a	n/a	n/a
51.950603	2	cue_nonsocial_high	n/a	32	8	n/a	n/a	n/a
58.784058	2	cue_nonsocial	n/a	32	6	n/a	n/a	n/a
58.784058	2	cue_nonsocial_high	n/a	32	8	n/a	n/a	n/a
65.693480	2	cue_social	n/a	32	8	n/a	n/a	n/a
65.693480	2	cue_social_high	n/a	32	6	n/a	n/a	n/a
74.883736	2	cue_nonsocial	n/a	16	-10	n/a	n/a	n/a
74.883736	2	cue_nonsocial_low	n/a	16	-8	n/a	n/a	n/a
82.589134	2	cue_social	n/a	32	8	n/a	n/a	n/a
82.589134	2	cue_social_high	n/a	32	6	n/a	n/a	n/a
89.350650	2	cue_nonsocial	n/a	16	-10	n/a	n/a	n/a
89.350650	2	cue_nonsocial_low	n/a	16	-8	n/a	n/a	n/a
97.052960	2	cue_social	n/a	32	8	n/a	n/a	n/a
97.052960	2	cue_social_high	n/a	32	6	n/a	n/a	n/a
103.834080	2	cue_nonsocial	n/a	16	-10	n/a	n/a	n/a
103.834080	2	cue_nonsocial_low	n/a	16	-8	n/a	n/a	n/a
111.494606	2	cue_social	n/a	32	8	n/a	n/a	n/a
111.494606	2	cue_social_high	n/a	32	6	n/a	n/a	n/a
119.182014	2	cue_social	n/a	16	-8	n/a	n/a	n/a
119.182014	2	cue_social_low	n/a	16	-10	n/a	n/a	n/a
125.950550	2	cue_nonsocial	n/a	32	6	n/a	n/a	n/a
125.950550	2	cue_nonsocial_high	n/a	32	8	n/a	n/a	n/a
133.600590	2	cue_nonsocial	n/a	16	-10	n/a	n/a	n/a
133.600590	2	cue_nonsocial_low	n/a	16	-8	n/a	n/a	n/a
141.310270	2	cue_social	n/a	16	-8	n/a	n/a	n/a
141.310270	2	cue_social_low	n/a	16	-10	n/a	n/a	n/a
148.083660	2	cue_nonsocial	n/a	16	-10	n/a	n/a	n/a
148.083660	2	cue_nonsocial_low	n/a	16	-8	n/a	n/a	n/a
154.917310	2	cue_nonsocial	n/a	32	6	n/a	n/a	n/a
154.917310	2	cue_nonsocial_high	n/a	32	8	n/a	n/a	n/a
161.818900	2	cue_social	n/a	32	8	n/a	n/a	n/a
161.818900	2	cue_social_high	n/a	32	6	n/a	n/a	n/a
171.000170	2	cue_nonsocial	n/a	16	-10	n/a	n/a	n/a
171.000170	2	cue_nonsocial_low	n/a	16	-8	n/a	n/a	n/a
180.325520	2	cue_social	n/a	16	-8	n/a	n/a	n/a
180.325520	2	cue_social_low	n/a	16	-10	n/a	n/a	n/a
187.999020	2	cue_social	n/a	32	8	n/a	n/a	n/a
187.999020	2	cue_social_high	n/a	32	6	n/a	n/a	n/a
194.797380	2	cue_social	n/a	32	8	n/a	n/a	n/a
194.797380	2	cue_social_high	n/a	32	6	n/a	n/a	n/a
201.654630	2	cue_social	n/a	32	8	n/a	n/a	n/a
201.654630	2	cue_social_high	n/a	32	6	n/a	n/a	n/a
208.468260	2	cue_social	n/a	16	-8	n/a	n/a	n/a
208.468260	2	cue_social_low	n/a	16	-10	n/a	n/a	n/a
215.301350	2	cue_social	n/a	16	-8	n/a	n/a	n/a
215.301350	2	cue_social_low	n/a	16	-10	n/a	n/a	n/a
224.546590	2	cue_social	n/a	16	-8	n/a	n/a	n/a
224.546590	2	cue_social_low	n/a	16	-10	n/a	n/a	n/a
231.316790	2	cue_nonsocial	n/a	16	-10	n/a	n/a	n/a
231.316790	2	cue_nonsocial_low	n/a	16	-8	n/a	n/a	n/a
238.207280	2	cue_social	n/a	16	-8	n/a	n/a	n/a
238.207280	2	cue_social_low	n/a	16	-10	n/a	n/a	n/a
244.983570	2	cue_nonsocial	n/a	32	6	n/a	n/a	n/a
244.983570	2	cue_nonsocial_high	n/a	32	8	n/a	n/a	n/a
251.912460	2	cue_social	n/a	32	8	n/a	n/a	n/a
251.912460	2	cue_social_high	n/a	32	6	n/a	n/a	n/a
259.466950	2	cue_nonsocial	n/a	32	6	n/a	n/a	n/a
259.466950	2	cue_nonsocial_high	n/a	32	8	n/a	n/a	n/a
267.116730	2	cue_nonsocial	n/a	16	-10	n/a	n/a	n/a
267.116730	2	cue_nonsocial_low	n/a	16	-8	n/a	n/a	n/a
274.824770	2	cue_social	n/a	16	-8	n/a	n/a	n/a
274.824770	2	cue_social_low	n/a	16	-10	n/a	n/a	n/a
281.599950	2	cue_nonsocial	n/a	32	6	n/a	n/a	n/a
281.599950	2	cue_nonsocial_high	n/a	32	8	n/a	n/a	n/a
289.302550	2	cue_social	n/a	32	8	n/a	n/a	n/a
289.302550	2	cue_social_high	n/a	32	6	n/a	n/a	n/a
296.151550	2	cue_social	n/a	16	-8	n/a	n/a	n/a
296.151550	2	cue_social_low	n/a	16	-10	n/a	n/a	n/a
305.427670	2	cue_social	n/a	16	-8	n/a	n/a	n/a
305.427670	2	cue_social_low	n/a	16	-10	n/a	n/a	n/a
316.287170	2	cue_social	n/a	16	-8	n/a	n/a	n/a
316.287170	2	cue_social_low	n/a	16	-10	n/a	n/a	n/a
325.467070	2	cue_nonsocial	n/a	32	6	n/a	n/a	n/a
325.467070	2	cue_nonsocial_high	n/a	32	8	n/a	n/a	n/a
332.353300	2	cue_social	n/a	32	8	n/a	n/a	n/a
332.353300	2	cue_social_high	n/a	32	6	n/a	n/a	n/a
339.950100	2	cue_nonsocial	n/a	32	6	n/a	n/a	n/a
339.950100	2	cue_nonsocial_high	n/a	32	8	n/a	n/a	n/a
350.833370	2	cue_nonsocial	n/a	32	6	n/a	n/a	n/a
350.833370	2	cue_nonsocial_high	n/a	32	8	n/a	n/a	n/a
357.666800	2	cue_nonsocial	n/a	32	6	n/a	n/a	n/a
357.666800	2	cue_nonsocial_high	n/a	32	8	n/a	n/a	n/a
365.316600	2	cue_nonsocial	n/a	32	6	n/a	n/a	n/a
365.316600	2	cue_nonsocial_high	n/a	32	8	n/a	n/a	n/a
6.507902	1.299645	dec_nonsocial_choice	1.299645	32.000000	n/a	8	2.083333e-02	2.083333e-02
6.507902	1.299645	dec_choice	1.299645	32.000000	n/a	8	2.083333e-02	2.083333e-02
6.507902	1.299645	dec_nonsocial_accept	1.299645	32.000000	n/a	8	-5.915179e-02	-5.915179e-02
6.507902	1.299645	dec_accept	1.299645	32.000000	n/a	8	-7.451923e-02	-7.451923e-02
6.507902	1.299645	dec_nonsocial_accept_high	1.299645	32.000000	n/a	8	-4.583333e-02	-4.583333e-02
13.340066	1.033577	dec_social_choice	1.033577	16.000000	n/a	8	2.708333e-01	2.708333e-01
13.340066	1.033577	dec_choice	1.033577	16.000000	n/a	8	2.708333e-01	2.708333e-01
13.340066	1.033577	dec_social_accept	1.033577	16.000000	n/a	8	1.908482e-01	1.908482e-01
13.340066	1.033577	dec_accept	1.033577	16.000000	n/a	8	2.041667e-01	2.041667e-01
13.340066	1.033577	dec_social_high	1.033577	16.000000	n/a	8	2.708333e-01	2.708333e-01
13.340066	1.033577	dec_social_accept_high	1.033577	16.000000	n/a	8	2.708333e-01	2.708333e-01
20.174086	2.066293	dec_nonsocial_choice	2.066293	32.000000	n/a	0	0	-2.291667e-01
20.174086	2.066293	dec_choice	2.066293	32.000000	n/a	0	0	-2.291667e-01
20.174086	2.066293	dec_nonsocial_reject	2.066293	32.000000	n/a	0	0	-2.343750e-02
20.174086	2.066293	dec_reject	2.066293	32.000000	n/a	0	0	-2.272727e-02
20.174086	2.066293	dec_nonsocial_reject_low	2.066293	32.000000	n/a	3	-2.430556e-02	-1.180556e-01
27.007061	1.116541	dec_nonsocial_choice	1.116541	16.000000	n/a	4	2.083333e-02	2.083333e-02
27.007061	1.116541	dec_choice	1.116541	16.000000	n/a	4	2.083333e-02	2.083333e-02
27.007061	1.116541	dec_nonsocial_accept	1.116541	16.000000	n/a	4	-5.915179e-02	-5.915179e-02
27.007061	1.116541	dec_accept	1.116541	16.000000	n/a	4	-7.451923e-02	-7.451923e-02
27.007061	1.116541	dec_nonsocial_high	1.116541	16.000000	n/a	4	2.083333e-02	2.083333e-02
27.007061	1.116541	dec_nonsocial_accept_high	1.116541	16.000000	n/a	4	-7.451923e-02	-7.451923e-02
33.840084	1.866947	dec_nonsocial_choice	1.866947	32.000000	n/a	0	0	-2.291667e-01
33.840084	1.866947	dec_choice	1.866947	32.000000	n/a	0	0	-2.291667e-01
33.840084	1.866947	dec_nonsocial_reject	1.866947	32.000000	n/a	0	0	-2.343750e-02
33.840084	1.866947	dec_reject	1.866947	32.000000	n/a	0	0	-2.272727e-02
33.840084	1.866947	dec_nonsocial_reject_low	1.866947	32.000000	n/a	3	-2.430556e-02	-1.180556e-01
44.707073	1.499924	dec_social_choice	1.499924	32.000000	n/a	8	2.083333e-02	2.083333e-02
44.707073	1.499924	dec_choice	1.499924	32.000000	n/a	8	2.083333e-02	2.083333e-02
44.707073	1.499924	dec_social_accept	1.499924	32.000000	n/a	8	-5.915179e-02	-5.915179e-02
44.707073	1.499924	dec_accept	1.499924	32.000000	n/a	8	-4.583333e-02	-4.583333e-02
44.707073	1.499924	dec_social_accept_high	1.499924	32.000000	n/a	8	2.083333e-02	2.083333e-02
53.956696	1.400749	dec_nonsocial_choice	1.400749	32.000000	n/a	16	2.708333e-01	2.708333e-01
53.956696	1.400749	dec_choice	1.400749	32.000000	n/a	16	2.708333e-01	2.708333e-01
53.956696	1.400749	dec_nonsocial_accept	1.400749	32.000000	n/a	16	1.908482e-01	1.908482e-01
53.956696	1.400749	dec_accept	1.400749	32.000000	n/a	16	1.754808e-01	1.754808e-01
53.956696	1.400749	dec_nonsocial_high	1.400749	32.000000	n/a	16	2.708333e-01	2.708333e-01
53.956696	1.400749	dec_nonsocial_accept_high	1.400749	32.000000	n/a	16	1.754808e-01	1.754808e-01
60.790756	1.983401	dec_nonsocial_choice	1.983401	32.000000	n/a	0	0	-2.291667e-01
60.790756	1.983401	dec_choice	1.983401	32.000000	n/a	0	0	-2.291667e-01
60.790756	1.983401	dec_nonsocial_reject	1.983401	32.000000	n/a	0	0	-2.343750e-02
60.790756	1.983401	dec_reject	1.983401	32.000000	n/a	0	0	-2.272727e-02
60.790756	1.983401	dec_nonsocial_low	1.983401	32.000000	n/a	0	-2.291667e-01	-2.291667e-01
60.790756	1.983401	dec_nonsocial_reject_low	1.983401	32.000000	n/a	3	-2.272727e-02	-1.164773e-01
67.624146	1.332831	dec_social_choice	1.332831	32.000000	n/a	0	0	-2.291667e-01
67.624146	1.332831	dec_choice	1.332831	32.000000	n/a	0	0	-2.291667e-01
67.624146	1.332831	dec_social_reject	1.332831	32.000000	n/a	0	0	-5.468750e-02
67.624146	1.332831	dec_reject	1.332831	32.000000	n/a	0	0	-5.555556e-02
67.624146	1.332831	dec_social_reject_low	1.332831	32.000000	n/a	2	-1.666667e-01	-2.291667e-01
76.890045	1.450324	dec_nonsocial_choice	1.450324	16.000000	n/a	8	2.708333e-01	2.708333e-01
76.890045	1.450324	dec_choice	1.450324	16.000000	n/a	8	2.708333e-01	2.708333e-01
76.890045	1.450324	dec_nonsocial_accept	1.450324	16.000000	n/a	8	1.908482e-01	1.908482e-01
76.890045	1.450324	dec_accept	1.450324	16.000000	n/a	8	1.754808e-01	1.754808e-01
76.890045	1.450324	dec_nonsocial_accept_high	1.450324	16.000000	n/a	8	2.041667e-01	2.041667e-01
84.523090	1.534150	dec_social_choice	1.534150	32.000000	n/a	0	0	-2.291667e-01
84.523090	1.534150	dec_choice	1.534150	32.000000	n/a	0	0	-2.291667e-01
84.523090	1.534150	dec_social_reject	1.534150	32.000000	n/a	0	0	-5.468750e-02
84.523090	1.534150	dec_reject	1.534150	32.000000	n/a	0	0	-5.555556e-02
84.523090	1.534150	dec_social_low	1.534150	32.000000	n/a	0	-2.291667e-01	-2.291667e-01
84.523090	1.534150	dec_social_reject_low	1.534150	32.000000	n/a	2	-1.666667e-01	-2.291667e-01
91.357124	1.300544	dec_nonsocial_choice	1.300544	16.000000	n/a	2	-1.041667e-01	-1.041667e-01
91.357124	1.300544	dec_choice	1.300544	16.000000	n/a	2	-1.041667e-01	-1.041667e-01
91.357124	1.300544	dec_nonsocial_accept	1.300544	16.000000	n/a	2	-1.841518e-01	-1.841518e-01
91.357124	1.300544	dec_accept	1.300544	16.000000	n/a	2	-1.995192e-01	-1.995192e-01
91.357124	1.300544	dec_nonsocial_accept_low	1.300544	16.000000	n/a	2	-1.708333e-01	-1.708333e-01
99.008060	1.182545	dec_social_choice	1.182545	32.000000	n/a	16	2.708333e-01	2.708333e-01
99.008060	1.182545	dec_choice	1.182545	32.000000	n/a	16	2.708333e-01	2.708333e-01
99.008060	1.182545	dec_social_accept	1.182545	32.000000	n/a	16	1.908482e-01	1.908482e-01
99.008060	1.182545	dec_accept	1.182545	32.000000	n/a	16	2.041667e-01	2.041667e-01
99.008060	1.182545	dec_social_accept_high	1.182545	32.000000	n/a	16	2.708333e-01	2.708333e-01
105.839940	1.217034	dec_nonsocial_choice	1.217034	16.000000	n/a	0	0	-2.291667e-01
105.839940	1.217034	dec_choice	1.217034	16.000000	n/a	0	0	-2.291667e-01
105.839940	1.217034	dec_nonsocial_reject	1.217034	16.000000	n/a	0	0	-5.468750e-02
105.839940	1.217034	dec_reject	1.217034	16.000000	n/a	0	0	-5.397727e-02
105.839940	1.217034	dec_nonsocial_low	1.217034	16.000000	n/a	0	-2.291667e-01	-2.291667e-01
105.839940	1.217034	dec_nonsocial_reject_low	1.217034	16.000000	n/a	1	-5.397727e-02	-1.164773e-01
113.489820	1.100789	dec_social_choice	1.100789	32.000000	n/a	8	2.083333e-02	2.083333e-02
113.489820	1.100789	dec_choice	1.100789	32.000000	n/a	8	2.083333e-02	2.083333e-02
113.489820	1.100789	dec_social_accept	1.100789	32.000000	n/a	8	-5.915179e-02	-5.915179e-02
113.489820	1.100789	dec_accept	1.100789	32.000000	n/a	8	-4.583333e-02	-4.583333e-02
113.489820	1.100789	dec_social_accept_high	1.100789	32.000000	n/a	8	2.083333e-02	2.083333e-02
121.124160	1.283065	dec_social_choice	1.283065	16.000000	n/a	0	0	-2.291667e-01
121.124160	1.283065	dec_choice	1.283065	16.000000	n/a	0	0	-2.291667e-01
121.124160	1.283065	dec_social_reject	1.283065	16.000000	n/a	0	0	-5.468750e-02
121.124160	1.283065	dec_reject	1.283065	16.000000	n/a	0	0	-5.555556e-02
121.124160	1.283065	dec_social_low	1.283065	16.000000	n/a	0	-2.291667e-01	-2.291667e-01
121.124160	1.283065	dec_social_reject_low	1.283065	16.000000	n/a	1	-1.666667e-01	-2.291667e-01
127.957190	1.316006	dec_nonsocial_choice	1.316006	32.000000	n/a	16	2.708333e-01	2.708333e-01
127.957190	1.316006	dec_choice	1.316006	32.000000	n/a	16	2.708333e-01	2.708333e-01
127.957190	1.316006	dec_nonsocial_accept	1.316006	32.000000	n/a	16	1.908482e-01	1.908482e-01
127.957190	1.316006	dec_accept	1.316006	32.000000	n/a	16	1.754808e-01	1.754808e-01
127.957190	1.316006	dec_nonsocial_high	1.316006	32.000000	n/a	16	2.708333e-01	2.708333e-01
127.957190	1.316006	dec_nonsocial_accept_high	1.316006	32.000000	n/a	16	1.754808e-01	1.754808e-01
135.606960	1.533501	dec_nonsocial_choice	1.533501	16.000000	n/a	0	0	-2.291667e-01
135.606960	1.533501	dec_choice	1.533501	16.000000	n/a	0	0	-2.291667e-01
135.606960	1.533501	dec_nonsocial_reject	1.533501	16.000000	n/a	0	0	-5.468750e-02
135.606960	1.533501	dec_reject	1.533501	16.000000	n/a	0	0	-5.397727e-02
135.606960	1.533501	dec_nonsocial_reject_low	1.533501	16.000000	n/a	1	-5.555556e-02	-1.180556e-01
143.257100	1.616140	dec_social_choice	1.616140	16.000000	n/a	0	0	-2.291667e-01
143.257100	1.616140	dec_choice	1.616140	16.000000	n/a	0	0	-2.291667e-01
143.257100	1.616140	dec_social_reject	1.616140	16.000000	n/a	0	0	3.828125e-01
143.257100	1.616140	dec_reject	1.616140	16.000000	n/a	0	0	3.819444e-01
143.257100	1.616140	dec_social_low	1.616140	16.000000	n/a	0	-2.291667e-01	-2.291667e-01
143.257100	1.616140	dec_social_reject_low	1.616140	16.000000	n/a	8	2.708333e-01	-2.291667e-01
150.090710	1.315992	dec_nonsocial_choice	1.315992	16.000000	n/a	0	0	-2.291667e-01
150.090710	1.315992	dec_choice	1.315992	16.000000	n/a	0	0	-2.291667e-01
150.090710	1.315992	dec_nonsocial_reject	1.315992	16.000000	n/a	0	0	7.812500e-03
150.090710	1.315992	dec_reject	1.315992	16.000000	n/a	0	0	8.522727e-03
150.090710	1.315992	dec_nonsocial_reject_low	1.315992	16.000000	n/a	2	6.944444e-03	-1.180556e-01
156.924070	0.983074	dec_nonsocial_choice	0.983074	32.000000	n/a	0	0	-2.291667e-01
156.924070	0.983074	dec_choice	0.983074	32.000000	n/a	0	0	-2.291667e-01
156.924070	0.983074	dec_nonsocial_reject	0.983074	32.000000	n/a	0	0	3.828125e-01
156.924070	0.983074	dec_reject	0.983074	32.000000	n/a	0	0	3.835227e-01
156.924070	0.983074	dec_nonsocial_low	0.983074	32.000000	n/a	0	-2.291667e-01	-2.291667e-01
156.924070	0.983074	dec_nonsocial_reject_low	0.983074	32.000000	n/a	16	3.835227e-01	-1.164773e-01
163.758070	1.865709	dec_social_choice	1.865709	32.000000	n/a	3	-1.354167e-01	-1.354167e-01
163.758070	1.865709	dec_choice	1.865709	32.000000	n/a	3	-1.354167e-01	-1.354167e-01
163.758070	1.865709	dec_social_accept	1.865709	32.000000	n/a	3	-2.154018e-01	-2.154018e-01
163.758070	1.865709	dec_accept	1.865709	32.000000	n/a	3	-2.020833e-01	-2.020833e-01
163.758070	1.865709	dec_social_accept_low	1.865709	32.000000	n/a	3	-1.354167e-01	-1.354167e-01
173.007060	1.483616	dec_nonsocial_choice	1.483616	16.000000	n/a	4	2.083333e-02	2.083333e-02
173.007060	1.483616	dec_choice	1.483616	16.000000	n/a	4	2.083333e-02	2.083333e-02
173.007060	1.483616	dec_nonsocial_accept	1.483616	16.000000	n/a	4	-5.915179e-02	-5.915179e-02
173.007060	1.483616	dec_accept	1.483616	16.000000	n/a	4	-7.451923e-02	-7.451923e-02
173.007060	1.483616	dec_nonsocial_high	1.483616	16.000000	n/a	4	2.083333e-02	2.083333e-02
173.007060	1.483616	dec_nonsocial_accept_high	1.483616	16.000000	n/a	4	-7.451923e-02	-7.451923e-02
182.257100	1.532983	dec_social_choice	1.532983	16.000000	n/a	8	2.708333e-01	2.708333e-01
182.257100	1.532983	dec_choice	1.532983	16.000000	n/a	8	2.708333e-01	2.708333e-01
182.257100	1.532983	dec_social_accept	1.532983	16.000000	n/a	8	1.908482e-01	1.908482e-01
182.257100	1.532983	dec_accept	1.532983	16.000000	n/a	8	2.041667e-01	2.041667e-01
182.257100	1.532983	dec_social_accept_high	1.532983	16.000000	n/a	8	2.708333e-01	2.708333e-01
189.907070	1.750044	dec_social_choice	1.750044	32.000000	n/a	0	0	-2.291667e-01
189.907070	1.750044	dec_choice	1.750044	32.000000	n/a	0	0	-2.291667e-01
189.907070	1.750044	dec_social_reject	1.750044	32.000000	n/a	0	0	-5.468750e-02
189.907070	1.750044	dec_reject	1.750044	32.000000	n/a	0	0	-5.555556e-02
189.907070	1.750044	dec_social_reject_low	1.750044	32.000000	n/a	2	-1.666667e-01	-2.291667e-01
196.741060	1.849403	dec_social_choice	1.849403	32.000000	n/a	0	0	-2.291667e-01
196.741060	1.849403	dec_choice	1.849403	32.000000	n/a	0	0	-2.291667e-01
196.741060	1.849403	dec_social_reject	1.849403	32.000000	n/a	0	0	-2.343750e-02
196.741060	1.849403	dec_reject	1.849403	32.000000	n/a	0	0	-2.430556e-02
196.741060	1.849403	dec_social_low	1.849403	32.000000	n/a	0	-2.291667e-01	-2.291667e-01
196.741060	1.849403	dec_social_reject_low	1.849403	32.000000	n/a	3	-1.354167e-01	-2.291667e-01
203.573090	1.567330	dec_social_choice	1.567330	32.000000	n/a	0	0	-2.291667e-01
203.573090	1.567330	dec_choice	1.567330	32.000000	n/a	0	0	-2.291667e-01
203.573090	1.567330	dec_social_reject	1.567330	32.000000	n/a	0	0	-2.343750e-02
203.573090	1.567330	dec_reject	1.567330	32.000000	n/a	0	0	-2.430556e-02
203.573090	1.567330	dec_social_reject_low	1.567330	32.000000	n/a	3	-1.354167e-01	-2.291667e-01
210.407070	1.233345	dec_social_choice	1.233345	16.000000	n/a	4	2.083333e-02	2.083333e-02
210.407070	1.233345	dec_choice	1.233345	16.000000	n/a	4	2.083333e-02	2.083333e-02
210.407070	1.233345	dec_social_accept	1.233345	16.000000	n/a	4	-5.915179e-02	-5.915179e-02
210.407070	1.233345	dec_accept	1.233345	16.000000	n/a	4	-4.583333e-02	-4.583333e-02
210.407070	1.233345	dec_social_accept_high	1.233345	16.000000	n/a	4	2.083333e-02	2.083333e-02
217.240170	1.150261	dec_social_choice	1.150261	16.000000	n/a	4	2.083333e-02	2.083333e-02
217.240170	1.150261	dec_choice	1.150261	16.000000	n/a	4	2.083333e-02	2.083333e-02
217.240170	1.150261	dec_social_accept	1.150261	16.000000	n/a	4	-5.915179e-02	-5.915179e-02
217.240170	1.150261	dec_accept	1.150261	16.000000	n/a	4	-4.583333e-02	-4.583333e-02
217.240170	1.150261	dec_social_high	1.150261	16.000000	n/a	4	2.083333e-02	2.083333e-02
217.240170	1.150261	dec_social_accept_high	1.150261	16.000000	n/a	4	2.083333e-02	2.083333e-02
226.489880	1.400661	dec_social_choice	1.400661	16.000000	n/a	0	0	-2.291667e-01
226.489880	1.400661	dec_choice	1.400661	16.000000	n/a	0	0	-2.291667e-01
226.489880	1.400661	dec_social_reject	1.400661	16.000000	n/a	0	0	-5.468750e-02
226.489880	1.400661	dec_reject	1.400661	16.000000	n/a	0	0	-5.555556e-02
226.489880	1.400661	dec_social_low	1.400661	16.000000	n/a	0	-2.291667e-01	-2.291667e-01
226.489880	1.400661	dec_social_reject_low	1.400661	16.000000	n/a	1	-1.666667e-01	-2.291667e-01
233.324080	1.332886	dec_nonsocial_choice	1.332886	16.000000	n/a	0	0	-2.291667e-01
233.324080	1.332886	dec_choice	1.332886	16.000000	n/a	0	0	-2.291667e-01
233.324080	1.332886	dec_nonsocial_reject	1.332886	16.000000	n/a	0	0	-5.468750e-02
233.324080	1.332886	dec_reject	1.332886	16.000000	n/a	0	0	-5.397727e-02
233.324080	1.332886	dec_nonsocial_reject_low	1.332886	16.000000	n/a	1	-5.555556e-02	-1.180556e-01
240.157170	0.983551	dec_social_choice	0.983551	16.000000	n/a	4	2.083333e-02	2.083333e-02
240.157170	0.983551	dec_choice	0.983551	16.000000	n/a	4	2.083333e-02	2.083333e-02
240.157170	0.983551	dec_social_accept	0.983551	16.000000	n/a	4	-5.915179e-02	-5.915179e-02
240.157170	0.983551	dec_accept	0.983551	16.000000	n/a	4	-4.583333e-02	-4.583333e-02
240.157170	0.983551	dec_social_accept_high	0.983551	16.000000	n/a	4	2.083333e-02	2.083333e-02
246.990080	1.333990	dec_nonsocial_choice	1.333990	32.000000	n/a	8	2.083333e-02	2.083333e-02
246.990080	1.333990	dec_choice	1.333990	32.000000	n/a	8	2.083333e-02	2.083333e-02
246.990080	1.333990	dec_nonsocial_accept	1.333990	32.000000	n/a	8	-5.915179e-02	-5.915179e-02
246.990080	1.333990	dec_accept	1.333990	32.000000	n/a	8	-7.451923e-02	-7.451923e-02
246.990080	1.333990	dec_nonsocial_high	1.333990	32.000000	n/a	8	2.083333e-02	2.083333e-02
246.990080	1.333990	dec_nonsocial_accept_high	1.333990	32.000000	n/a	8	-7.451923e-02	-7.451923e-02
253.823060	2.183918	dec_social_choice	2.183918	32.000000	n/a	0	0	-2.291667e-01
253.823060	2.183918	dec_choice	2.183918	32.000000	n/a	0	0	-2.291667e-01
253.823060	2.183918	dec_social_reject	2.183918	32.000000	n/a	0	0	-5.468750e-02
253.823060	2.183918	dec_reject	2.183918	32.000000	n/a	0	0	-5.555556e-02
253.823060	2.183918	dec_social_reject_low	2.183918	32.000000	n/a	2	-1.666667e-01	-2.291667e-01
261.474200	1.082704	dec_nonsocial_choice	1.082704	32.000000	n/a	0	0	-2.291667e-01
261.474200	1.082704	dec_choice	1.082704	32.000000	n/a	0	0	-2.291667e-01
261.474200	1.082704	dec_nonsocial_reject	1.082704	32.000000	n/a	0	0	-5.468750e-02
261.474200	1.082704	dec_reject	1.082704	32.000000	n/a	0	0	-5.397727e-02
261.474200	1.082704	dec_nonsocial_reject_low	1.082704	32.000000	n/a	2	-5.555556e-02	-1.180556e-01
269.124100	1.082559	dec_nonsocial_choice	1.082559	16.000000	n/a	4	2.083333e-02	2.083333e-02
269.124100	1.082559	dec_choice	1.082559	16.000000	n/a	4	2.083333e-02	2.083333e-02
269.124100	1.082559	dec_nonsocial_accept	1.082559	16.000000	n/a	4	-5.915179e-02	-5.915179e-02
269.124100	1.082559	dec_accept	1.082559	16.000000	n/a	4	-7.451923e-02	-7.451923e-02
269.124100	1.082559	dec_nonsocial_accept_high	1.082559	16.000000	n/a	4	-4.583333e-02	-4.583333e-02
276.773860	1.865994	dec_social_choice	1.865994	16.000000	n/a	2	-1.041667e-01	-1.041667e-01
276.773860	1.865994	dec_choice	1.865994	16.000000	n/a	2	-1.041667e-01	-1.041667e-01
276.773860	1.865994	dec_social_accept	1.865994	16.000000	n/a	2	-1.841518e-01	-1.841518e-01
276.773860	1.865994	dec_accept	1.865994	16.000000	n/a	2	-1.708333e-01	-1.708333e-01
276.773860	1.865994	dec_social_low	1.865994	16.000000	n/a	2	-1.041667e-01	-1.041667e-01
276.773860	1.865994	dec_social_accept_low	1.865994	16.000000	n/a	2	-1.041667e-01	-1.041667e-01
283.608100	1.799189	dec_nonsocial_choice	1.799189	32.000000	n/a	3	-1.354167e-01	-1.354167e-01
283.608100	1.799189	dec_choice	1.799189	32.000000	n/a	3	-1.354167e-01	-1.354167e-01
283.608100	1.799189	dec_nonsocial_accept	1.799189	32.000000	n/a	3	-2.154018e-01	-2.154018e-01
283.608100	1.799189	dec_accept	1.799189	32.000000	n/a	3	-2.307692e-01	-2.307692e-01
283.608100	1.799189	dec_nonsocial_low	1.799189	32.000000	n/a	3	-1.354167e-01	-1.354167e-01
283.608100	1.799189	dec_nonsocial_accept_low	1.799189	32.000000	n/a	3	-2.307692e-01	-2.307692e-01
291.257080	1.416766	dec_social_choice	1.416766	32.000000	n/a	3	-1.354167e-01	-1.354167e-01
291.257080	1.416766	dec_choice	1.416766	32.000000	n/a	3	-1.354167e-01	-1.354167e-01
291.257080	1.416766	dec_social_accept	1.416766	32.000000	n/a	3	-2.154018e-01	-2.154018e-01
291.257080	1.416766	dec_accept	1.416766	32.000000	n/a	3	-2.020833e-01	-2.020833e-01
291.257080	1.416766	dec_social_accept_low	1.416766	32.000000	n/a	3	-1.354167e-01	-1.354167e-01
298.091100	1.248983	dec_social_choice	1.248983	16.000000	n/a	8	2.708333e-01	2.708333e-01
298.091100	1.248983	dec_choice	1.248983	16.000000	n/a	8	2.708333e-01	2.708333e-01
298.091100	1.248983	dec_social_accept	1.248983	16.000000	n/a	8	1.908482e-01	1.908482e-01
298.091100	1.248983	dec_accept	1.248983	16.000000	n/a	8	2.041667e-01	2.041667e-01
298.091100	1.248983	dec_social_accept_high	1.248983	16.000000	n/a	8	2.708333e-01	2.708333e-01
307.356140	1.467577	dec_social_choice	1.467577	16.000000	n/a	2	-1.041667e-01	-1.041667e-01
307.356140	1.467577	dec_choice	1.467577	16.000000	n/a	2	-1.041667e-01	-1.041667e-01
307.356140	1.467577	dec_social_accept	1.467577	16.000000	n/a	2	-1.841518e-01	-1.841518e-01
307.356140	1.467577	dec_accept	1.467577	16.000000	n/a	2	-1.708333e-01	-1.708333e-01
307.356140	1.467577	dec_social_low	1.467577	16.000000	n/a	2	-1.041667e-01	-1.041667e-01
307.356140	1.467577	dec_social_accept_low	1.467577	16.000000	n/a	2	-1.041667e-01	-1.041667e-01
318.223450	1.150420	dec_social_choice	1.150420	16.000000	n/a	4	2.083333e-02	2.083333e-02
318.223450	1.150420	dec_choice	1.150420	16.000000	n/a	4	2.083333e-02	2.083333e-02
318.223450	1.150420	dec_social_accept	1.150420	16.000000	n/a	4	-5.915179e-02	-5.915179e-02
318.223450	1.150420	dec_accept	1.150420	16.000000	n/a	4	-4.583333e-02	-4.583333e-02
318.223450	1.150420	dec_social_high	1.150420	16.000000	n/a	4	2.083333e-02	2.083333e-02
318.223450	1.150420	dec_social_accept_high	1.150420	16.000000	n/a	4	2.083333e-02	2.083333e-02
327.473020	1.367069	dec_nonsocial_choice	1.367069	32.000000	n/a	16	2.708333e-01	2.708333e-01
327.473020	1.367069	dec_choice	1.367069	32.000000	n/a	16	2.708333e-01	2.708333e-01
327.473020	1.367069	dec_nonsocial_accept	1.367069	32.000000	n/a	16	1.908482e-01	1.908482e-01
327.473020	1.367069	dec_accept	1.367069	32.000000	n/a	16	1.754808e-01	1.754808e-01
327.473020	1.367069	dec_nonsocial_accept_high	1.367069	32.000000	n/a	16	2.041667e-01	2.041667e-01
334.306100	1.067004	dec_social_choice	1.067004	32.000000	n/a	16	2.708333e-01	2.708333e-01
334.306100	1.067004	dec_choice	1.067004	32.000000	n/a	16	2.708333e-01	2.708333e-01
334.306100	1.067004	dec_social_accept	1.067004	32.000000	n/a	16	1.908482e-01	1.908482e-01
334.306100	1.067004	dec_accept	1.067004	32.000000	n/a	16	2.041667e-01	2.041667e-01
334.306100	1.067004	dec_social_accept_high	1.067004	32.000000	n/a	16	2.708333e-01	2.708333e-01
341.958100	2.064943	dec_nonsocial_choice	2.064943	32.000000	n/a	0	0	-2.291667e-01
341.958100	2.064943	dec_choice	2.064943	32.000000	n/a	0	0	-2.291667e-01
341.958100	2.064943	dec_nonsocial_reject	2.064943	32.000000	n/a	0	0	-5.468750e-02
341.958100	2.064943	dec_reject	2.064943	32.000000	n/a	0	0	-5.397727e-02
341.958100	2.064943	dec_nonsocial_reject_low	2.064943	32.000000	n/a	2	-5.555556e-02	-1.180556e-01
352.840100	1.099902	dec_nonsocial_choice	1.099902	32.000000	n/a	8	2.083333e-02	2.083333e-02
352.840100	1.099902	dec_choice	1.099902	32.000000	n/a	8	2.083333e-02	2.083333e-02
352.840100	1.099902	dec_nonsocial_accept	1.099902	32.000000	n/a	8	-5.915179e-02	-5.915179e-02
352.840100	1.099902	dec_accept	1.099902	32.000000	n/a	8	-7.451923e-02	-7.451923e-02
352.840100	1.099902	dec_nonsocial_high	1.099902	32.000000	n/a	8	2.083333e-02	2.083333e-02
352.840100	1.099902	dec_nonsocial_accept_high	1.099902	32.000000	n/a	8	-7.451923e-02	-7.451923e-02
359.673770	1.583371	dec_nonsocial_choice	1.583371	32.000000	n/a	0	0	-2.291667e-01
359.673770	1.583371	dec_choice	1.583371	32.000000	n/a	0	0	-2.291667e-01
359.673770	1.583371	dec_nonsocial_reject	1.583371	32.000000	n/a	0	0	-5.468750e-02
359.673770	1.583371	dec_reject	1.583371	32.000000	n/a	0	0	-5.397727e-02
359.673770	1.583371	dec_nonsocial_reject_low	1.583371	32.000000	n/a	2	-5.555556e-02	-1.180556e-01
367.323670	1.183467	dec_nonsocial_choice	1.183467	32.000000	n/a	16	2.708333e-01	2.708333e-01
367.323670	1.183467	dec_choice	1.183467	32.000000	n/a	16	2.708333e-01	2.708333e-01
367.323670	1.183467	dec_nonsocial_accept	1.183467	32.000000	n/a	16	1.908482e-01	1.908482e-01
367.323670	1.183467	dec_accept	1.183467	32.000000	n/a	16	1.754808e-01	1.754808e-01
367.323670	1.183467	dec_nonsocial_high	1.183467	32.000000	n/a	16	2.708333e-01	2.708333e-01
367.323670	1.183467	dec_nonsocial_accept_high	1.183467	32.000000	n/a	16	1.754808e-01	1.754808e-01
