onset	duration	trial_type	rt	resp	gender	image_left	image_right
0.599490400054492	3.00132269994356	decision	1.28265720000491	left	S	SD001.jpg	SD002.jpg
4.14940019999631	1.00009800004773	win	NaN	n/a	n/a	SD001.jpg	SD002.jpg
11.0826952999923	3.00117489998229	decision	1.28304819995537	right	S	SD003.jpg	SD004.jpg
14.6327387000201	1.01664569997229	loss	NaN	n/a	n/a	SD003.jpg	SD004.jpg
17.3661095000571	3.00088769989088	decision	1.03306299995165	left	S	SD005.jpg	SD006.jpg
20.916230599978	1.01646760001313	win	NaN	n/a	n/a	SD005.jpg	SD006.jpg
23.6494784000097	3.00138160004281	decision	1.0329677000409	right	D	DD001.jpg	DD002.jpg
27.1992023000494	1.00029609992635	win	NaN	n/a	n/a	DD001.jpg	DD002.jpg
32.0161517000524	3.00208769994788	decision	1.53270569990855	right	D	DD003.jpg	DD004.jpg
35.5661115000257	1.01671310001984	loss	NaN	n/a	n/a	DD003.jpg	DD004.jpg
42.4827563000144	3.00129809998907	decision	1.03317629999947	left	S	SD007.jpg	SD008.jpg
46.0327530000359	1.01654599991161	loss	NaN	n/a	n/a	SD007.jpg	SD008.jpg
50.8661198000191	3.00106719997711	decision	1.28253349999432	right	S	SD009.jpg	SD010.jpg
54.4159672999522	1.00011890009046	win	NaN	n/a	n/a	SD009.jpg	SD010.jpg
59.2492479999783	3.00094250007533	decision	1.03331369999796	left	D	DD005.jpg	DD006.jpg
62.7993110000389	1.00018149998505	loss	NaN	n/a	n/a	DD005.jpg	DD006.jpg
65.532576699974	3.00164330005646	decision	1.03325680003036	right	D	DD007.jpg	DD008.jpg
69.0826936999802	1.00000620004721	win	NaN	n/a	n/a	DD007.jpg	DD008.jpg
71.7993766999571	3.0017247000942	decision	1.03340280009434	left	D	DD009.jpg	DD010.jpg
75.3492437000386	1.00032230000943	win	NaN	n/a	n/a	DD009.jpg	DD010.jpg
78.0660636000102	3.00107779994141	decision	1.03276940004434	right	D	DD011.jpg	DD012.jpg
81.6158507999498	1.00007250008639	loss	NaN	n/a	n/a	DD011.jpg	DD012.jpg
86.4328404000262	3.00100769998971	decision	1.03313350002281	left	S	SD011.jpg	SD012.jpg
89.9825463000452	1.01680619991384	loss	NaN	n/a	n/a	SD011.jpg	SD012.jpg
92.7162277000025	3.00169810000807	decision	1.03281340003014	right	S	SD013.jpg	SD014.jpg
96.2659422999714	1.01651520002633	win	NaN	n/a	n/a	SD013.jpg	SD014.jpg
103.199347099988	3.00115270004608	decision	1.03247119998559	left	S	SD015.jpg	SD016.jpg
106.74919979996	1.00008320005145	win	NaN	n/a	n/a	SD015.jpg	SD016.jpg
109.465868100058	3.00189069996122	decision	1.03263529995456	right	D	DD013.jpg	DD014.jpg
113.015846500057	1.0000136999879	win	NaN	n/a	n/a	DD013.jpg	DD014.jpg
119.93261160003	3.00120369996876	decision	1.03348240000196	left	S	SD017.jpg	SD018.jpg
123.482529200031	1.0001119999215	win	NaN	n/a	n/a	SD017.jpg	SD018.jpg
128.316394099966	3.00195599999279	decision	1.03297820000444	right	D	DD015.jpg	DD016.jpg
131.865842800005	1.00006220000796	win	NaN	n/a	n/a	DD015.jpg	DD016.jpg
136.716054899967	3.0013490000274	decision	1.03375589998905	left	S	SD019.jpg	SD020.jpg
140.265816599946	1.01667640008964	win	NaN	n/a	n/a	SD019.jpg	SD020.jpg
145.099284399999	3.00170999998227	decision	1.03251509997062	right	D	DD017.jpg	DD018.jpg
148.649144900031	1.00001929991413	win	NaN	n/a	n/a	DD017.jpg	DD018.jpg
161.865795099991	3.00198219995946	decision	1.78399859997444	left	S	SD021.jpg	SD022.jpg
165.415871600038	1.0001052999869	loss	NaN	n/a	n/a	SD021.jpg	SD022.jpg
172.332518800045	3.00108829990495	decision	1.03255819994956	right	S	SD023.jpg	SD024.jpg
175.882553000003	1.01667529996485	win	NaN	n/a	n/a	SD023.jpg	SD024.jpg
182.815732900053	3.00208839995321	decision	1.28297089994885	left	S	SD025.jpg	SD026.jpg
186.365740800044	1.00003120000474	loss	NaN	n/a	n/a	SD025.jpg	SD026.jpg
191.182532000006	3.00041029998101	decision	1.03343930002302	right	S	SD027.jpg	SD028.jpg
194.732566099963	1.01667959999759	loss	NaN	n/a	n/a	SD027.jpg	SD028.jpg
197.49925610004	3.00107779994141	decision	1.03240809997078	left	D	DD019.jpg	DD020.jpg
201.049095500028	1.00004730001092	loss	NaN	n/a	n/a	DD019.jpg	DD020.jpg
203.765761599992	3.00114469998516	decision	1.03267880005296	right	D	DD021.jpg	DD022.jpg
207.315681500011	1.00014729995746	win	NaN	n/a	n/a	DD021.jpg	DD022.jpg
214.232494900003	3.00222150003538	decision	1.03375599998981	left	S	SD029.jpg	SD030.jpg
217.782473600004	1.00002040003892	loss	NaN	n/a	n/a	SD029.jpg	SD030.jpg
224.699459900032	3.00141589995474	decision	1.28335719997995	right	S	SD031.jpg	SD032.jpg
228.249036199995	1.00009190000128	win	NaN	n/a	n/a	SD031.jpg	SD032.jpg
233.065937599982	3.00101979996543	decision	1.03329639998265	left	D	DD023.jpg	DD024.jpg
236.615603100043	1.00007599999662	loss	NaN	n/a	n/a	DD023.jpg	DD024.jpg
239.332482500002	3.00178149994463	decision	1.03273610002361	right	D	DD025.jpg	DD026.jpg
242.882416400011	1.01663059997372	win	NaN	n/a	n/a	DD025.jpg	DD026.jpg
247.715690799989	3.00077519996557	decision	1.28325740003493	left	D	DD027.jpg	DD028.jpg
251.26562239998	1.00002959999256	loss	NaN	n/a	n/a	DD027.jpg	DD028.jpg
253.982465900015	3.00149189995136	decision	1.03350939997472	right	S	SD033.jpg	SD034.jpg
257.53242850001	1.01670959999319	loss	NaN	n/a	n/a	SD033.jpg	SD034.jpg
260.265658700024	3.00118479994126	decision	1.03343349997886	left	S	SD035.jpg	SD036.jpg
263.815565000055	1.01680559990928	loss	NaN	n/a	n/a	SD035.jpg	SD036.jpg
266.549053800059	3.00090879993513	decision	1.03352939989418	right	S	SD037.jpg	SD038.jpg
270.098842000007	1.00008949998301	win	NaN	n/a	n/a	SD037.jpg	SD038.jpg
277.01573470002	3.00018049997743	decision	1.28236710000783	right	D	DD029.jpg	DD030.jpg
280.565933099948	1.01650510006584	loss	NaN	n/a	n/a	DD029.jpg	DD030.jpg
283.31577440002	3.0011727999663	decision	1.03323870000895	right	D	DD031.jpg	DD032.jpg
286.865601100028	1.00004239997361	loss	NaN	n/a	n/a	DD031.jpg	DD032.jpg
291.682186000049	3.0022146999836	decision	1.03371979994699	left	D	DD033.jpg	DD034.jpg
295.232365299948	1.00013300008141	win	NaN	n/a	n/a	DD033.jpg	DD034.jpg
302.149182799971	3.00091260008048	decision	1.03240999998525	right	S	SD039.jpg	SD040.jpg
305.698901599972	1.00011040002573	loss	NaN	n/a	n/a	SD039.jpg	SD040.jpg
312.632401600014	3.00076299998909	decision	1.03234789997805	right	D	DD035.jpg	DD036.jpg
316.18227260001	1.01653859997168	win	NaN	n/a	n/a	DD035.jpg	DD036.jpg
318.915709599969	3.0012719000224	decision	1.28255680005532	left	D	DD037.jpg	DD038.jpg
322.465882800054	1.01629859989043	loss	NaN	n/a	n/a	DD037.jpg	DD038.jpg
325.198882799945	3.00197310000658	decision	1.28263570007402	right	D	DD039.jpg	DD040.jpg
328.748778100009	1.01682619994972	loss	NaN	n/a	n/a	DD039.jpg	DD040.jpg
