TrialNumber,Trial,cLeft,cRight,Partner,Reciprocate,ISI,ITI,ran,order,onset,bpress,resp,resp_onset,highlow,rt,ISIpad,ISI_onset,ISI_offset,outcome_onset,outcome_offset,duration,ITI_onset,ITI_offset
1,1,8,4,3,0,2,8.075000e-01,1.0,0.0,4.0351286,1.0,8,6.097911,high,2.0627825,0.9372175,6.61722,10.785862,10.78937,12.791857,8.756728,12.792303,13.593337
2,2,0,8,3,0,5.000000e-01,7.267500e+00,1.0,1.0,13.602759,2.0,8,15.447585,high,1.8448256,1.1551744,15.968327,18.852873,18.853285,20.856497,7.253737,20.856882,28.120068
3,3,2,8,2,1,2,8.075000e-01,1.0,2.0,28.238846,2.0,8,30.198065,high,1.9592187,1.0407813,30.7185,34.989895,34.992405,36.994667,8.75582,36.99505,37.797832
4,4,2,0,2,0,5.000000e-01,5.652500e+00,1.0,3.0,37.91083,1.0,2,39.61487,high,1.7040356,1.2959644,40.134094,43.16185,43.163548,45.165504,7.254673,45.165882,50.814816
5,5,2,8,2,1,5.000000e-01,2.422500e+00,1.0,4.0,50.92749,2.0,8,52.614456,high,1.6869681,1.3130319,53.135128,56.177868,56.17977,58.182533,7.2550454,58.182915,60.60084
6,6,8,2,2,0,5.000000e-01,7.267500e+00,1.0,5.0,60.71571,1.0,8,62.3979,high,1.6821902,1.3178098,62.918148,65.965805,65.96754,67.969826,7.2541137,67.9702,75.23381
7,7,8,0,2,1,5.000000e-01,4.037500e+00,1.0,6.0,75.34672,1.0,8,77.24802,high,1.9012986,1.0987014,77.76794,80.59769,80.599594,82.60183,7.2551117,82.6022,86.634865
8,8,8,0,3,1,5.000000e-01,8.075000e-01,1.0,7.0,86.64264,1.0,8,88.28056,high,1.6379225,1.3620775,88.800064,91.8938,91.89557,93.897446,7.254804,93.89783,94.7007
9,9,8,4,2,0,2,8.075000e-01,1.0,8.0,94.81073,1.0,8,96.56479,high,1.7540556,1.2459444,97.08494,101.561066,101.56281,103.56547,8.754739,103.56584,104.36849
10,10,2,4,2,0,5.000000e-01,2.422500e+00,1.0,9.0,104.47727,2.0,4,106.330925,high,1.8536493,1.1463507,106.85106,109.72773,109.72811,111.73087,7.253597,111.73124,114.150764
11,11,2,8,1,1,5.000000e-01,8.075000e-01,1.0,10.0,114.15647,2.0,8,115.964005,high,1.8075305,1.1924695,116.48355,119.407776,119.409805,121.41262,7.256149,121.413,122.214005
12,12,8,2,1,1,5.000000e-01,2.422500e+00,1.0,11.0,122.21835,1.0,8,123.86485,high,1.6465037,1.3534963,124.383255,127.46934,127.46974,129.47238,7.254032,129.47276,131.89177
13,13,8,2,3,0,5.000000e-01,8.882500e+00,1.0,12.0,131.8992,1.0,8,133.51454,high,1.6153384,1.3846616,134.03296,137.15015,137.15186,139.15375,7.254545,139.15411,148.0328
14,14,4,0,2,1,5.000000e-01,8.075000e-01,1.0,13.0,148.14621,1.0,4,149.83034,high,1.6841314,1.3158686,150.35,153.39612,153.39809,155.39964,7.253433,155.40004,156.20435
15,15,8,2,2,0,5.000000e-01,2.422500e+00,1.0,14.0,156.31848,1.0,8,157.88095,high,1.5624743,1.4375257,158.40088,161.56932,161.57117,163.57275,7.2542677,163.57314,165.99138
16,16,2,0,1,0,5.000000e-01,8.075000e-01,1.0,15.0,165.99678,1.0,2,168.26407,high,2.2672906,0.7327093,168.78291,171.2465,171.24847,173.24998,7.2531996,173.25037,174.05467
17,17,8,2,3,0,2,8.075000e-01,1.0,16.0,174.0646,1.0,8,175.71376,high,1.6491495,1.3508505,176.23283,180.81575,180.81749,182.81937,8.754765,182.81975,183.62383
18,18,2,4,3,0,3.500000e+00,4.037500e+00,1.0,17.0,183.63239,2.0,4,185.34737,high,1.7149727,1.2850273,185.86708,191.88368,191.88408,193.88771,10.255317,193.88808,197.9207
19,19,4,2,1,0,5.000000e-01,8.075000e-01,1.0,18.0,197.92615,1.0,4,199.51436,high,1.5882065,1.4117935,200.03313,203.1777,203.17961,205.18132,7.255179,205.1817,205.9847
20,20,8,2,3,1,2,2.422500e+00,1.0,19.0,205.99278,1.0,8,208.01396,high,2.0211866,0.9788134,208.53278,212.74387,212.7456,214.74805,8.755272,214.74844,217.16574
21,21,0,2,3,1,2,2.422500e+00,1.0,20.0,217.17305,2.0,2,219.1808,high,2.007756,0.9922439,219.69998,223.92337,223.92377,225.92587,8.752821,225.92625,228.34636
22,22,4,2,2,1,2,2.422500e+00,1.0,21.0,228.45857,1.0,4,230.11418,high,1.6556087,1.3443913,230.63417,235.20955,235.21152,237.21422,8.755651,237.2146,239.63164
23,23,4,0,3,1,2,8.075000e-01,1.0,22.0,239.6402,1.0,4,241.56429,high,1.924085,1.075915,242.08379,246.39015,246.39197,248.39409,8.753884,248.39447,249.19754
24,24,4,8,1,0,2,8.075000e-01,1.0,23.0,249.20189,2.0,8,251.56354,high,2.361646,0.638354,252.08481,255.95265,255.95457,257.9563,8.754421,257.9567,258.76065
25,25,8,2,1,0,2,2.422500e+00,1.0,24.0,258.76498,1.0,8,260.84714,high,2.0821316,0.9178683,261.36676,265.51468,265.51508,267.51767,8.752663,267.51804,269.93744
26,26,0,4,1,1,5.000000e-01,4.037500e+00,1.0,25.0,269.94205,2.0,4,271.83072,high,1.8886685,1.1113315,272.34995,275.19266,275.1946,277.1962,7.2541537,277.1966,281.23062
27,27,4,8,1,1,5.000000e-01,8.075000e-01,1.0,26.0,281.23492,2.0,8,283.74707,high,2.5121377,0.4878623,284.26636,286.48532,286.48572,288.48846,7.2535458,288.48883,289.2936
28,28,0,4,1,0,3.500000e+00,8.075000e-01,1.0,27.0,289.29797,2.0,4,291.26334,high,1.9653697,1.0346303,291.7828,297.54846,297.55035,299.55353,10.255569,299.55392,300.357
29,29,4,8,2,1,5.000000e-01,4.037500e+00,1.0,28.0,300.47067,2.0,8,302.01358,high,1.5429118,1.4570882,302.5344,305.7216,305.72345,307.7262,7.255513,307.72656,311.75867
30,30,0,8,2,0,5.000000e-01,8.075000e-01,1.0,29.0,311.8698,2.0,8,313.5471,high,1.6772991,1.3227009,314.06686,317.12033,317.12213,319.1246,7.254808,319.125,319.92728
31,31,2,0,2,1,3.500000e+00,8.075000e-01,1.0,30.0,320.04327,1.0,2,321.68018,high,1.636898,1.363102,322.20102,328.2936,328.29556,330.2977,10.254425,330.2981,331.10144
32,32,2,4,3,1,2,2.422500e+00,1.0,31.0,331.11014,2.0,4,333.0135,high,1.903349,1.096651,333.53384,337.86005,337.86182,339.86356,8.7534275,339.86395,342.28342
33,33,0,2,1,1,5.000000e-01,8.075000e-01,1.0,32.0,342.28876,2.0,2,344.46353,high,2.1747873,0.8252128,344.9837,347.53976,347.5419,349.54337,7.254609,349.54376,350.3476
34,34,0,2,3,0,3.500000e+00,8.075000e-01,1.0,33.0,350.35446,2.0,2,352.03033,high,1.6758972,1.3241028,352.5491,358.6057,358.60736,360.61032,10.25586,360.6107,361.41168
35,35,4,0,3,0,2,2.422500e+00,1.0,34.0,361.4204,1.0,4,362.9631,high,1.5426812,1.4573188,363.4834,368.17053,368.17093,370.1742,8.753768,370.1746,372.5926
36,36,0,8,1,0,2,8.075000e-01,1.0,35.0,372.59793,2.0,8,374.0632,high,1.4652869,1.5347131,374.5829,379.3485,379.35043,381.35214,8.754231,381.35254,382.15656
37,37,8,4,3,1,5.000000e-01,8.075000e-01,1.0,36.0,382.16568,1.0,8,384.3805,high,2.214787,0.7852129,384.8988,387.41608,387.4178,389.4204,7.2547264,389.4208,390.2231
38,38,8,2,3,1,2,8.075000e-01,1.0,37.0,390.2305,1.0,8,392.0969,high,1.8664033,1.1335967,392.61664,396.9805,396.9809,398.9832,8.75267,398.98355,399.78842
39,39,8,0,1,1,5.000000e-01,8.075000e-01,1.0,38.0,399.79245,1.0,8,401.29614,high,1.5036889,1.4963111,401.8156,405.04276,405.0447,407.04617,7.25372,407.04657,407.84967
40,40,2,4,1,1,5.000000e-01,2.422500e+00,1.0,39.0,407.854,1.0,2,409.31332,low,1.4593198,1.5406802,409.8326,413.1035,413.1039,415.10617,7.252147,415.10654,417.52753
41,41,8,2,1,0,5.000000e-01,4.037500e+00,1.0,40.0,417.532,1.0,8,419.5137,high,1.9817137,1.0182863,420.03372,422.78268,422.7846,424.7865,7.2544847,424.78687,428.82047
42,42,4,0,2,0,2,5.652500e+00,1.0,41.0,428.936,1.0,4,430.6796,high,1.743568,1.256432,431.20062,435.68747,435.68918,437.69238,8.756378,437.69278,443.339
