instrText,stimDoor,stimDoorLure,stimFace,stimFaceLure,Instructions.thisRepN,Instructions.thisTrialN,Instructions.thisN,Instructions.thisIndex,Trials.thisRepN,Trials.thisTrialN,Trials.thisN,Trials.thisIndex,Func,Keys,Text,RespTime,Onset,Offset,SystemTime_Start,SystemTime_Stop,Stim,Lure,Participant*,Age,date,expName,psychopyVersion,frameRate,
"In the earlier Feedback Games, you chose which doors contained a prize, and which peers liked you. 

You then saw positive or negative feedback (green check mark or red X) from the door or peer you selected.

You will now see a series of doors and peers, some of which you saw during the earlier Feedback Games, and some that you have never seen before.

Please press the spacebar to continue.",,,,,0,0,0,0,,,,,instrFunc,space,"In the earlier Feedback Games, you chose which doors contained a prize, and which peers liked you. 

You then saw positive or negative feedback (green check mark or red X) from the door or peer you selected.

You will now see a series of doors and peers, some of which you saw during the earlier Feedback Games, and some that you have never seen before.

Please press the spacebar to continue.",22.837208000011742,13.078225800010841,35.98983408004278,2024-03-22 18:01:25.561523,2024-03-22 18:01:48.460478,,,10954,40-69,2024-03-22_18h01.23.448,Recall,2021.2.3,59.90628260574307,
"For doors/peers that you remember selecting and getting feedback from, your job is to RECALL what feedback you received. 

Press '1' if you recall positive feedback. 

Press '2' if you recall negative feedback

Press the spacebar to continue.",,,,,0,1,1,1,,,,,instrFunc,space,"For doors/peers that you remember selecting and getting feedback from, your job is to RECALL what feedback you received. 

Press '1' if you recall positive feedback. 

Press '2' if you recall negative feedback

Press the spacebar to continue.",21.87125150000793,35.96451409999281,57.89266941999085,2024-03-22 18:01:48.461478,2024-03-22 18:02:10.375246,,,10954,40-69,2024-03-22_18h01.23.448,Recall,2021.2.3,59.90628260574307,
"For doors/peers that you don't remember getting feedback from, your job is to PREDICT what feedback you WOULD HAVE received.

Press '9' if you predict positive feedback.

Press '0' if you predict negative feedback. 

Please press the spacebar to continue.",,,,,0,2,2,2,,,,,instrFunc,space,"For doors/peers that you don't remember getting feedback from, your job is to PREDICT what feedback you WOULD HAVE received.

Press '9' if you predict positive feedback.

Press '0' if you predict negative feedback. 

Please press the spacebar to continue.",17.123313599993708,57.88049599999795,75.05634981999174,2024-03-22 18:02:10.376247,2024-03-22 18:02:27.537541,,,10954,40-69,2024-03-22_18h01.23.448,Recall,2021.2.3,59.90628260574307,
"This task is self-paced, and the prompts will always stay on the screen so that you know which buttons to press.

On the next screen we will show you what those prompts look like, so that you know exactly what to expect. 

You will start with either doors or peers, and then switch halfway through. 

Please press the spacebar to continue.",,,,,0,3,3,3,,,,,instrFunc,space,"This task is self-paced, and the prompts will always stay on the screen so that you know which buttons to press.

On the next screen we will show you what those prompts look like, so that you know exactly what to expect. 

You will start with either doors or peers, and then switch halfway through. 

Please press the spacebar to continue.",2.3185281999758445,75.03721760000917,77.40309782000259,2024-03-22 18:02:27.538542,2024-03-22 18:02:29.889678,,,10954,40-69,2024-03-22_18h01.23.448,Recall,2021.2.3,59.90628260574307,
,,,,,,,,,,,,,imgtextFunc,space,"Here is what the screen will look like while you make your ratings.
The green circles remind you to press 1 or 9 for positive feedback.
The red circles remind you to press 2 or 0 for negative feedback.









Please let the experimenter know if you have any questions.

Whenever you're ready, press the spacebar to start the task.",15.56157940000412,77.54607209999813,93.30265941997641,2024-03-22 18:02:29.900036,2024-03-22 18:02:45.651948,,,10954,40-69,2024-03-22_18h01.23.448,Recall,2021.2.3,59.90628260574307,
,SD011.jpg,0,MF011.jpg,0,,,,,0,0,0,60,imgFunc,1,NA,2.6943004000058863,93.28544150001835,96.1233395599993,2024-03-22 18:02:45.691258,2024-03-22 18:02:48.519422,MF011.jpg,0,10954,40-69,2024-03-22_18h01.23.448,Recall,2021.2.3,59.90628260574307,
,L_DD504.jpg,1,L_FF504.jpg,1,,,,,0,1,1,43,imgFunc,1,NA,2.477250300027663,96.08647420001216,98.67220011999598,2024-03-22 18:02:48.527401,2024-03-22 18:02:51.105172,L_FF504.jpg,1,10954,40-69,2024-03-22_18h01.23.448,Recall,2021.2.3,59.90628260574307,
,L_DD502.jpg,1,L_FF502.jpg,1,,,,,0,2,2,41,imgFunc,2,NA,5.088176299992483,98.67522689999896,103.87349011996412,2024-03-22 18:02:51.116145,2024-03-22 18:02:56.308985,L_FF502.jpg,1,10954,40-69,2024-03-22_18h01.23.448,Recall,2021.2.3,59.90628260574307,
,SD038.jpg,0,MF038.jpg,0,,,,,0,3,3,87,imgFunc,1,NA,3.592283400008455,103.87532359999022,107.5760245200072,2024-03-22 18:02:56.317963,2024-03-22 18:03:00.011522,MF038.jpg,0,10954,40-69,2024-03-22_18h01.23.448,Recall,2021.2.3,59.90628260574307,
,L_DD507.jpg,1,L_FF507.jpg,1,,,,,0,4,4,46,imgFunc,1,NA,3.2750119999982417,107.58460150001338,110.97030611999799,2024-03-22 18:03:00.019504,2024-03-22 18:03:03.397500,L_FF507.jpg,1,10954,40-69,2024-03-22_18h01.23.448,Recall,2021.2.3,59.90628260574307,
,L_SD501.jpg,1,L_MF501.jpg,1,,,,,0,5,5,90,imgFunc,1,NA,1.4158400999731384,110.97976610000478,112.5151221199776,2024-03-22 18:03:03.404483,2024-03-22 18:03:04.931707,L_MF501.jpg,1,10954,40-69,2024-03-22_18h01.23.448,Recall,2021.2.3,59.90628260574307,
,SD031.jpg,0,MF031.jpg,0,,,,,0,6,6,80,imgFunc,1,NA,2.673579599999357,112.49782439999399,115.28469482003129,2024-03-22 18:03:04.938690,2024-03-22 18:03:07.716686,MF031.jpg,0,10954,40-69,2024-03-22_18h01.23.448,Recall,2021.2.3,59.90628260574307,
,SD035.jpg,0,MF035.jpg,0,,,,,0,7,7,84,imgFunc,1,NA,3.645269200002076,115.29417790001025,119.03360812002211,2024-03-22 18:03:07.731643,2024-03-22 18:03:11.469857,MF035.jpg,0,10954,40-69,2024-03-22_18h01.23.448,Recall,2021.2.3,59.90628260574307,
,DD039.jpg,0,FF039.jpg,0,,,,,0,8,8,38,imgFunc,1,NA,2.6360843000002205,119.03154709999217,121.76856831999612,2024-03-22 18:03:11.476840,2024-03-22 18:03:14.204993,FF039.jpg,0,10954,40-69,2024-03-22_18h01.23.448,Recall,2021.2.3,59.90628260574307,
,DD007.jpg,0,FF007.jpg,0,,,,,0,9,9,6,imgFunc,1,NA,0.7908472999988589,121.7648209000181,122.65007912000874,2024-03-22 18:03:14.212973,2024-03-22 18:03:15.089172,FF007.jpg,0,10954,40-69,2024-03-22_18h01.23.448,Recall,2021.2.3,59.90628260574307,
,SD009.jpg,0,MF009.jpg,0,,,,,0,10,10,58,imgFunc,1,NA,1.0357813000155147,122.64798100001644,123.78254522004863,2024-03-22 18:03:15.097178,2024-03-22 18:03:16.223164,MF009.jpg,0,10954,40-69,2024-03-22_18h01.23.448,Recall,2021.2.3,59.90628260574307,
,SD003.jpg,0,MF003.jpg,0,,,,,0,11,11,52,imgFunc,1,NA,0.7610386000014842,123.78666469999007,124.65517581996392,2024-03-22 18:03:16.230148,2024-03-22 18:03:17.090549,MF003.jpg,0,10954,40-69,2024-03-22_18h01.23.448,Recall,2021.2.3,59.90628260574307,
,DD031.jpg,0,FF031.jpg,0,,,,,0,12,12,30,imgFunc,1,NA,1.1064526000118349,124.64917879999848,125.85041071998421,2024-03-22 18:03:17.098555,2024-03-22 18:03:18.291345,FF031.jpg,0,10954,40-69,2024-03-22_18h01.23.448,Recall,2021.2.3,59.90628260574307,
,DD002.jpg,0,FF002.jpg,0,,,,,0,13,13,1,imgFunc,1,NA,1.0897102000017185,125.84990080000716,127.03542242004187,2024-03-22 18:03:18.298328,2024-03-22 18:03:19.475413,FF002.jpg,0,10954,40-69,2024-03-22_18h01.23.448,Recall,2021.2.3,59.90628260574307,
,SD026.jpg,0,MF026.jpg,0,,,,,0,14,14,75,imgFunc,1,NA,1.9813473999965936,127.03824600001099,129.1247494200361,2024-03-22 18:03:19.482396,2024-03-22 18:03:21.560042,MF026.jpg,0,10954,40-69,2024-03-22_18h01.23.448,Recall,2021.2.3,59.90628260574307,
,DD016.jpg,0,FF016.jpg,0,,,,,0,15,15,15,imgFunc,9,NA,6.40141059999587,129.13009160000365,135.63587322001695,2024-03-22 18:03:21.568046,2024-03-22 18:03:28.065077,FF016.jpg,0,10954,40-69,2024-03-22_18h01.23.448,Recall,2021.2.3,59.90628260574307,
,SD032.jpg,0,MF032.jpg,0,,,,,0,16,16,81,imgFunc,1,NA,1.407554599980358,135.6599278000067,137.19405173999257,2024-03-22 18:03:28.082062,2024-03-22 18:03:29.599545,MF032.jpg,0,10954,40-69,2024-03-22_18h01.23.448,Recall,2021.2.3,59.90628260574307,
,DD001.jpg,0,FF001.jpg,0,,,,,0,17,17,0,imgFunc,1,NA,1.6000972999900114,137.15555510000559,138.8582822199969,2024-03-22 18:03:29.606528,2024-03-22 18:03:31.300638,FF001.jpg,0,10954,40-69,2024-03-22_18h01.23.448,Recall,2021.2.3,59.90628260574307,
,DD011.jpg,0,FF011.jpg,0,,,,,0,18,18,10,imgFunc,1,NA,1.3996507999836467,138.85970510001061,140.36172292000265,2024-03-22 18:03:31.307621,2024-03-22 18:03:32.801332,FF011.jpg,0,10954,40-69,2024-03-22_18h01.23.448,Recall,2021.2.3,59.90628260574307,
,DD017.jpg,0,FF017.jpg,0,,,,,0,19,19,16,imgFunc,1,NA,0.8006860000023153,140.36287680000532,141.2651304199826,2024-03-22 18:03:32.808313,2024-03-22 18:03:33.702297,FF017.jpg,0,10954,40-69,2024-03-22_18h01.23.448,Recall,2021.2.3,59.90628260574307,
,SD010.jpg,0,MF010.jpg,0,,,,,0,20,20,59,imgFunc,1,NA,0.9064148000034038,141.26505929999985,142.26696281999466,2024-03-22 18:03:33.710300,2024-03-22 18:03:34.703207,MF010.jpg,0,10954,40-69,2024-03-22_18h01.23.448,Recall,2021.2.3,59.90628260574307,
,SD027.jpg,0,MF027.jpg,0,,,,,0,21,21,76,imgFunc,1,NA,0.7465279000170995,142.28116380001302,143.13581142004114,2024-03-22 18:03:34.717172,2024-03-22 18:03:35.570498,MF027.jpg,0,10954,40-69,2024-03-22_18h01.23.448,Recall,2021.2.3,59.90628260574307,
,DD025.jpg,0,FF025.jpg,0,,,,,0,22,22,24,imgFunc,1,NA,0.7303951999929268,143.12909659999423,143.96382561998325,2024-03-22 18:03:35.578506,2024-03-22 18:03:36.404215,FF025.jpg,0,10954,40-69,2024-03-22_18h01.23.448,Recall,2021.2.3,59.90628260574307,
,L_DD503.jpg,1,L_FF503.jpg,1,,,,,0,23,23,42,imgFunc,1,NA,1.3702720000001136,143.96133580000605,145.43028482000227,2024-03-22 18:03:36.412221,2024-03-22 18:03:37.872095,L_FF503.jpg,1,10954,40-69,2024-03-22_18h01.23.448,Recall,2021.2.3,59.90628260574307,
,SD014.jpg,0,MF014.jpg,0,,,,,0,24,24,63,imgFunc,1,NA,0.9633474000147544,145.4322855999926,146.50124452001182,2024-03-22 18:03:37.879078,2024-03-22 18:03:38.939482,MF014.jpg,0,10954,40-69,2024-03-22_18h01.23.448,Recall,2021.2.3,59.90628260574307,
,DD035.jpg,0,FF035.jpg,0,,,,,0,25,25,34,imgFunc,9,NA,3.552484000014374,146.5069546000159,150.16128212001058,2024-03-22 18:03:38.946465,2024-03-22 18:03:42.592386,FF035.jpg,0,10954,40-69,2024-03-22_18h01.23.448,Recall,2021.2.3,59.90628260574307,
,L_DD506.jpg,1,L_FF506.jpg,1,,,,,0,26,26,45,imgFunc,2,NA,4.243783299985807,150.151595000003,154.48930372000905,2024-03-22 18:03:42.599370,2024-03-22 18:03:46.928388,L_FF506.jpg,1,10954,40-69,2024-03-22_18h01.23.448,Recall,2021.2.3,59.90628260574307,
,SD008.jpg,0,MF008.jpg,0,,,,,0,27,27,57,imgFunc,2,NA,1.6254652999923564,154.49015630001668,156.2092468200135,2024-03-22 18:03:46.936369,2024-03-22 18:03:48.646600,MF008.jpg,0,10954,40-69,2024-03-22_18h01.23.448,Recall,2021.2.3,59.90628260574307,
,SD025.jpg,0,MF025.jpg,0,,,,,0,28,28,74,imgFunc,0,NA,2.8240840999933425,156.2113450000179,159.14803561998997,2024-03-22 18:03:48.653583,2024-03-22 18:03:51.581835,MF025.jpg,0,10954,40-69,2024-03-22_18h01.23.448,Recall,2021.2.3,59.90628260574307,
,L_SD507.jpg,1,L_MF507.jpg,1,,,,,0,29,29,96,imgFunc,0,NA,1.7660252999921795,159.157638100005,161.04361012001755,2024-03-22 18:03:51.588818,2024-03-22 18:03:53.466516,L_MF507.jpg,1,10954,40-69,2024-03-22_18h01.23.448,Recall,2021.2.3,59.90628260574307,
,SD037.jpg,0,MF037.jpg,0,,,,,0,30,30,86,imgFunc,1,NA,1.488632199994754,161.04304260000936,162.63052171998424,2024-03-22 18:03:53.481478,2024-03-22 18:03:55.067681,MF037.jpg,0,10954,40-69,2024-03-22_18h01.23.448,Recall,2021.2.3,59.90628260574307,
,DD038.jpg,0,FF038.jpg,0,,,,,0,31,31,37,imgFunc,1,NA,1.7851585000171326,162.6262784000137,164.51276271999814,2024-03-22 18:03:55.074664,2024-03-22 18:03:56.952348,FF038.jpg,0,10954,40-69,2024-03-22_18h01.23.448,Recall,2021.2.3,59.90628260574307,
,SD034.jpg,0,MF034.jpg,0,,,,,0,32,32,83,imgFunc,2,NA,3.60407979998854,164.51136279999628,168.2154084200447,2024-03-22 18:03:56.959331,2024-03-22 18:04:00.654986,MF034.jpg,0,10954,40-69,2024-03-22_18h01.23.448,Recall,2021.2.3,59.90628260574307,
,SD024.jpg,0,MF024.jpg,0,,,,,0,33,33,73,imgFunc,9,NA,4.3537827000254765,168.21777270000894,172.67086621999624,2024-03-22 18:04:00.662968,2024-03-22 18:04:05.108143,MF024.jpg,0,10954,40-69,2024-03-22_18h01.23.448,Recall,2021.2.3,59.90628260574307,
,SD033.jpg,0,MF033.jpg,0,,,,,0,34,34,82,imgFunc,2,NA,8.801653900009114,172.6899830000184,181.61228972004028,2024-03-22 18:04:05.116146,2024-03-22 18:04:14.031321,MF033.jpg,0,10954,40-69,2024-03-22_18h01.23.448,Recall,2021.2.3,59.90628260574307,
,DD034.jpg,0,FF034.jpg,0,,,,,0,35,35,33,imgFunc,0,NA,4.676599300000817,181.61498139999458,186.40194351997343,2024-03-22 18:04:14.047229,2024-03-22 18:04:18.834817,FF034.jpg,0,10954,40-69,2024-03-22_18h01.23.448,Recall,2021.2.3,59.90628260574307,
,DD036.jpg,0,FF036.jpg,0,,,,,0,36,36,35,imgFunc,9,NA,4.268589499988593,186.3989494999987,190.76684231995023,2024-03-22 18:04:18.843795,2024-03-22 18:04:23.204457,FF036.jpg,0,10954,40-69,2024-03-22_18h01.23.448,Recall,2021.2.3,59.90628260574307,
,L_DD508.jpg,1,L_FF508.jpg,1,,,,,0,37,37,47,imgFunc,9,NA,6.464155800000299,190.76320159999887,197.3185848200228,2024-03-22 18:04:23.212437,2024-03-22 18:04:29.759307,L_FF508.jpg,1,10954,40-69,2024-03-22_18h01.23.448,Recall,2021.2.3,59.90628260574307,
,SD029.jpg,0,MF029.jpg,0,,,,,0,38,38,78,imgFunc,1,NA,2.139430100010941,197.33615109999664,199.5842165199865,2024-03-22 18:04:29.769282,2024-03-22 18:04:32.010840,MF029.jpg,0,10954,40-69,2024-03-22_18h01.23.448,Recall,2021.2.3,59.90628260574307,
,DD006.jpg,0,FF006.jpg,0,,,,,0,39,39,5,imgFunc,2,NA,1.6037578999821562,199.58372910000617,201.30305101998965,2024-03-22 18:04:32.017823,2024-03-22 18:04:33.728742,FF006.jpg,0,10954,40-69,2024-03-22_18h01.23.448,Recall,2021.2.3,59.90628260574307,
,SD028.jpg,0,MF028.jpg,0,,,,,0,40,40,77,imgFunc,2,NA,2.6124010999919847,201.29514329999802,204.01532321996638,2024-03-22 18:04:33.735725,2024-03-22 18:04:36.447305,MF028.jpg,0,10954,40-69,2024-03-22_18h01.23.448,Recall,2021.2.3,59.90628260574307,
,DD037.jpg,0,FF037.jpg,0,,,,,0,41,41,36,imgFunc,0,NA,3.986620599986054,204.0089433999965,208.09654552000575,2024-03-22 18:04:36.454288,2024-03-22 18:04:40.533537,FF037.jpg,0,10954,40-69,2024-03-22_18h01.23.448,Recall,2021.2.3,59.90628260574307,
,SD020.jpg,0,MF020.jpg,0,,,,,0,42,42,69,imgFunc,0,NA,2.649593099980848,208.089859300002,210.8433780199848,2024-03-22 18:04:40.540521,2024-03-22 18:04:43.285747,MF020.jpg,0,10954,40-69,2024-03-22_18h01.23.448,Recall,2021.2.3,59.90628260574307,
,DD012.jpg,0,FF012.jpg,0,,,,,0,43,43,11,imgFunc,9,NA,3.920775699982187,210.8508548999962,214.8717533199815,2024-03-22 18:04:43.292730,2024-03-22 18:04:47.304642,FF012.jpg,0,10954,40-69,2024-03-22_18h01.23.448,Recall,2021.2.3,59.90628260574307,
,DD013.jpg,0,FF013.jpg,0,,,,,0,44,44,12,imgFunc,1,NA,3.416828599991277,214.8746810000157,218.38177571998676,2024-03-22 18:04:47.319586,2024-03-22 18:04:50.824555,FF013.jpg,0,10954,40-69,2024-03-22_18h01.23.448,Recall,2021.2.3,59.90628260574307,
,SD040.jpg,0,MF040.jpg,0,,,,,0,45,45,89,imgFunc,1,NA,3.5867815999954473,218.38459999999031,222.07222671998898,2024-03-22 18:04:50.831538,2024-03-22 18:04:54.510297,MF040.jpg,0,10954,40-69,2024-03-22_18h01.23.448,Recall,2021.2.3,59.90628260574307,
,L_SD509.jpg,1,L_MF509.jpg,1,,,,,0,46,46,98,imgFunc,9,NA,4.536903700005496,222.06652180000674,226.70478511997499,2024-03-22 18:04:54.517280,2024-03-22 18:04:59.146828,L_MF509.jpg,1,10954,40-69,2024-03-22_18h01.23.448,Recall,2021.2.3,59.90628260574307,
,L_SD506.jpg,1,L_MF506.jpg,1,,,,,0,47,47,95,imgFunc,1,NA,3.0725342000077944,226.73897840001155,229.93871962002595,2024-03-22 18:04:59.155808,2024-03-22 18:05:02.349189,L_MF506.jpg,1,10954,40-69,2024-03-22_18h01.23.448,Recall,2021.2.3,59.90628260574307,
,SD030.jpg,0,MF030.jpg,0,,,,,0,48,48,79,imgFunc,1,NA,1.7913158999872394,229.91616839999915,231.8191266200156,2024-03-22 18:05:02.356172,2024-03-22 18:05:04.250571,MF030.jpg,0,10954,40-69,2024-03-22_18h01.23.448,Recall,2021.2.3,59.90628260574307,
,L_SD503.jpg,1,L_MF503.jpg,1,,,,,0,49,49,92,imgFunc,1,NA,1.3188593999948353,231.8203865000105,233.2418466200179,2024-03-22 18:05:04.264536,2024-03-22 18:05:05.685017,L_MF503.jpg,1,10954,40-69,2024-03-22_18h01.23.448,Recall,2021.2.3,59.90628260574307,
,SD017.jpg,0,MF017.jpg,0,,,,,0,50,50,66,imgFunc,9,NA,2.1923425999993924,233.24316620000172,235.52965942001902,2024-03-22 18:05:05.692027,2024-03-22 18:05:07.970126,MF017.jpg,0,10954,40-69,2024-03-22_18h01.23.448,Recall,2021.2.3,59.90628260574307,
,DD029.jpg,0,FF029.jpg,0,,,,,0,51,51,28,imgFunc,1,NA,0.747266699996544,235.5281576999987,236.38030082001933,2024-03-22 18:05:07.977109,2024-03-22 18:05:08.820511,FF029.jpg,0,10954,40-69,2024-03-22_18h01.23.448,Recall,2021.2.3,59.90628260574307,
,DD004.jpg,0,FF004.jpg,0,,,,,0,52,52,3,imgFunc,9,NA,1.092399999994086,236.38308250001865,237.58570032005082,2024-03-22 18:05:08.827495,2024-03-22 18:05:10.021474,FF004.jpg,0,10954,40-69,2024-03-22_18h01.23.448,Recall,2021.2.3,59.90628260574307,
,SD006.jpg,0,MF006.jpg,0,,,,,0,53,53,55,imgFunc,1,NA,0.8309011000092141,237.60460210000747,238.55679582001176,2024-03-22 18:05:10.028457,2024-03-22 18:05:10.972063,MF006.jpg,0,10954,40-69,2024-03-22_18h01.23.448,Recall,2021.2.3,59.90628260574307,
,L_SD508.jpg,1,L_MF508.jpg,1,,,,,0,54,54,97,imgFunc,1,NA,0.9924543999950401,238.5308900999953,239.61684002002585,2024-03-22 18:05:10.979047,2024-03-22 18:05:12.056228,L_MF508.jpg,1,10954,40-69,2024-03-22_18h01.23.448,Recall,2021.2.3,59.90628260574307,
,L_SD510.jpg,1,L_MF510.jpg,1,,,,,0,55,55,99,imgFunc,9,NA,1.2437191999924835,239.61570250001387,240.95165332005126,2024-03-22 18:05:12.063211,2024-03-22 18:05:13.390582,L_MF510.jpg,1,10954,40-69,2024-03-22_18h01.23.448,Recall,2021.2.3,59.90628260574307,
,SD004.jpg,0,MF004.jpg,0,,,,,0,56,56,53,imgFunc,1,NA,1.6163379999925382,240.94706700000097,242.665760319971,2024-03-22 18:05:13.398563,2024-03-22 18:05:15.108507,MF004.jpg,0,10954,40-69,2024-03-22_18h01.23.448,Recall,2021.2.3,59.90628260574307,
,L_DD501.jpg,1,L_FF501.jpg,1,,,,,0,57,57,40,imgFunc,0,NA,1.6020965999923646,242.68145580001874,244.4009144200245,2024-03-22 18:05:15.115490,2024-03-22 18:05:16.826277,L_FF501.jpg,1,10954,40-69,2024-03-22_18h01.23.448,Recall,2021.2.3,59.90628260574307,
,DD022.jpg,0,FF022.jpg,0,,,,,0,58,58,21,imgFunc,0,NA,0.7515508999931626,244.40394910000032,245.2612888200092,2024-03-22 18:05:16.839244,2024-03-22 18:05:17.693647,FF022.jpg,0,10954,40-69,2024-03-22_18h01.23.448,Recall,2021.2.3,59.90628260574307,
,SD013.jpg,0,MF013.jpg,0,,,,,0,59,59,62,imgFunc,0,NA,0.7825268000015058,245.25287620001473,246.1384743200033,2024-03-22 18:05:17.700630,2024-03-22 18:05:18.577563,MF013.jpg,0,10954,40-69,2024-03-22_18h01.23.448,Recall,2021.2.3,59.90628260574307,
,L_DD510.jpg,1,L_FF510.jpg,1,,,,,0,60,60,49,imgFunc,0,NA,0.6696144000161439,246.14185710001038,246.91093702000217,2024-03-22 18:05:18.584546,2024-03-22 18:05:19.344916,L_FF510.jpg,1,10954,40-69,2024-03-22_18h01.23.448,Recall,2021.2.3,59.90628260574307,
,SD018.jpg,0,MF018.jpg,0,,,,,0,61,61,67,imgFunc,1,NA,0.47501789999660105,246.90426260000095,247.47204952003085,2024-03-22 18:05:19.352938,2024-03-22 18:05:19.911979,MF018.jpg,0,10954,40-69,2024-03-22_18h01.23.448,Recall,2021.2.3,59.90628260574307,
,DD018.jpg,0,FF018.jpg,0,,,,,0,62,62,17,imgFunc,0,NA,2.174737399996957,247.4691926999949,249.73893081999267,2024-03-22 18:05:19.918962,2024-03-22 18:05:22.180263,FF018.jpg,0,10954,40-69,2024-03-22_18h01.23.448,Recall,2021.2.3,59.90628260574307,
,DD027.jpg,0,FF027.jpg,0,,,,,0,63,63,26,imgFunc,0,NA,0.7463297999929637,249.76113389999955,250.62844344001496,2024-03-22 18:05:22.196217,2024-03-22 18:05:23.047233,FF027.jpg,0,10954,40-69,2024-03-22_18h01.23.448,Recall,2021.2.3,59.90628260574307,
,DD019.jpg,0,FF019.jpg,0,,,,,0,64,64,18,imgFunc,0,NA,0.8532152000116184,250.60598160000518,251.55730342000606,2024-03-22 18:05:23.055247,2024-03-22 18:05:23.997634,FF019.jpg,0,10954,40-69,2024-03-22_18h01.23.448,Recall,2021.2.3,59.90628260574307,
,DD040.jpg,0,FF040.jpg,0,,,,,0,65,65,39,imgFunc,0,NA,0.9286444999743253,251.5708175000036,252.59831721999217,2024-03-22 18:05:24.009602,2024-03-22 18:05:25.032376,FF040.jpg,0,10954,40-69,2024-03-22_18h01.23.448,Recall,2021.2.3,59.90628260574307,
,SD002.jpg,0,MF002.jpg,0,,,,,0,66,66,51,imgFunc,1,NA,1.0410683000227436,252.5943673000147,253.7302582199918,2024-03-22 18:05:25.039360,2024-03-22 18:05:26.166435,MF002.jpg,0,10954,40-69,2024-03-22_18h01.23.448,Recall,2021.2.3,59.90628260574307,
,DD005.jpg,0,FF005.jpg,0,,,,,0,67,67,4,imgFunc,1,NA,1.6168366999772843,253.7306796000048,255.44979051998234,2024-03-22 18:05:26.173440,2024-03-22 18:05:27.884145,FF005.jpg,0,10954,40-69,2024-03-22_18h01.23.448,Recall,2021.2.3,59.90628260574307,
,DD023.jpg,0,FF023.jpg,0,,,,,0,68,68,22,imgFunc,2,NA,2.0101104999776,255.4413918000064,257.54433241998777,2024-03-22 18:05:27.891151,2024-03-22 18:05:29.985782,FF023.jpg,0,10954,40-69,2024-03-22_18h01.23.448,Recall,2021.2.3,59.90628260574307,
,SD019.jpg,0,MF019.jpg,0,,,,,0,69,69,68,imgFunc,1,NA,0.7253366999793798,257.5420982000069,258.36106632000883,2024-03-22 18:05:29.992765,2024-03-22 18:05:30.803036,MF019.jpg,0,10954,40-69,2024-03-22_18h01.23.448,Recall,2021.2.3,59.90628260574307,
,DD033.jpg,0,FF033.jpg,0,,,,,0,70,70,32,imgFunc,0,NA,0.9862971999973524,258.36117670001113,259.44619391998276,2024-03-22 18:05:30.811016,2024-03-22 18:05:31.887015,FF033.jpg,0,10954,40-69,2024-03-22_18h01.23.448,Recall,2021.2.3,59.90628260574307,
,DD008.jpg,0,FF008.jpg,0,,,,,0,71,71,7,imgFunc,1,NA,1.095444700011285,259.45184130000416,260.65431421998073,2024-03-22 18:05:31.893998,2024-03-22 18:05:33.087956,FF008.jpg,0,10954,40-69,2024-03-22_18h01.23.448,Recall,2021.2.3,59.90628260574307,
,DD020.jpg,0,FF020.jpg,0,,,,,0,72,72,19,imgFunc,1,NA,0.8295125000004191,260.6617925000028,261.6028216200066,2024-03-22 18:05:33.100923,2024-03-22 18:05:34.038547,FF020.jpg,0,10954,40-69,2024-03-22_18h01.23.448,Recall,2021.2.3,59.90628260574307,
,L_SD504.jpg,1,L_MF504.jpg,1,,,,,0,73,73,93,imgFunc,1,NA,1.1270674999977928,261.5963713999954,262.81590881999,2024-03-22 18:05:34.045531,2024-03-22 18:05:35.256343,L_MF504.jpg,1,10954,40-69,2024-03-22_18h01.23.448,Recall,2021.2.3,59.90628260574307,
,SD039.jpg,0,MF039.jpg,0,,,,,0,74,74,88,imgFunc,0,NA,2.2389744000101928,262.81250870000804,265.1488001200196,2024-03-22 18:05:35.263326,2024-03-22 18:05:37.591070,MF039.jpg,0,10954,40-69,2024-03-22_18h01.23.448,Recall,2021.2.3,59.90628260574307,
,SD021.jpg,0,MF021.jpg,0,,,,,0,75,75,70,imgFunc,1,NA,0.7102287000161596,265.1574220000184,265.9761634200404,2024-03-22 18:05:37.598053,2024-03-22 18:05:38.408189,MF021.jpg,0,10954,40-69,2024-03-22_18h01.23.448,Recall,2021.2.3,59.90628260574307,
,SD036.jpg,0,MF036.jpg,0,,,,,0,76,76,85,imgFunc,1,NA,1.0548953000106849,265.97244060001685,267.12524681998184,2024-03-22 18:05:38.415172,2024-03-22 18:05:39.559300,MF036.jpg,0,10954,40-69,2024-03-22_18h01.23.448,Recall,2021.2.3,59.90628260574307,
,SD023.jpg,0,MF023.jpg,0,,,,,0,77,77,72,imgFunc,1,NA,0.7536891000054311,267.1298015000066,267.98482002000674,2024-03-22 18:05:39.573265,2024-03-22 18:05:40.426557,MF023.jpg,0,10954,40-69,2024-03-22_18h01.23.448,Recall,2021.2.3,59.90628260574307,
,DD015.jpg,0,FF015.jpg,0,,,,,0,78,78,14,imgFunc,1,NA,1.069986799993785,267.9814735999971,269.15071991996956,2024-03-22 18:05:40.433540,2024-03-22 18:05:41.594061,FF015.jpg,0,10954,40-69,2024-03-22_18h01.23.448,Recall,2021.2.3,59.90628260574307,
,SD022.jpg,0,MF022.jpg,0,,,,,0,79,79,71,imgFunc,1,NA,1.5210838000057265,269.15441139999893,270.7736984200019,2024-03-22 18:05:41.601044,2024-03-22 18:05:43.211705,MF022.jpg,0,10954,40-69,2024-03-22_18h01.23.448,Recall,2021.2.3,59.90628260574307,
,L_SD502.jpg,1,L_MF502.jpg,1,,,,,0,80,80,91,imgFunc,1,NA,0.5665112999849953,270.77288530001533,271.4417137200362,2024-03-22 18:05:43.218688,2024-03-22 18:05:43.878758,L_MF502.jpg,1,10954,40-69,2024-03-22_18h01.23.448,Recall,2021.2.3,59.90628260574307,
,DD030.jpg,0,FF030.jpg,0,,,,,0,81,81,29,imgFunc,1,NA,0.5539742999826558,271.441246900009,272.09299402000033,2024-03-22 18:05:43.886760,2024-03-22 18:05:44.529353,FF030.jpg,0,10954,40-69,2024-03-22_18h01.23.448,Recall,2021.2.3,59.90628260574307,
,SD015.jpg,0,MF015.jpg,0,,,,,0,82,82,64,imgFunc,1,NA,0.9659168999933172,272.1014037000132,273.1721652200504,2024-03-22 18:05:44.544314,2024-03-22 18:05:45.613641,MF015.jpg,0,10954,40-69,2024-03-22_18h01.23.448,Recall,2021.2.3,59.90628260574307,
,SD012.jpg,0,MF012.jpg,0,,,,,0,83,83,61,imgFunc,9,NA,1.895321399992099,273.17205490000197,275.1580873200146,2024-03-22 18:05:45.620624,2024-03-22 18:05:47.598294,MF012.jpg,0,10954,40-69,2024-03-22_18h01.23.448,Recall,2021.2.3,59.90628260574307,
,SD001.jpg,0,MF001.jpg,0,,,,,0,84,84,50,imgFunc,1,NA,0.6736730000120588,275.1614514999965,275.9460357199714,2024-03-22 18:05:47.606274,2024-03-22 18:05:48.381507,MF001.jpg,0,10954,40-69,2024-03-22_18h01.23.448,Recall,2021.2.3,59.90628260574307,
,L_DD505.jpg,1,L_FF505.jpg,1,,,,,0,85,85,44,imgFunc,1,NA,0.8529584000061732,275.9502572999918,276.91815781997866,2024-03-22 18:05:48.389484,2024-03-22 18:05:49.349326,L_FF505.jpg,1,10954,40-69,2024-03-22_18h01.23.448,Recall,2021.2.3,59.90628260574307,
,SD007.jpg,0,MF007.jpg,0,,,,,0,86,86,56,imgFunc,0,NA,1.5131065999739803,276.91437720000977,278.53387842004304,2024-03-22 18:05:49.356309,2024-03-22 18:05:50.967399,MF007.jpg,0,10954,40-69,2024-03-22_18h01.23.448,Recall,2021.2.3,59.90628260574307,
,DD003.jpg,0,FF003.jpg,0,,,,,0,87,87,2,imgFunc,0,NA,0.6659857000049669,278.529517100018,279.29838262003614,2024-03-22 18:05:50.974382,2024-03-22 18:05:51.734590,FF003.jpg,0,10954,40-69,2024-03-22_18h01.23.448,Recall,2021.2.3,59.90628260574307,
,SD016.jpg,0,MF016.jpg,0,,,,,0,88,88,65,imgFunc,1,NA,0.5585092999972403,279.3005938999995,279.9693542199675,2024-03-22 18:05:51.741573,2024-03-22 18:05:52.401680,MF016.jpg,0,10954,40-69,2024-03-22_18h01.23.448,Recall,2021.2.3,59.90628260574307,
,DD010.jpg,0,FF010.jpg,0,,,,,0,89,89,9,imgFunc,1,NA,0.4912289999774657,279.960273100005,280.54562711998005,2024-03-22 18:05:52.408663,2024-03-22 18:05:52.985591,FF010.jpg,0,10954,40-69,2024-03-22_18h01.23.448,Recall,2021.2.3,59.90628260574307,
,L_DD509.jpg,1,L_FF509.jpg,1,,,,,0,90,90,48,imgFunc,1,NA,0.46977729999343865,280.5495343999937,281.1182352199976,2024-03-22 18:05:52.992575,2024-03-22 18:05:53.552776,L_FF509.jpg,1,10954,40-69,2024-03-22_18h01.23.448,Recall,2021.2.3,59.90628260574307,
,L_SD505.jpg,1,L_MF505.jpg,1,,,,,0,91,91,94,imgFunc,1,NA,0.4859298000228591,281.1173916000116,281.68868161999853,2024-03-22 18:05:53.566740,2024-03-22 18:05:54.136495,L_MF505.jpg,1,10954,40-69,2024-03-22_18h01.23.448,Recall,2021.2.3,59.90628260574307,
,DD021.jpg,0,FF021.jpg,0,,,,,0,92,92,20,imgFunc,1,NA,0.5094454000063706,281.6939452000079,282.2959219199838,2024-03-22 18:05:54.143478,2024-03-22 18:05:54.736798,FF021.jpg,0,10954,40-69,2024-03-22_18h01.23.448,Recall,2021.2.3,59.90628260574307,
,DD014.jpg,0,FF014.jpg,0,,,,,0,93,93,13,imgFunc,1,NA,0.4224610999808647,282.30076660000486,282.8362840199552,2024-03-22 18:05:54.743782,2024-03-22 18:05:55.270609,FF014.jpg,0,10954,40-69,2024-03-22_18h01.23.448,Recall,2021.2.3,59.90628260574307,
,SD005.jpg,0,MF005.jpg,0,,,,,0,94,94,54,imgFunc,1,NA,2.169801500014728,282.8415998000128,285.1277724199754,2024-03-22 18:05:55.277592,2024-03-22 18:05:57.555443,MF005.jpg,0,10954,40-69,2024-03-22_18h01.23.448,Recall,2021.2.3,59.90628260574307,
,DD026.jpg,0,FF026.jpg,0,,,,,0,95,95,25,imgFunc,1,NA,0.42612720001488924,285.12125640001614,285.65640651999274,2024-03-22 18:05:57.562426,2024-03-22 18:05:58.088987,FF026.jpg,0,10954,40-69,2024-03-22_18h01.23.448,Recall,2021.2.3,59.90628260574307,
,DD024.jpg,0,FF024.jpg,0,,,,,0,96,96,23,imgFunc,1,NA,0.5306426000024658,285.6648373999924,286.30193851998774,2024-03-22 18:05:58.103971,2024-03-22 18:05:58.739708,FF024.jpg,0,10954,40-69,2024-03-22_18h01.23.448,Recall,2021.2.3,59.90628260574307,
,DD028.jpg,0,FF028.jpg,0,,,,,0,97,97,27,imgFunc,1,NA,0.38060699999914505,286.2947286000126,286.7633519200317,2024-03-22 18:05:58.746691,2024-03-22 18:05:59.206803,FF028.jpg,0,10954,40-69,2024-03-22_18h01.23.448,Recall,2021.2.3,59.90628260574307,
,DD032.jpg,0,FF032.jpg,0,,,,,0,98,98,31,imgFunc,1,NA,0.38558410000405274,286.7696368000179,287.2549379200209,2024-03-22 18:05:59.213786,2024-03-22 18:05:59.690366,FF032.jpg,0,10954,40-69,2024-03-22_18h01.23.448,Recall,2021.2.3,59.90628260574307,
,DD009.jpg,0,FF009.jpg,0,,,,,0,99,99,8,imgFunc,1,NA,0.48039010001230054,287.25071339998976,287.83280711996485,2024-03-22 18:05:59.699342,2024-03-22 18:06:00.273763,FF009.jpg,0,10954,40-69,2024-03-22_18h01.23.448,Recall,2021.2.3,59.90628260574307,
,,,,,,,,,,,,,instrFunc,space,"Great work! 

 Now you will switch to the other image type.

 Press the spacebar whenever you are ready to start.",3.875557099992875,287.76768049999373,291.68268102,2024-03-22 18:06:00.275579,2024-03-22 18:06:04.175706,,,10954,40-69,2024-03-22_18h01.23.448,Recall,2021.2.3,59.90628260574307,
,SD023.jpg,0,MF023.jpg,0,,,,,0,0,0,72,imgFunc,1,NA,22.186628199997358,291.744786700001,314.0205288400175,2024-03-22 18:06:04.204652,2024-03-22 18:06:26.476168,SD023.jpg,0,10954,40-69,2024-03-22_18h01.23.448,Recall,2021.2.3,59.90628260574307,
,DD008.jpg,0,FF008.jpg,0,,,,,0,1,1,7,imgFunc,1,NA,4.130689199984772,314.04064859999926,318.2698610200314,2024-03-22 18:06:26.488138,2024-03-22 18:06:30.712538,DD008.jpg,0,10954,40-69,2024-03-22_18h01.23.448,Recall,2021.2.3,59.90628260574307,
,L_DD510.jpg,1,L_FF510.jpg,1,,,,,0,2,2,49,imgFunc,1,NA,2.340352500003064,318.2630644000019,320.69902572000865,2024-03-22 18:06:30.720519,2024-03-22 18:06:33.147721,L_DD510.jpg,1,10954,40-69,2024-03-22_18h01.23.448,Recall,2021.2.3,59.90628260574307,
,SD032.jpg,0,MF032.jpg,0,,,,,0,3,3,81,imgFunc,2,NA,6.08407559999614,320.70322399999714,326.8668683199794,2024-03-22 18:06:33.159714,2024-03-22 18:06:39.318828,SD032.jpg,0,10954,40-69,2024-03-22_18h01.23.448,Recall,2021.2.3,59.90628260574307,
,DD039.jpg,0,FF039.jpg,0,,,,,0,4,4,38,imgFunc,1,NA,1.987446799990721,326.871960199991,328.9548182199942,2024-03-22 18:06:39.327806,2024-03-22 18:06:41.403406,DD039.jpg,0,10954,40-69,2024-03-22_18h01.23.448,Recall,2021.2.3,59.90628260574307,
,DD013.jpg,0,FF013.jpg,0,,,,,0,5,5,12,imgFunc,1,NA,4.950946999975713,328.9562608000124,333.9949484199751,2024-03-22 18:06:41.410390,2024-03-22 18:06:46.440619,DD013.jpg,0,10954,40-69,2024-03-22_18h01.23.448,Recall,2021.2.3,59.90628260574307,
,DD020.jpg,0,FF020.jpg,0,,,,,0,6,6,19,imgFunc,2,NA,1.5086931000114419,334.0145334000117,335.63070311999763,2024-03-22 18:06:46.449597,2024-03-22 18:06:48.058372,DD020.jpg,0,10954,40-69,2024-03-22_18h01.23.448,Recall,2021.2.3,59.90628260574307,
,L_SD508.jpg,1,L_MF508.jpg,1,,,,,0,7,7,97,imgFunc,9,NA,2.4468802000046708,335.6204388999904,338.1733138199779,2024-03-22 18:06:48.065356,2024-03-22 18:06:50.610121,L_SD508.jpg,1,10954,40-69,2024-03-22_18h01.23.448,Recall,2021.2.3,59.90628260574307,
,SD014.jpg,0,MF014.jpg,0,,,,,0,8,8,63,imgFunc,2,NA,2.205925300018862,338.16514880000614,340.46839962000377,2024-03-22 18:06:50.617104,2024-03-22 18:06:52.911549,SD014.jpg,0,10954,40-69,2024-03-22_18h01.23.448,Recall,2021.2.3,59.90628260574307,
,DD009.jpg,0,FF009.jpg,0,,,,,0,9,9,8,imgFunc,9,NA,2.470937399979448,340.4602761999995,343.0134872200142,2024-03-22 18:06:52.919529,2024-03-22 18:06:55.463796,DD009.jpg,0,10954,40-69,2024-03-22_18h01.23.448,Recall,2021.2.3,59.90628260574307,
,SD017.jpg,0,MF017.jpg,0,,,,,0,10,10,66,imgFunc,1,NA,1.3737482999858912,343.0214927000052,344.49057902002824,2024-03-22 18:06:55.470779,2024-03-22 18:06:56.931394,SD017.jpg,0,10954,40-69,2024-03-22_18h01.23.448,Recall,2021.2.3,59.90628260574307,
,SD001.jpg,0,MF001.jpg,0,,,,,0,11,11,50,imgFunc,1,NA,1.114705399988452,344.4966778999951,345.7155869199778,2024-03-22 18:06:56.938377,2024-03-22 18:06:58.148802,SD001.jpg,0,10954,40-69,2024-03-22_18h01.23.448,Recall,2021.2.3,59.90628260574307,
,DD007.jpg,0,FF007.jpg,0,,,,,0,12,12,6,imgFunc,1,NA,1.4604918000113685,345.7188293999934,347.2761674199719,2024-03-22 18:06:58.161769,2024-03-22 18:06:59.716611,DD007.jpg,0,10954,40-69,2024-03-22_18h01.23.448,Recall,2021.2.3,59.90628260574307,
,DD011.jpg,0,FF011.jpg,0,,,,,0,13,13,10,imgFunc,9,NA,1.8406377999926917,347.27443039999343,349.20777501998236,2024-03-22 18:06:59.725589,2024-03-22 18:07:01.651215,DD011.jpg,0,10954,40-69,2024-03-22_18h01.23.448,Recall,2021.2.3,59.90628260574307,
,L_DD505.jpg,1,L_FF505.jpg,1,,,,,0,14,14,44,imgFunc,9,NA,0.9963782000122592,349.1989598000073,350.2850679200201,2024-03-22 18:07:01.658197,2024-03-22 18:07:02.735555,L_DD505.jpg,1,10954,40-69,2024-03-22_18h01.23.448,Recall,2021.2.3,59.90628260574307,
,L_DD507.jpg,1,L_FF507.jpg,1,,,,,0,15,15,46,imgFunc,1,NA,2.1174034000141546,350.28581299999496,352.48921801999677,2024-03-22 18:07:02.742538,2024-03-22 18:07:04.937255,L_DD507.jpg,1,10954,40-69,2024-03-22_18h01.23.448,Recall,2021.2.3,59.90628260574307,
,DD029.jpg,0,FF029.jpg,0,,,,,0,16,16,28,imgFunc,9,NA,1.2331714000029024,352.4900069000141,353.80900152004324,2024-03-22 18:07:04.944238,2024-03-22 18:07:06.254815,DD029.jpg,0,10954,40-69,2024-03-22_18h01.23.448,Recall,2021.2.3,59.90628260574307,
,SD033.jpg,0,MF033.jpg,0,,,,,0,17,17,82,imgFunc,1,NA,1.50549479998881,353.8177777999954,355.40647822001483,2024-03-22 18:07:06.268779,2024-03-22 18:07:07.855882,SD033.jpg,0,10954,40-69,2024-03-22_18h01.23.448,Recall,2021.2.3,59.90628260574307,
,DD017.jpg,0,FF017.jpg,0,,,,,0,18,18,16,imgFunc,1,NA,1.1526313000067603,355.4029235999915,356.6387108199997,2024-03-22 18:07:07.862865,2024-03-22 18:07:09.090090,DD017.jpg,0,10954,40-69,2024-03-22_18h01.23.448,Recall,2021.2.3,59.90628260574307,
,DD006.jpg,0,FF006.jpg,0,,,,,0,19,19,5,imgFunc,2,NA,1.4185122000053525,356.6406829000043,358.14290921998327,2024-03-22 18:07:09.098030,2024-03-22 18:07:10.591230,DD006.jpg,0,10954,40-69,2024-03-22_18h01.23.448,Recall,2021.2.3,59.90628260574307,
,SD019.jpg,0,MF019.jpg,0,,,,,0,20,20,68,imgFunc,1,NA,4.5177071999933105,358.149365499994,362.7707373199519,2024-03-22 18:07:10.598213,2024-03-22 18:07:15.211109,SD019.jpg,0,10954,40-69,2024-03-22_18h01.23.448,Recall,2021.2.3,59.90628260574307,
,DD002.jpg,0,FF002.jpg,0,,,,,0,21,21,1,imgFunc,1,NA,2.9413372999988496,362.7820225000032,365.83192871999927,2024-03-22 18:07:15.220087,2024-03-22 18:07:18.263231,DD002.jpg,0,10954,40-69,2024-03-22_18h01.23.448,Recall,2021.2.3,59.90628260574307,
,DD010.jpg,0,FF010.jpg,0,,,,,0,22,22,9,imgFunc,9,NA,3.784446300007403,365.8269202999945,369.700055519992,2024-03-22 18:07:18.278192,2024-03-22 18:07:22.149361,DD010.jpg,0,10954,40-69,2024-03-22_18h01.23.448,Recall,2021.2.3,59.90628260574307,
,L_SD507.jpg,1,L_MF507.jpg,1,,,,,0,23,23,96,imgFunc,1,NA,2.1279071000171825,369.7073963000148,371.9258685200184,2024-03-22 18:07:22.157364,2024-03-22 18:07:24.368179,L_SD507.jpg,1,10954,40-69,2024-03-22_18h01.23.448,Recall,2021.2.3,59.90628260574307,
,L_DD509.jpg,1,L_FF509.jpg,1,,,,,0,24,24,48,imgFunc,2,NA,1.5356726000027265,371.92372320001596,373.5584404199908,2024-03-22 18:07:24.376159,2024-03-22 18:07:26.002287,L_DD509.jpg,1,10954,40-69,2024-03-22_18h01.23.448,Recall,2021.2.3,59.90628260574307,
,DD038.jpg,0,FF038.jpg,0,,,,,0,25,25,37,imgFunc,2,NA,0.8295792000135407,373.5497163000109,374.4683923200064,2024-03-22 18:07:26.009270,2024-03-22 18:07:26.919550,DD038.jpg,0,10954,40-69,2024-03-22_18h01.23.448,Recall,2021.2.3,59.90628260574307,
,L_SD506.jpg,1,L_MF506.jpg,1,,,,,0,26,26,95,imgFunc,1,NA,1.4992538999940734,374.4800194000127,376.08202911997796,2024-03-22 18:07:26.927530,2024-03-22 18:07:28.520559,L_SD506.jpg,1,10954,40-69,2024-03-22_18h01.23.448,Recall,2021.2.3,59.90628260574307,
,DD012.jpg,0,FF012.jpg,0,,,,,0,27,27,11,imgFunc,9,NA,1.0433191999909468,376.0718324999907,377.2075782199681,2024-03-22 18:07:28.527542,2024-03-22 18:07:29.654704,DD012.jpg,0,10954,40-69,2024-03-22_18h01.23.448,Recall,2021.2.3,59.90628260574307,
,SD009.jpg,0,MF009.jpg,0,,,,,0,28,28,58,imgFunc,1,NA,0.5471407000150066,377.2080188000109,377.8431141200126,2024-03-22 18:07:29.662684,2024-03-22 18:07:30.288771,SD009.jpg,0,10954,40-69,2024-03-22_18h01.23.448,Recall,2021.2.3,59.90628260574307,
,SD021.jpg,0,MF021.jpg,0,,,,,0,29,29,70,imgFunc,1,NA,1.0924746999808121,377.8385519000003,379.02312721998896,2024-03-22 18:07:30.295777,2024-03-22 18:07:31.472356,SD021.jpg,0,10954,40-69,2024-03-22_18h01.23.448,Recall,2021.2.3,59.90628260574307,
,DD003.jpg,0,FF003.jpg,0,,,,,0,30,30,2,imgFunc,1,NA,1.1420335000148043,379.0213511000038,380.25688182003796,2024-03-22 18:07:31.479337,2024-03-22 18:07:32.706804,DD003.jpg,0,10954,40-69,2024-03-22_18h01.23.448,Recall,2021.2.3,59.90628260574307,
,SD006.jpg,0,MF006.jpg,0,,,,,0,31,31,55,imgFunc,2,NA,2.3474909999931697,380.2635159000056,382.705391519994,2024-03-22 18:07:32.719771,2024-03-22 18:07:35.158610,SD006.jpg,0,10954,40-69,2024-03-22_18h01.23.448,Recall,2021.2.3,59.90628260574307,
,DD026.jpg,0,FF026.jpg,0,,,,,0,32,32,25,imgFunc,2,NA,1.4034871000039857,382.7038002999907,384.18999221996637,2024-03-22 18:07:35.165593,2024-03-22 18:07:36.643207,DD026.jpg,0,10954,40-69,2024-03-22_18h01.23.448,Recall,2021.2.3,59.90628260574307,
,SD012.jpg,0,MF012.jpg,0,,,,,0,33,33,61,imgFunc,1,NA,3.8335953999776393,384.20177980000153,388.1392018200131,2024-03-22 18:07:36.650190,2024-03-22 18:07:40.579200,SD012.jpg,0,10954,40-69,2024-03-22_18h01.23.448,Recall,2021.2.3,59.90628260574307,
,L_DD506.jpg,1,L_FF506.jpg,1,,,,,0,34,34,45,imgFunc,2,NA,0.9974443000101019,388.14183569999295,389.24403992001317,2024-03-22 18:07:40.586183,2024-03-22 18:07:41.680025,L_DD506.jpg,1,10954,40-69,2024-03-22_18h01.23.448,Recall,2021.2.3,59.90628260574307,
,DD021.jpg,0,FF021.jpg,0,,,,,0,35,35,20,imgFunc,1,NA,0.657079500000691,389.2420851000061,390.0107400199922,2024-03-22 18:07:41.687008,2024-03-22 18:07:42.447333,DD021.jpg,0,10954,40-69,2024-03-22_18h01.23.448,Recall,2021.2.3,59.90628260574307,
,SD015.jpg,0,MF015.jpg,0,,,,,0,36,36,64,imgFunc,9,NA,1.5001021999923978,390.0071576999908,391.5957692200027,2024-03-22 18:07:42.461297,2024-03-22 18:07:44.048148,SD015.jpg,0,10954,40-69,2024-03-22_18h01.23.448,Recall,2021.2.3,59.90628260574307,
,L_DD503.jpg,1,L_FF503.jpg,1,,,,,0,37,37,42,imgFunc,9,NA,0.8410724999848753,391.6022995999956,392.53695381997386,2024-03-22 18:07:44.056129,2024-03-22 18:07:44.982478,L_DD503.jpg,1,10954,40-69,2024-03-22_18h01.23.448,Recall,2021.2.3,59.90628260574307,
,SD031.jpg,0,MF031.jpg,0,,,,,0,38,38,80,imgFunc,9,NA,1.0859808000095654,392.5330210000102,393.7181490200164,2024-03-22 18:07:44.990458,2024-03-22 18:07:46.166815,SD031.jpg,0,10954,40-69,2024-03-22_18h01.23.448,Recall,2021.2.3,59.90628260574307,
,SD028.jpg,0,MF028.jpg,0,,,,,0,39,39,77,imgFunc,9,NA,2.057777800015174,393.72160439999425,395.8744369200431,2024-03-22 18:07:46.173798,2024-03-22 18:07:48.318041,SD028.jpg,0,10954,40-69,2024-03-22_18h01.23.448,Recall,2021.2.3,59.90628260574307,
,L_SD501.jpg,1,L_MF501.jpg,1,,,,,0,40,40,90,imgFunc,1,NA,0.5702730000193696,395.87299530001474,396.54187251999974,2024-03-22 18:07:48.325024,2024-03-22 18:07:48.985420,L_SD501.jpg,1,10954,40-69,2024-03-22_18h01.23.448,Recall,2021.2.3,59.90628260574307,
,SD010.jpg,0,MF010.jpg,0,,,,,0,41,41,59,imgFunc,1,NA,4.457550299994182,396.5377916000143,401.0924699199968,2024-03-22 18:07:48.992403,2024-03-22 18:07:53.538495,SD010.jpg,0,10954,40-69,2024-03-22_18h01.23.448,Recall,2021.2.3,59.90628260574307,
,L_DD504.jpg,1,L_FF504.jpg,1,,,,,0,42,42,43,imgFunc,2,NA,1.8373771000187844,401.0938739000121,403.02662521999446,2024-03-22 18:07:53.547472,2024-03-22 18:07:55.473218,L_DD504.jpg,1,10954,40-69,2024-03-22_18h01.23.448,Recall,2021.2.3,59.90628260574307,
,L_SD502.jpg,1,L_MF502.jpg,1,,,,,0,43,43,91,imgFunc,1,NA,1.4615237999823876,403.02961009999854,404.5821587200044,2024-03-22 18:07:55.480201,2024-03-22 18:07:57.024426,L_SD502.jpg,1,10954,40-69,2024-03-22_18h01.23.448,Recall,2021.2.3,59.90628260574307,
,SD036.jpg,0,MF036.jpg,0,,,,,0,44,44,85,imgFunc,2,NA,3.69686090000323,404.5861283999984,408.38869462002185,2024-03-22 18:07:57.032406,2024-03-22 18:08:00.826872,SD036.jpg,0,10954,40-69,2024-03-22_18h01.23.448,Recall,2021.2.3,59.90628260574307,
,L_DD501.jpg,1,L_FF501.jpg,1,,,,,0,45,45,40,imgFunc,2,NA,1.5293014000053518,408.3939214000129,410.01385341997957,2024-03-22 18:08:00.842285,2024-03-22 18:08:02.461510,L_DD501.jpg,1,10954,40-69,2024-03-22_18h01.23.448,Recall,2021.2.3,59.90628260574307,
,L_SD510.jpg,1,L_MF510.jpg,1,,,,,0,46,46,99,imgFunc,1,NA,0.6336633999890182,410.0175820000004,410.7528913200076,2024-03-22 18:08:02.468494,2024-03-22 18:08:03.195460,L_SD510.jpg,1,10954,40-69,2024-03-22_18h01.23.448,Recall,2021.2.3,59.90628260574307,
,SD008.jpg,0,MF008.jpg,0,,,,,0,47,47,57,imgFunc,1,NA,0.9864877999934833,410.74473090001266,411.83025841999915,2024-03-22 18:08:03.202465,2024-03-22 18:08:04.279752,SD008.jpg,0,10954,40-69,2024-03-22_18h01.23.448,Recall,2021.2.3,59.90628260574307,
,SD022.jpg,0,MF022.jpg,0,,,,,0,48,48,71,imgFunc,1,NA,0.6567961999971885,411.83446939999703,412.5862317199644,2024-03-22 18:08:04.286698,2024-03-22 18:08:05.029942,SD022.jpg,0,10954,40-69,2024-03-22_18h01.23.448,Recall,2021.2.3,59.90628260574307,
,DD035.jpg,0,FF035.jpg,0,,,,,0,49,49,34,imgFunc,0,NA,1.6507731000019703,412.59239309999975,414.3446624200151,2024-03-22 18:08:05.037946,2024-03-22 18:08:06.781292,DD035.jpg,0,10954,40-69,2024-03-22_18h01.23.448,Recall,2021.2.3,59.90628260574307,
,DD022.jpg,0,FF022.jpg,0,,,,,0,50,50,21,imgFunc,9,NA,2.406153700023424,414.3409571000084,416.83078211999964,2024-03-22 18:08:06.795256,2024-03-22 18:08:09.283262,DD022.jpg,0,10954,40-69,2024-03-22_18h01.23.448,Recall,2021.2.3,59.90628260574307,
,SD016.jpg,0,MF016.jpg,0,,,,,0,51,51,65,imgFunc,1,NA,1.2675735999946482,416.8317102000001,418.1842151199817,2024-03-22 18:08:09.290245,2024-03-22 18:08:10.634233,SD016.jpg,0,10954,40-69,2024-03-22_18h01.23.448,Recall,2021.2.3,59.90628260574307,
,SD027.jpg,0,MF027.jpg,0,,,,,0,52,52,76,imgFunc,1,NA,0.9337379999924451,418.1895537000091,419.22505932001513,2024-03-22 18:08:10.641217,2024-03-22 18:08:11.668185,SD027.jpg,0,10954,40-69,2024-03-22_18h01.23.448,Recall,2021.2.3,59.90628260574307,
,SD020.jpg,0,MF020.jpg,0,,,,,0,53,53,69,imgFunc,9,NA,1.9429415999911726,419.2281604000018,421.2645866200037,2024-03-22 18:08:11.675167,2024-03-22 18:08:13.703124,SD020.jpg,0,10954,40-69,2024-03-22_18h01.23.448,Recall,2021.2.3,59.90628260574307,
,DD024.jpg,0,FF024.jpg,0,,,,,0,54,54,23,imgFunc,1,NA,0.8242474000144284,421.26702669999213,422.202440019988,2024-03-22 18:08:13.710108,2024-03-22 18:08:14.636976,DD024.jpg,0,10954,40-69,2024-03-22_18h01.23.448,Recall,2021.2.3,59.90628260574307,
,L_SD504.jpg,1,L_MF504.jpg,1,,,,,0,55,55,93,imgFunc,1,NA,1.0591514999978244,422.20015550000244,423.35497042001225,2024-03-22 18:08:14.650940,2024-03-22 18:08:15.804506,L_SD504.jpg,1,10954,40-69,2024-03-22_18h01.23.448,Recall,2021.2.3,59.90628260574307,
,SD011.jpg,0,MF011.jpg,0,,,,,0,56,56,60,imgFunc,9,NA,1.062202500004787,423.3569550999964,424.50917362002656,2024-03-22 18:08:15.811489,2024-03-22 18:08:16.955378,SD011.jpg,0,10954,40-69,2024-03-22_18h01.23.448,Recall,2021.2.3,59.90628260574307,
,SD003.jpg,0,MF003.jpg,0,,,,,0,57,57,52,imgFunc,1,NA,0.7246576999896206,424.5105744000175,425.32865922001656,2024-03-22 18:08:16.962361,2024-03-22 18:08:17.772309,SD003.jpg,0,10954,40-69,2024-03-22_18h01.23.448,Recall,2021.2.3,59.90628260574307,
,DD036.jpg,0,FF036.jpg,0,,,,,0,58,58,35,imgFunc,9,NA,0.5726533999841195,425.3426871999982,426.0248947199725,2024-03-22 18:08:17.781308,2024-03-22 18:08:18.456324,DD036.jpg,0,10954,40-69,2024-03-22_18h01.23.448,Recall,2021.2.3,59.90628260574307,
,DD015.jpg,0,FF015.jpg,0,,,,,0,59,59,14,imgFunc,2,NA,1.1553049999929499,426.02396910000243,427.2926912200055,2024-03-22 18:08:18.463307,2024-03-22 18:08:19.723895,DD015.jpg,0,10954,40-69,2024-03-22_18h01.23.448,Recall,2021.2.3,59.90628260574307,
,SD040.jpg,0,MF040.jpg,0,,,,,0,60,60,89,imgFunc,2,NA,0.7185515000019222,427.2766316999914,428.09430892003,2024-03-22 18:08:19.731898,2024-03-22 18:08:20.541042,SD040.jpg,0,10954,40-69,2024-03-22_18h01.23.448,Recall,2021.2.3,59.90628260574307,
,DD025.jpg,0,FF025.jpg,0,,,,,0,61,61,24,imgFunc,1,NA,2.5039480999985244,428.09103579999646,430.6936612199934,2024-03-22 18:08:20.549063,2024-03-22 18:08:23.143017,DD025.jpg,0,10954,40-69,2024-03-22_18h01.23.448,Recall,2021.2.3,59.90628260574307,
,SD018.jpg,0,MF018.jpg,0,,,,,0,62,62,67,imgFunc,9,NA,3.559722200006945,430.6992651000037,434.35313092003344,2024-03-22 18:08:23.150000,2024-03-22 18:08:26.795824,SD018.jpg,0,10954,40-69,2024-03-22_18h01.23.448,Recall,2021.2.3,59.90628260574307,
,SD034.jpg,0,MF034.jpg,0,,,,,0,63,63,83,imgFunc,1,NA,2.253610200015828,434.3495966999908,436.7019303199486,2024-03-22 18:08:26.803805,2024-03-22 18:08:29.147251,SD034.jpg,0,10954,40-69,2024-03-22_18h01.23.448,Recall,2021.2.3,59.90628260574307,
,L_DD508.jpg,1,L_FF508.jpg,1,,,,,0,64,64,47,imgFunc,9,NA,5.532025900000008,436.7190920000139,442.3431873200461,2024-03-22 18:08:29.162245,2024-03-22 18:08:34.784706,L_DD508.jpg,1,10954,40-69,2024-03-22_18h01.23.448,Recall,2021.2.3,59.90628260574307,
,DD028.jpg,0,FF028.jpg,0,,,,,0,65,65,27,imgFunc,1,NA,0.9391807000210974,442.3441911000118,443.37720171999536,2024-03-22 18:08:34.793684,2024-03-22 18:08:35.818965,DD028.jpg,0,10954,40-69,2024-03-22_18h01.23.448,Recall,2021.2.3,59.90628260574307,
,SD024.jpg,0,MF024.jpg,0,,,,,0,66,66,73,imgFunc,1,NA,0.8265133000095375,443.3765956000134,444.29389552000794,2024-03-22 18:08:35.826946,2024-03-22 18:08:36.736333,SD024.jpg,0,10954,40-69,2024-03-22_18h01.23.448,Recall,2021.2.3,59.90628260574307,
,SD035.jpg,0,MF035.jpg,0,,,,,0,67,67,84,imgFunc,2,NA,1.9624710000061896,444.29653260001214,446.3652710199822,2024-03-22 18:08:36.744314,2024-03-22 18:08:38.804235,SD035.jpg,0,10954,40-69,2024-03-22_18h01.23.448,Recall,2021.2.3,59.90628260574307,
,DD014.jpg,0,FF014.jpg,0,,,,,0,68,68,13,imgFunc,2,NA,0.7412907000107225,446.3657030000177,447.21671301999595,2024-03-22 18:08:38.812237,2024-03-22 18:08:39.654816,DD014.jpg,0,10954,40-69,2024-03-22_18h01.23.448,Recall,2021.2.3,59.90628260574307,
,L_SD503.jpg,1,L_MF503.jpg,1,,,,,0,69,69,92,imgFunc,2,NA,0.9232532999885734,447.21584409999195,448.21895871998277,2024-03-22 18:08:39.669778,2024-03-22 18:08:40.672369,L_SD503.jpg,1,10954,40-69,2024-03-22_18h01.23.448,Recall,2021.2.3,59.90628260574307,
,SD013.jpg,0,MF013.jpg,0,,,,,0,70,70,62,imgFunc,2,NA,1.2684754999936558,448.222594699997,449.5751102200302,2024-03-22 18:08:40.679352,2024-03-22 18:08:42.022849,SD013.jpg,0,10954,40-69,2024-03-22_18h01.23.448,Recall,2021.2.3,59.90628260574307,
,L_DD502.jpg,1,L_FF502.jpg,1,,,,,0,71,71,41,imgFunc,2,NA,2.7308298999851104,449.5844650999934,452.4206127199868,2024-03-22 18:08:42.030857,2024-03-22 18:08:44.858291,L_DD502.jpg,1,10954,40-69,2024-03-22_18h01.23.448,Recall,2021.2.3,59.90628260574307,
,DD023.jpg,0,FF023.jpg,0,,,,,0,72,72,22,imgFunc,1,NA,1.1930443000164814,452.4101920000103,453.69553942000493,2024-03-22 18:08:44.866293,2024-03-22 18:08:46.142663,DD023.jpg,0,10954,40-69,2024-03-22_18h01.23.448,Recall,2021.2.3,59.90628260574307,
,DD019.jpg,0,FF019.jpg,0,,,,,0,73,73,18,imgFunc,2,NA,0.666019199998118,453.70518099999754,454.47407271995326,2024-03-22 18:08:46.149646,2024-03-22 18:08:46.910011,DD019.jpg,0,10954,40-69,2024-03-22_18h01.23.448,Recall,2021.2.3,59.90628260574307,
,L_SD509.jpg,1,L_MF509.jpg,1,,,,,0,74,74,98,imgFunc,2,NA,0.8872497000265867,454.4839791000122,455.4718925199995,2024-03-22 18:08:46.923975,2024-03-22 18:08:47.910776,L_SD509.jpg,1,10954,40-69,2024-03-22_18h01.23.448,Recall,2021.2.3,59.90628260574307,
,DD018.jpg,0,FF018.jpg,0,,,,,0,75,75,17,imgFunc,9,NA,1.9169539000140503,455.4703380000137,457.49012261998723,2024-03-22 18:08:47.917759,2024-03-22 18:08:49.928869,DD018.jpg,0,10954,40-69,2024-03-22_18h01.23.448,Recall,2021.2.3,59.90628260574307,
,DD037.jpg,0,FF037.jpg,0,,,,,0,76,76,36,imgFunc,2,NA,0.26141849998384714,457.4856973999995,457.8535261199868,2024-03-22 18:08:49.936850,2024-03-22 18:08:50.295782,DD037.jpg,0,10954,40-69,2024-03-22_18h01.23.448,Recall,2021.2.3,59.90628260574307,
,DD033.jpg,0,FF033.jpg,0,,,,,0,77,77,32,imgFunc,2,NA,1.0409958999953233,457.8501918000111,458.9854080200312,2024-03-22 18:08:50.303593,2024-03-22 18:08:51.429921,DD033.jpg,0,10954,40-69,2024-03-22_18h01.23.448,Recall,2021.2.3,59.90628260574307,
,SD002.jpg,0,MF002.jpg,0,,,,,0,78,78,51,imgFunc,2,NA,0.8336742999963462,458.9931852000009,459.92904432001524,2024-03-22 18:08:51.436904,2024-03-22 18:08:52.364070,SD002.jpg,0,10954,40-69,2024-03-22_18h01.23.448,Recall,2021.2.3,59.90628260574307,
,SD004.jpg,0,MF004.jpg,0,,,,,0,79,79,53,imgFunc,2,NA,1.7109476999903563,459.91627109999536,461.7187853200012,2024-03-22 18:08:52.371053,2024-03-22 18:08:54.165367,SD004.jpg,0,10954,40-69,2024-03-22_18h01.23.448,Recall,2021.2.3,59.90628260574307,
,SD029.jpg,0,MF029.jpg,0,,,,,0,80,80,78,imgFunc,1,NA,0.5794224000128452,461.7196651000122,462.38840122002875,2024-03-22 18:08:54.172350,2024-03-22 18:08:54.832541,SD029.jpg,0,10954,40-69,2024-03-22_18h01.23.448,Recall,2021.2.3,59.90628260574307,
,DD027.jpg,0,FF027.jpg,0,,,,,0,81,81,26,imgFunc,1,NA,0.876145499991253,462.3830288000172,463.3519540200359,2024-03-22 18:08:54.839524,2024-03-22 18:08:55.799867,DD027.jpg,0,10954,40-69,2024-03-22_18h01.23.448,Recall,2021.2.3,59.90628260574307,
,SD030.jpg,0,MF030.jpg,0,,,,,0,82,82,79,imgFunc,2,NA,0.7845484999998007,463.3547216000152,464.24034042004496,2024-03-22 18:08:55.806850,2024-03-22 18:08:56.683681,SD030.jpg,0,10954,40-69,2024-03-22_18h01.23.448,Recall,2021.2.3,59.90628260574307,
,SD026.jpg,0,MF026.jpg,0,,,,,0,83,83,75,imgFunc,1,NA,0.7207697999838274,464.25039420000394,465.07458322000457,2024-03-22 18:08:56.696648,2024-03-22 18:08:57.517716,SD026.jpg,0,10954,40-69,2024-03-22_18h01.23.448,Recall,2021.2.3,59.90628260574307,
,SD007.jpg,0,MF007.jpg,0,,,,,0,84,84,56,imgFunc,0,NA,2.3947319999861065,465.07270509999944,467.55668282002443,2024-03-22 18:08:57.526693,2024-03-22 18:09:00.002959,SD007.jpg,0,10954,40-69,2024-03-22_18h01.23.448,Recall,2021.2.3,59.90628260574307,
,DD040.jpg,0,FF040.jpg,0,,,,,0,85,85,39,imgFunc,1,NA,0.9535486999957357,467.55368690000614,468.6058575199859,2024-03-22 18:09:00.009942,2024-03-22 18:09:01.053593,DD040.jpg,0,10954,40-69,2024-03-22_18h01.23.448,Recall,2021.2.3,59.90628260574307,
,DD030.jpg,0,FF030.jpg,0,,,,,0,86,86,29,imgFunc,1,NA,0.9313728999986779,468.6077648999926,469.6432582199923,2024-03-22 18:09:01.060576,2024-03-22 18:09:02.087631,DD030.jpg,0,10954,40-69,2024-03-22_18h01.23.448,Recall,2021.2.3,59.90628260574307,
,SD025.jpg,0,MF025.jpg,0,,,,,0,87,87,74,imgFunc,1,NA,1.1759515999874566,469.6512161999999,470.9364911199664,2024-03-22 18:09:02.094614,2024-03-22 18:09:03.371790,SD025.jpg,0,10954,40-69,2024-03-22_18h01.23.448,Recall,2021.2.3,59.90628260574307,
,DD031.jpg,0,FF031.jpg,0,,,,,0,88,88,30,imgFunc,9,NA,1.6686807999794837,470.94254139999975,472.72733793998486,2024-03-22 18:09:03.387751,2024-03-22 18:09:05.156576,DD031.jpg,0,10954,40-69,2024-03-22_18h01.23.448,Recall,2021.2.3,59.90628260574307,
,SD039.jpg,0,MF039.jpg,0,,,,,0,89,89,88,imgFunc,1,NA,2.530953599984059,472.7121218999964,475.3488103199925,2024-03-22 18:09:05.163559,2024-03-22 18:09:07.791661,SD039.jpg,0,10954,40-69,2024-03-22_18h01.23.448,Recall,2021.2.3,59.90628260574307,
,SD038.jpg,0,MF038.jpg,0,,,,,0,90,90,87,imgFunc,9,NA,1.2827065000019502,475.3364692000032,476.7055336199992,2024-03-22 18:09:07.798644,2024-03-22 18:09:09.159393,SD038.jpg,0,10954,40-69,2024-03-22_18h01.23.448,Recall,2021.2.3,59.90628260574307,
,L_SD505.jpg,1,L_MF505.jpg,1,,,,,0,91,91,94,imgFunc,0,NA,1.1841868000046816,476.71507910001674,478.0008102199936,2024-03-22 18:09:09.166376,2024-03-22 18:09:10.443564,L_SD505.jpg,1,10954,40-69,2024-03-22_18h01.23.448,Recall,2021.2.3,59.90628260574307,
,DD016.jpg,0,FF016.jpg,0,,,,,0,92,92,15,imgFunc,1,NA,1.0101705999986734,478.0089705999999,479.1278368200001,2024-03-22 18:09:10.450547,2024-03-22 18:09:11.561117,DD016.jpg,0,10954,40-69,2024-03-22_18h01.23.448,Recall,2021.2.3,59.90628260574307,
,DD001.jpg,0,FF001.jpg,0,,,,,0,93,93,0,imgFunc,1,NA,1.1068569000053685,479.12838169999304,480.3339350199967,2024-03-22 18:09:11.575081,2024-03-22 18:09:12.779066,DD001.jpg,0,10954,40-69,2024-03-22_18h01.23.448,Recall,2021.2.3,59.90628260574307,
,SD037.jpg,0,MF037.jpg,0,,,,,0,94,94,86,imgFunc,2,NA,1.7116106000030413,480.3395237000077,482.1577972199884,2024-03-22 18:09:12.787046,2024-03-22 18:09:14.596417,SD037.jpg,0,10954,40-69,2024-03-22_18h01.23.448,Recall,2021.2.3,59.90628260574307,
,DD005.jpg,0,FF005.jpg,0,,,,,0,95,95,4,imgFunc,2,NA,0.9219684000127017,482.15292240001145,483.1715152200195,2024-03-22 18:09:14.603400,2024-03-22 18:09:15.613108,DD005.jpg,0,10954,40-69,2024-03-22_18h01.23.448,Recall,2021.2.3,59.90628260574307,
,DD034.jpg,0,FF034.jpg,0,,,,,0,96,96,33,imgFunc,2,NA,1.0004168000014033,483.1626779999933,484.2480842199584,2024-03-22 18:09:15.621108,2024-03-22 18:09:16.698257,DD034.jpg,0,10954,40-69,2024-03-22_18h01.23.448,Recall,2021.2.3,59.90628260574307,
,DD004.jpg,0,FF004.jpg,0,,,,,0,97,97,3,imgFunc,2,NA,0.5852123000076972,484.25767710001674,484.94233252003323,2024-03-22 18:09:16.705240,2024-03-22 18:09:17.380941,DD004.jpg,0,10954,40-69,2024-03-22_18h01.23.448,Recall,2021.2.3,59.90628260574307,
,DD032.jpg,0,FF032.jpg,0,,,,,0,98,98,31,imgFunc,1,NA,0.7054096999927424,484.937734200008,485.73978831997374,2024-03-22 18:09:17.388882,2024-03-22 18:09:18.182486,DD032.jpg,0,10954,40-69,2024-03-22_18h01.23.448,Recall,2021.2.3,59.90628260574307,
,SD005.jpg,0,MF005.jpg,0,,,,,0,99,99,54,imgFunc,0,NA,1.3049270999908913,485.73823459999403,487.1404595199856,2024-03-22 18:09:18.189469,2024-03-22 18:09:19.583442,SD005.jpg,0,10954,40-69,2024-03-22_18h01.23.448,Recall,2021.2.3,59.90628260574307,
