instrText,stimDoor,stimDoorLure,stimFace,stimFaceLure,Instructions.thisRepN,Instructions.thisTrialN,Instructions.thisN,Instructions.thisIndex,Trials.thisRepN,Trials.thisTrialN,Trials.thisN,Trials.thisIndex,Func,Keys,Text,RespTime,Onset,Offset,SystemTime_Start,SystemTime_Stop,Stim,Lure,Participant*,Age,date,expName,psychopyVersion,frameRate,
"In the earlier Feedback Games, you chose which doors contained a prize, and which peers liked you. 

You then saw positive or negative feedback (green check mark or red X) from the door or peer you selected.

You will now see a series of doors and peers, some of which you saw during the earlier Feedback Games, and some that you have never seen before.

Please press the spacebar to continue.",,,,,0,0,0,0,,,,,instrFunc,space,"In the earlier Feedback Games, you chose which doors contained a prize, and which peers liked you. 

You then saw positive or negative feedback (green check mark or red X) from the door or peer you selected.

You will now see a series of doors and peers, some of which you saw during the earlier Feedback Games, and some that you have never seen before.

Please press the spacebar to continue.",18.990040300181136,33.54612920014188,52.60054452996701,2024-02-24 17:27:15.460355,2024-02-24 17:27:34.505501,,,10898,40-69,2024-02-24_17h27.10.353,Recall,2021.2.3,59.96027025973456,
"For doors/peers that you remember selecting and getting feedback from, your job is to RECALL what feedback you received. 

Press '1' if you recall positive feedback. 

Press '2' if you recall negative feedback

Press the spacebar to continue.",,,,,0,1,1,1,,,,,instrFunc,space,"For doors/peers that you remember selecting and getting feedback from, your job is to RECALL what feedback you received. 

Press '1' if you recall positive feedback. 

Press '2' if you recall negative feedback

Press the spacebar to continue.",13.624950799858198,52.575056000147015,66.24875477026217,2024-02-24 17:27:34.506502,2024-02-24 17:27:48.164899,,,10898,40-69,2024-02-24_17h27.10.353,Recall,2021.2.3,59.96027025973456,
"For doors/peers that you don't remember getting feedback from, your job is to PREDICT what feedback you WOULD HAVE received.

Press '9' if you predict positive feedback.

Press '0' if you predict negative feedback. 

Please press the spacebar to continue.",,,,,0,2,2,2,,,,,instrFunc,space,"For doors/peers that you don't remember getting feedback from, your job is to PREDICT what feedback you WOULD HAVE received.

Press '9' if you predict positive feedback.

Press '0' if you predict negative feedback. 

Please press the spacebar to continue.",15.972774700028822,66.23530480009504,82.26125677023083,2024-02-24 17:27:48.165900,2024-02-24 17:28:04.176519,,,10898,40-69,2024-02-24_17h27.10.353,Recall,2021.2.3,59.96027025973456,
"This task is self-paced, and the prompts will always stay on the screen so that you know which buttons to press.

On the next screen we will show you what those prompts look like, so that you know exactly what to expect. 

You will start with either doors or peers, and then switch halfway through. 

Please press the spacebar to continue.",,,,,0,3,3,3,,,,,instrFunc,space,"This task is self-paced, and the prompts will always stay on the screen so that you know which buttons to press.

On the next screen we will show you what those prompts look like, so that you know exactly what to expect. 

You will start with either doors or peers, and then switch halfway through. 

Please press the spacebar to continue.",14.843794400105253,82.24454730004072,97.13619297021069,2024-02-24 17:28:04.177519,2024-02-24 17:28:19.053708,,,10898,40-69,2024-02-24_17h27.10.353,Recall,2021.2.3,59.96027025973456,
,,,,,,,,,,,,,imgtextFunc,space,"Here is what the screen will look like while you make your ratings.
The green circles remind you to press 1 or 9 for positive feedback.
The red circles remind you to press 2 or 0 for negative feedback.









Please let the experimenter know if you have any questions.

Whenever you're ready, press the spacebar to start the task.",28.89304400002584,97.27513259998523,126.35636197007261,2024-02-24 17:28:19.065526,2024-02-24 17:28:48.142195,,,10898,40-69,2024-02-24_17h27.10.353,Recall,2021.2.3,59.96027025973456,
,DD012.jpg,0,FF012.jpg,0,,,,,0,0,0,11,imgFunc,2,NA,7.762663899920881,126.34946820000187,134.25191420991905,2024-02-24 17:28:48.185448,2024-02-24 17:28:56.080943,FF012.jpg,0,10898,40-69,2024-02-24_17h27.10.353,Recall,2021.2.3,59.96027025973456,
,DD020.jpg,0,FF020.jpg,0,,,,,0,1,1,19,imgFunc,1,NA,6.946605900069699,134.22124320012517,141.2738603700418,2024-02-24 17:28:56.089920,2024-02-24 17:29:03.135360,FF020.jpg,0,10898,40-69,2024-02-24_17h27.10.353,Recall,2021.2.3,59.96027025973456,
,L_DD506.jpg,1,L_FF506.jpg,1,,,,,0,2,2,45,imgFunc,2,NA,8.214714700123295,141.2735395000782,149.60036147013307,2024-02-24 17:29:03.144342,2024-02-24 17:29:11.462770,L_FF506.jpg,1,10898,40-69,2024-02-24_17h27.10.353,Recall,2021.2.3,59.96027025973456,
,DD034.jpg,0,FF034.jpg,0,,,,,0,3,3,33,imgFunc,2,NA,2.8635684999171644,149.60828800010495,152.58196737011895,2024-02-24 17:29:11.472744,2024-02-24 17:29:14.443521,FF034.jpg,0,10898,40-69,2024-02-24_17h27.10.353,Recall,2021.2.3,59.96027025973456,
,L_DD504.jpg,1,L_FF504.jpg,1,,,,,0,4,4,43,imgFunc,2,NA,3.200302000157535,152.5758061001543,155.87944957008585,2024-02-24 17:29:14.451499,2024-02-24 17:29:17.746556,L_FF504.jpg,1,10898,40-69,2024-02-24_17h27.10.353,Recall,2021.2.3,59.96027025973456,
,SD040.jpg,0,MF040.jpg,0,,,,,0,5,5,89,imgFunc,1,NA,2.0469813998788595,155.88122600014322,158.0340925701894,2024-02-24 17:29:17.753539,2024-02-24 17:29:19.897863,MF040.jpg,0,10898,40-69,2024-02-24_17h27.10.353,Recall,2021.2.3,59.96027025973456,
,SD032.jpg,0,MF032.jpg,0,,,,,0,6,6,81,imgFunc,1,NA,2.500818399945274,158.03532530018128,160.6385423699394,2024-02-24 17:29:19.905844,2024-02-24 17:29:22.500140,MF032.jpg,0,10898,40-69,2024-02-24_17h27.10.353,Recall,2021.2.3,59.96027025973456,
,DD019.jpg,0,FF019.jpg,0,,,,,0,7,7,18,imgFunc,9,NA,5.070363499922678,160.64163139997981,165.81731107016094,2024-02-24 17:29:22.513107,2024-02-24 17:29:27.686143,FF019.jpg,0,10898,40-69,2024-02-24_17h27.10.353,Recall,2021.2.3,59.96027025973456,
,L_SD509.jpg,1,L_MF509.jpg,1,,,,,0,8,8,98,imgFunc,0,NA,3.0335478999186307,165.82248490001075,168.95709607028402,2024-02-24 17:29:27.695085,2024-02-24 17:29:30.822549,L_MF509.jpg,1,10898,40-69,2024-02-24_17h27.10.353,Recall,2021.2.3,59.96027025973456,
,DD028.jpg,0,FF028.jpg,0,,,,,0,9,9,27,imgFunc,9,NA,1.5319656000938267,168.95614690007642,170.59210167010315,2024-02-24 17:29:30.829532,2024-02-24 17:29:32.456922,FF028.jpg,0,10898,40-69,2024-02-24_17h27.10.353,Recall,2021.2.3,59.96027025973456,
,L_SD504.jpg,1,L_MF504.jpg,1,,,,,0,10,10,93,imgFunc,9,NA,1.3916641999967396,170.59245970007032,172.09383227000944,2024-02-24 17:29:32.464903,2024-02-24 17:29:33.958003,L_MF504.jpg,1,10898,40-69,2024-02-24_17h27.10.353,Recall,2021.2.3,59.96027025973456,
,DD026.jpg,0,FF026.jpg,0,,,,,0,11,11,25,imgFunc,9,NA,1.2823807001113892,172.10996010014787,173.51244817022234,2024-02-24 17:29:33.964987,2024-02-24 17:29:35.358875,FF026.jpg,0,10898,40-69,2024-02-24_17h27.10.353,Recall,2021.2.3,59.96027025973456,
,DD035.jpg,0,FF035.jpg,0,,,,,0,12,12,34,imgFunc,9,NA,3.379066800000146,173.50098100001924,176.97404567012563,2024-02-24 17:29:35.373837,2024-02-24 17:29:38.845067,FF035.jpg,0,10898,40-69,2024-02-24_17h27.10.353,Recall,2021.2.3,59.96027025973456,
,DD005.jpg,0,FF005.jpg,0,,,,,0,13,13,4,imgFunc,9,NA,0.9737207000143826,176.97052179998718,178.03942796983756,2024-02-24 17:29:38.852050,2024-02-24 17:29:39.912164,FF005.jpg,0,10898,40-69,2024-02-24_17h27.10.353,Recall,2021.2.3,59.96027025973456,
,SD035.jpg,0,MF035.jpg,0,,,,,0,14,14,84,imgFunc,9,NA,1.092976399930194,178.04289100016467,179.2446698702406,2024-02-24 17:29:39.920167,2024-02-24 17:29:41.113068,MF035.jpg,0,10898,40-69,2024-02-24_17h27.10.353,Recall,2021.2.3,59.96027025973456,
,SD011.jpg,0,MF011.jpg,0,,,,,0,15,15,60,imgFunc,0,NA,1.7889976999722421,179.24291769997217,181.1281058699824,2024-02-24 17:29:41.121048,2024-02-24 17:29:42.997549,MF011.jpg,0,10898,40-69,2024-02-24_17h27.10.353,Recall,2021.2.3,59.96027025973456,
,SD029.jpg,0,MF029.jpg,0,,,,,0,16,16,78,imgFunc,0,NA,1.2474412999581546,181.14469019998796,182.51321887015365,2024-02-24 17:29:43.005496,2024-02-24 17:29:44.365504,MF029.jpg,0,10898,40-69,2024-02-24_17h27.10.353,Recall,2021.2.3,59.96027025973456,
,DD002.jpg,0,FF002.jpg,0,,,,,0,17,17,1,imgFunc,9,NA,1.3609239000361413,182.4872940001078,183.9396921703592,2024-02-24 17:29:44.372487,2024-02-24 17:29:45.816386,FF002.jpg,0,10898,40-69,2024-02-24_17h27.10.353,Recall,2021.2.3,59.96027025973456,
,L_DD505.jpg,1,L_FF505.jpg,1,,,,,0,18,18,44,imgFunc,0,NA,1.7476724998559803,183.94040870014578,185.7758327703923,2024-02-24 17:29:45.824389,2024-02-24 17:29:47.651242,L_FF505.jpg,1,10898,40-69,2024-02-24_17h27.10.353,Recall,2021.2.3,59.96027025973456,
,SD002.jpg,0,MF002.jpg,0,,,,,0,19,19,51,imgFunc,9,NA,1.4662578001152724,185.78202250017785,187.35170767013915,2024-02-24 17:29:47.658225,2024-02-24 17:29:49.219115,MF002.jpg,0,10898,40-69,2024-02-24_17h27.10.353,Recall,2021.2.3,59.96027025973456,
,DD011.jpg,0,FF011.jpg,0,,,,,0,20,20,10,imgFunc,9,NA,1.3452558000572026,187.3586351000704,188.81140707014129,2024-02-24 17:29:49.226098,2024-02-24 17:29:50.670077,FF011.jpg,0,10898,40-69,2024-02-24_17h27.10.353,Recall,2021.2.3,59.96027025973456,
,DD018.jpg,0,FF018.jpg,0,,,,,0,21,21,17,imgFunc,0,NA,1.1964225000701845,188.8116876001004,190.1014076701831,2024-02-24 17:29:50.684041,2024-02-24 17:29:51.971249,FF018.jpg,0,10898,40-69,2024-02-24_17h27.10.353,Recall,2021.2.3,59.96027025973456,
,SD005.jpg,0,MF005.jpg,0,,,,,0,22,22,54,imgFunc,9,NA,5.859988000011072,190.10009149997495,196.0560290699359,2024-02-24 17:29:51.978232,2024-02-24 17:29:57.925449,MF005.jpg,0,10898,40-69,2024-02-24_17h27.10.353,Recall,2021.2.3,59.96027025973456,
,DD017.jpg,0,FF017.jpg,0,,,,,0,23,23,16,imgFunc,9,NA,1.267461200011894,196.06085560005158,197.4262835700065,2024-02-24 17:29:57.934426,2024-02-24 17:29:59.292974,FF017.jpg,0,10898,40-69,2024-02-24_17h27.10.353,Recall,2021.2.3,59.96027025973456,
,L_SD506.jpg,1,L_MF506.jpg,1,,,,,0,24,24,95,imgFunc,0,NA,1.1422202000394464,197.42595380009152,198.67848407034762,2024-02-24 17:29:59.299957,2024-02-24 17:30:00.543871,L_MF506.jpg,1,10898,40-69,2024-02-24_17h27.10.353,Recall,2021.2.3,59.96027025973456,
,SD009.jpg,0,MF009.jpg,0,,,,,0,25,25,58,imgFunc,9,NA,3.0602886001579463,198.67588630015962,201.84637187048793,2024-02-24 17:30:00.550854,2024-02-24 17:30:03.712735,MF009.jpg,0,10898,40-69,2024-02-24_17h27.10.353,Recall,2021.2.3,59.96027025973456,
,DD038.jpg,0,FF038.jpg,0,,,,,0,26,26,37,imgFunc,0,NA,2.359808500157669,201.86427700007334,204.33604946988635,2024-02-24 17:30:03.727697,2024-02-24 17:30:06.197991,FF038.jpg,0,10898,40-69,2024-02-24_17h27.10.353,Recall,2021.2.3,59.96027025973456,
,DD036.jpg,0,FF036.jpg,0,,,,,0,27,27,35,imgFunc,9,NA,1.1384007998276502,204.33355690003373,205.58511917013675,2024-02-24 17:30:06.205972,2024-02-24 17:30:07.448756,FF036.jpg,0,10898,40-69,2024-02-24_17h27.10.353,Recall,2021.2.3,59.96027025973456,
,SD010.jpg,0,MF010.jpg,0,,,,,0,28,28,59,imgFunc,0,NA,3.5767721000593156,205.58351230015978,209.2699601703789,2024-02-24 17:30:07.456765,2024-02-24 17:30:11.134762,MF010.jpg,0,10898,40-69,2024-02-24_17h27.10.353,Recall,2021.2.3,59.96027025973456,
,SD019.jpg,0,MF019.jpg,0,,,,,0,29,29,68,imgFunc,9,NA,1.267948399996385,209.2680209001992,210.63676877040416,2024-02-24 17:30:11.141745,2024-02-24 17:30:12.501801,MF019.jpg,0,10898,40-69,2024-02-24_17h27.10.353,Recall,2021.2.3,59.96027025973456,
,SD030.jpg,0,MF030.jpg,0,,,,,0,30,30,79,imgFunc,0,NA,1.2873456000816077,210.6484945002012,212.0501855702605,2024-02-24 17:30:12.509753,2024-02-24 17:30:13.902443,MF030.jpg,0,10898,40-69,2024-02-24_17h27.10.353,Recall,2021.2.3,59.96027025973456,
,DD025.jpg,0,FF025.jpg,0,,,,,0,31,31,24,imgFunc,9,NA,1.2652014000341296,212.03092350019142,213.39958427031524,2024-02-24 17:30:13.910380,2024-02-24 17:30:15.271047,FF025.jpg,0,10898,40-69,2024-02-24_17h27.10.353,Recall,2021.2.3,59.96027025973456,
,SD012.jpg,0,MF012.jpg,0,,,,,0,32,32,61,imgFunc,9,NA,1.3533822000026703,213.39888420002535,214.85111247026362,2024-02-24 17:30:15.278030,2024-02-24 17:30:16.722019,MF012.jpg,0,10898,40-69,2024-02-24_17h27.10.353,Recall,2021.2.3,59.96027025973456,
,DD010.jpg,0,FF010.jpg,0,,,,,0,33,33,9,imgFunc,9,NA,1.6894326000474393,214.85459600016475,216.64035367034376,2024-02-24 17:30:16.729881,2024-02-24 17:30:18.506819,FF010.jpg,0,10898,40-69,2024-02-24_17h27.10.353,Recall,2021.2.3,59.96027025973456,
,L_SD507.jpg,1,L_MF507.jpg,1,,,,,0,34,34,96,imgFunc,0,NA,0.9221542000304908,216.6461575999856,217.6812516702339,2024-02-24 17:30:18.513802,2024-02-24 17:30:19.540756,L_MF507.jpg,1,10898,40-69,2024-02-24_17h27.10.353,Recall,2021.2.3,59.96027025973456,
,SD008.jpg,0,MF008.jpg,0,,,,,0,35,35,57,imgFunc,9,NA,1.9576562999282032,217.69023240008391,219.76274977019057,2024-02-24 17:30:19.554720,2024-02-24 17:30:21.625615,MF008.jpg,0,10898,40-69,2024-02-24_17h27.10.353,Recall,2021.2.3,59.96027025973456,
,SD025.jpg,0,MF025.jpg,0,,,,,0,36,36,74,imgFunc,0,NA,1.278996900189668,219.75299479998648,221.13831837009639,2024-02-24 17:30:21.633596,2024-02-24 17:30:23.009947,MF025.jpg,0,10898,40-69,2024-02-24_17h27.10.353,Recall,2021.2.3,59.96027025973456,
,DD003.jpg,0,FF003.jpg,0,,,,,0,37,37,2,imgFunc,0,NA,1.8495891999918967,221.14271900011227,223.09515567007475,2024-02-24 17:30:23.017928,2024-02-24 17:30:24.961277,FF003.jpg,0,10898,40-69,2024-02-24_17h27.10.353,Recall,2021.2.3,59.96027025973456,
,DD029.jpg,0,FF029.jpg,0,,,,,0,38,38,28,imgFunc,9,NA,1.9795601998921484,223.09235950000584,225.17852047015913,2024-02-24 17:30:24.969284,2024-02-24 17:30:27.046418,FF029.jpg,0,10898,40-69,2024-02-24_17h27.10.353,Recall,2021.2.3,59.96027025973456,
,SD034.jpg,0,MF034.jpg,0,,,,,0,39,39,83,imgFunc,0,NA,1.130315000191331,225.18984830006957,226.43911037012003,2024-02-24 17:30:27.055396,2024-02-24 17:30:28.297054,MF034.jpg,0,10898,40-69,2024-02-24_17h27.10.353,Recall,2021.2.3,59.96027025973456,
,DD023.jpg,0,FF023.jpg,0,,,,,0,40,40,22,imgFunc,0,NA,0.9473790999036282,226.4365728001576,227.4742204702925,2024-02-24 17:30:28.312016,2024-02-24 17:30:29.347670,FF023.jpg,0,10898,40-69,2024-02-24_17h27.10.353,Recall,2021.2.3,59.96027025973456,
,SD028.jpg,0,MF028.jpg,0,,,,,0,41,41,77,imgFunc,9,NA,1.6603819001466036,227.4756309001241,229.22742166998796,2024-02-24 17:30:29.355634,2024-02-24 17:30:31.099278,MF028.jpg,0,10898,40-69,2024-02-24_17h27.10.353,Recall,2021.2.3,59.96027025973456,
,SD031.jpg,0,MF031.jpg,0,,,,,0,42,42,80,imgFunc,9,NA,1.079914900008589,229.23227250017226,230.41812877031043,2024-02-24 17:30:31.106261,2024-02-24 17:30:32.283252,MF031.jpg,0,10898,40-69,2024-02-24_17h27.10.353,Recall,2021.2.3,59.96027025973456,
,DD001.jpg,0,FF001.jpg,0,,,,,0,43,43,0,imgFunc,0,NA,1.7372239001560956,230.41533330013044,232.2520677698776,2024-02-24 17:30:32.290235,2024-02-24 17:30:34.118264,FF001.jpg,0,10898,40-69,2024-02-24_17h27.10.353,Recall,2021.2.3,59.96027025973456,
,DD007.jpg,0,FF007.jpg,0,,,,,0,44,44,6,imgFunc,9,NA,1.4674899000674486,232.25275280000642,233.82240896997973,2024-02-24 17:30:34.125247,2024-02-24 17:30:35.686101,FF007.jpg,0,10898,40-69,2024-02-24_17h27.10.353,Recall,2021.2.3,59.96027025973456,
,SD003.jpg,0,MF003.jpg,0,,,,,0,45,45,52,imgFunc,9,NA,3.7233289999421686,233.8289289001841,237.65047067031264,2024-02-24 17:30:35.701062,2024-02-24 17:30:39.521803,MF003.jpg,0,10898,40-69,2024-02-24_17h27.10.353,Recall,2021.2.3,59.96027025973456,
,SD026.jpg,0,MF026.jpg,0,,,,,0,46,46,75,imgFunc,0,NA,0.9823718999978155,237.6499392001424,238.73577447002754,2024-02-24 17:30:39.528786,2024-02-24 17:30:40.606101,MF026.jpg,0,10898,40-69,2024-02-24_17h27.10.353,Recall,2021.2.3,59.96027025973456,
,DD039.jpg,0,FF039.jpg,0,,,,,0,47,47,38,imgFunc,9,NA,0.9369032999966294,238.73540250002407,239.7706182699185,2024-02-24 17:30:40.613084,2024-02-24 17:30:41.640024,FF039.jpg,0,10898,40-69,2024-02-24_17h27.10.353,Recall,2021.2.3,59.96027025973456,
,SD038.jpg,0,MF038.jpg,0,,,,,0,48,48,87,imgFunc,9,NA,0.8500910000875592,239.7739335000515,240.72548727015965,2024-02-24 17:30:41.647030,2024-02-24 17:30:42.590312,MF038.jpg,0,10898,40-69,2024-02-24_17h27.10.353,Recall,2021.2.3,59.96027025973456,
,L_SD508.jpg,1,L_MF508.jpg,1,,,,,0,49,49,97,imgFunc,9,NA,3.7179968000855297,240.7302095000632,244.55080726998858,2024-02-24 17:30:42.598289,2024-02-24 17:30:46.409633,L_MF508.jpg,1,10898,40-69,2024-02-24_17h27.10.353,Recall,2021.2.3,59.96027025973456,
,DD033.jpg,0,FF033.jpg,0,,,,,0,50,50,32,imgFunc,0,NA,2.129305300069973,244.53489790018648,246.75429827021435,2024-02-24 17:30:46.417636,2024-02-24 17:30:48.628496,FF033.jpg,0,10898,40-69,2024-02-24_17h27.10.353,Recall,2021.2.3,59.96027025973456,
,SD037.jpg,0,MF037.jpg,0,,,,,0,51,51,86,imgFunc,0,NA,2.074669700115919,246.76560600008816,248.9510736700613,2024-02-24 17:30:48.636477,2024-02-24 17:30:50.813355,MF037.jpg,0,10898,40-69,2024-02-24_17h27.10.353,Recall,2021.2.3,59.96027025973456,
,L_SD510.jpg,1,L_MF510.jpg,1,,,,,0,52,52,99,imgFunc,0,NA,1.176660800119862,248.95162670011632,250.23756647016853,2024-02-24 17:30:50.820338,2024-02-24 17:30:52.097654,L_MF510.jpg,1,10898,40-69,2024-02-24_17h27.10.353,Recall,2021.2.3,59.96027025973456,
,SD013.jpg,0,MF013.jpg,0,,,,,0,53,53,62,imgFunc,0,NA,2.3110321001149714,250.23305690009147,252.65285057015717,2024-02-24 17:30:52.104637,2024-02-24 17:30:54.515935,MF013.jpg,0,10898,40-69,2024-02-24_17h27.10.353,Recall,2021.2.3,59.96027025973456,
,DD024.jpg,0,FF024.jpg,0,,,,,0,54,54,23,imgFunc,0,NA,1.683592400047928,252.65253149997443,254.42401667009108,2024-02-24 17:30:54.530897,2024-02-24 17:30:56.300727,FF024.jpg,0,10898,40-69,2024-02-24_17h27.10.353,Recall,2021.2.3,59.96027025973456,
,SD006.jpg,0,MF006.jpg,0,,,,,0,55,55,55,imgFunc,0,NA,1.7260763999074697,254.4258650999982,256.2450245702639,2024-02-24 17:30:56.307710,2024-02-24 17:30:58.118653,MF006.jpg,0,10898,40-69,2024-02-24_17h27.10.353,Recall,2021.2.3,59.96027025973456,
,DD037.jpg,0,FF037.jpg,0,,,,,0,56,56,36,imgFunc,9,NA,1.3669406999833882,256.2493224001955,257.71726697008125,2024-02-24 17:30:58.126656,2024-02-24 17:30:59.586097,FF037.jpg,0,10898,40-69,2024-02-24_17h27.10.353,Recall,2021.2.3,59.96027025973456,
,SD023.jpg,0,MF023.jpg,0,,,,,0,57,57,72,imgFunc,9,NA,1.3105767001397908,257.72168900002725,259.14035627036355,2024-02-24 17:30:59.594100,2024-02-24 17:31:01.003618,MF023.jpg,0,10898,40-69,2024-02-24_17h27.10.353,Recall,2021.2.3,59.96027025973456,
,L_DD501.jpg,1,L_FF501.jpg,1,,,,,0,58,58,40,imgFunc,0,NA,3.793066499987617,259.14314980013296,263.0471004701685,2024-02-24 17:31:01.011619,2024-02-24 17:31:04.906949,L_FF501.jpg,1,10898,40-69,2024-02-24_17h27.10.353,Recall,2021.2.3,59.96027025973456,
,DD009.jpg,0,FF009.jpg,0,,,,,0,59,59,8,imgFunc,0,NA,0.9066047000233084,263.045672000153,264.0498336702585,2024-02-24 17:31:04.921911,2024-02-24 17:31:05.924109,FF009.jpg,0,10898,40-69,2024-02-24_17h27.10.353,Recall,2021.2.3,59.96027025973456,
,DD016.jpg,0,FF016.jpg,0,,,,,0,60,60,15,imgFunc,0,NA,1.4668511000927538,264.07738260016777,265.66401527030393,2024-02-24 17:31:05.931092,2024-02-24 17:31:07.508947,FF016.jpg,0,10898,40-69,2024-02-24_17h27.10.353,Recall,2021.2.3,59.96027025973456,
,DD031.jpg,0,FF031.jpg,0,,,,,0,61,61,30,imgFunc,0,NA,0.8102080998942256,265.6459814000409,266.56482337019406,2024-02-24 17:31:07.515930,2024-02-24 17:31:08.426123,FF031.jpg,0,10898,40-69,2024-02-24_17h27.10.353,Recall,2021.2.3,59.96027025973456,
,DD014.jpg,0,FF014.jpg,0,,,,,0,62,62,13,imgFunc,9,NA,1.0550572001375258,266.55321809998713,267.70547427027486,2024-02-24 17:31:08.433126,2024-02-24 17:31:09.576858,FF014.jpg,0,10898,40-69,2024-02-24_17h27.10.353,Recall,2021.2.3,59.96027025973456,
,SD022.jpg,0,MF022.jpg,0,,,,,0,63,63,71,imgFunc,0,NA,2.7180079999379814,267.7139258000534,270.534055770142,2024-02-24 17:31:09.583841,2024-02-24 17:31:12.395466,MF022.jpg,0,10898,40-69,2024-02-24_17h27.10.353,Recall,2021.2.3,59.96027025973456,
,L_DD510.jpg,1,L_FF510.jpg,1,,,,,0,64,64,49,imgFunc,0,NA,0.9012271999381483,270.52284720004536,271.5246357701253,2024-02-24 17:31:12.402446,2024-02-24 17:31:13.395964,L_FF510.jpg,1,10898,40-69,2024-02-24_17h27.10.353,Recall,2021.2.3,59.96027025973456,
,DD021.jpg,0,FF021.jpg,0,,,,,0,65,65,20,imgFunc,0,NA,1.1831781000364572,271.5210867000278,272.8069104703609,2024-02-24 17:31:13.402944,2024-02-24 17:31:14.680434,FF021.jpg,0,10898,40-69,2024-02-24_17h27.10.353,Recall,2021.2.3,59.96027025973456,
,SD020.jpg,0,MF020.jpg,0,,,,,0,66,66,69,imgFunc,9,NA,1.7408713998738676,272.80338890012354,274.6397415699903,2024-02-24 17:31:14.687417,2024-02-24 17:31:16.515136,MF020.jpg,0,10898,40-69,2024-02-24_17h27.10.353,Recall,2021.2.3,59.96027025973456,
,SD018.jpg,0,MF018.jpg,0,,,,,0,67,67,67,imgFunc,9,NA,2.334012200124562,274.6422737999819,277.0789599700365,2024-02-24 17:31:16.522119,2024-02-24 17:31:18.950143,MF018.jpg,0,10898,40-69,2024-02-24_17h27.10.353,Recall,2021.2.3,59.96027025973456,
,SD014.jpg,0,MF014.jpg,0,,,,,0,68,68,63,imgFunc,9,NA,1.463827099883929,277.0884221000597,278.64514057012275,2024-02-24 17:31:18.964108,2024-02-24 17:31:20.518086,MF014.jpg,0,10898,40-69,2024-02-24_17h27.10.353,Recall,2021.2.3,59.96027025973456,
,SD027.jpg,0,MF027.jpg,0,,,,,0,69,69,76,imgFunc,9,NA,1.1353768999688327,278.6567471001763,279.90928227012046,2024-02-24 17:31:20.525069,2024-02-24 17:31:21.769032,MF027.jpg,0,10898,40-69,2024-02-24_17h27.10.353,Recall,2021.2.3,59.96027025973456,
,SD021.jpg,0,MF021.jpg,0,,,,,0,70,70,70,imgFunc,9,NA,1.333597799995914,279.89047300000675,281.3099562700372,2024-02-24 17:31:21.776015,2024-02-24 17:31:23.186586,MF021.jpg,0,10898,40-69,2024-02-24_17h27.10.353,Recall,2021.2.3,59.96027025973456,
,SD001.jpg,0,MF001.jpg,0,,,,,0,71,71,50,imgFunc,9,NA,1.2242205999791622,281.3119971000124,282.6310754700098,2024-02-24 17:31:23.193590,2024-02-24 17:31:24.504206,MF001.jpg,0,10898,40-69,2024-02-24_17h27.10.353,Recall,2021.2.3,59.96027025973456,
,SD017.jpg,0,MF017.jpg,0,,,,,0,72,72,66,imgFunc,0,NA,0.8376851000357419,282.6346297999844,283.5703426701948,2024-02-24 17:31:24.511189,2024-02-24 17:31:25.438036,MF017.jpg,0,10898,40-69,2024-02-24_17h27.10.353,Recall,2021.2.3,59.96027025973456,
,L_DD508.jpg,1,L_FF508.jpg,1,,,,,0,73,73,47,imgFunc,9,NA,3.007770599797368,283.57646700018086,286.68225777032785,2024-02-24 17:31:25.452998,2024-02-24 17:31:28.557196,L_FF508.jpg,1,10898,40-69,2024-02-24_17h27.10.353,Recall,2021.2.3,59.96027025973456,
,SD015.jpg,0,MF015.jpg,0,,,,,0,74,74,64,imgFunc,0,NA,1.6824482001829892,286.686091999989,288.4693888698239,2024-02-24 17:31:28.565831,2024-02-24 17:31:30.341528,MF015.jpg,0,10898,40-69,2024-02-24_17h27.10.353,Recall,2021.2.3,59.96027025973456,
,L_SD501.jpg,1,L_MF501.jpg,1,,,,,0,75,75,90,imgFunc,0,NA,0.9510351999197155,288.465222600149,289.5165032702498,2024-02-24 17:31:30.349532,2024-02-24 17:31:31.392473,L_MF501.jpg,1,10898,40-69,2024-02-24_17h27.10.353,Recall,2021.2.3,59.96027025973456,
,SD033.jpg,0,MF033.jpg,0,,,,,0,76,76,82,imgFunc,9,NA,1.3400508998893201,289.5241824002005,290.95993226999417,2024-02-24 17:31:31.399461,2024-02-24 17:31:32.827012,MF033.jpg,0,10898,40-69,2024-02-24_17h27.10.353,Recall,2021.2.3,59.96027025973456,
,DD013.jpg,0,FF013.jpg,0,,,,,0,77,77,12,imgFunc,9,NA,1.0893147999886423,290.9669646001421,292.16915867011994,2024-02-24 17:31:32.833995,2024-02-24 17:31:34.027889,FF013.jpg,0,10898,40-69,2024-02-24_17h27.10.353,Recall,2021.2.3,59.96027025973456,
,L_SD502.jpg,1,L_MF502.jpg,1,,,,,0,78,78,91,imgFunc,9,NA,7.045691400067881,292.1624185000546,299.319157169899,2024-02-24 17:31:34.034872,2024-02-24 17:31:41.182842,L_MF502.jpg,1,10898,40-69,2024-02-24_17h27.10.353,Recall,2021.2.3,59.96027025973456,
,L_DD502.jpg,1,L_FF502.jpg,1,,,,,0,79,79,41,imgFunc,9,NA,1.264346200041473,299.31159230018966,300.67521047010086,2024-02-24 17:31:41.192839,2024-02-24 17:31:42.549842,L_FF502.jpg,1,10898,40-69,2024-02-24_17h27.10.353,Recall,2021.2.3,59.96027025973456,
,L_DD507.jpg,1,L_FF507.jpg,1,,,,,0,80,80,46,imgFunc,9,NA,2.4734902000054717,300.6785828000866,303.2479795701802,2024-02-24 17:31:42.557793,2024-02-24 17:31:45.118755,L_FF507.jpg,1,10898,40-69,2024-02-24_17h27.10.353,Recall,2021.2.3,59.96027025973456,
,DD015.jpg,0,FF015.jpg,0,,,,,0,81,81,14,imgFunc,9,NA,2.1635494001675397,303.24459100002423,305.4974251703825,2024-02-24 17:31:45.126726,2024-02-24 17:31:47.370769,FF015.jpg,0,10898,40-69,2024-02-24_17h27.10.353,Recall,2021.2.3,59.96027025973456,
,DD004.jpg,0,FF004.jpg,0,,,,,0,82,82,3,imgFunc,0,NA,1.2243246000725776,305.51975910016336,306.8606096699368,2024-02-24 17:31:47.383736,2024-02-24 17:31:48.721579,FF004.jpg,0,10898,40-69,2024-02-24_17h27.10.353,Recall,2021.2.3,59.96027025973456,
,DD032.jpg,0,FF032.jpg,0,,,,,0,83,83,31,imgFunc,0,NA,0.8328964998945594,306.8553422000259,307.7904550700914,2024-02-24 17:31:48.729560,2024-02-24 17:31:49.655650,FF032.jpg,0,10898,40-69,2024-02-24_17h27.10.353,Recall,2021.2.3,59.96027025973456,
,L_SD503.jpg,1,L_MF503.jpg,1,,,,,0,84,84,92,imgFunc,9,NA,2.158941000001505,307.7850768000353,310.0372655701358,2024-02-24 17:31:49.663370,2024-02-24 17:31:51.907112,L_MF503.jpg,1,10898,40-69,2024-02-24_17h27.10.353,Recall,2021.2.3,59.96027025973456,
,SD039.jpg,0,MF039.jpg,0,,,,,0,85,85,88,imgFunc,9,NA,1.2349715998861939,310.029266100144,311.36506427032873,2024-02-24 17:31:51.914094,2024-02-24 17:31:53.241496,MF039.jpg,0,10898,40-69,2024-02-24_17h27.10.353,Recall,2021.2.3,59.96027025973456,
,DD027.jpg,0,FF027.jpg,0,,,,,0,86,86,26,imgFunc,9,NA,3.5184801002033055,311.3697989000939,314.9903522701934,2024-02-24 17:31:53.248480,2024-02-24 17:31:56.860782,FF027.jpg,0,10898,40-69,2024-02-24_17h27.10.353,Recall,2021.2.3,59.96027025973456,
,SD007.jpg,0,MF007.jpg,0,,,,,0,87,87,56,imgFunc,0,NA,1.8706182001624256,315.0016966999974,316.9734286700841,2024-02-24 17:31:56.875744,2024-02-24 17:31:58.845543,MF007.jpg,0,10898,40-69,2024-02-24_17h27.10.353,Recall,2021.2.3,59.96027025973456,
,SD024.jpg,0,MF024.jpg,0,,,,,0,88,88,73,imgFunc,0,NA,1.8332541000563651,316.9750726001803,318.90964837023057,2024-02-24 17:31:58.853523,2024-02-24 17:32:00.780233,MF024.jpg,0,10898,40-69,2024-02-24_17h27.10.353,Recall,2021.2.3,59.96027025973456,
,L_DD509.jpg,1,L_FF509.jpg,1,,,,,0,89,89,48,imgFunc,0,NA,2.129811500199139,318.9023047001101,321.12200117018074,2024-02-24 17:32:00.787216,2024-02-24 17:32:02.998595,L_FF509.jpg,1,10898,40-69,2024-02-24_17h27.10.353,Recall,2021.2.3,59.96027025973456,
,DD006.jpg,0,FF006.jpg,0,,,,,0,90,90,5,imgFunc,0,NA,2.8267081000376493,321.12541600014083,324.04573827027343,2024-02-24 17:32:03.005578,2024-02-24 17:32:05.917486,FF006.jpg,0,10898,40-69,2024-02-24_17h27.10.353,Recall,2021.2.3,59.96027025973456,
,L_DD503.jpg,1,L_FF503.jpg,1,,,,,0,91,91,42,imgFunc,0,NA,2.2461221001576632,324.057912300108,326.4107261702884,2024-02-24 17:32:05.924470,2024-02-24 17:32:08.269220,L_FF503.jpg,1,10898,40-69,2024-02-24_17h27.10.353,Recall,2021.2.3,59.96027025973456,
,SD004.jpg,0,MF004.jpg,0,,,,,0,92,92,53,imgFunc,0,NA,3.2447238001041114,326.39558290014975,329.7331725701224,2024-02-24 17:32:08.276203,2024-02-24 17:32:11.605186,MF004.jpg,0,10898,40-69,2024-02-24_17h27.10.353,Recall,2021.2.3,59.96027025973456,
,SD016.jpg,0,MF016.jpg,0,,,,,0,93,93,65,imgFunc,9,NA,1.2686225001234561,329.73140220018104,331.09937527030706,2024-02-24 17:32:11.612194,2024-02-24 17:32:12.972018,MF016.jpg,0,10898,40-69,2024-02-24_17h27.10.353,Recall,2021.2.3,59.96027025973456,
,DD040.jpg,0,FF040.jpg,0,,,,,0,94,94,39,imgFunc,9,NA,1.0077261000405997,331.0962076000869,332.19787727016956,2024-02-24 17:32:12.978998,2024-02-24 17:32:14.072884,FF040.jpg,0,10898,40-69,2024-02-24_17h27.10.353,Recall,2021.2.3,59.96027025973456,
,L_SD505.jpg,1,L_MF505.jpg,1,,,,,0,95,95,94,imgFunc,9,NA,0.7826735000126064,332.20163540006615,333.08752397005446,2024-02-24 17:32:14.079852,2024-02-24 17:32:14.957251,L_MF505.jpg,1,10898,40-69,2024-02-24_17h27.10.353,Recall,2021.2.3,59.96027025973456,
,DD030.jpg,0,FF030.jpg,0,,,,,0,96,96,29,imgFunc,0,NA,1.481880099978298,333.09432950010523,334.6680384702049,2024-02-24 17:32:14.971238,2024-02-24 17:32:16.541959,FF030.jpg,0,10898,40-69,2024-02-24_17h27.10.353,Recall,2021.2.3,59.96027025973456,
,SD036.jpg,0,MF036.jpg,0,,,,,0,97,97,85,imgFunc,0,NA,2.58869310002774,334.6676672999747,337.3545516701415,2024-02-24 17:32:16.548943,2024-02-24 17:32:19.226806,MF036.jpg,0,10898,40-69,2024-02-24_17h27.10.353,Recall,2021.2.3,59.96027025973456,
,DD022.jpg,0,FF022.jpg,0,,,,,0,98,98,21,imgFunc,0,NA,1.1923599999863654,337.35984240006655,338.6604697701987,2024-02-24 17:32:19.234809,2024-02-24 17:32:20.527783,FF022.jpg,0,10898,40-69,2024-02-24_17h27.10.353,Recall,2021.2.3,59.96027025973456,
,DD008.jpg,0,FF008.jpg,0,,,,,0,99,99,7,imgFunc,9,NA,3.450042099924758,338.66221510013565,342.2159369701985,2024-02-24 17:32:20.534767,2024-02-24 17:32:24.080208,FF008.jpg,0,10898,40-69,2024-02-24_17h27.10.353,Recall,2021.2.3,59.96027025973456,
,,,,,,,,,,,,,instrFunc,space,"Great work! 

 Now you will switch to the other image type.

 Press the spacebar whenever you are ready to start.",3.693449900019914,342.13865440012887,345.87174417008646,2024-02-24 17:32:24.081208,2024-02-24 17:32:27.798470,,,10898,40-69,2024-02-24_17h27.10.353,Recall,2021.2.3,59.96027025973456,
,DD008.jpg,0,FF008.jpg,0,,,,,0,0,0,7,imgFunc,0,NA,8.452678499976173,345.9395266000647,354.4715688400902,2024-02-24 17:32:27.827394,2024-02-24 17:32:36.356370,DD008.jpg,0,10898,40-69,2024-02-24_17h27.10.353,Recall,2021.2.3,59.96027025973456,
,DD003.jpg,0,FF003.jpg,0,,,,,0,1,1,2,imgFunc,0,NA,5.433177699800581,354.4949624000583,360.0294085701462,2024-02-24 17:32:36.365347,2024-02-24 17:32:41.893277,DD003.jpg,0,10898,40-69,2024-02-24_17h27.10.353,Recall,2021.2.3,59.96027025973456,
,SD003.jpg,0,MF003.jpg,0,,,,,0,2,2,52,imgFunc,9,NA,0.9178372998721898,360.0182108001318,361.03316406998783,2024-02-24 17:32:41.902254,2024-02-24 17:32:42.910515,SD003.jpg,0,10898,40-69,2024-02-24_17h27.10.353,Recall,2021.2.3,59.96027025973456,
,DD012.jpg,0,FF012.jpg,0,,,,,0,3,3,11,imgFunc,0,NA,1.5597977000288665,361.0324260999914,362.67587407003157,2024-02-24 17:32:42.922513,2024-02-24 17:32:44.561734,DD012.jpg,0,10898,40-69,2024-02-24_17h27.10.353,Recall,2021.2.3,59.96027025973456,
,SD017.jpg,0,MF017.jpg,0,,,,,0,4,4,66,imgFunc,0,NA,3.7536834999918938,362.6784346001223,366.5165241700597,2024-02-24 17:32:44.568716,2024-02-24 17:32:48.397958,SD017.jpg,0,10898,40-69,2024-02-24_17h27.10.353,Recall,2021.2.3,59.96027025973456,
,DD013.jpg,0,FF013.jpg,0,,,,,0,5,5,12,imgFunc,0,NA,5.59753379994072,366.5147946001962,372.20369097031653,2024-02-24 17:32:48.404941,2024-02-24 17:32:54.085459,DD013.jpg,0,10898,40-69,2024-02-24_17h27.10.353,Recall,2021.2.3,59.96027025973456,
,L_DD509.jpg,1,L_FF509.jpg,1,,,,,0,6,6,48,imgFunc,9,NA,2.1436233001295477,372.21668549999595,374.4667310700752,2024-02-24 17:32:54.094437,2024-02-24 17:32:56.337078,L_DD509.jpg,1,10898,40-69,2024-02-24_17h27.10.353,Recall,2021.2.3,59.96027025973456,
,SD024.jpg,0,MF024.jpg,0,,,,,0,7,7,73,imgFunc,9,NA,0.9178654998540878,374.4664725000039,375.48533196980134,2024-02-24 17:32:56.344061,2024-02-24 17:32:57.354263,SD024.jpg,0,10898,40-69,2024-02-24_17h27.10.353,Recall,2021.2.3,59.96027025973456,
,DD040.jpg,0,FF040.jpg,0,,,,,0,8,8,39,imgFunc,9,NA,0.9094316998962313,375.4828659000341,376.4997551701963,2024-02-24 17:32:57.362244,2024-02-24 17:32:58.371637,DD040.jpg,0,10898,40-69,2024-02-24_17h27.10.353,Recall,2021.2.3,59.96027025973456,
,L_SD503.jpg,1,L_MF503.jpg,1,,,,,0,9,9,92,imgFunc,0,NA,1.367371200118214,376.49691410013475,377.96663027023897,2024-02-24 17:32:58.378620,2024-02-24 17:32:59.839526,L_SD503.jpg,1,10898,40-69,2024-02-24_17h27.10.353,Recall,2021.2.3,59.96027025973456,
,L_SD504.jpg,1,L_MF504.jpg,1,,,,,0,10,10,93,imgFunc,9,NA,3.5251125001814216,377.9632161001209,381.5842538701836,2024-02-24 17:32:59.846509,2024-02-24 17:33:03.458737,L_SD504.jpg,1,10898,40-69,2024-02-24_17h27.10.353,Recall,2021.2.3,59.96027025973456,
,SD009.jpg,0,MF009.jpg,0,,,,,0,11,11,58,imgFunc,0,NA,2.6367761997971684,381.5795864001848,384.31558127049357,2024-02-24 17:33:03.466741,2024-02-24 17:33:06.193968,SD009.jpg,0,10898,40-69,2024-02-24_17h27.10.353,Recall,2021.2.3,59.96027025973456,
,SD001.jpg,0,MF001.jpg,0,,,,,0,12,12,50,imgFunc,9,NA,1.024235999910161,384.31996290013194,385.42777867033146,2024-02-24 17:33:06.206935,2024-02-24 17:33:07.311782,SD001.jpg,0,10898,40-69,2024-02-24_17h27.10.353,Recall,2021.2.3,59.96027025973456,
,DD016.jpg,0,FF016.jpg,0,,,,,0,13,13,15,imgFunc,0,NA,1.4800015999935567,385.44039790006354,387.02655877009965,2024-02-24 17:33:07.318765,2024-02-24 17:33:08.896108,DD016.jpg,0,10898,40-69,2024-02-24_17h27.10.353,Recall,2021.2.3,59.96027025973456,
,SD012.jpg,0,MF012.jpg,0,,,,,0,14,14,61,imgFunc,0,NA,1.3831593999639153,387.01703680003993,388.48652587016113,2024-02-24 17:33:08.903092,2024-02-24 17:33:10.363752,SD012.jpg,0,10898,40-69,2024-02-24_17h27.10.353,Recall,2021.2.3,59.96027025973456,
,DD025.jpg,0,FF025.jpg,0,,,,,0,15,15,24,imgFunc,0,NA,2.9688194999471307,388.47925840015523,391.5332024700474,2024-02-24 17:33:10.370735,2024-02-24 17:33:13.415936,DD025.jpg,0,10898,40-69,2024-02-24_17h27.10.353,Recall,2021.2.3,59.96027025973456,
,L_SD508.jpg,1,L_MF508.jpg,1,,,,,0,16,16,97,imgFunc,9,NA,1.5470457000192255,391.5332601000555,393.1694035702385,2024-02-24 17:33:13.422919,2024-02-24 17:33:15.050294,L_SD508.jpg,1,10898,40-69,2024-02-24_17h27.10.353,Recall,2021.2.3,59.96027025973456,
,SD028.jpg,0,MF028.jpg,0,,,,,0,17,17,77,imgFunc,0,NA,2.485655799973756,393.17860850016586,395.75011727027595,2024-02-24 17:33:15.065256,2024-02-24 17:33:17.635384,SD028.jpg,0,10898,40-69,2024-02-24_17h27.10.353,Recall,2021.2.3,59.96027025973456,
,DD022.jpg,0,FF022.jpg,0,,,,,0,18,18,21,imgFunc,9,NA,2.7464301998261362,395.7581262001768,398.59452937031165,2024-02-24 17:33:17.643364,2024-02-24 17:33:20.471136,DD022.jpg,0,10898,40-69,2024-02-24_17h27.10.353,Recall,2021.2.3,59.96027025973456,
,SD027.jpg,0,MF027.jpg,0,,,,,0,19,19,76,imgFunc,0,NA,2.0702061001211405,398.5941842000466,400.7618847701233,2024-02-24 17:33:20.479116,2024-02-24 17:33:22.639132,SD027.jpg,0,10898,40-69,2024-02-24_17h27.10.353,Recall,2021.2.3,59.96027025973456,
,DD024.jpg,0,FF024.jpg,0,,,,,0,20,20,23,imgFunc,9,NA,1.0690381000749767,400.75531080015935,401.9078053701669,2024-02-24 17:33:22.646122,2024-02-24 17:33:23.790192,DD024.jpg,0,10898,40-69,2024-02-24_17h27.10.353,Recall,2021.2.3,59.96027025973456,
,SD034.jpg,0,MF034.jpg,0,,,,,0,21,21,83,imgFunc,0,NA,1.161179999820888,401.91917970008217,403.188196670264,2024-02-24 17:33:23.797175,2024-02-24 17:33:25.057539,SD034.jpg,0,10898,40-69,2024-02-24_17h27.10.353,Recall,2021.2.3,59.96027025973456,
,DD033.jpg,0,FF033.jpg,0,,,,,0,22,22,32,imgFunc,9,NA,2.12223540013656,403.1898992001079,405.395365470089,2024-02-24 17:33:25.071504,2024-02-24 17:33:27.275868,DD033.jpg,0,10898,40-69,2024-02-24_17h27.10.353,Recall,2021.2.3,59.96027025973456,
,SD005.jpg,0,MF005.jpg,0,,,,,0,23,23,54,imgFunc,0,NA,1.6481308999937028,405.39991939999163,407.1503382702358,2024-02-24 17:33:27.283848,2024-02-24 17:33:29.027106,SD005.jpg,0,10898,40-69,2024-02-24_17h27.10.353,Recall,2021.2.3,59.96027025973456,
,DD036.jpg,0,FF036.jpg,0,,,,,0,24,24,35,imgFunc,9,NA,2.121157099958509,407.15113720018417,409.37084957025945,2024-02-24 17:33:29.034112,2024-02-24 17:33:31.245326,DD036.jpg,0,10898,40-69,2024-02-24_17h27.10.353,Recall,2021.2.3,59.96027025973456,
,DD015.jpg,0,FF015.jpg,0,,,,,0,25,25,14,imgFunc,9,NA,1.0599559000693262,409.37230759998783,410.52476247004233,2024-02-24 17:33:31.252272,2024-02-24 17:33:32.396250,DD015.jpg,0,10898,40-69,2024-02-24_17h27.10.353,Recall,2021.2.3,59.96027025973456,
,SD021.jpg,0,MF021.jpg,0,,,,,0,26,26,70,imgFunc,0,NA,3.8114700000733137,410.5245503000915,414.44527367013507,2024-02-24 17:33:32.403233,2024-02-24 17:33:36.315799,SD021.jpg,0,10898,40-69,2024-02-24_17h27.10.353,Recall,2021.2.3,59.96027025973456,
,SD019.jpg,0,MF019.jpg,0,,,,,0,27,27,68,imgFunc,9,NA,2.000503099989146,414.4397986000404,416.5429742699489,2024-02-24 17:33:36.322782,2024-02-24 17:33:38.416978,SD019.jpg,0,10898,40-69,2024-02-24_17h27.10.353,Recall,2021.2.3,59.96027025973456,
,SD008.jpg,0,MF008.jpg,0,,,,,0,28,28,57,imgFunc,9,NA,2.7342637998517603,416.5380160000641,419.35861266986467,2024-02-24 17:33:38.423961,2024-02-24 17:33:41.235960,SD008.jpg,0,10898,40-69,2024-02-24_17h27.10.353,Recall,2021.2.3,59.96027025973456,
,DD004.jpg,0,FF004.jpg,0,,,,,0,29,29,3,imgFunc,9,NA,0.7978296000510454,419.36218230007216,420.26372647006065,2024-02-24 17:33:41.242943,2024-02-24 17:33:42.136078,DD004.jpg,0,10898,40-69,2024-02-24_17h27.10.353,Recall,2021.2.3,59.96027025973456,
,SD023.jpg,0,MF023.jpg,0,,,,,0,30,30,72,imgFunc,0,NA,2.0077975001186132,420.26443520002067,422.36794957029633,2024-02-24 17:33:42.143064,2024-02-24 17:33:44.238282,SD023.jpg,0,10898,40-69,2024-02-24_17h27.10.353,Recall,2021.2.3,59.96027025973456,
,L_DD502.jpg,1,L_FF502.jpg,1,,,,,0,31,31,41,imgFunc,9,NA,1.4526245000306517,422.3636740001384,423.9046942698769,2024-02-24 17:33:44.251249,2024-02-24 17:33:45.789082,L_DD502.jpg,1,10898,40-69,2024-02-24_17h27.10.353,Recall,2021.2.3,59.96027025973456,
,SD004.jpg,0,MF004.jpg,0,,,,,0,32,32,53,imgFunc,9,NA,2.2672347999177873,423.90116600017063,426.2546209702268,2024-02-24 17:33:45.796065,2024-02-24 17:33:48.140762,SD004.jpg,0,10898,40-69,2024-02-24_17h27.10.353,Recall,2021.2.3,59.96027025973456,
,L_SD506.jpg,1,L_MF506.jpg,1,,,,,0,33,33,95,imgFunc,9,NA,3.923576599918306,426.26856920006685,430.28993707033806,2024-02-24 17:33:48.147745,2024-02-24 17:33:52.160472,L_SD506.jpg,1,10898,40-69,2024-02-24_17h27.10.353,Recall,2021.2.3,59.96027025973456,
,DD002.jpg,0,FF002.jpg,0,,,,,0,34,34,1,imgFunc,9,NA,1.4346976999659091,430.2857188000344,431.82137927017175,2024-02-24 17:33:52.167455,2024-02-24 17:33:53.694759,DD002.jpg,0,10898,40-69,2024-02-24_17h27.10.353,Recall,2021.2.3,59.96027025973456,
,SD026.jpg,0,MF026.jpg,0,,,,,0,35,35,75,imgFunc,0,NA,1.3539794001262635,431.8223834000528,433.2748143703211,2024-02-24 17:33:53.701742,2024-02-24 17:33:55.145663,SD026.jpg,0,10898,40-69,2024-02-24_17h27.10.353,Recall,2021.2.3,59.96027025973456,
,SD020.jpg,0,MF020.jpg,0,,,,,0,36,36,69,imgFunc,9,NA,0.9294841999653727,433.2947966000065,434.3312047701329,2024-02-24 17:33:55.160647,2024-02-24 17:33:56.196374,SD020.jpg,0,10898,40-69,2024-02-24_17h27.10.353,Recall,2021.2.3,59.96027025973456,
,L_SD507.jpg,1,L_MF507.jpg,1,,,,,0,37,37,96,imgFunc,9,NA,1.3952954998239875,434.3170945001766,435.80366707011126,2024-02-24 17:33:56.203357,2024-02-24 17:33:57.681005,L_SD507.jpg,1,10898,40-69,2024-02-24_17h27.10.353,Recall,2021.2.3,59.96027025973456,
,DD035.jpg,0,FF035.jpg,0,,,,,0,38,38,34,imgFunc,9,NA,0.97042699996382,435.79788890015334,436.85015197005123,2024-02-24 17:33:57.687988,2024-02-24 17:33:58.731416,DD035.jpg,0,10898,40-69,2024-02-24_17h27.10.353,Recall,2021.2.3,59.96027025973456,
,DD001.jpg,0,FF001.jpg,0,,,,,0,39,39,0,imgFunc,9,NA,1.0600020000711083,436.8524055001326,438.004317170009,2024-02-24 17:33:58.739423,2024-02-24 17:33:59.882536,DD001.jpg,0,10898,40-69,2024-02-24_17h27.10.353,Recall,2021.2.3,59.96027025973456,
,SD007.jpg,0,MF007.jpg,0,,,,,0,40,40,56,imgFunc,9,NA,0.9894327002111822,438.0108053002041,439.0966362701729,2024-02-24 17:33:59.889520,2024-02-24 17:34:00.966803,SD007.jpg,0,10898,40-69,2024-02-24_17h27.10.353,Recall,2021.2.3,59.96027025973456,
,L_DD505.jpg,1,L_FF505.jpg,1,,,,,0,41,41,44,imgFunc,9,NA,1.0006203998345882,439.0957254001405,440.18258826993406,2024-02-24 17:34:00.981765,2024-02-24 17:34:02.067466,L_DD505.jpg,1,10898,40-69,2024-02-24_17h27.10.353,Recall,2021.2.3,59.96027025973456,
,DD005.jpg,0,FF005.jpg,0,,,,,0,42,42,4,imgFunc,0,NA,1.1125821000896394,440.19160750019364,441.39427997055463,2024-02-24 17:34:02.074449,2024-02-24 17:34:03.268505,DD005.jpg,0,10898,40-69,2024-02-24_17h27.10.353,Recall,2021.2.3,59.96027025973456,
,SD010.jpg,0,MF010.jpg,0,,,,,0,43,43,59,imgFunc,9,NA,0.8372295000590384,441.38695490011014,442.32243637018837,2024-02-24 17:34:03.275488,2024-02-24 17:34:04.202352,SD010.jpg,0,10898,40-69,2024-02-24_17h27.10.353,Recall,2021.2.3,59.96027025973456,
,SD035.jpg,0,MF035.jpg,0,,,,,0,44,44,84,imgFunc,9,NA,1.0476355000864714,442.32042080000974,443.4563741700258,2024-02-24 17:34:04.209336,2024-02-24 17:34:05.336814,SD035.jpg,0,10898,40-69,2024-02-24_17h27.10.353,Recall,2021.2.3,59.96027025973456,
,L_DD507.jpg,1,L_FF507.jpg,1,,,,,0,45,45,46,imgFunc,9,NA,0.9346034000627697,443.4657793000806,444.5013230701443,2024-02-24 17:34:05.343797,2024-02-24 17:34:06.370560,L_DD507.jpg,1,10898,40-69,2024-02-24_17h27.10.353,Recall,2021.2.3,59.96027025973456,
,DD038.jpg,0,FF038.jpg,0,,,,,0,46,46,37,imgFunc,0,NA,1.3830891998950392,444.4895353000611,445.95954037015326,2024-02-24 17:34:06.377543,2024-02-24 17:34:07.838850,DD038.jpg,0,10898,40-69,2024-02-24_17h27.10.353,Recall,2021.2.3,59.96027025973456,
,DD009.jpg,0,FF009.jpg,0,,,,,0,47,47,8,imgFunc,9,NA,0.7358784000389278,445.9601122001186,446.7942852701526,2024-02-24 17:34:07.845865,2024-02-24 17:34:08.671903,DD009.jpg,0,10898,40-69,2024-02-24_17h27.10.353,Recall,2021.2.3,59.96027025973456,
,L_SD505.jpg,1,L_MF505.jpg,1,,,,,0,48,48,94,imgFunc,0,NA,1.8543273999821395,446.810092800064,448.7801083698869,2024-02-24 17:34:08.678862,2024-02-24 17:34:10.640425,L_SD505.jpg,1,10898,40-69,2024-02-24_17h27.10.353,Recall,2021.2.3,59.96027025973456,
,SD040.jpg,0,MF040.jpg,0,,,,,0,49,49,89,imgFunc,9,NA,1.5674130998086184,448.76904480019584,450.4366404705215,2024-02-24 17:34:10.648405,2024-02-24 17:34:12.307365,SD040.jpg,0,10898,40-69,2024-02-24_17h27.10.353,Recall,2021.2.3,59.96027025973456,
,L_SD501.jpg,1,L_MF501.jpg,1,,,,,0,50,50,90,imgFunc,0,NA,2.0166422000620514,450.43169830017723,452.539594670292,2024-02-24 17:34:12.321301,2024-02-24 17:34:14.426369,L_SD501.jpg,1,10898,40-69,2024-02-24_17h27.10.353,Recall,2021.2.3,59.96027025973456,
,SD025.jpg,0,MF025.jpg,0,,,,,0,51,51,74,imgFunc,9,NA,1.0918624999467283,452.54073120001704,453.7266792701557,2024-02-24 17:34:14.433352,2024-02-24 17:34:15.610556,SD025.jpg,0,10898,40-69,2024-02-24_17h27.10.353,Recall,2021.2.3,59.96027025973456,
,SD018.jpg,0,MF018.jpg,0,,,,,0,52,52,67,imgFunc,9,NA,1.665706800064072,453.72659060009755,455.4793635699898,2024-02-24 17:34:15.617539,2024-02-24 17:34:17.361729,SD018.jpg,0,10898,40-69,2024-02-24_17h27.10.353,Recall,2021.2.3,59.96027025973456,
,L_DD504.jpg,1,L_FF504.jpg,1,,,,,0,53,53,43,imgFunc,9,NA,0.9859678999055177,455.48637529998086,456.5724108701106,2024-02-24 17:34:17.368712,2024-02-24 17:34:18.445997,L_DD504.jpg,1,10898,40-69,2024-02-24_17h27.10.353,Recall,2021.2.3,59.96027025973456,
,SD030.jpg,0,MF030.jpg,0,,,,,0,54,54,79,imgFunc,0,NA,1.5620915999170393,456.5743450000882,458.2432652702555,2024-02-24 17:34:18.453002,2024-02-24 17:34:20.113776,SD030.jpg,0,10898,40-69,2024-02-24_17h27.10.353,Recall,2021.2.3,59.96027025973456,
,DD027.jpg,0,FF027.jpg,0,,,,,0,55,55,26,imgFunc,9,NA,0.782106899889186,458.24191160011105,459.11306157009676,2024-02-24 17:34:20.127741,2024-02-24 17:34:20.997368,DD027.jpg,0,10898,40-69,2024-02-24_17h27.10.353,Recall,2021.2.3,59.96027025973456,
,DD020.jpg,0,FF020.jpg,0,,,,,0,56,56,19,imgFunc,9,NA,1.0219654000829905,459.1224034000188,460.24178206990473,2024-02-24 17:34:21.004355,2024-02-24 17:34:22.115235,DD020.jpg,0,10898,40-69,2024-02-24_17h27.10.353,Recall,2021.2.3,59.96027025973456,
,L_DD508.jpg,1,L_FF508.jpg,1,,,,,0,57,57,47,imgFunc,9,NA,0.9607247998937964,460.2316550000105,461.28401657007635,2024-02-24 17:34:22.122218,2024-02-24 17:34:23.165989,L_DD508.jpg,1,10898,40-69,2024-02-24_17h27.10.353,Recall,2021.2.3,59.96027025973456,
,SD014.jpg,0,MF014.jpg,0,,,,,0,58,58,63,imgFunc,0,NA,2.7968133001122624,461.28338310006075,464.1704236702062,2024-02-24 17:34:23.172973,2024-02-24 17:34:26.051403,SD014.jpg,0,10898,40-69,2024-02-24_17h27.10.353,Recall,2021.2.3,59.96027025973456,
,DD019.jpg,0,FF019.jpg,0,,,,,0,59,59,18,imgFunc,0,NA,1.3463623998686671,464.17391830007546,465.6097872699611,2024-02-24 17:34:26.058386,2024-02-24 17:34:27.485809,DD019.jpg,0,10898,40-69,2024-02-24_17h27.10.353,Recall,2021.2.3,59.96027025973456,
,DD032.jpg,0,FF032.jpg,0,,,,,0,60,60,31,imgFunc,9,NA,0.8705458999611437,465.61759000015445,466.5714154704474,2024-02-24 17:34:27.500698,2024-02-24 17:34:28.453191,DD032.jpg,0,10898,40-69,2024-02-24_17h27.10.353,Recall,2021.2.3,59.96027025973456,
,DD017.jpg,0,FF017.jpg,0,,,,,0,61,61,16,imgFunc,0,NA,1.1874289000406861,466.58093900000677,467.86698387004435,2024-02-24 17:34:28.460173,2024-02-24 17:34:29.737236,DD017.jpg,0,10898,40-69,2024-02-24_17h27.10.353,Recall,2021.2.3,59.96027025973456,
,DD006.jpg,0,FF006.jpg,0,,,,,0,62,62,5,imgFunc,0,NA,3.60646910010837,467.8575834000949,471.5620188701432,2024-02-24 17:34:29.744220,2024-02-24 17:34:33.440025,DD006.jpg,0,10898,40-69,2024-02-24_17h27.10.353,Recall,2021.2.3,59.96027025973456,
,DD034.jpg,0,FF034.jpg,0,,,,,0,63,63,33,imgFunc,9,NA,0.9287651998456568,471.5596347001847,472.57787817018107,2024-02-24 17:34:33.448006,2024-02-24 17:34:34.457309,DD034.jpg,0,10898,40-69,2024-02-24_17h27.10.353,Recall,2021.2.3,59.96027025973456,
,SD022.jpg,0,MF022.jpg,0,,,,,0,64,64,71,imgFunc,0,NA,1.0819415000732988,472.59008070011623,473.77575306990184,2024-02-24 17:34:34.464293,2024-02-24 17:34:35.640959,SD022.jpg,0,10898,40-69,2024-02-24_17h27.10.353,Recall,2021.2.3,59.96027025973456,
,SD006.jpg,0,MF006.jpg,0,,,,,0,65,65,55,imgFunc,9,NA,1.1053570001386106,473.76680470001884,474.969624069985,2024-02-24 17:34:35.647913,2024-02-24 17:34:36.842322,SD006.jpg,0,10898,40-69,2024-02-24_17h27.10.353,Recall,2021.2.3,59.96027025973456,
,SD011.jpg,0,MF011.jpg,0,,,,,0,66,66,60,imgFunc,0,NA,1.133814999833703,474.96236920007505,476.19864627020434,2024-02-24 17:34:36.849305,2024-02-24 17:34:38.076754,SD011.jpg,0,10898,40-69,2024-02-24_17h27.10.353,Recall,2021.2.3,59.96027025973456,
,L_SD502.jpg,1,L_MF502.jpg,1,,,,,0,67,67,91,imgFunc,9,NA,0.9251001998782158,476.1952109001577,477.2144609701354,2024-02-24 17:34:38.083737,2024-02-24 17:34:39.094269,L_SD502.jpg,1,10898,40-69,2024-02-24_17h27.10.353,Recall,2021.2.3,59.96027025973456,
,DD026.jpg,0,FF026.jpg,0,,,,,0,68,68,25,imgFunc,0,NA,1.2723133000545204,477.21612250013277,478.58543667010963,2024-02-24 17:34:39.101253,2024-02-24 17:34:40.461909,DD026.jpg,0,10898,40-69,2024-02-24_17h27.10.353,Recall,2021.2.3,59.96027025973456,
,SD031.jpg,0,MF031.jpg,0,,,,,0,69,69,80,imgFunc,0,NA,1.8054547000210732,478.5865849000402,480.47533117001876,2024-02-24 17:34:40.475907,2024-02-24 17:34:42.363093,SD031.jpg,0,10898,40-69,2024-02-24_17h27.10.353,Recall,2021.2.3,59.96027025973456,
,SD013.jpg,0,MF013.jpg,0,,,,,0,70,70,62,imgFunc,0,NA,0.9742350000888109,480.48179590003565,481.55072506982833,2024-02-24 17:34:42.370101,2024-02-24 17:34:43.430308,SD013.jpg,0,10898,40-69,2024-02-24_17h27.10.353,Recall,2021.2.3,59.96027025973456,
,SD015.jpg,0,MF015.jpg,0,,,,,0,71,71,64,imgFunc,9,NA,0.8466557001229376,481.5457717999816,482.48167567001656,2024-02-24 17:34:43.437288,2024-02-24 17:34:44.364477,SD015.jpg,0,10898,40-69,2024-02-24_17h27.10.353,Recall,2021.2.3,59.96027025973456,
,DD021.jpg,0,FF021.jpg,0,,,,,0,72,72,20,imgFunc,9,NA,1.0708325000014156,482.481288400013,483.65027757012285,2024-02-24 17:34:44.371459,2024-02-24 17:34:45.531890,DD021.jpg,0,10898,40-69,2024-02-24_17h27.10.353,Recall,2021.2.3,59.96027025973456,
,DD037.jpg,0,FF037.jpg,0,,,,,0,73,73,36,imgFunc,0,NA,1.002531100064516,483.6615946001839,484.7644896705169,2024-02-24 17:34:45.538892,2024-02-24 17:34:46.633269,DD037.jpg,0,10898,40-69,2024-02-24_17h27.10.353,Recall,2021.2.3,59.96027025973456,
,L_DD510.jpg,1,L_FF510.jpg,1,,,,,0,74,74,49,imgFunc,9,NA,0.9309020999353379,484.7732241000049,485.8110119700432,2024-02-24 17:34:46.647234,2024-02-24 17:34:47.683847,L_DD510.jpg,1,10898,40-69,2024-02-24_17h27.10.353,Recall,2021.2.3,59.96027025973456,
,SD033.jpg,0,MF033.jpg,0,,,,,0,75,75,82,imgFunc,9,NA,1.4667686000466347,485.8054182000924,487.3740138700232,2024-02-24 17:34:47.690848,2024-02-24 17:34:49.251204,SD033.jpg,0,10898,40-69,2024-02-24_17h27.10.353,Recall,2021.2.3,59.96027025973456,
,SD039.jpg,0,MF039.jpg,0,,,,,0,76,76,88,imgFunc,9,NA,1.1271226999815553,487.36932500009425,488.5890576702077,2024-02-24 17:34:49.258187,2024-02-24 17:34:50.469018,SD039.jpg,0,10898,40-69,2024-02-24_17h27.10.353,Recall,2021.2.3,59.96027025973456,
,DD028.jpg,0,FF028.jpg,0,,,,,0,77,77,27,imgFunc,9,NA,0.8793721999973059,488.58508830005303,489.5536256704945,2024-02-24 17:34:50.476001,2024-02-24 17:34:51.436323,DD028.jpg,0,10898,40-69,2024-02-24_17h27.10.353,Recall,2021.2.3,59.96027025973456,
,SD038.jpg,0,MF038.jpg,0,,,,,0,78,78,87,imgFunc,0,NA,1.3697657999582589,489.5585958000738,491.0272266701795,2024-02-24 17:34:51.444325,2024-02-24 17:34:52.904151,SD038.jpg,0,10898,40-69,2024-02-24_17h27.10.353,Recall,2021.2.3,59.96027025973456,
,SD036.jpg,0,MF036.jpg,0,,,,,0,79,79,85,imgFunc,9,NA,1.9301797999069095,491.03818870009854,493.06057227007113,2024-02-24 17:34:52.918115,2024-02-24 17:34:54.938928,SD036.jpg,0,10898,40-69,2024-02-24_17h27.10.353,Recall,2021.2.3,59.96027025973456,
,DD039.jpg,0,FF039.jpg,0,,,,,0,80,80,38,imgFunc,9,NA,1.179538399912417,493.06079700007103,494.3291768699419,2024-02-24 17:34:54.946908,2024-02-24 17:34:56.206607,DD039.jpg,0,10898,40-69,2024-02-24_17h27.10.353,Recall,2021.2.3,59.96027025973456,
,L_DD503.jpg,1,L_FF503.jpg,1,,,,,0,81,81,42,imgFunc,9,NA,0.8415995000395924,494.32673530001193,495.2626105702948,2024-02-24 17:34:56.213590,2024-02-24 17:34:57.140575,L_DD503.jpg,1,10898,40-69,2024-02-24_17h27.10.353,Recall,2021.2.3,59.96027025973456,
,L_DD506.jpg,1,L_FF506.jpg,1,,,,,0,82,82,45,imgFunc,9,NA,1.1271601000335068,495.2651692000218,496.4841598700732,2024-02-24 17:34:57.147580,2024-02-24 17:34:58.358247,L_DD506.jpg,1,10898,40-69,2024-02-24_17h27.10.353,Recall,2021.2.3,59.96027025973456,
,DD010.jpg,0,FF010.jpg,0,,,,,0,83,83,9,imgFunc,9,NA,1.0631654998287559,496.4971310000401,497.6664360703435,2024-02-24 17:34:58.365229,2024-02-24 17:34:59.525531,DD010.jpg,0,10898,40-69,2024-02-24_17h27.10.353,Recall,2021.2.3,59.96027025973456,
,DD011.jpg,0,FF011.jpg,0,,,,,0,84,84,10,imgFunc,9,NA,0.8168397999834269,497.6474212000612,498.56626117019914,2024-02-24 17:34:59.532514,2024-02-24 17:35:00.442775,DD011.jpg,0,10898,40-69,2024-02-24_17h27.10.353,Recall,2021.2.3,59.96027025973456,
,L_DD501.jpg,1,L_FF501.jpg,1,,,,,0,85,85,40,imgFunc,9,NA,0.8052255001384765,498.5711756001692,499.4728076700121,2024-02-24 17:35:00.450756,2024-02-24 17:35:01.343668,L_DD501.jpg,1,10898,40-69,2024-02-24_17h27.10.353,Recall,2021.2.3,59.96027025973456,
,SD002.jpg,0,MF002.jpg,0,,,,,0,86,86,51,imgFunc,0,NA,1.2409556000493467,499.463341700146,500.79789207014255,2024-02-24 17:35:01.351649,2024-02-24 17:35:02.677708,SD002.jpg,0,10898,40-69,2024-02-24_17h27.10.353,Recall,2021.2.3,59.96027025973456,
,L_SD510.jpg,1,L_MF510.jpg,1,,,,,0,87,87,99,imgFunc,0,NA,1.269243499962613,500.80305980006233,502.1724167698994,2024-02-24 17:35:02.684692,2024-02-24 17:35:04.045389,L_SD510.jpg,1,10898,40-69,2024-02-24_17h27.10.353,Recall,2021.2.3,59.96027025973456,
,DD031.jpg,0,FF031.jpg,0,,,,,0,88,88,30,imgFunc,9,NA,0.8761887999717146,502.18016370013356,503.15483437036164,2024-02-24 17:35:04.058356,2024-02-24 17:35:05.029579,DD031.jpg,0,10898,40-69,2024-02-24_17h27.10.353,Recall,2021.2.3,59.96027025973456,
,DD030.jpg,0,FF030.jpg,0,,,,,0,89,89,29,imgFunc,9,NA,1.3486446000169963,503.1636364001315,504.6169292703271,2024-02-24 17:35:05.036562,2024-02-24 17:35:06.480898,DD030.jpg,0,10898,40-69,2024-02-24_17h27.10.353,Recall,2021.2.3,59.96027025973456,
,SD037.jpg,0,MF037.jpg,0,,,,,0,90,90,86,imgFunc,9,NA,1.9326109001412988,504.61181160015985,506.6477223702241,2024-02-24 17:35:06.487881,2024-02-24 17:35:08.515292,SD037.jpg,0,10898,40-69,2024-02-24_17h27.10.353,Recall,2021.2.3,59.96027025973456,
,SD032.jpg,0,MF032.jpg,0,,,,,0,91,91,81,imgFunc,9,NA,1.066350599983707,506.646054700017,507.81541917007416,2024-02-24 17:35:08.522275,2024-02-24 17:35:09.682839,SD032.jpg,0,10898,40-69,2024-02-24_17h27.10.353,Recall,2021.2.3,59.96027025973456,
,SD029.jpg,0,MF029.jpg,0,,,,,0,92,92,78,imgFunc,9,NA,1.3596954001113772,507.80847640009597,509.2616292703897,2024-02-24 17:35:09.689822,2024-02-24 17:35:11.134126,SD029.jpg,0,10898,40-69,2024-02-24_17h27.10.353,Recall,2021.2.3,59.96027025973456,
,DD014.jpg,0,FF014.jpg,0,,,,,0,93,93,13,imgFunc,9,NA,1.910193100105971,509.2658628001809,511.26785477041267,2024-02-24 17:35:11.150114,2024-02-24 17:35:13.151831,DD014.jpg,0,10898,40-69,2024-02-24_17h27.10.353,Recall,2021.2.3,59.96027025973456,
,L_SD509.jpg,1,L_MF509.jpg,1,,,,,0,94,94,98,imgFunc,9,NA,0.8949954998679459,511.2732924001757,512.2586547702085,2024-02-24 17:35:13.158837,2024-02-24 17:35:14.135344,L_SD509.jpg,1,10898,40-69,2024-02-24_17h27.10.353,Recall,2021.2.3,59.96027025973456,
,DD029.jpg,0,FF029.jpg,0,,,,,0,95,95,28,imgFunc,9,NA,0.8216207001823932,512.2584226999898,513.1772180700209,2024-02-24 17:35:14.143324,2024-02-24 17:35:15.053289,DD029.jpg,0,10898,40-69,2024-02-24_17h27.10.353,Recall,2021.2.3,59.96027025973456,
,DD023.jpg,0,FF023.jpg,0,,,,,0,96,96,22,imgFunc,9,NA,0.9823358999565244,513.1777405000757,514.2636091702152,2024-02-24 17:35:15.060272,2024-02-24 17:35:16.137660,DD023.jpg,0,10898,40-69,2024-02-24_17h27.10.353,Recall,2021.2.3,59.96027025973456,
,SD016.jpg,0,MF016.jpg,0,,,,,0,97,97,65,imgFunc,9,NA,3.9999943000730127,514.2802662001923,518.3987335704733,2024-02-24 17:35:16.145623,2024-02-24 17:35:20.257038,SD016.jpg,0,10898,40-69,2024-02-24_17h27.10.353,Recall,2021.2.3,59.96027025973456,
,DD018.jpg,0,FF018.jpg,0,,,,,0,98,98,17,imgFunc,9,NA,0.7000818999949843,518.3881839001551,519.173723570304,2024-02-24 17:35:20.272790,2024-02-24 17:35:21.057684,DD018.jpg,0,10898,40-69,2024-02-24_17h27.10.353,Recall,2021.2.3,59.96027025973456,
,DD007.jpg,0,FF007.jpg,0,,,,,0,99,99,6,imgFunc,9,NA,0.8491513000335544,519.1833081999794,520.1356574702077,2024-02-24 17:35:21.064667,2024-02-24 17:35:22.008329,DD007.jpg,0,10898,40-69,2024-02-24_17h27.10.353,Recall,2021.2.3,59.96027025973456,
