onset	duration	trial_type	rt	resp
0.0004045001696795225	0.6001030998304486	fixation_1	999	999
0.6005488999653608	3.0012529001105577	face	2.283607100136578	2
3.6018385000061244	0.6001030998304486	fixation_2	999	999
4.150639800122008	1.0162263000383973	feedback win	999	999
5.16686820005998	5.31724869995378	ITI	999	999
10.50096490001306	0.5993957000318915	fixation_1	999	999
11.100404500029981	3.0014148000627756	face	2.0332568001467735	1
14.101857400033623	0.5993957000318915	fixation_2	999	999
14.650566300144419	1.0165003000292927	feedback loss	999	999
15.667068700073287	1.1175951000768691	ITI	999	999
16.788153000175953	0.5954812997952104	fixation_1	999	999
17.383679199963808	3.001840200042352	face	2.283364900154993	2
20.385558400070295	0.5954812997952104	fixation_2	999	999
20.93341280007735	1.0000702999532223	feedback win	999	999
21.9334854001645	1.1177588999271393	ITI	999	999
23.05434040003456	0.5960933000314981	fixation_1	999	999
23.650480800075457	3.001300999894738	face	2.533065800089389	2
26.651821400038898	0.5960933000314981	fixation_2	999	999
27.20024500018917	1.000175999943167	feedback win	999	999
28.200423300033435	3.2158232999499887	ITI	999	999
31.419386900030077	0.5975572001188993	fixation_1	999	999
32.01699010003358	3.0328544001094997	face	3.0323783999774605	2
35.04987160000019	0.5975572001188993	fixation_2	999	999
35.60038010007702	1.000102600082755	feedback loss	999	999
36.60048510017805	5.316245199879631	ITI	999	999
41.91984060010873	0.5970693998970091	fixation_1	999	999
42.516958800144494	3.001400199951604	face	2.282836199970916	1
45.51839500013739	0.5970693998970091	fixation_2	999	999
46.06691320007667	1.0000704999547452	feedback loss	999	999
47.06698590004817	3.2158196000382304	ITI	999	999
50.28601440018974	0.6142723998054862	fixation_1	999	999
50.90033680014312	3.0004114999901503	face	2.5336710000410676	1
53.90078809997067	0.6142723998054862	fixation_2	999	999
54.4501184001565	1.0001970999874175	feedback win	999	999
55.45031760004349	3.216804000083357	ITI	999	999
58.67034210008569	0.6133709999267012	fixation_1	999	999
59.28378240019083	3.0010078998748213	face	2.532389299944043	2
62.284829600015655	0.6133709999267012	fixation_2	999	999
62.83352129999548	1.0166637999936938	feedback loss	999	999
63.85018760012463	1.1179565000347793	ITI	999	999
64.9714128000196	0.6123261000029743	fixation_1	999	999
65.58380730007775	3.0009123999625444	face	2.032429799903184	1
68.58476180001162	0.6123261000029743	fixation_2	999	999
69.13350360002369	1.0002133001107723	feedback win	999	999
70.13371900003403	1.117951299995184	ITI	999	999
71.25494420016184	0.5953507998492569	fixation_1	999	999
71.850345000159	3.0013851998373866	face	1.5323430998250842	1
74.85176720004529	0.5953507998492569	fixation_2	999	999
75.40012260014191	1.0001061998773366	feedback win	999	999
76.400231000036	1.1169799999333918	ITI	999	999
77.52050880016759	0.596378699876368	fixation_1	999	999
78.11694049998187	3.0018465002067387	face	1.7829617001116276	1
81.11882340000011	0.596378699876368	fixation_2	999	999
81.66692540002987	1.0000056000426412	feedback loss	999	999
82.66693309997208	3.2165587001945823	ITI	999	999
85.88683830015361	0.6134970998391509	fixation_1	999	999
86.50038910005242	3.0018955999985337	face	2.032403100049123	2
89.50232170009986	0.6134970998391509	fixation_2	999	999
90.05017650010996	1.000007800059393	feedback loss	999	999
91.05018670018762	1.1173842998687178	ITI	999	999
92.17085900017992	0.5958856998477131	fixation_1	999	999
92.76679900009185	3.002123999875039	face	2.7828961999621242	2
95.76895350008272	0.5958856998477131	fixation_2	999	999
96.31687290011905	1.000002000015229	feedback win	999	999
97.31687700003386	5.316044100094587	ITI	999	999
102.63629980012774	0.5973958999384195	fixation_1	999	999
103.23375110002235	3.0012622999493033	face	2.032757099950686	1
106.23505280003883	0.5973958999384195	fixation_2	999	999
106.7833553000819	1.0000513000413775	feedback win	999	999
107.78340900014155	1.118086599977687	ITI	999	999
108.9049761001952	0.5951543999835849	fixation_1	999	999
109.50018860003911	3.284442499978468	face	3.2839665000792593	2
112.78465920011513	0.5951543999835849	fixation_2	999	999
113.33336820011027	1.0000253000762314	feedback win	999	999
114.33339560008608	5.316343300044537	ITI	999	999
119.65312040015124	0.5967357999179512	fixation_1	999	999
120.2499232001137	3.2841318999417126	face	3.2836871999315917	2
123.53408250003122	0.5967357999179512	fixation_2	999	999
124.08336010016501	1.0166225999128073	feedback win	999	999
125.09998490009457	3.216476900037378	ITI	999	999
128.31993260001764	0.6133517001289874	fixation_1	999	999
128.93334290012717	3.0011161998845637	face	2.2832106999121606	1
131.9344983000774	0.6133517001289874	fixation_2	999	999
132.48332190001383	1.0000877000857145	feedback win	999	999
133.4834118001163	3.2163104999344796	ITI	999	999
136.70328500005417	0.6300753001123667	fixation_1	999	999
137.3334254999645	3.0341553001198918	face	3.0336924002040178	1
140.36760800005868	0.6300753001123667	fixation_2	999	999
140.91667299997061	1.016711400123313	feedback win	999	999
141.93338660011068	3.2159007000736892	ITI	999	999
145.15291330008768	0.5970870999153703	fixation_1	999	999
145.75006380002014	3.001365400152281	face	2.0331482000183314	2
148.75146780000068	0.5970870999153703	fixation_2	999	999
149.29991520009935	1.0000745998695493	feedback win	999	999
150.2999919001013	11.616018400061876	ITI	999	999
161.91960720019415	0.5968951999675483	fixation_1	999	999
162.5165658001788	3.000977799994871	face	2.5335359999444336	2
165.51758210011758	0.5968951999675483	fixation_2	999	999
166.06659120018594	1.0166585999540985	feedback loss	999	999
167.08325210004114	5.316651799948886	ITI	999	999
172.40347430016845	0.5964557998813689	fixation_1	999	999
172.99999480019324	3.001878899987787	face	2.5325363997835666	1
176.00191270001233	0.5964557998813689	fixation_2	999	999
176.54986340017058	1.000016399892047	feedback win	999	999
177.54988289996982	5.315795400179923	ITI	999	999
182.8692923001945	0.5971847998443991	fixation_1	999	999
183.46654220018536	3.000982399797067	face	2.5335018998011947	1
186.46756370016374	0.5971847998443991	fixation_2	999	999
187.01615010015666	1.0003309999592602	feedback loss	999	999
188.01648340001702	3.2163770000915974	ITI	999	999
191.2365362001583	0.6133274999447167	fixation_1	999	999
191.84993030014448	3.0007425998337567	face	2.283288100035861	2
194.85071300016716	0.6133274999447167	fixation_2	999	999
195.3998155000154	1.000046300003305	feedback loss	999	999
196.3998639001511	1.1177168998401612	ITI	999	999
197.52119140001014	0.6286490000784397	fixation_1	999	999
198.14990700013004	3.0009933998808265	face	2.0332010998390615	2
201.15093730017543	0.6286490000784397	fixation_2	999	999
201.69966890010983	1.0000022000167519	feedback loss	999	999
202.69967340002768	1.1181455999612808	ITI	999	999
203.82158640003763	0.6115073000546545	fixation_1	999	999
204.4331648000516	3.0378654000815004	face	n/a	n/a
207.4710646001622	0.6115073000546545	fixation_2	999	999
208.0164320000913	1.0167028000578284	feedback win	999	999
209.03313700016588	5.316503099864349	ITI	999	999
214.35343710007146	0.5966604999266565	fixation_1	999	999
214.95018390007317	3.000848799943924	face	2.0322950000409037	1
217.95107530010864	0.5966604999266565	fixation_2	999	999
218.4999918001704	1.0161780000198632	feedback loss	999	999
219.51617199997418	5.316552800126374	ITI	999	999
224.8365732000675	0.5964496999513358	fixation_1	999	999
225.43309920001775	3.0013625000137836	face	2.0332850001286715	2
228.43450279999524	0.5964496999513358	fixation_2	999	999
228.9829572001472	1.0166207000147551	feedback win	999	999
229.99958010017872	3.216946299886331	ITI	999	999
233.22038460010663	0.5958950000349432	fixation_1	999	999
233.8163540000096	3.000733599998057	face	2.533203500090167	1
236.8171269001905	0.5958950000349432	fixation_2	999	999
237.3662903001532	1.0166322998702526	feedback loss	999	999
238.38292500004172	1.1176696000620723	ITI	999	999
239.50454630004242	0.5949949999339879	fixation_1	999	999
240.09961580019444	3.0017927999142557	face	2.5336936998646706	1
243.1014497000724	0.5949949999339879	fixation_2	999	999
243.64979410008527	1.0165693999733776	feedback win	999	999
244.66636580019258	3.2160787999164313	ITI	999	999
247.88637379999273	0.5965721001848578	fixation_1	999	999
248.48301890003495	3.0018923999741673	face	2.032686100108549	1
251.4849521999713	0.5965721001848578	fixation_2	999	999
252.0327473001089	1.0168113999534398	feedback loss	999	999
253.04956080019474	1.1189139999914914	ITI	999	999
254.17240110016428	0.5937437999527901	fixation_1	999	999
254.7662180000916	3.001108600059524	face	2.283236399991438	1
257.76736690010875	0.5937437999527901	fixation_2	999	999
258.3162192001473	1.0000717998482287	feedback loss	999	999
259.3162934000138	1.1170279001817107	ITI	999	999
260.43730560014956	0.6122585998382419	fixation_1	999	999
261.0496392000932	3.0013059000484645	face	2.5333213000558317	2
264.05098729999736	0.6122585998382419	fixation_2	999	999
264.59955110005103	1.0166116999462247	feedback loss	999	999
265.61616490012966	1.1181830998975784	ITI	999	999
266.73833049996756	0.5945542000699788	fixation_1	999	999
267.33297220012173	3.0015245999675244	face	2.284444499993697	2
270.33453610003926	0.5945542000699788	fixation_2	999	999
270.88287740014493	1.0166227999143302	feedback win	999	999
271.8995025001932	5.316736099775881	ITI	999	999
277.2201945001725	0.5959864999167621	fixation_1	999	999
277.8162803000305	3.000494800042361	face	2.0340229000430554	1
280.816814100137	0.5959864999167621	fixation_2	999	999
281.3660852999892	1.0000579999759793	feedback loss	999	999
282.36614549998194	1.1172931001055986	ITI	999	999
283.4874931999948	0.6118244000244886	fixation_1	999	999
284.09939380013384	3.0009081000462174	face	2.0330372999887913	1
287.1003422001377	0.6118244000244886	fixation_2	999	999
287.64933830010705	1.000289199873805	feedback loss	999	999
288.6496298999991	3.2163135001901537	ITI	999	999
291.86994510004297	0.5961230001412332	fixation_1	999	999
292.46614610007964	3.001107200048864	face	2.2831353000365198	2
295.4672930999659	0.5961230001412332	fixation_2	999	999
296.01604270003736	1.0000215000472963	feedback win	999	999
297.0160664001014	5.316224999958649	ITI	999	999
302.3364172000438	0.596246900036931	fixation_1	999	999
302.9327408000827	3.0010279999114573	face	1.7832047000993043	1
305.93380450014956	0.596246900036931	fixation_2	999	999
306.48298730002716	1.016291300067678	feedback loss	999	999
307.4992808001116	5.317207699874416	ITI	999	999
312.8205422000028	0.612099900143221	fixation_1	999	999
313.43272170005366	3.0014802999794483	face	2.0329547999426723	2
316.4342416001018	0.612099900143221	fixation_2	999	999
316.98253610008396	1.016532100038603	feedback win	999	999
317.99907050002366	1.1182723001111299	ITI	999	999
319.12145430012606	0.594562100013718	fixation_1	999	999
319.71609980007634	3.00090690003708	face	2.032350300112739	1
322.71704730018973	0.594562100013718	fixation_2	999	999
323.26594589999877	1.0166343001183122	feedback loss	999	999
324.28258230001666	1.1173878000117838	ITI	999	999
325.4040651000105	0.5953266001306474	fixation_1	999	999
325.9994912999682	3.0018611000850797	face	2.0327291002031416	2
329.00139160011895	0.5953266001306474	fixation_2	999	999
329.54914680006914	1.0000654000323266	feedback loss	999	999
330.54921450000256	5.316679600160569	ITI	999	999
