onset	duration	trial_type	response_time	Endowment	Decision	Offer
4.596246	2	cue_social	n/a	32	n/a	n/a
4.596246	2	cue_social_high	n/a	32	n/a	n/a
6.516106	1.949463	dec_social_high	1.949463	32	n/a	2
6.516106	1.949463	dec_social_high_accept	1.949463	32	accept	2
11.438052	2	cue_social	n/a	32	n/a	n/a
11.438052	2	cue_social_high	n/a	32	n/a	n/a
13.349779	2.465587	dec_social_high	2.465587	32	n/a	3
13.349779	2.465587	dec_social_high_reject	2.465587	32	reject	3
19.081724	2	cue_social	n/a	32	n/a	n/a
19.081724	2	cue_social_high	n/a	32	n/a	n/a
20.998330	1.900631	dec_social_high	1.900631	32	n/a	16
20.998330	1.900631	dec_social_high_accept	1.900631	32	accept	16
25.826277	2	cue_nonsocial	n/a	16	n/a	n/a
25.826277	2	cue_nonsocial_low	n/a	16	n/a	n/a
27.832855	1.849567	dec_nonsocial_low	1.849567	16	n/a	4
27.832855	1.849567	dec_nonsocial_low_accept	1.849567	16	accept	4
32.752070	2	cue_social	n/a	16	n/a	n/a
32.752070	2	cue_social_low	n/a	16	n/a	n/a
34.666355	1.382612	dec_social_low	1.382612	16	n/a	2
34.666355	1.382612	dec_social_low_reject	1.382612	16	reject	2
39.589554	2	cue_social	n/a	16	n/a	n/a
39.589554	2	cue_social_low	n/a	16	n/a	n/a
41.499107	1.483267	dec_social_low	1.483267	16	n/a	2
41.499107	1.483267	dec_social_low_accept	1.483267	16	accept	2
47.231820	2	cue_social	n/a	16	n/a	n/a
47.231820	2	cue_social_low	n/a	16	n/a	n/a
49.132843	1.299858	dec_social_low	1.299858	16	n/a	2
49.132843	1.299858	dec_social_low_reject	1.299858	16	reject	2
56.471767	2	cue_social	n/a	32	n/a	n/a
56.471767	2	cue_social_high	n/a	32	n/a	n/a
58.382412	1.815733	dec_social_high	1.815733	32	n/a	8
58.382412	1.815733	dec_social_high_reject	1.815733	32	reject	8
64.026130	2	cue_nonsocial	n/a	32	n/a	n/a
64.026130	2	cue_nonsocial_high	n/a	32	n/a	n/a
66.032350	1.766166	dec_nonsocial_high	1.766166	32	n/a	2
66.032350	1.766166	dec_nonsocial_high_reject	1.766166	32	reject	2
73.276184	2	cue_nonsocial	n/a	16	n/a	n/a
73.276184	2	cue_nonsocial_low	n/a	16	n/a	n/a
75.282036	1.800216	dec_nonsocial_low	1.800216	16	n/a	2
75.282036	1.800216	dec_nonsocial_low_reject	1.800216	16	reject	2
80.926310	2	cue_nonsocial	n/a	16	n/a	n/a
80.926310	2	cue_nonsocial_low	n/a	16	n/a	n/a
82.932920	1.549308	dec_nonsocial_low	1.549308	16	n/a	1
82.932920	1.549308	dec_nonsocial_low_reject	1.549308	16	reject	1
93.409340	2	cue_nonsocial	n/a	32	n/a	n/a
93.409340	2	cue_nonsocial_high	n/a	32	n/a	n/a
95.415500	1.716158	dec_nonsocial_high	1.716158	32	n/a	16
95.415500	1.716158	dec_nonsocial_high_accept	1.716158	32	accept	16
102.746544	2	cue_social	n/a	32	n/a	n/a
102.746544	2	cue_social_high	n/a	32	n/a	n/a
104.664770	1.701017	dec_social_high	1.701017	32	n/a	16
104.664770	1.701017	dec_social_high_accept	1.701017	32	accept	16
113.616905	2	cue_social	n/a	32	n/a	n/a
113.616905	2	cue_social_high	n/a	32	n/a	n/a
115.531900	1.333677	dec_social_high	1.333677	32	n/a	2
115.531900	1.333677	dec_social_high_reject	1.333677	32	reject	2
120.358986	2	cue_nonsocial	n/a	16	n/a	n/a
120.358986	2	cue_nonsocial_low	n/a	16	n/a	n/a
122.366370	2.015198	dec_nonsocial_low	2.015198	16	n/a	4
122.366370	2.015198	dec_nonsocial_low_reject	2.015198	16	reject	4
127.195330	2	cue_social	n/a	32	n/a	n/a
127.195330	2	cue_social_high	n/a	32	n/a	n/a
129.198960	1.799864	dec_social_high	1.799864	32	n/a	2
129.198960	1.799864	dec_social_high_reject	1.799864	32	reject	2
134.914140	2	cue_social	n/a	16	n/a	n/a
134.914140	2	cue_social_low	n/a	16	n/a	n/a
136.848020	1.650748	dec_social_low	1.650748	16	n/a	8
136.848020	1.650748	dec_social_low_accept	1.650748	16	accept	8
141.767440	2	cue_social	n/a	16	n/a	n/a
141.767440	2	cue_social_low	n/a	16	n/a	n/a
143.682890	1.682943	dec_social_low	1.682943	16	n/a	8
143.682890	1.682943	dec_social_low_accept	1.682943	16	accept	8
148.508930	2	cue_nonsocial	n/a	16	n/a	n/a
148.508930	2	cue_nonsocial_low	n/a	16	n/a	n/a
150.514940	1.467164	dec_nonsocial_low	1.467164	16	n/a	2
150.514940	1.467164	dec_nonsocial_low_reject	1.467164	16	reject	2
155.342440	2	cue_nonsocial	n/a	16	n/a	n/a
155.342440	2	cue_nonsocial_low	n/a	16	n/a	n/a
157.349120	1.833034	dec_nonsocial_low	1.833034	16	n/a	4
157.349120	1.833034	dec_nonsocial_low_accept	1.833034	16	accept	4
163.064680	2	cue_social	n/a	16	n/a	n/a
163.064680	2	cue_social_low	n/a	16	n/a	n/a
164.997800	1.633862	dec_social_low	1.633862	16	n/a	4
164.997800	1.633862	dec_social_low_accept	1.633862	16	accept	4
169.825850	2	cue_nonsocial	n/a	32	n/a	n/a
169.825850	2	cue_nonsocial_high	n/a	32	n/a	n/a
171.832960	1.432699	dec_nonsocial_high	1.432699	32	n/a	16
171.832960	1.432699	dec_nonsocial_high_accept	1.432699	32	accept	16
177.475900	2	cue_nonsocial	n/a	16	n/a	n/a
177.475900	2	cue_nonsocial_low	n/a	16	n/a	n/a
179.481810	1.750214	dec_nonsocial_low	1.750214	16	n/a	1
179.481810	1.750214	dec_nonsocial_low_reject	1.750214	16	reject	1
188.342290	2	cue_nonsocial	n/a	16	n/a	n/a
188.342290	2	cue_nonsocial_low	n/a	16	n/a	n/a
190.349530	1.832383	dec_nonsocial_low	1.832383	16	n/a	4
190.349530	1.832383	dec_nonsocial_low_accept	1.832383	16	accept	4
197.670170	2	cue_social	n/a	32	n/a	n/a
197.670170	2	cue_social_high	n/a	32	n/a	n/a
199.598080	1.667306	dec_social_high	1.667306	32	n/a	2
199.598080	1.667306	dec_social_high_reject	1.667306	32	reject	2
205.227690	2	cue_nonsocial	n/a	32	n/a	n/a
205.227690	2	cue_nonsocial_high	n/a	32	n/a	n/a
207.232400	1.633253	dec_nonsocial_high	1.633253	32	n/a	8
207.232400	1.633253	dec_nonsocial_high_accept	1.633253	32	accept	8
212.859120	2	cue_nonsocial	n/a	32	n/a	n/a
212.859120	2	cue_nonsocial_high	n/a	32	n/a	n/a
214.865630	1.383183	dec_nonsocial_high	1.383183	32	n/a	16
214.865630	1.383183	dec_nonsocial_high_accept	1.383183	32	accept	16
220.578830	2	cue_social	n/a	32	n/a	n/a
220.578830	2	cue_social_high	n/a	32	n/a	n/a
222.514920	1.733831	dec_social_high	1.733831	32	n/a	16
222.514920	1.733831	dec_social_high_accept	1.733831	32	accept	16
228.158840	2	cue_nonsocial	n/a	32	n/a	n/a
228.158840	2	cue_nonsocial_high	n/a	32	n/a	n/a
230.165880	1.599362	dec_nonsocial_high	1.599362	32	n/a	16
230.165880	1.599362	dec_nonsocial_high_accept	1.599362	32	accept	16
235.057630	2	cue_social	n/a	16	n/a	n/a
235.057630	2	cue_social_low	n/a	16	n/a	n/a
236.997820	1.834144	dec_social_low	1.834144	16	n/a	4
236.997820	1.834144	dec_social_low_accept	1.834144	16	accept	4
244.258760	2	cue_nonsocial	n/a	16	n/a	n/a
244.258760	2	cue_nonsocial_low	n/a	16	n/a	n/a
246.265240	1.483110	dec_nonsocial_low	1.483110	16	n/a	1
246.265240	1.483110	dec_nonsocial_low_reject	1.483110	16	reject	1
251.200820	2	cue_social	n/a	32	n/a	n/a
251.200820	2	cue_social_high	n/a	32	n/a	n/a
253.099030	1.999524	dec_social_high	1.999524	32	n/a	8
253.099030	1.999524	dec_social_high_accept	1.999524	32	accept	8
260.358830	2	cue_nonsocial	n/a	32	n/a	n/a
260.358830	2	cue_nonsocial_high	n/a	32	n/a	n/a
262.364720	1.850472	dec_nonsocial_high	1.850472	32	n/a	3
262.364720	1.850472	dec_nonsocial_high_reject	1.850472	32	reject	3
268.086670	2	cue_social	n/a	16	n/a	n/a
268.086670	2	cue_social_low	n/a	16	n/a	n/a
270.014950	1.500070	dec_social_low	1.500070	16	n/a	4
270.014950	1.500070	dec_social_low_accept	1.500070	16	accept	4
274.925260	2	cue_social	n/a	16	n/a	n/a
274.925260	2	cue_social_low	n/a	16	n/a	n/a
276.847700	1.900716	dec_social_low	1.900716	16	n/a	2
276.847700	1.900716	dec_social_low_reject	1.900716	16	reject	2
281.676760	2	cue_social	n/a	16	n/a	n/a
281.676760	2	cue_social_low	n/a	16	n/a	n/a
283.681800	1.616224	dec_social_low	1.616224	16	n/a	8
283.681800	1.616224	dec_social_low_accept	1.616224	16	accept	8
288.508940	2	cue_nonsocial	n/a	32	n/a	n/a
288.508940	2	cue_nonsocial_high	n/a	32	n/a	n/a
290.515600	1.849389	dec_nonsocial_high	1.849389	32	n/a	3
290.515600	1.849389	dec_nonsocial_high_reject	1.849389	32	reject	3
297.766080	2	cue_nonsocial	n/a	16	n/a	n/a
297.766080	2	cue_nonsocial_low	n/a	16	n/a	n/a
299.781920	1.783356	dec_nonsocial_low	1.783356	16	n/a	8
299.781920	1.783356	dec_nonsocial_low_accept	1.783356	16	accept	8
304.608830	2	cue_nonsocial	n/a	32	n/a	n/a
304.608830	2	cue_nonsocial_high	n/a	32	n/a	n/a
306.614750	1.550121	dec_nonsocial_high	1.550121	32	n/a	3
306.614750	1.550121	dec_nonsocial_high_reject	1.550121	32	reject	3
311.518520	2	cue_social	n/a	32	n/a	n/a
311.518520	2	cue_social_high	n/a	32	n/a	n/a
313.448640	2.016543	dec_social_high	2.016543	32	n/a	3
313.448640	2.016543	dec_social_high_reject	2.016543	32	reject	3
318.351260	2	cue_social	n/a	16	n/a	n/a
318.351260	2	cue_social_low	n/a	16	n/a	n/a
320.280850	1.583556	dec_social_low	1.583556	16	n/a	1
320.280850	1.583556	dec_social_low_reject	1.583556	16	reject	1
325.174900	2	cue_social	n/a	16	n/a	n/a
325.174900	2	cue_social_low	n/a	16	n/a	n/a
327.114960	1.816155	dec_social_low	1.816155	16	n/a	4
327.114960	1.816155	dec_social_low_accept	1.816155	16	accept	4
331.996860	2	cue_social	n/a	32	n/a	n/a
331.996860	2	cue_social_high	n/a	32	n/a	n/a
333.948550	1.449717	dec_social_high	1.449717	32	n/a	2
333.948550	1.449717	dec_social_high_reject	1.449717	32	reject	2
339.592620	2	cue_nonsocial	n/a	16	n/a	n/a
339.592620	2	cue_nonsocial_low	n/a	16	n/a	n/a
341.597900	1.750510	dec_nonsocial_low	1.750510	16	n/a	1
341.597900	1.750510	dec_nonsocial_low_reject	1.750510	16	reject	1
346.425480	2	cue_nonsocial	n/a	16	n/a	n/a
346.425480	2	cue_nonsocial_low	n/a	16	n/a	n/a
348.431760	1.866182	dec_nonsocial_low	1.866182	16	n/a	4
348.431760	1.866182	dec_nonsocial_low_accept	1.866182	16	accept	4
353.258800	2	cue_nonsocial	n/a	16	n/a	n/a
353.258800	2	cue_nonsocial_low	n/a	16	n/a	n/a
355.265080	1.466044	dec_nonsocial_low	1.466044	16	n/a	1
355.265080	1.466044	dec_nonsocial_low_reject	1.466044	16	reject	1
364.125600	2	cue_nonsocial	n/a	16	n/a	n/a
364.125600	2	cue_nonsocial_low	n/a	16	n/a	n/a
366.131870	1.999763	dec_nonsocial_low	1.999763	16	n/a	8
366.131870	1.999763	dec_nonsocial_low_accept	1.999763	16	accept	8
370.959170	2	cue_nonsocial	n/a	16	n/a	n/a
370.959170	2	cue_nonsocial_low	n/a	16	n/a	n/a
372.964020	1.617149	dec_nonsocial_low	1.617149	16	n/a	2
372.964020	1.617149	dec_nonsocial_low_reject	1.617149	16	reject	2
