onset	duration	trial_type	response_time	Endowment	Endowment_pmod	Decision	Decision_pmod	Offer_pmod
4.596246	2	cue_social	n/a	32	8	n/a	n/a	n/a
4.596246	2	cue_social_high	n/a	32	10	n/a	n/a	n/a
11.438052	2	cue_social	n/a	32	8	n/a	n/a	n/a
11.438052	2	cue_social_high	n/a	32	10	n/a	n/a	n/a
19.081724	2	cue_social	n/a	32	8	n/a	n/a	n/a
19.081724	2	cue_social_high	n/a	32	10	n/a	n/a	n/a
25.826277	2	cue_nonsocial	n/a	16	-6	n/a	n/a	n/a
25.826277	2	cue_nonsocial_low	n/a	16	-8	n/a	n/a	n/a
32.752070	2	cue_social	n/a	16	-8	n/a	n/a	n/a
32.752070	2	cue_social_low	n/a	16	-6	n/a	n/a	n/a
39.589554	2	cue_social	n/a	16	-8	n/a	n/a	n/a
39.589554	2	cue_social_low	n/a	16	-6	n/a	n/a	n/a
47.231820	2	cue_social	n/a	16	-8	n/a	n/a	n/a
47.231820	2	cue_social_low	n/a	16	-6	n/a	n/a	n/a
56.471767	2	cue_social	n/a	32	8	n/a	n/a	n/a
56.471767	2	cue_social_high	n/a	32	10	n/a	n/a	n/a
64.026130	2	cue_nonsocial	n/a	32	10	n/a	n/a	n/a
64.026130	2	cue_nonsocial_high	n/a	32	8	n/a	n/a	n/a
73.276184	2	cue_nonsocial	n/a	16	-6	n/a	n/a	n/a
73.276184	2	cue_nonsocial_low	n/a	16	-8	n/a	n/a	n/a
80.926310	2	cue_nonsocial	n/a	16	-6	n/a	n/a	n/a
80.926310	2	cue_nonsocial_low	n/a	16	-8	n/a	n/a	n/a
93.409340	2	cue_nonsocial	n/a	32	10	n/a	n/a	n/a
93.409340	2	cue_nonsocial_high	n/a	32	8	n/a	n/a	n/a
102.746544	2	cue_social	n/a	32	8	n/a	n/a	n/a
102.746544	2	cue_social_high	n/a	32	10	n/a	n/a	n/a
113.616905	2	cue_social	n/a	32	8	n/a	n/a	n/a
113.616905	2	cue_social_high	n/a	32	10	n/a	n/a	n/a
120.358986	2	cue_nonsocial	n/a	16	-6	n/a	n/a	n/a
120.358986	2	cue_nonsocial_low	n/a	16	-8	n/a	n/a	n/a
127.195330	2	cue_social	n/a	32	8	n/a	n/a	n/a
127.195330	2	cue_social_high	n/a	32	10	n/a	n/a	n/a
134.914140	2	cue_social	n/a	16	-8	n/a	n/a	n/a
134.914140	2	cue_social_low	n/a	16	-6	n/a	n/a	n/a
141.767440	2	cue_social	n/a	16	-8	n/a	n/a	n/a
141.767440	2	cue_social_low	n/a	16	-6	n/a	n/a	n/a
148.508930	2	cue_nonsocial	n/a	16	-6	n/a	n/a	n/a
148.508930	2	cue_nonsocial_low	n/a	16	-8	n/a	n/a	n/a
155.342440	2	cue_nonsocial	n/a	16	-6	n/a	n/a	n/a
155.342440	2	cue_nonsocial_low	n/a	16	-8	n/a	n/a	n/a
163.064680	2	cue_social	n/a	16	-8	n/a	n/a	n/a
163.064680	2	cue_social_low	n/a	16	-6	n/a	n/a	n/a
169.825850	2	cue_nonsocial	n/a	32	10	n/a	n/a	n/a
169.825850	2	cue_nonsocial_high	n/a	32	8	n/a	n/a	n/a
177.475900	2	cue_nonsocial	n/a	16	-6	n/a	n/a	n/a
177.475900	2	cue_nonsocial_low	n/a	16	-8	n/a	n/a	n/a
188.342290	2	cue_nonsocial	n/a	16	-6	n/a	n/a	n/a
188.342290	2	cue_nonsocial_low	n/a	16	-8	n/a	n/a	n/a
197.670170	2	cue_social	n/a	32	8	n/a	n/a	n/a
197.670170	2	cue_social_high	n/a	32	10	n/a	n/a	n/a
205.227690	2	cue_nonsocial	n/a	32	10	n/a	n/a	n/a
205.227690	2	cue_nonsocial_high	n/a	32	8	n/a	n/a	n/a
212.859120	2	cue_nonsocial	n/a	32	10	n/a	n/a	n/a
212.859120	2	cue_nonsocial_high	n/a	32	8	n/a	n/a	n/a
220.578830	2	cue_social	n/a	32	8	n/a	n/a	n/a
220.578830	2	cue_social_high	n/a	32	10	n/a	n/a	n/a
228.158840	2	cue_nonsocial	n/a	32	10	n/a	n/a	n/a
228.158840	2	cue_nonsocial_high	n/a	32	8	n/a	n/a	n/a
235.057630	2	cue_social	n/a	16	-8	n/a	n/a	n/a
235.057630	2	cue_social_low	n/a	16	-6	n/a	n/a	n/a
244.258760	2	cue_nonsocial	n/a	16	-6	n/a	n/a	n/a
244.258760	2	cue_nonsocial_low	n/a	16	-8	n/a	n/a	n/a
251.200820	2	cue_social	n/a	32	8	n/a	n/a	n/a
251.200820	2	cue_social_high	n/a	32	10	n/a	n/a	n/a
260.358830	2	cue_nonsocial	n/a	32	10	n/a	n/a	n/a
260.358830	2	cue_nonsocial_high	n/a	32	8	n/a	n/a	n/a
268.086670	2	cue_social	n/a	16	-8	n/a	n/a	n/a
268.086670	2	cue_social_low	n/a	16	-6	n/a	n/a	n/a
274.925260	2	cue_social	n/a	16	-8	n/a	n/a	n/a
274.925260	2	cue_social_low	n/a	16	-6	n/a	n/a	n/a
281.676760	2	cue_social	n/a	16	-8	n/a	n/a	n/a
281.676760	2	cue_social_low	n/a	16	-6	n/a	n/a	n/a
288.508940	2	cue_nonsocial	n/a	32	10	n/a	n/a	n/a
288.508940	2	cue_nonsocial_high	n/a	32	8	n/a	n/a	n/a
297.766080	2	cue_nonsocial	n/a	16	-6	n/a	n/a	n/a
297.766080	2	cue_nonsocial_low	n/a	16	-8	n/a	n/a	n/a
304.608830	2	cue_nonsocial	n/a	32	10	n/a	n/a	n/a
304.608830	2	cue_nonsocial_high	n/a	32	8	n/a	n/a	n/a
311.518520	2	cue_social	n/a	32	8	n/a	n/a	n/a
311.518520	2	cue_social_high	n/a	32	10	n/a	n/a	n/a
318.351260	2	cue_social	n/a	16	-8	n/a	n/a	n/a
318.351260	2	cue_social_low	n/a	16	-6	n/a	n/a	n/a
325.174900	2	cue_social	n/a	16	-8	n/a	n/a	n/a
325.174900	2	cue_social_low	n/a	16	-6	n/a	n/a	n/a
331.996860	2	cue_social	n/a	32	8	n/a	n/a	n/a
331.996860	2	cue_social_high	n/a	32	10	n/a	n/a	n/a
339.592620	2	cue_nonsocial	n/a	16	-6	n/a	n/a	n/a
339.592620	2	cue_nonsocial_low	n/a	16	-8	n/a	n/a	n/a
346.425480	2	cue_nonsocial	n/a	16	-6	n/a	n/a	n/a
346.425480	2	cue_nonsocial_low	n/a	16	-8	n/a	n/a	n/a
353.258800	2	cue_nonsocial	n/a	16	-6	n/a	n/a	n/a
353.258800	2	cue_nonsocial_low	n/a	16	-8	n/a	n/a	n/a
364.125600	2	cue_nonsocial	n/a	16	-6	n/a	n/a	n/a
364.125600	2	cue_nonsocial_low	n/a	16	-8	n/a	n/a	n/a
370.959170	2	cue_nonsocial	n/a	16	-6	n/a	n/a	n/a
370.959170	2	cue_nonsocial_low	n/a	16	-8	n/a	n/a	n/a
6.516106	1.949463	dec_social_choice	1.949463	32.000000	n/a	2	-1.686198e-01	-1.686198e-01
6.516106	1.949463	dec_choice	1.949463	32.000000	n/a	2	-1.692708e-01	-1.692708e-01
6.516106	1.949463	dec_social_accept	1.949463	32.000000	n/a	2	-2.994792e-01	-2.994792e-01
6.516106	1.949463	dec_accept	1.949463	32.000000	n/a	2	-2.788462e-01	-2.788462e-01
6.516106	1.949463	dec_social_accept_low	1.949463	32.000000	n/a	2	-1.692708e-01	-1.692708e-01
13.349779	2.465587	dec_social_choice	2.465587	32.000000	n/a	0	0	-2.311198e-01
13.349779	2.465587	dec_choice	2.465587	32.000000	n/a	0	0	-2.317708e-01
13.349779	2.465587	dec_social_reject	2.465587	32.000000	n/a	0	0	-6.510417e-03
13.349779	2.465587	dec_reject	2.465587	32.000000	n/a	0	0	-8.522727e-03
13.349779	2.465587	dec_social_low	2.465587	32.000000	n/a	0	-2.317708e-01	-2.317708e-01
13.349779	2.465587	dec_social_reject_low	2.465587	32.000000	n/a	3	-1.380208e-01	-2.317708e-01
20.998330	1.900631	dec_social_choice	1.900631	32.000000	n/a	16	2.688802e-01	2.688802e-01
20.998330	1.900631	dec_choice	1.900631	32.000000	n/a	16	2.682292e-01	2.682292e-01
20.998330	1.900631	dec_social_accept	1.900631	32.000000	n/a	16	1.380208e-01	1.380208e-01
20.998330	1.900631	dec_accept	1.900631	32.000000	n/a	16	1.586538e-01	1.586538e-01
20.998330	1.900631	dec_social_accept_high	1.900631	32.000000	n/a	16	2.682292e-01	2.682292e-01
27.832855	1.849567	dec_nonsocial_choice	1.849567	16.000000	n/a	4	1.888021e-02	1.888021e-02
27.832855	1.849567	dec_choice	1.849567	16.000000	n/a	4	1.953125e-02	1.953125e-02
27.832855	1.849567	dec_nonsocial_accept	1.849567	16.000000	n/a	4	-1.119792e-01	-1.119792e-01
27.832855	1.849567	dec_accept	1.849567	16.000000	n/a	4	-1.363636e-01	-1.363636e-01
27.832855	1.849567	dec_nonsocial_high	1.849567	16.000000	n/a	4	1.953125e-02	1.953125e-02
27.832855	1.849567	dec_nonsocial_accept_high	1.849567	16.000000	n/a	4	-1.363636e-01	-1.363636e-01
34.666355	1.382612	dec_social_choice	1.382612	16.000000	n/a	0	0	-2.311198e-01
34.666355	1.382612	dec_choice	1.382612	16.000000	n/a	0	0	-2.317708e-01
34.666355	1.382612	dec_social_reject	1.382612	16.000000	n/a	0	0	2.473958e-02
34.666355	1.382612	dec_reject	1.382612	16.000000	n/a	0	0	2.272727e-02
34.666355	1.382612	dec_social_low	1.382612	16.000000	n/a	0	-2.317708e-01	-2.317708e-01
34.666355	1.382612	dec_social_reject_low	1.382612	16.000000	n/a	2	-1.067708e-01	-2.317708e-01
41.499107	1.483267	dec_social_choice	1.483267	16.000000	n/a	2	-1.061198e-01	-1.061198e-01
41.499107	1.483267	dec_choice	1.483267	16.000000	n/a	2	-1.067708e-01	-1.067708e-01
41.499107	1.483267	dec_social_accept	1.483267	16.000000	n/a	2	-2.369792e-01	-2.369792e-01
41.499107	1.483267	dec_accept	1.483267	16.000000	n/a	2	-2.163462e-01	-2.163462e-01
41.499107	1.483267	dec_social_low	1.483267	16.000000	n/a	2	-1.067708e-01	-1.067708e-01
41.499107	1.483267	dec_social_accept_low	1.483267	16.000000	n/a	2	-1.067708e-01	-1.067708e-01
49.132843	1.299858	dec_social_choice	1.299858	16.000000	n/a	0	0	-2.311198e-01
49.132843	1.299858	dec_choice	1.299858	16.000000	n/a	0	0	-2.317708e-01
49.132843	1.299858	dec_social_reject	1.299858	16.000000	n/a	0	0	2.473958e-02
49.132843	1.299858	dec_reject	1.299858	16.000000	n/a	0	0	2.272727e-02
49.132843	1.299858	dec_social_reject_low	1.299858	16.000000	n/a	2	-1.067708e-01	-2.317708e-01
58.382412	1.815733	dec_social_choice	1.815733	32.000000	n/a	0	0	-2.311198e-01
58.382412	1.815733	dec_choice	1.815733	32.000000	n/a	0	0	-2.317708e-01
58.382412	1.815733	dec_social_reject	1.815733	32.000000	n/a	0	0	1.497396e-01
58.382412	1.815733	dec_reject	1.815733	32.000000	n/a	0	0	1.477273e-01
58.382412	1.815733	dec_social_reject_low	1.815733	32.000000	n/a	8	1.822917e-02	-2.317708e-01
66.032350	1.766166	dec_nonsocial_choice	1.766166	32.000000	n/a	0	0	-2.311198e-01
66.032350	1.766166	dec_choice	1.766166	32.000000	n/a	0	0	-2.304688e-01
66.032350	1.766166	dec_nonsocial_reject	1.766166	32.000000	n/a	0	0	-3.776042e-02
66.032350	1.766166	dec_reject	1.766166	32.000000	n/a	0	0	-3.605769e-02
66.032350	1.766166	dec_nonsocial_reject_low	1.766166	32.000000	n/a	2	-3.977273e-02	-1.022727e-01
75.282036	1.800216	dec_nonsocial_choice	1.800216	16.000000	n/a	0	0	-2.311198e-01
75.282036	1.800216	dec_choice	1.800216	16.000000	n/a	0	0	-2.304688e-01
75.282036	1.800216	dec_nonsocial_reject	1.800216	16.000000	n/a	0	0	2.473958e-02
75.282036	1.800216	dec_reject	1.800216	16.000000	n/a	0	0	2.644231e-02
75.282036	1.800216	dec_nonsocial_low	1.800216	16.000000	n/a	0	-2.304688e-01	-2.304688e-01
75.282036	1.800216	dec_nonsocial_reject_low	1.800216	16.000000	n/a	2	2.644231e-02	-9.855769e-02
82.932920	1.549308	dec_nonsocial_choice	1.549308	16.000000	n/a	0	0	-2.311198e-01
82.932920	1.549308	dec_choice	1.549308	16.000000	n/a	0	0	-2.304688e-01
82.932920	1.549308	dec_nonsocial_reject	1.549308	16.000000	n/a	0	0	-3.776042e-02
82.932920	1.549308	dec_reject	1.549308	16.000000	n/a	0	0	-3.605769e-02
82.932920	1.549308	dec_nonsocial_reject_low	1.549308	16.000000	n/a	1	-3.977273e-02	-1.022727e-01
95.415500	1.716158	dec_nonsocial_choice	1.716158	32.000000	n/a	16	2.688802e-01	2.688802e-01
95.415500	1.716158	dec_choice	1.716158	32.000000	n/a	16	2.695312e-01	2.695312e-01
95.415500	1.716158	dec_nonsocial_accept	1.716158	32.000000	n/a	16	1.380208e-01	1.380208e-01
95.415500	1.716158	dec_accept	1.716158	32.000000	n/a	16	1.136364e-01	1.136364e-01
95.415500	1.716158	dec_nonsocial_high	1.716158	32.000000	n/a	16	2.695312e-01	2.695312e-01
95.415500	1.716158	dec_nonsocial_accept_high	1.716158	32.000000	n/a	16	1.136364e-01	1.136364e-01
104.664770	1.701017	dec_social_choice	1.701017	32.000000	n/a	16	2.688802e-01	2.688802e-01
104.664770	1.701017	dec_choice	1.701017	32.000000	n/a	16	2.682292e-01	2.682292e-01
104.664770	1.701017	dec_social_accept	1.701017	32.000000	n/a	16	1.380208e-01	1.380208e-01
104.664770	1.701017	dec_accept	1.701017	32.000000	n/a	16	1.586538e-01	1.586538e-01
104.664770	1.701017	dec_social_high	1.701017	32.000000	n/a	16	2.682292e-01	2.682292e-01
104.664770	1.701017	dec_social_accept_high	1.701017	32.000000	n/a	16	2.682292e-01	2.682292e-01
115.531900	1.333677	dec_social_choice	1.333677	32.000000	n/a	0	0	-2.311198e-01
115.531900	1.333677	dec_choice	1.333677	32.000000	n/a	0	0	-2.317708e-01
115.531900	1.333677	dec_social_reject	1.333677	32.000000	n/a	0	0	-3.776042e-02
115.531900	1.333677	dec_reject	1.333677	32.000000	n/a	0	0	-3.977273e-02
115.531900	1.333677	dec_social_reject_low	1.333677	32.000000	n/a	2	-1.692708e-01	-2.317708e-01
122.366370	2.015198	dec_nonsocial_choice	2.015198	16.000000	n/a	0	0	-2.311198e-01
122.366370	2.015198	dec_choice	2.015198	16.000000	n/a	0	0	-2.304688e-01
122.366370	2.015198	dec_nonsocial_reject	2.015198	16.000000	n/a	0	0	1.497396e-01
122.366370	2.015198	dec_reject	2.015198	16.000000	n/a	0	0	1.514423e-01
122.366370	2.015198	dec_nonsocial_reject_low	2.015198	16.000000	n/a	4	1.477273e-01	-1.022727e-01
129.198960	1.799864	dec_social_choice	1.799864	32.000000	n/a	0	0	-2.311198e-01
129.198960	1.799864	dec_choice	1.799864	32.000000	n/a	0	0	-2.317708e-01
129.198960	1.799864	dec_social_reject	1.799864	32.000000	n/a	0	0	-3.776042e-02
129.198960	1.799864	dec_reject	1.799864	32.000000	n/a	0	0	-3.977273e-02
129.198960	1.799864	dec_social_low	1.799864	32.000000	n/a	0	-2.317708e-01	-2.317708e-01
129.198960	1.799864	dec_social_reject_low	1.799864	32.000000	n/a	2	-1.692708e-01	-2.317708e-01
136.848020	1.650748	dec_social_choice	1.650748	16.000000	n/a	8	2.688802e-01	2.688802e-01
136.848020	1.650748	dec_choice	1.650748	16.000000	n/a	8	2.682292e-01	2.682292e-01
136.848020	1.650748	dec_social_accept	1.650748	16.000000	n/a	8	1.380208e-01	1.380208e-01
136.848020	1.650748	dec_accept	1.650748	16.000000	n/a	8	1.586538e-01	1.586538e-01
136.848020	1.650748	dec_social_high	1.650748	16.000000	n/a	8	2.682292e-01	2.682292e-01
136.848020	1.650748	dec_social_accept_high	1.650748	16.000000	n/a	8	2.682292e-01	2.682292e-01
143.682890	1.682943	dec_social_choice	1.682943	16.000000	n/a	8	2.688802e-01	2.688802e-01
143.682890	1.682943	dec_choice	1.682943	16.000000	n/a	8	2.682292e-01	2.682292e-01
143.682890	1.682943	dec_social_accept	1.682943	16.000000	n/a	8	1.380208e-01	1.380208e-01
143.682890	1.682943	dec_accept	1.682943	16.000000	n/a	8	1.586538e-01	1.586538e-01
143.682890	1.682943	dec_social_accept_high	1.682943	16.000000	n/a	8	2.682292e-01	2.682292e-01
150.514940	1.467164	dec_nonsocial_choice	1.467164	16.000000	n/a	0	0	-2.311198e-01
150.514940	1.467164	dec_choice	1.467164	16.000000	n/a	0	0	-2.304688e-01
150.514940	1.467164	dec_nonsocial_reject	1.467164	16.000000	n/a	0	0	2.473958e-02
150.514940	1.467164	dec_reject	1.467164	16.000000	n/a	0	0	2.644231e-02
150.514940	1.467164	dec_nonsocial_reject_low	1.467164	16.000000	n/a	2	2.272727e-02	-1.022727e-01
157.349120	1.833034	dec_nonsocial_choice	1.833034	16.000000	n/a	4	1.888021e-02	1.888021e-02
157.349120	1.833034	dec_choice	1.833034	16.000000	n/a	4	1.953125e-02	1.953125e-02
157.349120	1.833034	dec_nonsocial_accept	1.833034	16.000000	n/a	4	-1.119792e-01	-1.119792e-01
157.349120	1.833034	dec_accept	1.833034	16.000000	n/a	4	-1.363636e-01	-1.363636e-01
157.349120	1.833034	dec_nonsocial_accept_high	1.833034	16.000000	n/a	4	-9.134615e-02	-9.134615e-02
164.997800	1.633862	dec_social_choice	1.633862	16.000000	n/a	4	1.888021e-02	1.888021e-02
164.997800	1.633862	dec_choice	1.633862	16.000000	n/a	4	1.822917e-02	1.822917e-02
164.997800	1.633862	dec_social_accept	1.633862	16.000000	n/a	4	-1.119792e-01	-1.119792e-01
164.997800	1.633862	dec_accept	1.633862	16.000000	n/a	4	-9.134615e-02	-9.134615e-02
164.997800	1.633862	dec_social_high	1.633862	16.000000	n/a	4	1.822917e-02	1.822917e-02
164.997800	1.633862	dec_social_accept_high	1.633862	16.000000	n/a	4	1.822917e-02	1.822917e-02
171.832960	1.432699	dec_nonsocial_choice	1.432699	32.000000	n/a	16	2.688802e-01	2.688802e-01
171.832960	1.432699	dec_choice	1.432699	32.000000	n/a	16	2.695312e-01	2.695312e-01
171.832960	1.432699	dec_nonsocial_accept	1.432699	32.000000	n/a	16	1.380208e-01	1.380208e-01
171.832960	1.432699	dec_accept	1.432699	32.000000	n/a	16	1.136364e-01	1.136364e-01
171.832960	1.432699	dec_nonsocial_accept_high	1.432699	32.000000	n/a	16	1.586538e-01	1.586538e-01
179.481810	1.750214	dec_nonsocial_choice	1.750214	16.000000	n/a	0	0	-2.311198e-01
179.481810	1.750214	dec_choice	1.750214	16.000000	n/a	0	0	-2.304688e-01
179.481810	1.750214	dec_nonsocial_reject	1.750214	16.000000	n/a	0	0	-3.776042e-02
179.481810	1.750214	dec_reject	1.750214	16.000000	n/a	0	0	-3.605769e-02
179.481810	1.750214	dec_nonsocial_low	1.750214	16.000000	n/a	0	-2.304688e-01	-2.304688e-01
179.481810	1.750214	dec_nonsocial_reject_low	1.750214	16.000000	n/a	1	-3.605769e-02	-9.855769e-02
190.349530	1.832383	dec_nonsocial_choice	1.832383	16.000000	n/a	4	1.888021e-02	1.888021e-02
190.349530	1.832383	dec_choice	1.832383	16.000000	n/a	4	1.953125e-02	1.953125e-02
190.349530	1.832383	dec_nonsocial_accept	1.832383	16.000000	n/a	4	-1.119792e-01	-1.119792e-01
190.349530	1.832383	dec_accept	1.832383	16.000000	n/a	4	-1.363636e-01	-1.363636e-01
190.349530	1.832383	dec_nonsocial_accept_high	1.832383	16.000000	n/a	4	-9.134615e-02	-9.134615e-02
199.598080	1.667306	dec_social_choice	1.667306	32.000000	n/a	0	0	-2.311198e-01
199.598080	1.667306	dec_choice	1.667306	32.000000	n/a	0	0	-2.317708e-01
199.598080	1.667306	dec_social_reject	1.667306	32.000000	n/a	0	0	-3.776042e-02
199.598080	1.667306	dec_reject	1.667306	32.000000	n/a	0	0	-3.977273e-02
199.598080	1.667306	dec_social_low	1.667306	32.000000	n/a	0	-2.317708e-01	-2.317708e-01
199.598080	1.667306	dec_social_reject_low	1.667306	32.000000	n/a	2	-1.692708e-01	-2.317708e-01
207.232400	1.633253	dec_nonsocial_choice	1.633253	32.000000	n/a	8	1.888021e-02	1.888021e-02
207.232400	1.633253	dec_choice	1.633253	32.000000	n/a	8	1.953125e-02	1.953125e-02
207.232400	1.633253	dec_nonsocial_accept	1.633253	32.000000	n/a	8	-1.119792e-01	-1.119792e-01
207.232400	1.633253	dec_accept	1.633253	32.000000	n/a	8	-1.363636e-01	-1.363636e-01
207.232400	1.633253	dec_nonsocial_accept_high	1.633253	32.000000	n/a	8	-9.134615e-02	-9.134615e-02
214.865630	1.383183	dec_nonsocial_choice	1.383183	32.000000	n/a	16	2.688802e-01	2.688802e-01
214.865630	1.383183	dec_choice	1.383183	32.000000	n/a	16	2.695312e-01	2.695312e-01
214.865630	1.383183	dec_nonsocial_accept	1.383183	32.000000	n/a	16	1.380208e-01	1.380208e-01
214.865630	1.383183	dec_accept	1.383183	32.000000	n/a	16	1.136364e-01	1.136364e-01
214.865630	1.383183	dec_nonsocial_high	1.383183	32.000000	n/a	16	2.695312e-01	2.695312e-01
214.865630	1.383183	dec_nonsocial_accept_high	1.383183	32.000000	n/a	16	1.136364e-01	1.136364e-01
222.514920	1.733831	dec_social_choice	1.733831	32.000000	n/a	16	2.688802e-01	2.688802e-01
222.514920	1.733831	dec_choice	1.733831	32.000000	n/a	16	2.682292e-01	2.682292e-01
222.514920	1.733831	dec_social_accept	1.733831	32.000000	n/a	16	1.380208e-01	1.380208e-01
222.514920	1.733831	dec_accept	1.733831	32.000000	n/a	16	1.586538e-01	1.586538e-01
222.514920	1.733831	dec_social_accept_high	1.733831	32.000000	n/a	16	2.682292e-01	2.682292e-01
230.165880	1.599362	dec_nonsocial_choice	1.599362	32.000000	n/a	16	2.688802e-01	2.688802e-01
230.165880	1.599362	dec_choice	1.599362	32.000000	n/a	16	2.695312e-01	2.695312e-01
230.165880	1.599362	dec_nonsocial_accept	1.599362	32.000000	n/a	16	1.380208e-01	1.380208e-01
230.165880	1.599362	dec_accept	1.599362	32.000000	n/a	16	1.136364e-01	1.136364e-01
230.165880	1.599362	dec_nonsocial_accept_high	1.599362	32.000000	n/a	16	1.586538e-01	1.586538e-01
236.997820	1.834144	dec_social_choice	1.834144	16.000000	n/a	4	1.888021e-02	1.888021e-02
236.997820	1.834144	dec_choice	1.834144	16.000000	n/a	4	1.822917e-02	1.822917e-02
236.997820	1.834144	dec_social_accept	1.834144	16.000000	n/a	4	-1.119792e-01	-1.119792e-01
236.997820	1.834144	dec_accept	1.834144	16.000000	n/a	4	-9.134615e-02	-9.134615e-02
236.997820	1.834144	dec_social_accept_high	1.834144	16.000000	n/a	4	1.822917e-02	1.822917e-02
246.265240	1.483110	dec_nonsocial_choice	1.483110	16.000000	n/a	0	0	-2.311198e-01
246.265240	1.483110	dec_choice	1.483110	16.000000	n/a	0	0	-2.304688e-01
246.265240	1.483110	dec_nonsocial_reject	1.483110	16.000000	n/a	0	0	-3.776042e-02
246.265240	1.483110	dec_reject	1.483110	16.000000	n/a	0	0	-3.605769e-02
246.265240	1.483110	dec_nonsocial_low	1.483110	16.000000	n/a	0	-2.304688e-01	-2.304688e-01
246.265240	1.483110	dec_nonsocial_reject_low	1.483110	16.000000	n/a	1	-3.605769e-02	-9.855769e-02
253.099030	1.999524	dec_social_choice	1.999524	32.000000	n/a	8	1.888021e-02	1.888021e-02
253.099030	1.999524	dec_choice	1.999524	32.000000	n/a	8	1.822917e-02	1.822917e-02
253.099030	1.999524	dec_social_accept	1.999524	32.000000	n/a	8	-1.119792e-01	-1.119792e-01
253.099030	1.999524	dec_accept	1.999524	32.000000	n/a	8	-9.134615e-02	-9.134615e-02
253.099030	1.999524	dec_social_accept_high	1.999524	32.000000	n/a	8	1.822917e-02	1.822917e-02
262.364720	1.850472	dec_nonsocial_choice	1.850472	32.000000	n/a	0	0	-2.311198e-01
262.364720	1.850472	dec_choice	1.850472	32.000000	n/a	0	0	-2.304688e-01
262.364720	1.850472	dec_nonsocial_reject	1.850472	32.000000	n/a	0	0	-6.510417e-03
262.364720	1.850472	dec_reject	1.850472	32.000000	n/a	0	0	-4.807692e-03
262.364720	1.850472	dec_nonsocial_reject_low	1.850472	32.000000	n/a	3	-8.522727e-03	-1.022727e-01
270.014950	1.500070	dec_social_choice	1.500070	16.000000	n/a	4	1.888021e-02	1.888021e-02
270.014950	1.500070	dec_choice	1.500070	16.000000	n/a	4	1.822917e-02	1.822917e-02
270.014950	1.500070	dec_social_accept	1.500070	16.000000	n/a	4	-1.119792e-01	-1.119792e-01
270.014950	1.500070	dec_accept	1.500070	16.000000	n/a	4	-9.134615e-02	-9.134615e-02
270.014950	1.500070	dec_social_high	1.500070	16.000000	n/a	4	1.822917e-02	1.822917e-02
270.014950	1.500070	dec_social_accept_high	1.500070	16.000000	n/a	4	1.822917e-02	1.822917e-02
276.847700	1.900716	dec_social_choice	1.900716	16.000000	n/a	0	0	-2.311198e-01
276.847700	1.900716	dec_choice	1.900716	16.000000	n/a	0	0	-2.317708e-01
276.847700	1.900716	dec_social_reject	1.900716	16.000000	n/a	0	0	2.473958e-02
276.847700	1.900716	dec_reject	1.900716	16.000000	n/a	0	0	2.272727e-02
276.847700	1.900716	dec_social_low	1.900716	16.000000	n/a	0	-2.317708e-01	-2.317708e-01
276.847700	1.900716	dec_social_reject_low	1.900716	16.000000	n/a	2	-1.067708e-01	-2.317708e-01
283.681800	1.616224	dec_social_choice	1.616224	16.000000	n/a	8	2.688802e-01	2.688802e-01
283.681800	1.616224	dec_choice	1.616224	16.000000	n/a	8	2.682292e-01	2.682292e-01
283.681800	1.616224	dec_social_accept	1.616224	16.000000	n/a	8	1.380208e-01	1.380208e-01
283.681800	1.616224	dec_accept	1.616224	16.000000	n/a	8	1.586538e-01	1.586538e-01
283.681800	1.616224	dec_social_high	1.616224	16.000000	n/a	8	2.682292e-01	2.682292e-01
283.681800	1.616224	dec_social_accept_high	1.616224	16.000000	n/a	8	2.682292e-01	2.682292e-01
290.515600	1.849389	dec_nonsocial_choice	1.849389	32.000000	n/a	0	0	-2.311198e-01
290.515600	1.849389	dec_choice	1.849389	32.000000	n/a	0	0	-2.304688e-01
290.515600	1.849389	dec_nonsocial_reject	1.849389	32.000000	n/a	0	0	-6.510417e-03
290.515600	1.849389	dec_reject	1.849389	32.000000	n/a	0	0	-4.807692e-03
290.515600	1.849389	dec_nonsocial_low	1.849389	32.000000	n/a	0	-2.304688e-01	-2.304688e-01
290.515600	1.849389	dec_nonsocial_reject_low	1.849389	32.000000	n/a	3	-4.807692e-03	-9.855769e-02
299.781920	1.783356	dec_nonsocial_choice	1.783356	16.000000	n/a	8	2.688802e-01	2.688802e-01
299.781920	1.783356	dec_choice	1.783356	16.000000	n/a	8	2.695312e-01	2.695312e-01
299.781920	1.783356	dec_nonsocial_accept	1.783356	16.000000	n/a	8	1.380208e-01	1.380208e-01
299.781920	1.783356	dec_accept	1.783356	16.000000	n/a	8	1.136364e-01	1.136364e-01
299.781920	1.783356	dec_nonsocial_accept_high	1.783356	16.000000	n/a	8	1.586538e-01	1.586538e-01
306.614750	1.550121	dec_nonsocial_choice	1.550121	32.000000	n/a	0	0	-2.311198e-01
306.614750	1.550121	dec_choice	1.550121	32.000000	n/a	0	0	-2.304688e-01
306.614750	1.550121	dec_nonsocial_reject	1.550121	32.000000	n/a	0	0	-6.510417e-03
306.614750	1.550121	dec_reject	1.550121	32.000000	n/a	0	0	-4.807692e-03
306.614750	1.550121	dec_nonsocial_low	1.550121	32.000000	n/a	0	-2.304688e-01	-2.304688e-01
306.614750	1.550121	dec_nonsocial_reject_low	1.550121	32.000000	n/a	3	-4.807692e-03	-9.855769e-02
313.448640	2.016543	dec_social_choice	2.016543	32.000000	n/a	0	0	-2.311198e-01
313.448640	2.016543	dec_choice	2.016543	32.000000	n/a	0	0	-2.317708e-01
313.448640	2.016543	dec_social_reject	2.016543	32.000000	n/a	0	0	-6.510417e-03
313.448640	2.016543	dec_reject	2.016543	32.000000	n/a	0	0	-8.522727e-03
313.448640	2.016543	dec_social_reject_low	2.016543	32.000000	n/a	3	-1.380208e-01	-2.317708e-01
320.280850	1.583556	dec_social_choice	1.583556	16.000000	n/a	0	0	-2.311198e-01
320.280850	1.583556	dec_choice	1.583556	16.000000	n/a	0	0	-2.317708e-01
320.280850	1.583556	dec_social_reject	1.583556	16.000000	n/a	0	0	-3.776042e-02
320.280850	1.583556	dec_reject	1.583556	16.000000	n/a	0	0	-3.977273e-02
320.280850	1.583556	dec_social_low	1.583556	16.000000	n/a	0	-2.317708e-01	-2.317708e-01
320.280850	1.583556	dec_social_reject_low	1.583556	16.000000	n/a	1	-1.692708e-01	-2.317708e-01
327.114960	1.816155	dec_social_choice	1.816155	16.000000	n/a	4	1.888021e-02	1.888021e-02
327.114960	1.816155	dec_choice	1.816155	16.000000	n/a	4	1.822917e-02	1.822917e-02
327.114960	1.816155	dec_social_accept	1.816155	16.000000	n/a	4	-1.119792e-01	-1.119792e-01
327.114960	1.816155	dec_accept	1.816155	16.000000	n/a	4	-9.134615e-02	-9.134615e-02
327.114960	1.816155	dec_social_accept_high	1.816155	16.000000	n/a	4	1.822917e-02	1.822917e-02
333.948550	1.449717	dec_social_choice	1.449717	32.000000	n/a	0	0	-2.311198e-01
333.948550	1.449717	dec_choice	1.449717	32.000000	n/a	0	0	-2.317708e-01
333.948550	1.449717	dec_social_reject	1.449717	32.000000	n/a	0	0	-3.776042e-02
333.948550	1.449717	dec_reject	1.449717	32.000000	n/a	0	0	-3.977273e-02
333.948550	1.449717	dec_social_low	1.449717	32.000000	n/a	0	-2.317708e-01	-2.317708e-01
333.948550	1.449717	dec_social_reject_low	1.449717	32.000000	n/a	2	-1.692708e-01	-2.317708e-01
341.597900	1.750510	dec_nonsocial_choice	1.750510	16.000000	n/a	0	0	-2.311198e-01
341.597900	1.750510	dec_choice	1.750510	16.000000	n/a	0	0	-2.304688e-01
341.597900	1.750510	dec_nonsocial_reject	1.750510	16.000000	n/a	0	0	-3.776042e-02
341.597900	1.750510	dec_reject	1.750510	16.000000	n/a	0	0	-3.605769e-02
341.597900	1.750510	dec_nonsocial_low	1.750510	16.000000	n/a	0	-2.304688e-01	-2.304688e-01
341.597900	1.750510	dec_nonsocial_reject_low	1.750510	16.000000	n/a	1	-3.605769e-02	-9.855769e-02
348.431760	1.866182	dec_nonsocial_choice	1.866182	16.000000	n/a	4	1.888021e-02	1.888021e-02
348.431760	1.866182	dec_choice	1.866182	16.000000	n/a	4	1.953125e-02	1.953125e-02
348.431760	1.866182	dec_nonsocial_accept	1.866182	16.000000	n/a	4	-1.119792e-01	-1.119792e-01
348.431760	1.866182	dec_accept	1.866182	16.000000	n/a	4	-1.363636e-01	-1.363636e-01
348.431760	1.866182	dec_nonsocial_high	1.866182	16.000000	n/a	4	1.953125e-02	1.953125e-02
348.431760	1.866182	dec_nonsocial_accept_high	1.866182	16.000000	n/a	4	-1.363636e-01	-1.363636e-01
355.265080	1.466044	dec_nonsocial_choice	1.466044	16.000000	n/a	0	0	-2.311198e-01
355.265080	1.466044	dec_choice	1.466044	16.000000	n/a	0	0	-2.304688e-01
355.265080	1.466044	dec_nonsocial_reject	1.466044	16.000000	n/a	0	0	-3.776042e-02
355.265080	1.466044	dec_reject	1.466044	16.000000	n/a	0	0	-3.605769e-02
355.265080	1.466044	dec_nonsocial_reject_low	1.466044	16.000000	n/a	1	-3.977273e-02	-1.022727e-01
366.131870	1.999763	dec_nonsocial_choice	1.999763	16.000000	n/a	8	2.688802e-01	2.688802e-01
366.131870	1.999763	dec_choice	1.999763	16.000000	n/a	8	2.695312e-01	2.695312e-01
366.131870	1.999763	dec_nonsocial_accept	1.999763	16.000000	n/a	8	1.380208e-01	1.380208e-01
366.131870	1.999763	dec_accept	1.999763	16.000000	n/a	8	1.136364e-01	1.136364e-01
366.131870	1.999763	dec_nonsocial_high	1.999763	16.000000	n/a	8	2.695312e-01	2.695312e-01
366.131870	1.999763	dec_nonsocial_accept_high	1.999763	16.000000	n/a	8	1.136364e-01	1.136364e-01
372.964020	1.617149	dec_nonsocial_choice	1.617149	16.000000	n/a	0	0	-2.311198e-01
372.964020	1.617149	dec_choice	1.617149	16.000000	n/a	0	0	-2.304688e-01
372.964020	1.617149	dec_nonsocial_reject	1.617149	16.000000	n/a	0	0	2.473958e-02
372.964020	1.617149	dec_reject	1.617149	16.000000	n/a	0	0	2.644231e-02
372.964020	1.617149	dec_nonsocial_low	1.617149	16.000000	n/a	0	-2.304688e-01	-2.304688e-01
372.964020	1.617149	dec_nonsocial_reject_low	1.617149	16.000000	n/a	2	2.644231e-02	-9.855769e-02
