onset	duration	trial_type	response_time	Endowment	Endowment_pmod	Decision	Decision_pmod	Offer_pmod
4.517161	2	cue_nonsocial	n/a	16	-5	n/a	n/a	n/a
4.517161	2	cue_nonsocial_low	n/a	16	-9	n/a	n/a	n/a
11.419523	2	cue_social	n/a	16	-9	n/a	n/a	n/a
11.419523	2	cue_social_low	n/a	16	-5	n/a	n/a	n/a
18.184015	2	cue_nonsocial	n/a	32	11	n/a	n/a	n/a
18.184015	2	cue_nonsocial_high	n/a	32	7	n/a	n/a	n/a
25.833773	2	cue_nonsocial	n/a	16	-5	n/a	n/a	n/a
25.833773	2	cue_nonsocial_low	n/a	16	-9	n/a	n/a	n/a
36.701035	2	cue_nonsocial	n/a	16	-5	n/a	n/a	n/a
36.701035	2	cue_nonsocial_low	n/a	16	-9	n/a	n/a	n/a
43.657047	2	cue_social	n/a	16	-9	n/a	n/a	n/a
43.657047	2	cue_social_low	n/a	16	-5	n/a	n/a	n/a
51.264473	2	cue_social	n/a	32	7	n/a	n/a	n/a
51.264473	2	cue_social_high	n/a	32	11	n/a	n/a	n/a
58.017216	2	cue_nonsocial	n/a	32	11	n/a	n/a	n/a
58.017216	2	cue_nonsocial_high	n/a	32	7	n/a	n/a	n/a
65.760910	2	cue_social	n/a	16	-9	n/a	n/a	n/a
65.760910	2	cue_social_low	n/a	16	-5	n/a	n/a	n/a
74.970610	2	cue_social	n/a	32	7	n/a	n/a	n/a
74.970610	2	cue_social_high	n/a	32	11	n/a	n/a	n/a
81.855740	2	cue_social	n/a	16	-9	n/a	n/a	n/a
81.855740	2	cue_social_low	n/a	16	-5	n/a	n/a	n/a
88.669550	2	cue_social	n/a	32	7	n/a	n/a	n/a
88.669550	2	cue_social_high	n/a	32	11	n/a	n/a	n/a
96.250145	2	cue_nonsocial	n/a	16	-5	n/a	n/a	n/a
96.250145	2	cue_nonsocial_low	n/a	16	-9	n/a	n/a	n/a
103.170685	2	cue_social	n/a	16	-9	n/a	n/a	n/a
103.170685	2	cue_social_low	n/a	16	-5	n/a	n/a	n/a
110.007040	2	cue_social	n/a	32	7	n/a	n/a	n/a
110.007040	2	cue_social_high	n/a	32	11	n/a	n/a	n/a
120.783600	2	cue_nonsocial	n/a	16	-5	n/a	n/a	n/a
120.783600	2	cue_nonsocial_low	n/a	16	-9	n/a	n/a	n/a
127.617950	2	cue_nonsocial	n/a	16	-5	n/a	n/a	n/a
127.617950	2	cue_nonsocial_low	n/a	16	-9	n/a	n/a	n/a
134.556990	2	cue_social	n/a	32	7	n/a	n/a	n/a
134.556990	2	cue_social_high	n/a	32	11	n/a	n/a	n/a
142.100200	2	cue_nonsocial	n/a	32	11	n/a	n/a	n/a
142.100200	2	cue_nonsocial_high	n/a	32	7	n/a	n/a	n/a
149.813020	2	cue_social	n/a	16	-9	n/a	n/a	n/a
149.813020	2	cue_social_low	n/a	16	-5	n/a	n/a	n/a
156.583600	2	cue_nonsocial	n/a	16	-5	n/a	n/a	n/a
156.583600	2	cue_nonsocial_low	n/a	16	-9	n/a	n/a	n/a
163.484990	2	cue_social	n/a	32	7	n/a	n/a	n/a
163.484990	2	cue_social_high	n/a	32	11	n/a	n/a	n/a
170.337050	2	cue_social	n/a	32	7	n/a	n/a	n/a
170.337050	2	cue_social_high	n/a	32	11	n/a	n/a	n/a
177.900120	2	cue_nonsocial	n/a	16	-5	n/a	n/a	n/a
177.900120	2	cue_nonsocial_low	n/a	16	-9	n/a	n/a	n/a
185.549500	2	cue_nonsocial	n/a	32	11	n/a	n/a	n/a
185.549500	2	cue_nonsocial_high	n/a	32	7	n/a	n/a	n/a
192.383300	2	cue_nonsocial	n/a	16	-5	n/a	n/a	n/a
192.383300	2	cue_nonsocial_low	n/a	16	-9	n/a	n/a	n/a
203.333340	2	cue_social	n/a	16	-9	n/a	n/a	n/a
203.333340	2	cue_social_low	n/a	16	-5	n/a	n/a	n/a
210.168050	2	cue_social	n/a	32	7	n/a	n/a	n/a
210.168050	2	cue_social_high	n/a	32	11	n/a	n/a	n/a
216.916840	2	cue_nonsocial	n/a	32	11	n/a	n/a	n/a
216.916840	2	cue_nonsocial_high	n/a	32	7	n/a	n/a	n/a
226.241120	2	cue_social	n/a	16	-9	n/a	n/a	n/a
226.241120	2	cue_social_low	n/a	16	-5	n/a	n/a	n/a
233.016720	2	cue_nonsocial	n/a	16	-5	n/a	n/a	n/a
233.016720	2	cue_nonsocial_low	n/a	16	-9	n/a	n/a	n/a
239.849900	2	cue_nonsocial	n/a	32	11	n/a	n/a	n/a
239.849900	2	cue_nonsocial_high	n/a	32	7	n/a	n/a	n/a
246.683400	2	cue_nonsocial	n/a	16	-5	n/a	n/a	n/a
246.683400	2	cue_nonsocial_low	n/a	16	-9	n/a	n/a	n/a
255.949900	2	cue_nonsocial	n/a	16	-5	n/a	n/a	n/a
255.949900	2	cue_nonsocial_low	n/a	16	-9	n/a	n/a	n/a
262.783140	2	cue_nonsocial	n/a	16	-5	n/a	n/a	n/a
262.783140	2	cue_nonsocial_low	n/a	16	-9	n/a	n/a	n/a
269.616330	2	cue_nonsocial	n/a	16	-5	n/a	n/a	n/a
269.616330	2	cue_nonsocial_low	n/a	16	-9	n/a	n/a	n/a
277.349550	2	cue_social	n/a	16	-9	n/a	n/a	n/a
277.349550	2	cue_social_low	n/a	16	-5	n/a	n/a	n/a
284.932900	2	cue_nonsocial	n/a	32	11	n/a	n/a	n/a
284.932900	2	cue_nonsocial_high	n/a	32	7	n/a	n/a	n/a
294.314240	2	cue_social	n/a	32	7	n/a	n/a	n/a
294.314240	2	cue_social_high	n/a	32	11	n/a	n/a	n/a
306.723100	2	cue_social	n/a	32	7	n/a	n/a	n/a
306.723100	2	cue_social_high	n/a	32	11	n/a	n/a	n/a
313.516540	2	cue_nonsocial	n/a	16	-5	n/a	n/a	n/a
313.516540	2	cue_nonsocial_low	n/a	16	-9	n/a	n/a	n/a
320.428070	2	cue_social	n/a	32	7	n/a	n/a	n/a
320.428070	2	cue_social_high	n/a	32	11	n/a	n/a	n/a
329.599700	2	cue_nonsocial	n/a	32	11	n/a	n/a	n/a
329.599700	2	cue_nonsocial_high	n/a	32	7	n/a	n/a	n/a
337.307770	2	cue_social	n/a	16	-9	n/a	n/a	n/a
337.307770	2	cue_social_low	n/a	16	-5	n/a	n/a	n/a
346.579830	2	cue_social	n/a	32	7	n/a	n/a	n/a
346.579830	2	cue_social_high	n/a	32	11	n/a	n/a	n/a
353.349200	2	cue_nonsocial	n/a	16	-5	n/a	n/a	n/a
353.349200	2	cue_nonsocial_low	n/a	16	-9	n/a	n/a	n/a
361.067260	2	cue_social	n/a	32	7	n/a	n/a	n/a
361.067260	2	cue_social_high	n/a	32	11	n/a	n/a	n/a
368.725000	2	cue_social	n/a	16	-9	n/a	n/a	n/a
368.725000	2	cue_social_low	n/a	16	-5	n/a	n/a	n/a
6.524677	1.298774	dec_nonsocial_choice	1.298774	16.000000	n/a	0	0	-2.234043e-01
6.524677	1.298774	dec_choice	1.298774	16.000000	n/a	0	0	-2.173913e-01
6.524677	1.298774	dec_nonsocial_reject	1.298774	16.000000	n/a	0	0	-2.083333e-02
6.524677	1.298774	dec_reject	1.298774	16.000000	n/a	0	0	-2.083333e-02
6.524677	1.298774	dec_nonsocial_low	1.298774	16.000000	n/a	0	-2.173913e-01	-2.173913e-01
6.524677	1.298774	dec_nonsocial_reject_low	1.298774	16.000000	n/a	1	-2.083333e-02	-8.333333e-02
13.357482	1.299313	dec_social_choice	1.299313	16.000000	n/a	8	2.765957e-01	2.765957e-01
13.357482	1.299313	dec_choice	1.299313	16.000000	n/a	8	2.708333e-01	2.708333e-01
13.357482	1.299313	dec_social_accept	1.299313	16.000000	n/a	8	1.304348e-01	1.304348e-01
13.357482	1.299313	dec_accept	1.299313	16.000000	n/a	8	1.250000e-01	1.250000e-01
13.357482	1.299313	dec_social_accept_high	1.299313	16.000000	n/a	8	2.708333e-01	2.708333e-01
20.191223	1.465246	dec_nonsocial_choice	1.465246	32.000000	n/a	0	0	-2.234043e-01
20.191223	1.465246	dec_choice	1.465246	32.000000	n/a	0	0	-2.173913e-01
20.191223	1.465246	dec_nonsocial_reject	1.465246	32.000000	n/a	0	0	1.041667e-02
20.191223	1.465246	dec_reject	1.465246	32.000000	n/a	0	0	1.041667e-02
20.191223	1.465246	dec_nonsocial_low	1.465246	32.000000	n/a	0	-2.173913e-01	-2.173913e-01
20.191223	1.465246	dec_nonsocial_reject_low	1.465246	32.000000	n/a	3	1.041667e-02	-8.333333e-02
27.840004	1.116539	dec_nonsocial_choice	1.116539	16.000000	n/a	4	2.659574e-02	2.659574e-02
27.840004	1.116539	dec_choice	1.116539	16.000000	n/a	4	3.260870e-02	3.260870e-02
27.840004	1.116539	dec_nonsocial_accept	1.116539	16.000000	n/a	4	-1.195652e-01	-1.195652e-01
27.840004	1.116539	dec_accept	1.116539	16.000000	n/a	4	-1.136364e-01	-1.136364e-01
27.840004	1.116539	dec_nonsocial_accept_high	1.116539	16.000000	n/a	4	-1.250000e-01	-1.250000e-01
38.707010	1.716024	dec_nonsocial_choice	1.716024	16.000000	n/a	8	2.765957e-01	2.765957e-01
38.707010	1.716024	dec_choice	1.716024	16.000000	n/a	8	2.826087e-01	2.826087e-01
38.707010	1.716024	dec_nonsocial_accept	1.716024	16.000000	n/a	8	1.304348e-01	1.304348e-01
38.707010	1.716024	dec_accept	1.716024	16.000000	n/a	8	1.363636e-01	1.363636e-01
38.707010	1.716024	dec_nonsocial_high	1.716024	16.000000	n/a	8	2.826087e-01	2.826087e-01
38.707010	1.716024	dec_nonsocial_accept_high	1.716024	16.000000	n/a	8	1.363636e-01	1.363636e-01
45.539112	1.567782	dec_social_choice	1.567782	16.000000	n/a	0	0	-2.234043e-01
45.539112	1.567782	dec_choice	1.567782	16.000000	n/a	0	0	-2.291667e-01
45.539112	1.567782	dec_social_reject	1.567782	16.000000	n/a	0	0	4.166667e-02
45.539112	1.567782	dec_reject	1.567782	16.000000	n/a	0	0	4.166667e-02
45.539112	1.567782	dec_social_reject_low	1.567782	16.000000	n/a	2	-1.041667e-01	-2.291667e-01
53.189987	1.516780	dec_social_choice	1.516780	32.000000	n/a	0	0	-2.234043e-01
53.189987	1.516780	dec_choice	1.516780	32.000000	n/a	0	0	-2.291667e-01
53.189987	1.516780	dec_social_reject	1.516780	32.000000	n/a	0	0	1.041667e-02
53.189987	1.516780	dec_reject	1.516780	32.000000	n/a	0	0	1.041667e-02
53.189987	1.516780	dec_social_reject_low	1.516780	32.000000	n/a	3	-1.354167e-01	-2.291667e-01
60.022903	1.516689	dec_nonsocial_choice	1.516689	32.000000	n/a	0	0	-2.234043e-01
60.022903	1.516689	dec_choice	1.516689	32.000000	n/a	0	0	-2.173913e-01
60.022903	1.516689	dec_nonsocial_reject	1.516689	32.000000	n/a	0	0	1.041667e-02
60.022903	1.516689	dec_reject	1.516689	32.000000	n/a	0	0	1.041667e-02
60.022903	1.516689	dec_nonsocial_low	1.516689	32.000000	n/a	0	-2.173913e-01	-2.173913e-01
60.022903	1.516689	dec_nonsocial_reject_low	1.516689	32.000000	n/a	3	1.041667e-02	-8.333333e-02
67.673100	1.516493	dec_social_choice	1.516493	16.000000	n/a	0	0	-2.234043e-01
67.673100	1.516493	dec_choice	1.516493	16.000000	n/a	0	0	-2.291667e-01
67.673100	1.516493	dec_social_reject	1.516493	16.000000	n/a	0	0	-2.083333e-02
67.673100	1.516493	dec_reject	1.516493	16.000000	n/a	0	0	-2.083333e-02
67.673100	1.516493	dec_social_reject_low	1.516493	16.000000	n/a	1	-1.666667e-01	-2.291667e-01
76.939120	1.400785	dec_social_choice	1.400785	32.000000	n/a	16	2.765957e-01	2.765957e-01
76.939120	1.400785	dec_choice	1.400785	32.000000	n/a	16	2.708333e-01	2.708333e-01
76.939120	1.400785	dec_social_accept	1.400785	32.000000	n/a	16	1.304348e-01	1.304348e-01
76.939120	1.400785	dec_accept	1.400785	32.000000	n/a	16	1.250000e-01	1.250000e-01
76.939120	1.400785	dec_social_accept_high	1.400785	32.000000	n/a	16	2.708333e-01	2.708333e-01
83.773094	1.500131	dec_social_choice	1.500131	16.000000	n/a	4	2.659574e-02	2.659574e-02
83.773094	1.500131	dec_choice	1.500131	16.000000	n/a	4	2.083333e-02	2.083333e-02
83.773094	1.500131	dec_social_accept	1.500131	16.000000	n/a	4	-1.195652e-01	-1.195652e-01
83.773094	1.500131	dec_accept	1.500131	16.000000	n/a	4	-1.250000e-01	-1.250000e-01
83.773094	1.500131	dec_social_high	1.500131	16.000000	n/a	4	2.083333e-02	2.083333e-02
83.773094	1.500131	dec_social_accept_high	1.500131	16.000000	n/a	4	2.083333e-02	2.083333e-02
90.606670	1.583310	dec_social_choice	1.583310	32.000000	n/a	0	0	-2.234043e-01
90.606670	1.583310	dec_choice	1.583310	32.000000	n/a	0	0	-2.291667e-01
90.606670	1.583310	dec_social_reject	1.583310	32.000000	n/a	0	0	1.041667e-02
90.606670	1.583310	dec_reject	1.583310	32.000000	n/a	0	0	1.041667e-02
90.606670	1.583310	dec_social_low	1.583310	32.000000	n/a	0	-2.291667e-01	-2.291667e-01
90.606670	1.583310	dec_social_reject_low	1.583310	32.000000	n/a	3	-1.354167e-01	-2.291667e-01
98.256966	1.666096	dec_nonsocial_choice	1.666096	16.000000	n/a	8	2.765957e-01	2.765957e-01
98.256966	1.666096	dec_choice	1.666096	16.000000	n/a	8	2.826087e-01	2.826087e-01
98.256966	1.666096	dec_nonsocial_accept	1.666096	16.000000	n/a	8	1.304348e-01	1.304348e-01
98.256966	1.666096	dec_accept	1.666096	16.000000	n/a	8	1.363636e-01	1.363636e-01
98.256966	1.666096	dec_nonsocial_high	1.666096	16.000000	n/a	8	2.826087e-01	2.826087e-01
98.256966	1.666096	dec_nonsocial_accept_high	1.666096	16.000000	n/a	8	1.363636e-01	1.363636e-01
105.088936	1.251043	dec_social_choice	1.251043	16.000000	n/a	8	2.765957e-01	2.765957e-01
105.088936	1.251043	dec_choice	1.251043	16.000000	n/a	8	2.708333e-01	2.708333e-01
105.088936	1.251043	dec_social_accept	1.251043	16.000000	n/a	8	1.304348e-01	1.304348e-01
105.088936	1.251043	dec_accept	1.251043	16.000000	n/a	8	1.250000e-01	1.250000e-01
105.088936	1.251043	dec_social_high	1.251043	16.000000	n/a	8	2.708333e-01	2.708333e-01
105.088936	1.251043	dec_social_accept_high	1.251043	16.000000	n/a	8	2.708333e-01	2.708333e-01
111.923050	1.550167	dec_social_choice	1.550167	32.000000	n/a	8	2.659574e-02	2.659574e-02
111.923050	1.550167	dec_choice	1.550167	32.000000	n/a	8	2.083333e-02	2.083333e-02
111.923050	1.550167	dec_social_accept	1.550167	32.000000	n/a	8	-1.195652e-01	-1.195652e-01
111.923050	1.550167	dec_accept	1.550167	32.000000	n/a	8	-1.250000e-01	-1.250000e-01
111.923050	1.550167	dec_social_accept_high	1.550167	32.000000	n/a	8	2.083333e-02	2.083333e-02
122.790085	2.149865	dec_nonsocial_choice	2.149865	16.000000	n/a	4	2.659574e-02	2.659574e-02
122.790085	2.149865	dec_choice	2.149865	16.000000	n/a	4	3.260870e-02	3.260870e-02
122.790085	2.149865	dec_nonsocial_accept	2.149865	16.000000	n/a	4	-1.195652e-01	-1.195652e-01
122.790085	2.149865	dec_accept	2.149865	16.000000	n/a	4	-1.136364e-01	-1.136364e-01
122.790085	2.149865	dec_nonsocial_accept_high	2.149865	16.000000	n/a	4	-1.250000e-01	-1.250000e-01
129.623020	1.866558	dec_nonsocial_choice	1.866558	16.000000	n/a	0	0	-2.234043e-01
129.623020	1.866558	dec_choice	1.866558	16.000000	n/a	0	0	-2.173913e-01
129.623020	1.866558	dec_nonsocial_reject	1.866558	16.000000	n/a	0	0	-2.083333e-02
129.623020	1.866558	dec_reject	1.866558	16.000000	n/a	0	0	-2.083333e-02
129.623020	1.866558	dec_nonsocial_reject_low	1.866558	16.000000	n/a	1	-2.083333e-02	-8.333333e-02
136.456000	1.433566	dec_social_choice	1.433566	32.000000	n/a	16	2.765957e-01	2.765957e-01
136.456000	1.433566	dec_choice	1.433566	32.000000	n/a	16	2.708333e-01	2.708333e-01
136.456000	1.433566	dec_social_accept	1.433566	32.000000	n/a	16	1.304348e-01	1.304348e-01
136.456000	1.433566	dec_accept	1.433566	32.000000	n/a	16	1.250000e-01	1.250000e-01
136.456000	1.433566	dec_social_accept_high	1.433566	32.000000	n/a	16	2.708333e-01	2.708333e-01
144.105940	1.733922	dec_nonsocial_choice	1.733922	32.000000	n/a	8	2.659574e-02	2.659574e-02
144.105940	1.733922	dec_choice	1.733922	32.000000	n/a	8	3.260870e-02	3.260870e-02
144.105940	1.733922	dec_nonsocial_accept	1.733922	32.000000	n/a	8	-1.195652e-01	-1.195652e-01
144.105940	1.733922	dec_accept	1.733922	32.000000	n/a	8	-1.136364e-01	-1.136364e-01
144.105940	1.733922	dec_nonsocial_high	1.733922	32.000000	n/a	8	3.260870e-02	3.260870e-02
144.105940	1.733922	dec_nonsocial_accept_high	1.733922	32.000000	n/a	8	-1.136364e-01	-1.136364e-01
151.756420	1.249850	dec_social_choice	1.249850	16.000000	n/a	4	2.659574e-02	2.659574e-02
151.756420	1.249850	dec_choice	1.249850	16.000000	n/a	4	2.083333e-02	2.083333e-02
151.756420	1.249850	dec_social_accept	1.249850	16.000000	n/a	4	-1.195652e-01	-1.195652e-01
151.756420	1.249850	dec_accept	1.249850	16.000000	n/a	4	-1.250000e-01	-1.250000e-01
151.756420	1.249850	dec_social_high	1.249850	16.000000	n/a	4	2.083333e-02	2.083333e-02
151.756420	1.249850	dec_social_accept_high	1.249850	16.000000	n/a	4	2.083333e-02	2.083333e-02
158.590850	1.599235	dec_nonsocial_choice	1.599235	16.000000	n/a	0	0	-2.234043e-01
158.590850	1.599235	dec_choice	1.599235	16.000000	n/a	0	0	-2.173913e-01
158.590850	1.599235	dec_nonsocial_reject	1.599235	16.000000	n/a	0	0	4.166667e-02
158.590850	1.599235	dec_reject	1.599235	16.000000	n/a	0	0	4.166667e-02
158.590850	1.599235	dec_nonsocial_low	1.599235	16.000000	n/a	0	-2.173913e-01	-2.173913e-01
158.590850	1.599235	dec_nonsocial_reject_low	1.599235	16.000000	n/a	2	4.166667e-02	-8.333333e-02
165.422730	1.366409	dec_social_choice	1.366409	32.000000	n/a	8	2.659574e-02	2.659574e-02
165.422730	1.366409	dec_choice	1.366409	32.000000	n/a	8	2.083333e-02	2.083333e-02
165.422730	1.366409	dec_social_accept	1.366409	32.000000	n/a	8	-1.195652e-01	-1.195652e-01
165.422730	1.366409	dec_accept	1.366409	32.000000	n/a	8	-1.250000e-01	-1.250000e-01
165.422730	1.366409	dec_social_high	1.366409	32.000000	n/a	8	2.083333e-02	2.083333e-02
165.422730	1.366409	dec_social_accept_high	1.366409	32.000000	n/a	8	2.083333e-02	2.083333e-02
172.256650	1.666524	dec_social_choice	1.666524	32.000000	n/a	0	0	-2.234043e-01
172.256650	1.666524	dec_choice	1.666524	32.000000	n/a	0	0	-2.291667e-01
172.256650	1.666524	dec_social_reject	1.666524	32.000000	n/a	0	0	-2.083333e-02
172.256650	1.666524	dec_reject	1.666524	32.000000	n/a	0	0	-2.083333e-02
172.256650	1.666524	dec_social_low	1.666524	32.000000	n/a	0	-2.291667e-01	-2.291667e-01
172.256650	1.666524	dec_social_reject_low	1.666524	32.000000	n/a	2	-1.666667e-01	-2.291667e-01
179.906250	1.600208	dec_nonsocial_choice	1.600208	16.000000	n/a	4	2.659574e-02	2.659574e-02
179.906250	1.600208	dec_choice	1.600208	16.000000	n/a	4	3.260870e-02	3.260870e-02
179.906250	1.600208	dec_nonsocial_accept	1.600208	16.000000	n/a	4	-1.195652e-01	-1.195652e-01
179.906250	1.600208	dec_accept	1.600208	16.000000	n/a	4	-1.136364e-01	-1.136364e-01
179.906250	1.600208	dec_nonsocial_accept_high	1.600208	16.000000	n/a	4	-1.250000e-01	-1.250000e-01
187.556470	1.750067	dec_nonsocial_choice	1.750067	32.000000	n/a	0	0	-2.234043e-01
187.556470	1.750067	dec_choice	1.750067	32.000000	n/a	0	0	-2.173913e-01
187.556470	1.750067	dec_nonsocial_reject	1.750067	32.000000	n/a	0	0	1.041667e-02
187.556470	1.750067	dec_reject	1.750067	32.000000	n/a	0	0	1.041667e-02
187.556470	1.750067	dec_nonsocial_reject_low	1.750067	32.000000	n/a	3	1.041667e-02	-8.333333e-02
194.389760	2.016244	dec_nonsocial_choice	2.016244	16.000000	n/a	0	0	-2.234043e-01
194.389760	2.016244	dec_choice	2.016244	16.000000	n/a	0	0	-2.173913e-01
194.389760	2.016244	dec_nonsocial_reject	2.016244	16.000000	n/a	0	0	-2.083333e-02
194.389760	2.016244	dec_reject	2.016244	16.000000	n/a	0	0	-2.083333e-02
194.389760	2.016244	dec_nonsocial_low	2.016244	16.000000	n/a	0	-2.173913e-01	-2.173913e-01
194.389760	2.016244	dec_nonsocial_reject_low	2.016244	16.000000	n/a	1	-2.083333e-02	-8.333333e-02
205.255950	2.050435	dec_social_choice	2.050435	16.000000	n/a	0	0	-2.234043e-01
205.255950	2.050435	dec_choice	2.050435	16.000000	n/a	0	0	-2.291667e-01
205.255950	2.050435	dec_social_reject	2.050435	16.000000	n/a	0	0	4.166667e-02
205.255950	2.050435	dec_reject	2.050435	16.000000	n/a	0	0	4.166667e-02
205.255950	2.050435	dec_social_reject_low	2.050435	16.000000	n/a	2	-1.041667e-01	-2.291667e-01
212.089020	1.400747	dec_social_choice	1.400747	32.000000	n/a	0	0	-2.234043e-01
212.089020	1.400747	dec_choice	1.400747	32.000000	n/a	0	0	-2.291667e-01
212.089020	1.400747	dec_social_reject	1.400747	32.000000	n/a	0	0	-2.083333e-02
212.089020	1.400747	dec_reject	1.400747	32.000000	n/a	0	0	-2.083333e-02
212.089020	1.400747	dec_social_low	1.400747	32.000000	n/a	0	-2.291667e-01	-2.291667e-01
212.089020	1.400747	dec_social_reject_low	1.400747	32.000000	n/a	2	-1.666667e-01	-2.291667e-01
218.923630	1.732539	dec_nonsocial_choice	1.732539	32.000000	n/a	8	2.659574e-02	2.659574e-02
218.923630	1.732539	dec_choice	1.732539	32.000000	n/a	8	3.260870e-02	3.260870e-02
218.923630	1.732539	dec_nonsocial_accept	1.732539	32.000000	n/a	8	-1.195652e-01	-1.195652e-01
218.923630	1.732539	dec_accept	1.732539	32.000000	n/a	8	-1.136364e-01	-1.136364e-01
218.923630	1.732539	dec_nonsocial_accept_high	1.732539	32.000000	n/a	8	-1.250000e-01	-1.250000e-01
228.190050	1.082911	dec_social_choice	1.082911	16.000000	n/a	4	2.659574e-02	2.659574e-02
228.190050	1.082911	dec_choice	1.082911	16.000000	n/a	4	2.083333e-02	2.083333e-02
228.190050	1.082911	dec_social_accept	1.082911	16.000000	n/a	4	-1.195652e-01	-1.195652e-01
228.190050	1.082911	dec_accept	1.082911	16.000000	n/a	4	-1.250000e-01	-1.250000e-01
228.190050	1.082911	dec_social_accept_high	1.082911	16.000000	n/a	4	2.083333e-02	2.083333e-02
235.023030	1.366307	dec_nonsocial_choice	1.366307	16.000000	n/a	0	0	-2.234043e-01
235.023030	1.366307	dec_choice	1.366307	16.000000	n/a	0	0	-2.173913e-01
235.023030	1.366307	dec_nonsocial_reject	1.366307	16.000000	n/a	0	0	-2.083333e-02
235.023030	1.366307	dec_reject	1.366307	16.000000	n/a	0	0	-2.083333e-02
235.023030	1.366307	dec_nonsocial_low	1.366307	16.000000	n/a	0	-2.173913e-01	-2.173913e-01
235.023030	1.366307	dec_nonsocial_reject_low	1.366307	16.000000	n/a	1	-2.083333e-02	-8.333333e-02
241.856740	1.349527	dec_nonsocial_choice	1.349527	32.000000	n/a	16	2.765957e-01	2.765957e-01
241.856740	1.349527	dec_choice	1.349527	32.000000	n/a	16	2.826087e-01	2.826087e-01
241.856740	1.349527	dec_nonsocial_accept	1.349527	32.000000	n/a	16	1.304348e-01	1.304348e-01
241.856740	1.349527	dec_accept	1.349527	32.000000	n/a	16	1.363636e-01	1.363636e-01
241.856740	1.349527	dec_nonsocial_high	1.349527	32.000000	n/a	16	2.826087e-01	2.826087e-01
241.856740	1.349527	dec_nonsocial_accept_high	1.349527	32.000000	n/a	16	1.363636e-01	1.363636e-01
248.689930	1.432931	dec_nonsocial_choice	1.432931	16.000000	n/a	8	2.765957e-01	2.765957e-01
248.689930	1.432931	dec_choice	1.432931	16.000000	n/a	8	2.826087e-01	2.826087e-01
248.689930	1.432931	dec_nonsocial_accept	1.432931	16.000000	n/a	8	1.304348e-01	1.304348e-01
248.689930	1.432931	dec_accept	1.432931	16.000000	n/a	8	1.363636e-01	1.363636e-01
248.689930	1.432931	dec_nonsocial_high	1.432931	16.000000	n/a	8	2.826087e-01	2.826087e-01
248.689930	1.432931	dec_nonsocial_accept_high	1.432931	16.000000	n/a	8	1.363636e-01	1.363636e-01
257.956940	1.282614	dec_nonsocial_choice	1.282614	16.000000	n/a	0	0	-2.234043e-01
257.956940	1.282614	dec_choice	1.282614	16.000000	n/a	0	0	-2.173913e-01
257.956940	1.282614	dec_nonsocial_reject	1.282614	16.000000	n/a	0	0	-2.083333e-02
257.956940	1.282614	dec_reject	1.282614	16.000000	n/a	0	0	-2.083333e-02
257.956940	1.282614	dec_nonsocial_low	1.282614	16.000000	n/a	0	-2.173913e-01	-2.173913e-01
257.956940	1.282614	dec_nonsocial_reject_low	1.282614	16.000000	n/a	1	-2.083333e-02	-8.333333e-02
264.789830	1.833106	dec_nonsocial_choice	1.833106	16.000000	n/a	0	0	-2.234043e-01
264.789830	1.833106	dec_choice	1.833106	16.000000	n/a	0	0	-2.173913e-01
264.789830	1.833106	dec_nonsocial_reject	1.833106	16.000000	n/a	0	0	4.166667e-02
264.789830	1.833106	dec_reject	1.833106	16.000000	n/a	0	0	4.166667e-02
264.789830	1.833106	dec_nonsocial_reject_low	1.833106	16.000000	n/a	2	4.166667e-02	-8.333333e-02
271.623380	3.766946	missed_trial	3.766946	16.000000	n/a	n/a	n/a	n/a
279.289950	1.849748	dec_social_choice	1.849748	16.000000	n/a	0	0	-2.234043e-01
279.289950	1.849748	dec_choice	1.849748	16.000000	n/a	0	0	-2.291667e-01
279.289950	1.849748	dec_social_reject	1.849748	16.000000	n/a	0	0	-2.083333e-02
279.289950	1.849748	dec_reject	1.849748	16.000000	n/a	0	0	-2.083333e-02
279.289950	1.849748	dec_social_low	1.849748	16.000000	n/a	0	-2.291667e-01	-2.291667e-01
279.289950	1.849748	dec_social_reject_low	1.849748	16.000000	n/a	1	-1.666667e-01	-2.291667e-01
286.939180	1.516465	dec_nonsocial_choice	1.516465	32.000000	n/a	16	2.765957e-01	2.765957e-01
286.939180	1.516465	dec_choice	1.516465	32.000000	n/a	16	2.826087e-01	2.826087e-01
286.939180	1.516465	dec_nonsocial_accept	1.516465	32.000000	n/a	16	1.304348e-01	1.304348e-01
286.939180	1.516465	dec_accept	1.516465	32.000000	n/a	16	1.363636e-01	1.363636e-01
286.939180	1.516465	dec_nonsocial_accept_high	1.516465	32.000000	n/a	16	1.250000e-01	1.250000e-01
296.206940	1.349300	dec_social_choice	1.349300	32.000000	n/a	16	2.765957e-01	2.765957e-01
296.206940	1.349300	dec_choice	1.349300	32.000000	n/a	16	2.708333e-01	2.708333e-01
296.206940	1.349300	dec_social_accept	1.349300	32.000000	n/a	16	1.304348e-01	1.304348e-01
296.206940	1.349300	dec_accept	1.349300	32.000000	n/a	16	1.250000e-01	1.250000e-01
296.206940	1.349300	dec_social_high	1.349300	32.000000	n/a	16	2.708333e-01	2.708333e-01
296.206940	1.349300	dec_social_accept_high	1.349300	32.000000	n/a	16	2.708333e-01	2.708333e-01
308.689700	1.865945	dec_social_choice	1.865945	32.000000	n/a	0	0	-2.234043e-01
308.689700	1.865945	dec_choice	1.865945	32.000000	n/a	0	0	-2.291667e-01
308.689700	1.865945	dec_social_reject	1.865945	32.000000	n/a	0	0	1.041667e-02
308.689700	1.865945	dec_reject	1.865945	32.000000	n/a	0	0	1.041667e-02
308.689700	1.865945	dec_social_low	1.865945	32.000000	n/a	0	-2.291667e-01	-2.291667e-01
308.689700	1.865945	dec_social_reject_low	1.865945	32.000000	n/a	3	-1.354167e-01	-2.291667e-01
315.523830	1.798920	dec_nonsocial_choice	1.798920	16.000000	n/a	0	0	-2.234043e-01
315.523830	1.798920	dec_choice	1.798920	16.000000	n/a	0	0	-2.173913e-01
315.523830	1.798920	dec_nonsocial_reject	1.798920	16.000000	n/a	0	0	-2.083333e-02
315.523830	1.798920	dec_reject	1.798920	16.000000	n/a	0	0	-2.083333e-02
315.523830	1.798920	dec_nonsocial_low	1.798920	16.000000	n/a	0	-2.173913e-01	-2.173913e-01
315.523830	1.798920	dec_nonsocial_reject_low	1.798920	16.000000	n/a	1	-2.083333e-02	-8.333333e-02
322.355100	1.200835	dec_social_choice	1.200835	32.000000	n/a	8	2.659574e-02	2.659574e-02
322.355100	1.200835	dec_choice	1.200835	32.000000	n/a	8	2.083333e-02	2.083333e-02
322.355100	1.200835	dec_social_accept	1.200835	32.000000	n/a	8	-1.195652e-01	-1.195652e-01
322.355100	1.200835	dec_accept	1.200835	32.000000	n/a	8	-1.250000e-01	-1.250000e-01
322.355100	1.200835	dec_social_high	1.200835	32.000000	n/a	8	2.083333e-02	2.083333e-02
322.355100	1.200835	dec_social_accept_high	1.200835	32.000000	n/a	8	2.083333e-02	2.083333e-02
331.606450	1.399023	dec_nonsocial_choice	1.399023	32.000000	n/a	0	0	-2.234043e-01
331.606450	1.399023	dec_choice	1.399023	32.000000	n/a	0	0	-2.173913e-01
331.606450	1.399023	dec_nonsocial_reject	1.399023	32.000000	n/a	0	0	1.041667e-02
331.606450	1.399023	dec_reject	1.399023	32.000000	n/a	0	0	1.041667e-02
331.606450	1.399023	dec_nonsocial_low	1.399023	32.000000	n/a	0	-2.173913e-01	-2.173913e-01
331.606450	1.399023	dec_nonsocial_reject_low	1.399023	32.000000	n/a	3	1.041667e-02	-8.333333e-02
339.256230	1.766028	dec_social_choice	1.766028	16.000000	n/a	0	0	-2.234043e-01
339.256230	1.766028	dec_choice	1.766028	16.000000	n/a	0	0	-2.291667e-01
339.256230	1.766028	dec_social_reject	1.766028	16.000000	n/a	0	0	-2.083333e-02
339.256230	1.766028	dec_reject	1.766028	16.000000	n/a	0	0	-2.083333e-02
339.256230	1.766028	dec_social_reject_low	1.766028	16.000000	n/a	1	-1.666667e-01	-2.291667e-01
348.522030	1.933995	dec_social_choice	1.933995	32.000000	n/a	0	0	-2.234043e-01
348.522030	1.933995	dec_choice	1.933995	32.000000	n/a	0	0	-2.291667e-01
348.522030	1.933995	dec_social_reject	1.933995	32.000000	n/a	0	0	1.041667e-02
348.522030	1.933995	dec_reject	1.933995	32.000000	n/a	0	0	1.041667e-02
348.522030	1.933995	dec_social_reject_low	1.933995	32.000000	n/a	3	-1.354167e-01	-2.291667e-01
355.355800	1.850064	dec_nonsocial_choice	1.850064	16.000000	n/a	4	2.659574e-02	2.659574e-02
355.355800	1.850064	dec_choice	1.850064	16.000000	n/a	4	3.260870e-02	3.260870e-02
355.355800	1.850064	dec_nonsocial_accept	1.850064	16.000000	n/a	4	-1.195652e-01	-1.195652e-01
355.355800	1.850064	dec_accept	1.850064	16.000000	n/a	4	-1.136364e-01	-1.136364e-01
355.355800	1.850064	dec_nonsocial_high	1.850064	16.000000	n/a	4	3.260870e-02	3.260870e-02
355.355800	1.850064	dec_nonsocial_accept_high	1.850064	16.000000	n/a	4	-1.136364e-01	-1.136364e-01
363.006700	1.815267	dec_social_choice	1.815267	32.000000	n/a	0	0	-2.234043e-01
363.006700	1.815267	dec_choice	1.815267	32.000000	n/a	0	0	-2.291667e-01
363.006700	1.815267	dec_social_reject	1.815267	32.000000	n/a	0	0	-2.083333e-02
363.006700	1.815267	dec_reject	1.815267	32.000000	n/a	0	0	-2.083333e-02
363.006700	1.815267	dec_social_reject_low	1.815267	32.000000	n/a	2	-1.666667e-01	-2.291667e-01
370.655060	1.783751	dec_social_choice	1.783751	16.000000	n/a	8	2.765957e-01	2.765957e-01
370.655060	1.783751	dec_choice	1.783751	16.000000	n/a	8	2.708333e-01	2.708333e-01
370.655060	1.783751	dec_social_accept	1.783751	16.000000	n/a	8	1.304348e-01	1.304348e-01
370.655060	1.783751	dec_accept	1.783751	16.000000	n/a	8	1.250000e-01	1.250000e-01
370.655060	1.783751	dec_social_accept_high	1.783751	16.000000	n/a	8	2.708333e-01	2.708333e-01
