onset	duration	trial_type	rt	resp	gender	image_left	image_right
0.6411709999665618	3.001418699976057	decision	1.2837340999394655	left	M	MF001.jpg	MF002.jpg
4.191411999985576	1.0164475999772549	win	n/a	n/a	n/a	MF001.jpg	MF002.jpg
11.1748496000655	3.0014604998286813	decision	1.781807999825105	right	M	MF003.jpg	MF004.jpg
14.724499200005084	1.0002603000029922	loss	n/a	n/a	n/a	MF003.jpg	MF004.jpg
17.47481009992771	3.001034599961713	decision	2.0330487000755966	right	M	MF005.jpg	MF006.jpg
21.024445799877867	1.0002873002085835	win	n/a	n/a	n/a	MF005.jpg	MF006.jpg
23.77456309995614	3.0009586999658495	decision	1.7833209000527859	right	F	FF001.jpg	FF002.jpg
27.324421799974516	1.016695500118658	win	n/a	n/a	n/a	FF001.jpg	FF002.jpg
32.191150000086054	3.0017349999397993	decision	1.7824325999245048	left	F	FF003.jpg	FF004.jpg
35.74140969989821	1.0000072000548244	loss	n/a	n/a	n/a	FF003.jpg	FF004.jpg
42.6914933999069	3.0003620001953095	decision	1.533043400151655	left	M	MF007.jpg	MF008.jpg
46.24102730001323	1.0003011000808328	loss	n/a	n/a	n/a	MF007.jpg	MF008.jpg
51.09149180003442	3.001777800032869	decision	1.782266299938783	right	M	MF009.jpg	MF010.jpg
54.641184400068596	1.0007025999948382	win	n/a	n/a	n/a	MF009.jpg	MF010.jpg
59.491278500063345	3.0015306000132114	decision	1.782686599995941	right	F	FF005.jpg	FF006.jpg
63.04134420002811	1.0000412999652326	loss	n/a	n/a	n/a	FF005.jpg	FF006.jpg
65.79142259992659	3.000499099958688	decision	1.7830048000905663	right	F	FF007.jpg	FF008.jpg
69.34134680009447	1.0162355999927968	win	n/a	n/a	n/a	FF007.jpg	FF008.jpg
72.1074427999556	3.001430300064385	decision	1.7834109000395983	left	F	FF009.jpg	FF010.jpg
75.65783630008809	1.0000244998373091	win	n/a	n/a	n/a	FF009.jpg	FF010.jpg
78.40790099999867	3.0007348998915404	decision	2.2830229999963194	right	F	FF011.jpg	FF012.jpg
81.95760109997354	1.0002498999238014	loss	n/a	n/a	n/a	FF011.jpg	FF012.jpg
86.80801669997163	3.0019680000841618	decision	1.782763099996373	right	M	MF011.jpg	MF012.jpg
90.35765390004963	1.0001854998990893	loss	n/a	n/a	n/a	MF011.jpg	MF012.jpg
93.10764850000851	3.000822100089863	decision	2.0330914999358356	right	M	MF013.jpg	MF014.jpg
96.65781260002404	1.000032699899748	win	n/a	n/a	n/a	MF013.jpg	MF014.jpg
103.6075695999898	3.0009586999658495	decision	1.2832631000783294	left	M	MF015.jpg	MF016.jpg
107.15754420007579	1.000058599980548	win	n/a	n/a	n/a	MF015.jpg	MF016.jpg
109.90762600000016	3.0012743999250233	decision	1.5325875000562519	left	F	FF013.jpg	FF014.jpg
113.45785739994608	1.016677499981597	win	n/a	n/a	n/a	FF013.jpg	FF014.jpg
120.42416960000992	3.001717000035569	decision	1.5326535999774933	right	M	MF017.jpg	MF018.jpg
123.97451369999908	1.016659300075844	win	n/a	n/a	n/a	MF017.jpg	MF018.jpg
128.84126690006815	3.0015977998264134	decision	1.2829440999776125	left	F	FF015.jpg	FF016.jpg
132.39117680001073	1.0166380000300705	win	n/a	n/a	n/a	FF015.jpg	FF016.jpg
137.2578040000517	3.0016820998862386	decision	1.7829801000189036	right	M	MF019.jpg	MF020.jpg
140.80784039990976	1.0000108999665827	win	n/a	n/a	n/a	MF019.jpg	MF020.jpg
145.6580880000256	3.0007666000165045	decision	2.0322954999282956	right	F	FF017.jpg	FF018.jpg
149.20783070009202	1.0166140999644995	win	n/a	n/a	n/a	FF017.jpg	FF018.jpg
162.49109630007297	3.0020012999884784	decision	1.5325592998415232	left	M	MF021.jpg	MF022.jpg
166.04081799997948	1.0001181000843644	loss	n/a	n/a	n/a	MF021.jpg	MF022.jpg
172.99075119988993	3.001112800091505	decision	1.5325975001323968	right	M	MF023.jpg	MF024.jpg
176.54108090000227	1.0167004999238998	win	n/a	n/a	n/a	MF023.jpg	MF024.jpg
183.50787650002167	3.0015529999509454	decision	2.281916700070724	right	M	MF025.jpg	MF026.jpg
187.05780449998565	1.016473300056532	loss	n/a	n/a	n/a	MF025.jpg	MF026.jpg
191.92452879995108	3.001331300009042	decision	1.7822611001320183	left	M	MF027.jpg	MF028.jpg
195.47450309991837	1.0163329001516104	loss	n/a	n/a	n/a	MF027.jpg	MF028.jpg
198.24091839999892	3.000780100002885	decision	1.7830226998776197	right	F	FF019.jpg	FF020.jpg
201.79087339993566	1.0166052000131458	loss	n/a	n/a	n/a	FF019.jpg	FF020.jpg
204.55763739999384	3.0012775999493897	decision	2.2833374000620097	left	F	FF021.jpg	FF022.jpg
208.1074121000711	1.0000454999972135	win	n/a	n/a	n/a	FF021.jpg	FF022.jpg
215.05774890002795	3.001238999888301	decision	2.2828819998539984	right	M	MF029.jpg	MF030.jpg
218.6072712999303	1.0002115999814123	loss	n/a	n/a	n/a	MF029.jpg	MF030.jpg
225.5573366000317	3.0010822999756783	decision	2.283213499933481	left	M	MF031.jpg	MF032.jpg
229.1073578998912	1.0002715000882745	win	n/a	n/a	n/a	MF031.jpg	MF032.jpg
233.95770950010046	3.001178299775347	decision	2.2837764997966588	right	F	FF023.jpg	FF024.jpg
237.50746380002238	1.0166138999629766	loss	n/a	n/a	n/a	FF023.jpg	FF024.jpg
240.27429479989223	3.0015822001732886	decision	2.0328991999849677	left	F	FF025.jpg	FF026.jpg
243.8243048998993	1.0165955000557005	win	n/a	n/a	n/a	FF025.jpg	FF026.jpg
248.69094999996014	3.002034500008449	decision	2.0328852001111954	right	F	FF027.jpg	FF028.jpg
252.240524899913	1.0005302000790834	loss	n/a	n/a	n/a	FF027.jpg	FF028.jpg
254.9909282999579	3.0007426000665873	decision	2.5331131001003087	left	M	MF033.jpg	MF034.jpg
258.54060439998284	1.0167004999238998	loss	n/a	n/a	n/a	MF033.jpg	MF034.jpg
261.3072528000921	3.0011670999228954	decision	2.033529100008309	right	M	MF035.jpg	MF036.jpg
264.8576299000997	1.0163582998793572	loss	n/a	n/a	n/a	MF035.jpg	MF036.jpg
267.6243813999463	3.0015002000145614	decision	2.032942800084129	left	M	MF037.jpg	MF038.jpg
271.17419179994613	1.016655300045386	win	n/a	n/a	n/a	MF037.jpg	MF038.jpg
278.14074570010416	3.001034199958667	decision	2.2824473998043686	left	F	FF029.jpg	FF030.jpg
281.69083529990166	1.000012299977243	loss	n/a	n/a	n/a	FF029.jpg	FF030.jpg
284.44062189990655	3.0009883001912385	decision	2.300290800165385	right	F	FF031.jpg	FF032.jpg
287.99080240004696	1.016685999929905	loss	n/a	n/a	n/a	FF031.jpg	FF032.jpg
292.85756930010393	3.0014701997861266	decision	2.032272599870339	right	F	FF033.jpg	FF034.jpg
296.40749850007705	1.0164085000287741	win	n/a	n/a	n/a	FF033.jpg	FF034.jpg
303.37388870003633	3.001060500042513	decision	1.5325271000619978	right	M	MF039.jpg	MF040.jpg
306.92394899996	1.0166072000283748	loss	n/a	n/a	n/a	MF039.jpg	MF040.jpg
313.89084349991754	3.0011016000062227	decision	2.033000700175762	left	F	FF035.jpg	FF036.jpg
317.440794599941	1.0163484001532197	win	n/a	n/a	n/a	FF035.jpg	FF036.jpg
320.20715710008517	3.001667399890721	decision	1.5325988999102265	right	F	FF037.jpg	FF038.jpg
323.7572347000241	1.016374999890104	loss	n/a	n/a	n/a	FF037.jpg	FF038.jpg
326.5239325000439	3.001822199905291	decision	1.7828168999403715	right	F	FF039.jpg	FF040.jpg
330.0737290000543	1.0167207999620587	loss	n/a	n/a	n/a	FF039.jpg	FF040.jpg
