onset	duration	trial_type	rt	resp	gender	image_left	image_right
0.626584600191563	3.0012808998581	decision	1.78337619989179	right	M	MF001.jpg	MF002.jpg
4.17651240015402	1.01670020003803	win	NaN	n/a	n/a	MF001.jpg	MF002.jpg
11.1598134001251	3.00185179989785	decision	1.7835295998957	left	M	MF003.jpg	MF004.jpg
14.7099266001023	1.01668299990706	loss	NaN	n/a	n/a	MF003.jpg	MF004.jpg
17.4765790000092	3.00029360014014	decision	2.03242280008271	right	M	MF005.jpg	MF006.jpg
21.0264817001298	1.00003939983435	win	NaN	n/a	n/a	MF005.jpg	MF006.jpg
23.7765794000588	3.00038300012238	decision	2.03316419990733	right	F	FF001.jpg	FF002.jpg
27.3264919000212	1.00001000007614	win	NaN	n/a	n/a	FF001.jpg	FF002.jpg
32.1770944001619	3.0022658999078	decision	2.03268039994873	right	F	FF003.jpg	FF004.jpg
35.7263664000202	1.00024730013683	loss	NaN	n/a	n/a	FF003.jpg	FF004.jpg
42.6763702000026	3.00150920008309	decision	2.28250790014863	left	M	MF007.jpg	MF008.jpg
46.2264429000206	1.01692910003476	loss	NaN	n/a	n/a	MF007.jpg	MF008.jpg
51.0929598000366	3.00153270014562	decision	2.28283419995569	left	M	MF009.jpg	MF010.jpg
54.6430999001022	1.01653559994884	win	NaN	n/a	n/a	MF009.jpg	MF010.jpg
59.5096699001733	3.00148609979078	decision	2.28277029981837	left	F	FF005.jpg	FF006.jpg
63.0596374999732	1.0000047001522	loss	NaN	n/a	n/a	FF005.jpg	FF006.jpg
65.8095570001751	3.00179010001011	decision	1.78283279994503	right	F	FF007.jpg	FF008.jpg
69.3596326999832	1.00001160008833	win	NaN	n/a	n/a	FF007.jpg	FF008.jpg
72.1097222000826	3.00104069989175	decision	2.78450999991037	right	F	FF009.jpg	FF010.jpg
75.6597081001382	1.01668219990097	win	NaN	n/a	n/a	FF009.jpg	FF010.jpg
78.426426100079	3.00118070002645	decision	2.28347030002624	right	F	FF011.jpg	FF012.jpg
81.9769218000583	1.01586499996483	loss	NaN	n/a	n/a	FF011.jpg	FF012.jpg
86.8430693000555	3.00140090007335	decision	2.78282490000129	left	M	MF011.jpg	MF012.jpg
90.3930061000865	1.01662310003303	loss	NaN	n/a	n/a	MF011.jpg	MF012.jpg
93.1599457000848	3.00084319990128	decision	2.03333369991742	right	M	MF013.jpg	MF014.jpg
96.7095646001399	1.00021309987642	win	NaN	n/a	n/a	MF013.jpg	MF014.jpg
103.659666100051	3.00072180014104	decision	2.28305139997974	right	M	MF015.jpg	MF016.jpg
107.209565200144	1.00000140001066	win	NaN	n/a	n/a	MF015.jpg	MF016.jpg
109.959542799974	3.0008885001298	decision	2.78420960018411	left	F	FF013.jpg	FF014.jpg
113.509537999984	1.00035720015876	win	NaN	n/a	n/a	FF013.jpg	FF014.jpg
120.459636300104	3.00124979997054	decision	2.28263569995761	right	M	MF017.jpg	MF018.jpg
124.009556800127	1.01669989991933	win	NaN	n/a	n/a	MF017.jpg	MF018.jpg
128.876326099969	3.00095020001754	decision	2.53445920022205	right	F	FF015.jpg	FF016.jpg
132.426284100162	1.01660720002837	win	NaN	n/a	n/a	FF015.jpg	FF016.jpg
137.293007600121	3.00102419988252	decision	2.53316810005344	right	M	MF019.jpg	MF020.jpg
140.842842200072	1.0000396000687	win	NaN	n/a	n/a	MF019.jpg	MF020.jpg
145.693035900127	3.00145859993063	decision	2.28375699999742	right	F	FF017.jpg	FF018.jpg
149.243244500132	1.0163705998566	win	NaN	n/a	n/a	FF017.jpg	FF018.jpg
162.509630199987	3.00117860012688	decision	2.03316930006258	left	M	MF021.jpg	MF022.jpg
166.059449400054	1.00008570007049	loss	NaN	n/a	n/a	MF021.jpg	MF022.jpg
173.009621600155	3.00105650001206	decision	2.28240419994108	right	M	MF023.jpg	MF024.jpg
176.559536000015	1.01662850007415	win	NaN	n/a	n/a	MF023.jpg	MF024.jpg
183.526474800194	3.00157809979282	decision	2.28215809981339	left	M	MF025.jpg	MF026.jpg
187.07610820001	1.00011400016956	loss	NaN	n/a	n/a	MF025.jpg	MF026.jpg
191.926185599994	3.00181620009243	decision	2.03336340002716	left	M	MF027.jpg	MF028.jpg
195.476147199981	1.00002890010364	loss	NaN	n/a	n/a	MF027.jpg	MF028.jpg
198.226167400135	3.00171580002643	decision	2.2825471998658	left	F	FF019.jpg	FF020.jpg
201.776047399966	1.00033380021341	loss	NaN	n/a	n/a	FF019.jpg	FF020.jpg
204.526148700155	3.00116999982856	decision	1.53350150003098	right	F	FF021.jpg	FF022.jpg
208.076123700012	1.01647340017371	win	NaN	n/a	n/a	FF021.jpg	FF022.jpg
215.042764000129	3.00188949983567	decision	2.53295869985595	right	M	MF029.jpg	MF030.jpg
218.592693899991	1.00004190020263	loss	NaN	n/a	n/a	MF029.jpg	MF030.jpg
225.542765500024	3.00101370015182	decision	1.78300289995968	right	M	MF031.jpg	MF032.jpg
229.092801700113	1.01652499986812	win	NaN	n/a	n/a	MF031.jpg	MF032.jpg
233.959428900154	3.00114859989844	decision	2.28348889993504	right	F	FF023.jpg	FF024.jpg
237.50938770012	1.00003289990127	loss	NaN	n/a	n/a	FF023.jpg	FF024.jpg
240.259451800026	3.00046840007417	decision	2.03313049999997	right	F	FF025.jpg	FF026.jpg
243.80938290013	1.01665570004843	win	NaN	n/a	n/a	FF025.jpg	FF026.jpg
248.67611790006	3.00127770006657	decision	2.03259730013087	left	F	FF027.jpg	FF028.jpg
252.226005600067	1.01659730006941	loss	NaN	n/a	n/a	FF027.jpg	FF028.jpg
254.992675899994	3.00130940019153	decision	2.28320200019516	left	M	MF033.jpg	MF034.jpg
258.542590300087	1.01672099996358	loss	NaN	n/a	n/a	MF033.jpg	MF034.jpg
261.309321500128	3.00137940002605	decision	1.53236549999565	right	M	MF035.jpg	MF036.jpg
264.859219700098	1.01673620007932	loss	NaN	n/a	n/a	MF035.jpg	MF036.jpg
267.625943900086	3.00036869989708	decision	2.78307119989768	left	M	MF037.jpg	MF038.jpg
271.175895800116	1.00036150007509	win	NaN	n/a	n/a	MF037.jpg	MF038.jpg
278.126240900019	3.0011110000778	decision	1.78238310012966	left	F	FF029.jpg	FF030.jpg
281.67582910019	1.00003969995305	loss	NaN	n/a	n/a	FF029.jpg	FF030.jpg
284.425934000174	3.00191729981452	decision	2.78360169986263	right	F	FF031.jpg	FF032.jpg
287.975862800144	1.00006059999578	loss	NaN	n/a	n/a	FF031.jpg	FF032.jpg
292.825992500177	3.00189069984481	decision	2.28250549989752	left	F	FF033.jpg	FF034.jpg
296.37601090013	1.01630469993688	win	NaN	n/a	n/a	FF033.jpg	FF034.jpg
303.342636900023	3.00096180010587	decision	2.53254320006818	left	M	MF039.jpg	MF040.jpg
306.892491800012	1.0001597001683	loss	NaN	n/a	n/a	MF039.jpg	MF040.jpg
313.842690600082	3.00120879989117	decision	2.0323936000932	right	F	FF035.jpg	FF036.jpg
317.392503699986	1.00005730008706	win	NaN	n/a	n/a	FF035.jpg	FF036.jpg
320.142533699982	3.00103550008498	decision	2.28344959998503	right	F	FF037.jpg	FF038.jpg
323.692540599965	1.00009180000052	loss	NaN	n/a	n/a	FF037.jpg	FF038.jpg
326.442549400032	3.30076360004023	decision	3.30026139994152	left	F	FF039.jpg	FF040.jpg
330.29241460003	1.00000140001066	loss	NaN	n/a	n/a	FF039.jpg	FF040.jpg
