onset	duration	trial_type	response_time	Endowment	Decision	Offer
4.508912	2	cue_social	n/a	32	n/a	n/a
4.508912	2	cue_social_high	n/a	32	n/a	n/a
6.515099	1.966455	dec_social_high	1.966455	32	n/a	16
6.515099	1.966455	dec_social_high_accept	1.966455	32	accept	16
13.838760	2	cue_social	n/a	32	n/a	n/a
13.838760	2	cue_social_high	n/a	32	n/a	n/a
15.782111	1.800076	dec_social_high	1.800076	32	n/a	3
15.782111	1.800076	dec_social_high_reject	1.800076	32	reject	3
20.608763	2	cue_nonsocial	n/a	16	n/a	n/a
20.608763	2	cue_nonsocial_low	n/a	16	n/a	n/a
22.616024	1.500032	dec_nonsocial_low	1.500032	16	n/a	8
22.616024	1.500032	dec_nonsocial_low_accept	1.500032	16	accept	8
27.512556	2	cue_social	n/a	16	n/a	n/a
27.512556	2	cue_social_low	n/a	16	n/a	n/a
29.448938	1.300194	dec_social_low	1.300194	16	n/a	2
29.448938	1.300194	dec_social_low_reject	1.300194	16	reject	2
34.294792	2	cue_social	n/a	32	n/a	n/a
34.294792	2	cue_social_high	n/a	32	n/a	n/a
36.282980	1.032640	dec_social_high	1.032640	32	n/a	16
36.282980	1.032640	dec_social_high_accept	1.032640	32	accept	16
41.925190	2	cue_nonsocial	n/a	32	n/a	n/a
41.925190	2	cue_nonsocial_high	n/a	32	n/a	n/a
43.932053	1.833690	dec_nonsocial_high	1.833690	32	n/a	8
43.932053	1.833690	dec_nonsocial_high_accept	1.833690	32	accept	8
52.859634	2	cue_social	n/a	32	n/a	n/a
52.859634	2	cue_social_high	n/a	32	n/a	n/a
54.799572	0.865498	dec_social_high	0.865498	32	n/a	16
54.799572	0.865498	dec_social_high_accept	0.865498	32	accept	16
59.625065	2	cue_nonsocial	n/a	16	n/a	n/a
59.625065	2	cue_nonsocial_low	n/a	16	n/a	n/a
61.632942	0.665355	dec_nonsocial_low	0.665355	16	n/a	2
61.632942	0.665355	dec_nonsocial_low_reject	0.665355	16	reject	2
68.891900	2	cue_nonsocial	n/a	32	n/a	n/a
68.891900	2	cue_nonsocial_high	n/a	32	n/a	n/a
70.898410	0.733460	dec_nonsocial_high	0.733460	32	n/a	2
70.898410	0.733460	dec_nonsocial_high_reject	0.733460	32	reject	2
75.789760	2	cue_social	n/a	32	n/a	n/a
75.789760	2	cue_social_high	n/a	32	n/a	n/a
77.732040	2.083474	dec_social_high	2.083474	32	n/a	3
77.732040	2.083474	dec_social_high_reject	2.083474	32	reject	3
84.975230	2	cue_nonsocial	n/a	16	n/a	n/a
84.975230	2	cue_nonsocial_low	n/a	16	n/a	n/a
86.982460	1.415912	dec_nonsocial_low	1.415912	16	n/a	2
86.982460	1.415912	dec_nonsocial_low_reject	1.415912	16	reject	2
91.808105	2	cue_nonsocial	n/a	16	n/a	n/a
91.808105	2	cue_nonsocial_low	n/a	16	n/a	n/a
93.816040	1.115473	dec_nonsocial_low	1.115473	16	n/a	8
93.816040	1.115473	dec_nonsocial_low_accept	1.115473	16	accept	8
98.708244	2	cue_social	n/a	32	n/a	n/a
98.708244	2	cue_social_high	n/a	32	n/a	n/a
100.649605	1.265305	dec_social_high	1.265305	32	n/a	2
100.649605	1.265305	dec_social_high_reject	1.265305	32	reject	2
107.908460	2	cue_nonsocial	n/a	32	n/a	n/a
107.908460	2	cue_nonsocial_high	n/a	32	n/a	n/a
109.916120	1.082794	dec_nonsocial_high	1.082794	32	n/a	2
109.916120	1.082794	dec_nonsocial_high_reject	1.082794	32	reject	2
115.558560	2	cue_nonsocial	n/a	32	n/a	n/a
115.558560	2	cue_nonsocial_high	n/a	32	n/a	n/a
117.566040	0.983151	dec_nonsocial_high	0.983151	32	n/a	16
117.566040	0.983151	dec_nonsocial_high_accept	0.983151	32	accept	16
122.469315	2	cue_social	n/a	32	n/a	n/a
122.469315	2	cue_social_high	n/a	32	n/a	n/a
124.398090	1.616845	dec_social_high	1.616845	32	n/a	8
124.398090	1.616845	dec_social_high_accept	1.616845	32	accept	8
130.102890	2	cue_social	n/a	16	n/a	n/a
130.102890	2	cue_social_low	n/a	16	n/a	n/a
132.048930	1.465936	dec_social_low	1.465936	16	n/a	4
132.048930	1.465936	dec_social_low_accept	1.465936	16	accept	4
137.758030	2	cue_social	n/a	32	n/a	n/a
137.758030	2	cue_social_high	n/a	32	n/a	n/a
139.698040	1.016581	dec_social_high	1.016581	32	n/a	16
139.698040	1.016581	dec_social_high_accept	1.016581	32	accept	16
144.524900	2	cue_nonsocial	n/a	32	n/a	n/a
144.524900	2	cue_nonsocial_high	n/a	32	n/a	n/a
146.532040	1.616329	dec_nonsocial_high	1.616329	32	n/a	2
146.532040	1.616329	dec_nonsocial_high_reject	1.616329	32	reject	2
151.358430	2	cue_nonsocial	n/a	32	n/a	n/a
151.358430	2	cue_nonsocial_high	n/a	32	n/a	n/a
153.365040	1.616161	dec_nonsocial_high	1.616161	32	n/a	8
153.365040	1.616161	dec_nonsocial_high_accept	1.616161	32	accept	8
158.191800	2	cue_nonsocial	n/a	32	n/a	n/a
158.191800	2	cue_nonsocial_high	n/a	32	n/a	n/a
160.198090	1.600870	dec_nonsocial_high	1.600870	32	n/a	3
160.198090	1.600870	dec_nonsocial_high_reject	1.600870	32	reject	3
169.130720	2	cue_social	n/a	16	n/a	n/a
169.130720	2	cue_social_low	n/a	16	n/a	n/a
171.065060	1.233459	dec_social_low	1.233459	16	n/a	2
171.065060	1.233459	dec_social_low_reject	1.233459	16	reject	2
176.768550	2	cue_social	n/a	16	n/a	n/a
176.768550	2	cue_social_low	n/a	16	n/a	n/a
178.715150	1.283794	dec_social_low	1.283794	16	n/a	8
178.715150	1.283794	dec_social_low_accept	1.283794	16	accept	8
183.636300	2	cue_social	n/a	32	n/a	n/a
183.636300	2	cue_social_high	n/a	32	n/a	n/a
185.548650	1.166137	dec_social_high	1.166137	32	n/a	2
185.548650	1.166137	dec_social_high_reject	1.166137	32	reject	2
191.191710	2	cue_nonsocial	n/a	16	n/a	n/a
191.191710	2	cue_nonsocial_low	n/a	16	n/a	n/a
193.198170	1.566343	dec_nonsocial_low	1.566343	16	n/a	4
193.198170	1.566343	dec_nonsocial_low_accept	1.566343	16	accept	4
198.116610	2	cue_social	n/a	16	n/a	n/a
198.116610	2	cue_social_low	n/a	16	n/a	n/a
200.032060	1.066213	dec_social_low	1.066213	16	n/a	1
200.032060	1.066213	dec_social_low_reject	1.066213	16	reject	1
205.675520	2	cue_nonsocial	n/a	32	n/a	n/a
205.675520	2	cue_nonsocial_high	n/a	32	n/a	n/a
207.682070	1.149785	dec_nonsocial_high	1.149785	32	n/a	16
207.682070	1.149785	dec_nonsocial_high_accept	1.149785	32	accept	16
212.554020	2	cue_social	n/a	16	n/a	n/a
212.554020	2	cue_social_low	n/a	16	n/a	n/a
214.515030	1.200143	dec_social_low	1.200143	16	n/a	2
214.515030	1.200143	dec_social_low_reject	1.200143	16	reject	2
219.341480	2	cue_nonsocial	n/a	16	n/a	n/a
219.341480	2	cue_nonsocial_low	n/a	16	n/a	n/a
221.348680	0.965928	dec_nonsocial_low	0.965928	16	n/a	2
221.348680	0.965928	dec_nonsocial_low_reject	0.965928	16	reject	2
231.824660	2	cue_nonsocial	n/a	16	n/a	n/a
231.824660	2	cue_nonsocial_low	n/a	16	n/a	n/a
233.832050	1.183313	dec_nonsocial_low	1.183313	16	n/a	1
233.832050	1.183313	dec_nonsocial_low_reject	1.183313	16	reject	1
241.091370	2	cue_nonsocial	n/a	32	n/a	n/a
241.091370	2	cue_nonsocial_high	n/a	32	n/a	n/a
243.099150	1.182815	dec_nonsocial_high	1.182815	32	n/a	2
243.099150	1.182815	dec_nonsocial_high_reject	1.182815	32	reject	2
248.741870	2	cue_nonsocial	n/a	16	n/a	n/a
248.741870	2	cue_nonsocial_low	n/a	16	n/a	n/a
250.748600	1.116048	dec_nonsocial_low	1.116048	16	n/a	2
250.748600	1.116048	dec_nonsocial_low_reject	1.116048	16	reject	2
255.574900	2	cue_nonsocial	n/a	32	n/a	n/a
255.574900	2	cue_nonsocial_high	n/a	32	n/a	n/a
257.582280	0.898958	dec_nonsocial_high	0.898958	32	n/a	3
257.582280	0.898958	dec_nonsocial_high_accept	0.898958	32	accept	3
262.408300	2	cue_nonsocial	n/a	32	n/a	n/a
262.408300	2	cue_nonsocial_high	n/a	32	n/a	n/a
264.415340	1.383066	dec_nonsocial_high	1.383066	32	n/a	2
264.415340	1.383066	dec_nonsocial_high_reject	1.383066	32	reject	2
270.137570	2	cue_social	n/a	32	n/a	n/a
270.137570	2	cue_social_high	n/a	32	n/a	n/a
272.064940	1.316645	dec_social_high	1.316645	32	n/a	2
272.064940	1.316645	dec_social_high_reject	1.316645	32	reject	2
276.891330	2	cue_nonsocial	n/a	16	n/a	n/a
276.891330	2	cue_nonsocial_low	n/a	16	n/a	n/a
278.898860	1.299397	dec_nonsocial_low	1.299397	16	n/a	4
278.898860	1.299397	dec_nonsocial_low_accept	1.299397	16	accept	4
283.776300	2	cue_social	n/a	16	n/a	n/a
283.776300	2	cue_social_low	n/a	16	n/a	n/a
285.731870	0.933295	dec_social_low	0.933295	16	n/a	4
285.731870	0.933295	dec_social_low_accept	0.933295	16	accept	4
293.030060	2	cue_social	n/a	16	n/a	n/a
293.030060	2	cue_social_low	n/a	16	n/a	n/a
294.982060	0.999360	dec_social_low	0.999360	16	n/a	4
294.982060	0.999360	dec_social_low_accept	0.999360	16	accept	4
299.808040	2	cue_nonsocial	n/a	16	n/a	n/a
299.808040	2	cue_nonsocial_low	n/a	16	n/a	n/a
301.815100	1.316265	dec_nonsocial_low	1.316265	16	n/a	4
301.815100	1.316265	dec_nonsocial_low_accept	1.316265	16	accept	4
310.742900	2	cue_social	n/a	16	n/a	n/a
310.742900	2	cue_social_low	n/a	16	n/a	n/a
312.682070	1.115799	dec_social_low	1.115799	16	n/a	1
312.682070	1.115799	dec_social_low_reject	1.115799	16	reject	1
317.508120	2	cue_nonsocial	n/a	32	n/a	n/a
317.508120	2	cue_nonsocial_high	n/a	32	n/a	n/a
319.515050	1.266166	dec_nonsocial_high	1.266166	32	n/a	8
319.515050	1.266166	dec_nonsocial_high_accept	1.266166	32	accept	8
326.815600	2	cue_social	n/a	32	n/a	n/a
326.815600	2	cue_social_high	n/a	32	n/a	n/a
328.781770	1.000139	dec_social_high	1.000139	32	n/a	8
328.781770	1.000139	dec_social_high_accept	1.000139	32	accept	8
334.425100	2	cue_nonsocial	n/a	32	n/a	n/a
334.425100	2	cue_nonsocial_high	n/a	32	n/a	n/a
336.430940	1.134343	dec_nonsocial_high	1.134343	32	n/a	16
336.430940	1.134343	dec_nonsocial_high_accept	1.134343	32	accept	16
342.121000	2	cue_social	n/a	32	n/a	n/a
342.121000	2	cue_social_high	n/a	32	n/a	n/a
344.065460	1.599574	dec_social_high	1.599574	32	n/a	2
344.065460	1.599574	dec_social_high_reject	1.599574	32	reject	2
348.957030	2	cue_social	n/a	16	n/a	n/a
348.957030	2	cue_social_low	n/a	16	n/a	n/a
350.898070	1.199775	dec_social_low	1.199775	16	n/a	4
350.898070	1.199775	dec_social_low_accept	1.199775	16	accept	4
355.724460	2	cue_nonsocial	n/a	32	n/a	n/a
355.724460	2	cue_nonsocial_high	n/a	32	n/a	n/a
357.731020	1.134011	dec_nonsocial_high	1.134011	32	n/a	16
357.731020	1.134011	dec_nonsocial_high_accept	1.134011	32	accept	16
363.428440	2	cue_social	n/a	16	n/a	n/a
363.428440	2	cue_social_low	n/a	16	n/a	n/a
365.365100	1.133163	dec_social_low	1.133163	16	n/a	2
365.365100	1.133163	dec_social_low_reject	1.133163	16	reject	2
370.237760	2	cue_social	n/a	16	n/a	n/a
370.237760	2	cue_social_low	n/a	16	n/a	n/a
372.197170	1.316804	dec_social_low	1.316804	16	n/a	8
372.197170	1.316804	dec_social_low_accept	1.316804	16	accept	8
