onset	duration	trial_type	response_time	Endowment	Endowment_pmod	Decision	Decision_pmod	Offer_pmod
4.602663	2	cue_social	n/a	16	-7	n/a	n/a	n/a
4.602663	2	cue_social_low	n/a	16	-9	n/a	n/a	n/a
11.358141	2	cue_nonsocial	n/a	16	-9	n/a	n/a	n/a
11.358141	2	cue_nonsocial_low	n/a	16	-7	n/a	n/a	n/a
20.645565	2	cue_social	n/a	16	-7	n/a	n/a	n/a
20.645565	2	cue_social_low	n/a	16	-9	n/a	n/a	n/a
29.891624	2	cue_nonsocial	n/a	32	7	n/a	n/a	n/a
29.891624	2	cue_nonsocial_high	n/a	32	9	n/a	n/a	n/a
37.607018	2	cue_social	n/a	32	9	n/a	n/a	n/a
37.607018	2	cue_social_high	n/a	32	7	n/a	n/a	n/a
46.791504	2	cue_nonsocial	n/a	16	-9	n/a	n/a	n/a
46.791504	2	cue_nonsocial_low	n/a	16	-7	n/a	n/a	n/a
54.441680	2	cue_nonsocial	n/a	32	7	n/a	n/a	n/a
54.441680	2	cue_nonsocial_high	n/a	32	9	n/a	n/a	n/a
61.338450	2	cue_social	n/a	16	-7	n/a	n/a	n/a
61.338450	2	cue_social_low	n/a	16	-9	n/a	n/a	n/a
68.108360	2	cue_nonsocial	n/a	16	-9	n/a	n/a	n/a
68.108360	2	cue_nonsocial_low	n/a	16	-7	n/a	n/a	n/a
75.007510	2	cue_social	n/a	16	-7	n/a	n/a	n/a
75.007510	2	cue_social_low	n/a	16	-9	n/a	n/a	n/a
85.873840	2	cue_social	n/a	16	-7	n/a	n/a	n/a
85.873840	2	cue_social_low	n/a	16	-9	n/a	n/a	n/a
95.058040	2	cue_nonsocial	n/a	16	-9	n/a	n/a	n/a
95.058040	2	cue_nonsocial_low	n/a	16	-7	n/a	n/a	n/a
101.891120	2	cue_nonsocial	n/a	32	7	n/a	n/a	n/a
101.891120	2	cue_nonsocial_high	n/a	32	9	n/a	n/a	n/a
109.594696	2	cue_social	n/a	32	9	n/a	n/a	n/a
109.594696	2	cue_social_high	n/a	32	7	n/a	n/a	n/a
116.374450	2	cue_nonsocial	n/a	32	7	n/a	n/a	n/a
116.374450	2	cue_nonsocial_high	n/a	32	9	n/a	n/a	n/a
123.272430	2	cue_social	n/a	32	9	n/a	n/a	n/a
123.272430	2	cue_social_high	n/a	32	7	n/a	n/a	n/a
135.691150	2	cue_nonsocial	n/a	32	7	n/a	n/a	n/a
135.691150	2	cue_nonsocial_high	n/a	32	9	n/a	n/a	n/a
142.524730	2	cue_nonsocial	n/a	32	7	n/a	n/a	n/a
142.524730	2	cue_nonsocial_high	n/a	32	9	n/a	n/a	n/a
149.357800	2	cue_nonsocial	n/a	32	7	n/a	n/a	n/a
149.357800	2	cue_nonsocial_high	n/a	32	9	n/a	n/a	n/a
157.066540	2	cue_social	n/a	16	-7	n/a	n/a	n/a
157.066540	2	cue_social_low	n/a	16	-9	n/a	n/a	n/a
164.722340	2	cue_social	n/a	16	-7	n/a	n/a	n/a
164.722340	2	cue_social_low	n/a	16	-9	n/a	n/a	n/a
171.603790	2	cue_social	n/a	32	9	n/a	n/a	n/a
171.603790	2	cue_social_high	n/a	32	7	n/a	n/a	n/a
178.383930	2	cue_social	n/a	16	-7	n/a	n/a	n/a
178.383930	2	cue_social_low	n/a	16	-9	n/a	n/a	n/a
185.158070	2	cue_nonsocial	n/a	16	-9	n/a	n/a	n/a
185.158070	2	cue_nonsocial_low	n/a	16	-7	n/a	n/a	n/a
192.858100	2	cue_social	n/a	16	-7	n/a	n/a	n/a
192.858100	2	cue_social_low	n/a	16	-9	n/a	n/a	n/a
200.457640	2	cue_nonsocial	n/a	16	-9	n/a	n/a	n/a
200.457640	2	cue_nonsocial_low	n/a	16	-7	n/a	n/a	n/a
207.291600	2	cue_nonsocial	n/a	32	7	n/a	n/a	n/a
207.291600	2	cue_nonsocial_high	n/a	32	9	n/a	n/a	n/a
214.124370	2	cue_nonsocial	n/a	32	7	n/a	n/a	n/a
214.124370	2	cue_nonsocial_high	n/a	32	9	n/a	n/a	n/a
223.374660	2	cue_nonsocial	n/a	32	7	n/a	n/a	n/a
223.374660	2	cue_nonsocial_high	n/a	32	9	n/a	n/a	n/a
230.208010	2	cue_nonsocial	n/a	32	7	n/a	n/a	n/a
230.208010	2	cue_nonsocial_high	n/a	32	9	n/a	n/a	n/a
241.130000	2	cue_social	n/a	32	9	n/a	n/a	n/a
241.130000	2	cue_social_high	n/a	32	7	n/a	n/a	n/a
252.003360	2	cue_social	n/a	32	9	n/a	n/a	n/a
252.003360	2	cue_social_high	n/a	32	7	n/a	n/a	n/a
258.838230	2	cue_social	n/a	16	-7	n/a	n/a	n/a
258.838230	2	cue_social_low	n/a	16	-9	n/a	n/a	n/a
266.474850	2	cue_social	n/a	32	9	n/a	n/a	n/a
266.474850	2	cue_social_high	n/a	32	7	n/a	n/a	n/a
275.778200	2	cue_social	n/a	32	9	n/a	n/a	n/a
275.778200	2	cue_social_high	n/a	32	7	n/a	n/a	n/a
282.524660	2	cue_nonsocial	n/a	32	7	n/a	n/a	n/a
282.524660	2	cue_nonsocial_high	n/a	32	9	n/a	n/a	n/a
291.833950	2	cue_social	n/a	16	-7	n/a	n/a	n/a
291.833950	2	cue_social_low	n/a	16	-9	n/a	n/a	n/a
298.607900	2	cue_nonsocial	n/a	16	-9	n/a	n/a	n/a
298.607900	2	cue_nonsocial_low	n/a	16	-7	n/a	n/a	n/a
305.441380	2	cue_nonsocial	n/a	32	7	n/a	n/a	n/a
305.441380	2	cue_nonsocial_high	n/a	32	9	n/a	n/a	n/a
312.329470	2	cue_social	n/a	32	9	n/a	n/a	n/a
312.329470	2	cue_social_high	n/a	32	7	n/a	n/a	n/a
319.979830	2	cue_social	n/a	32	9	n/a	n/a	n/a
319.979830	2	cue_social_high	n/a	32	7	n/a	n/a	n/a
327.541020	2	cue_nonsocial	n/a	16	-9	n/a	n/a	n/a
327.541020	2	cue_nonsocial_low	n/a	16	-7	n/a	n/a	n/a
335.174600	2	cue_nonsocial	n/a	16	-9	n/a	n/a	n/a
335.174600	2	cue_nonsocial_low	n/a	16	-7	n/a	n/a	n/a
342.033720	2	cue_social	n/a	16	-7	n/a	n/a	n/a
342.033720	2	cue_social_low	n/a	16	-9	n/a	n/a	n/a
348.841200	2	cue_nonsocial	n/a	16	-9	n/a	n/a	n/a
348.841200	2	cue_nonsocial_low	n/a	16	-7	n/a	n/a	n/a
355.674350	2	cue_nonsocial	n/a	32	7	n/a	n/a	n/a
355.674350	2	cue_nonsocial_high	n/a	32	9	n/a	n/a	n/a
363.371700	2	cue_social	n/a	32	9	n/a	n/a	n/a
363.371700	2	cue_social_high	n/a	32	7	n/a	n/a	n/a
370.216600	2	cue_social	n/a	16	-7	n/a	n/a	n/a
370.216600	2	cue_social_low	n/a	16	-9	n/a	n/a	n/a
6.515043	3.766946	missed_trial	3.766946	16.000000	n/a	n/a	n/a	n/a
13.365173	0.999654	dec_nonsocial_choice	0.999654	16.000000	n/a	1	-1.722074e-01	-1.722074e-01
13.365173	0.999654	dec_choice	0.999654	16.000000	n/a	1	-1.679688e-01	-1.679688e-01
13.365173	0.999654	dec_nonsocial_accept	0.999654	16.000000	n/a	1	-1.756944e-01	-1.756944e-01
13.365173	0.999654	dec_accept	0.999654	16.000000	n/a	1	-1.752717e-01	-1.752717e-01
13.365173	0.999654	dec_nonsocial_low	0.999654	16.000000	n/a	1	-1.679688e-01	-1.679688e-01
13.365173	0.999654	dec_nonsocial_accept_low	0.999654	16.000000	n/a	1	-1.752717e-01	-1.752717e-01
22.631199	2.416174	dec_social_choice	2.416174	16.000000	n/a	2	-1.097074e-01	-1.097074e-01
22.631199	2.416174	dec_choice	2.416174	16.000000	n/a	2	-1.141304e-01	-1.141304e-01
22.631199	2.416174	dec_social_accept	2.416174	16.000000	n/a	2	-1.131944e-01	-1.131944e-01
22.631199	2.416174	dec_accept	2.416174	16.000000	n/a	2	-1.136364e-01	-1.136364e-01
22.631199	2.416174	dec_social_low	2.416174	16.000000	n/a	2	-1.141304e-01	-1.141304e-01
22.631199	2.416174	dec_social_accept_low	2.416174	16.000000	n/a	2	-1.141304e-01	-1.141304e-01
31.898280	1.765967	dec_nonsocial_choice	1.765967	32.000000	n/a	3	-1.409574e-01	-1.409574e-01
31.898280	1.765967	dec_choice	1.765967	32.000000	n/a	3	-1.367188e-01	-1.367188e-01
31.898280	1.765967	dec_nonsocial_accept	1.765967	32.000000	n/a	3	-1.444444e-01	-1.444444e-01
31.898280	1.765967	dec_accept	1.765967	32.000000	n/a	3	-1.440217e-01	-1.440217e-01
31.898280	1.765967	dec_nonsocial_low	1.765967	32.000000	n/a	3	-1.367188e-01	-1.367188e-01
31.898280	1.765967	dec_nonsocial_accept_low	1.765967	32.000000	n/a	3	-1.440217e-01	-1.440217e-01
39.548256	1.216351	dec_social_choice	1.216351	32.000000	n/a	16	2.652926e-01	2.652926e-01
39.548256	1.216351	dec_choice	1.216351	32.000000	n/a	16	2.608696e-01	2.608696e-01
39.548256	1.216351	dec_social_accept	1.216351	32.000000	n/a	16	2.618056e-01	2.618056e-01
39.548256	1.216351	dec_accept	1.216351	32.000000	n/a	16	2.613636e-01	2.613636e-01
39.548256	1.216351	dec_social_high	1.216351	32.000000	n/a	16	2.608696e-01	2.608696e-01
39.548256	1.216351	dec_social_accept_high	1.216351	32.000000	n/a	16	2.608696e-01	2.608696e-01
48.797356	1.400662	dec_nonsocial_choice	1.400662	16.000000	n/a	1	-1.722074e-01	-1.722074e-01
48.797356	1.400662	dec_choice	1.400662	16.000000	n/a	1	-1.679688e-01	-1.679688e-01
48.797356	1.400662	dec_nonsocial_accept	1.400662	16.000000	n/a	1	-1.756944e-01	-1.756944e-01
48.797356	1.400662	dec_accept	1.400662	16.000000	n/a	1	-1.752717e-01	-1.752717e-01
48.797356	1.400662	dec_nonsocial_accept_low	1.400662	16.000000	n/a	1	-1.761364e-01	-1.761364e-01
56.448296	1.449884	dec_nonsocial_choice	1.449884	32.000000	n/a	2	-1.722074e-01	-1.722074e-01
56.448296	1.449884	dec_choice	1.449884	32.000000	n/a	2	-1.679688e-01	-1.679688e-01
56.448296	1.449884	dec_nonsocial_accept	1.449884	32.000000	n/a	2	-1.756944e-01	-1.756944e-01
56.448296	1.449884	dec_accept	1.449884	32.000000	n/a	2	-1.752717e-01	-1.752717e-01
56.448296	1.449884	dec_nonsocial_accept_low	1.449884	32.000000	n/a	2	-1.761364e-01	-1.761364e-01
63.281220	1.116425	dec_social_choice	1.116425	16.000000	n/a	8	2.652926e-01	2.652926e-01
63.281220	1.116425	dec_choice	1.116425	16.000000	n/a	8	2.608696e-01	2.608696e-01
63.281220	1.116425	dec_social_accept	1.116425	16.000000	n/a	8	2.618056e-01	2.618056e-01
63.281220	1.116425	dec_accept	1.116425	16.000000	n/a	8	2.613636e-01	2.613636e-01
63.281220	1.116425	dec_social_accept_high	1.116425	16.000000	n/a	8	2.608696e-01	2.608696e-01
70.115204	0.982903	dec_nonsocial_choice	0.982903	16.000000	n/a	8	2.652926e-01	2.652926e-01
70.115204	0.982903	dec_choice	0.982903	16.000000	n/a	8	2.695312e-01	2.695312e-01
70.115204	0.982903	dec_nonsocial_accept	0.982903	16.000000	n/a	8	2.618056e-01	2.618056e-01
70.115204	0.982903	dec_accept	0.982903	16.000000	n/a	8	2.622283e-01	2.622283e-01
70.115204	0.982903	dec_nonsocial_accept_high	0.982903	16.000000	n/a	8	2.613636e-01	2.613636e-01
76.947365	1.284054	dec_social_choice	1.284054	16.000000	n/a	8	2.652926e-01	2.652926e-01
76.947365	1.284054	dec_choice	1.284054	16.000000	n/a	8	2.608696e-01	2.608696e-01
76.947365	1.284054	dec_social_accept	1.284054	16.000000	n/a	8	2.618056e-01	2.618056e-01
76.947365	1.284054	dec_accept	1.284054	16.000000	n/a	8	2.613636e-01	2.613636e-01
76.947365	1.284054	dec_social_accept_high	1.284054	16.000000	n/a	8	2.608696e-01	2.608696e-01
87.814000	1.272504	dec_social_choice	1.272504	16.000000	n/a	0	0	-2.347074e-01
87.814000	1.272504	dec_choice	1.272504	16.000000	n/a	0	0	-2.391304e-01
87.814000	1.272504	dec_social_reject	1.272504	16.000000	n/a	0	0	9.375000e-02
87.814000	1.272504	dec_reject	1.272504	16.000000	n/a	0	0	0
87.814000	1.272504	dec_social_reject_low	1.272504	16.000000	n/a	4	1.086957e-02	-2.391304e-01
97.064000	0.866954	dec_nonsocial_choice	0.866954	16.000000	n/a	2	-1.097074e-01	-1.097074e-01
97.064000	0.866954	dec_choice	0.866954	16.000000	n/a	2	-1.054688e-01	-1.054688e-01
97.064000	0.866954	dec_nonsocial_accept	0.866954	16.000000	n/a	2	-1.131944e-01	-1.131944e-01
97.064000	0.866954	dec_accept	0.866954	16.000000	n/a	2	-1.127717e-01	-1.127717e-01
97.064000	0.866954	dec_nonsocial_accept_low	0.866954	16.000000	n/a	2	-1.136364e-01	-1.136364e-01
103.898060	1.099946	dec_nonsocial_choice	1.099946	32.000000	n/a	0	0	-2.347074e-01
103.898060	1.099946	dec_choice	1.099946	32.000000	n/a	0	0	-2.304688e-01
103.898060	1.099946	dec_nonsocial_reject	1.099946	32.000000	n/a	0	0	-9.375000e-02
103.898060	1.099946	dec_reject	1.099946	32.000000	n/a	0	0	0
103.898060	1.099946	dec_nonsocial_reject_low	1.099946	32.000000	n/a	2	-1.875000e-01	-2.500000e-01
111.548200	1.633193	dec_social_choice	1.633193	32.000000	n/a	2	-1.722074e-01	-1.722074e-01
111.548200	1.633193	dec_choice	1.633193	32.000000	n/a	2	-1.766304e-01	-1.766304e-01
111.548200	1.633193	dec_social_accept	1.633193	32.000000	n/a	2	-1.756944e-01	-1.756944e-01
111.548200	1.633193	dec_accept	1.633193	32.000000	n/a	2	-1.761364e-01	-1.761364e-01
111.548200	1.633193	dec_social_low	1.633193	32.000000	n/a	2	-1.766304e-01	-1.766304e-01
111.548200	1.633193	dec_social_accept_low	1.633193	32.000000	n/a	2	-1.766304e-01	-1.766304e-01
118.382110	2.165231	dec_nonsocial_choice	2.165231	32.000000	n/a	8	1.529255e-02	1.529255e-02
118.382110	2.165231	dec_choice	2.165231	32.000000	n/a	8	1.953125e-02	1.953125e-02
118.382110	2.165231	dec_nonsocial_accept	2.165231	32.000000	n/a	8	1.180556e-02	1.180556e-02
118.382110	2.165231	dec_accept	2.165231	32.000000	n/a	8	1.222826e-02	1.222826e-02
118.382110	2.165231	dec_nonsocial_accept_high	2.165231	32.000000	n/a	8	1.136364e-02	1.136364e-02
125.214850	2.116009	dec_social_choice	2.116009	32.000000	n/a	8	1.529255e-02	1.529255e-02
125.214850	2.116009	dec_choice	2.116009	32.000000	n/a	8	1.086957e-02	1.086957e-02
125.214850	2.116009	dec_social_accept	2.116009	32.000000	n/a	8	1.180556e-02	1.180556e-02
125.214850	2.116009	dec_accept	2.116009	32.000000	n/a	8	1.136364e-02	1.136364e-02
125.214850	2.116009	dec_social_high	2.116009	32.000000	n/a	8	1.086957e-02	1.086957e-02
125.214850	2.116009	dec_social_accept_high	2.116009	32.000000	n/a	8	1.086957e-02	1.086957e-02
137.698400	2.282877	dec_nonsocial_choice	2.282877	32.000000	n/a	3	-1.409574e-01	-1.409574e-01
137.698400	2.282877	dec_choice	2.282877	32.000000	n/a	3	-1.367188e-01	-1.367188e-01
137.698400	2.282877	dec_nonsocial_accept	2.282877	32.000000	n/a	3	-1.444444e-01	-1.444444e-01
137.698400	2.282877	dec_accept	2.282877	32.000000	n/a	3	-1.440217e-01	-1.440217e-01
137.698400	2.282877	dec_nonsocial_accept_low	2.282877	32.000000	n/a	3	-1.448864e-01	-1.448864e-01
144.531220	1.450243	dec_nonsocial_choice	1.450243	32.000000	n/a	3	-1.409574e-01	-1.409574e-01
144.531220	1.450243	dec_choice	1.450243	32.000000	n/a	3	-1.367188e-01	-1.367188e-01
144.531220	1.450243	dec_nonsocial_accept	1.450243	32.000000	n/a	3	-1.444444e-01	-1.444444e-01
144.531220	1.450243	dec_accept	1.450243	32.000000	n/a	3	-1.440217e-01	-1.440217e-01
144.531220	1.450243	dec_nonsocial_accept_low	1.450243	32.000000	n/a	3	-1.448864e-01	-1.448864e-01
151.363940	1.433938	dec_nonsocial_choice	1.433938	32.000000	n/a	8	1.529255e-02	1.529255e-02
151.363940	1.433938	dec_choice	1.433938	32.000000	n/a	8	1.953125e-02	1.953125e-02
151.363940	1.433938	dec_nonsocial_accept	1.433938	32.000000	n/a	8	1.180556e-02	1.180556e-02
151.363940	1.433938	dec_accept	1.433938	32.000000	n/a	8	1.222826e-02	1.222826e-02
151.363940	1.433938	dec_nonsocial_high	1.433938	32.000000	n/a	8	1.953125e-02	1.953125e-02
151.363940	1.433938	dec_nonsocial_accept_high	1.433938	32.000000	n/a	8	1.222826e-02	1.222826e-02
159.013800	2.066956	dec_social_choice	2.066956	16.000000	n/a	4	1.529255e-02	1.529255e-02
159.013800	2.066956	dec_choice	2.066956	16.000000	n/a	4	1.086957e-02	1.086957e-02
159.013800	2.066956	dec_social_accept	2.066956	16.000000	n/a	4	1.180556e-02	1.180556e-02
159.013800	2.066956	dec_accept	2.066956	16.000000	n/a	4	1.136364e-02	1.136364e-02
159.013800	2.066956	dec_social_accept_high	2.066956	16.000000	n/a	4	1.086957e-02	1.086957e-02
166.664600	1.250031	dec_social_choice	1.250031	16.000000	n/a	2	-1.097074e-01	-1.097074e-01
166.664600	1.250031	dec_choice	1.250031	16.000000	n/a	2	-1.141304e-01	-1.141304e-01
166.664600	1.250031	dec_social_accept	1.250031	16.000000	n/a	2	-1.131944e-01	-1.131944e-01
166.664600	1.250031	dec_accept	1.250031	16.000000	n/a	2	-1.136364e-01	-1.136364e-01
166.664600	1.250031	dec_social_accept_low	1.250031	16.000000	n/a	2	-1.141304e-01	-1.141304e-01
173.497420	1.300414	dec_social_choice	1.300414	32.000000	n/a	16	2.652926e-01	2.652926e-01
173.497420	1.300414	dec_choice	1.300414	32.000000	n/a	16	2.608696e-01	2.608696e-01
173.497420	1.300414	dec_social_accept	1.300414	32.000000	n/a	16	2.618056e-01	2.618056e-01
173.497420	1.300414	dec_accept	1.300414	32.000000	n/a	16	2.613636e-01	2.613636e-01
173.497420	1.300414	dec_social_accept_high	1.300414	32.000000	n/a	16	2.608696e-01	2.608696e-01
180.332280	1.648945	dec_social_choice	1.648945	16.000000	n/a	4	1.529255e-02	1.529255e-02
180.332280	1.648945	dec_choice	1.648945	16.000000	n/a	4	1.086957e-02	1.086957e-02
180.332280	1.648945	dec_social_accept	1.648945	16.000000	n/a	4	1.180556e-02	1.180556e-02
180.332280	1.648945	dec_accept	1.648945	16.000000	n/a	4	1.136364e-02	1.136364e-02
180.332280	1.648945	dec_social_high	1.648945	16.000000	n/a	4	1.086957e-02	1.086957e-02
180.332280	1.648945	dec_social_accept_high	1.648945	16.000000	n/a	4	1.086957e-02	1.086957e-02
187.164250	1.666544	dec_nonsocial_choice	1.666544	16.000000	n/a	2	-1.097074e-01	-1.097074e-01
187.164250	1.666544	dec_choice	1.666544	16.000000	n/a	2	-1.054688e-01	-1.054688e-01
187.164250	1.666544	dec_nonsocial_accept	1.666544	16.000000	n/a	2	-1.131944e-01	-1.131944e-01
187.164250	1.666544	dec_accept	1.666544	16.000000	n/a	2	-1.127717e-01	-1.127717e-01
187.164250	1.666544	dec_nonsocial_low	1.666544	16.000000	n/a	2	-1.054688e-01	-1.054688e-01
187.164250	1.666544	dec_nonsocial_accept_low	1.666544	16.000000	n/a	2	-1.127717e-01	-1.127717e-01
194.814240	1.783602	dec_social_choice	1.783602	16.000000	n/a	1	-1.722074e-01	-1.722074e-01
194.814240	1.783602	dec_choice	1.783602	16.000000	n/a	1	-1.766304e-01	-1.766304e-01
194.814240	1.783602	dec_social_accept	1.783602	16.000000	n/a	1	-1.756944e-01	-1.756944e-01
194.814240	1.783602	dec_accept	1.783602	16.000000	n/a	1	-1.761364e-01	-1.761364e-01
194.814240	1.783602	dec_social_accept_low	1.783602	16.000000	n/a	1	-1.766304e-01	-1.766304e-01
202.465230	1.499500	dec_nonsocial_choice	1.499500	16.000000	n/a	2	-1.097074e-01	-1.097074e-01
202.465230	1.499500	dec_choice	1.499500	16.000000	n/a	2	-1.054688e-01	-1.054688e-01
202.465230	1.499500	dec_nonsocial_accept	1.499500	16.000000	n/a	2	-1.131944e-01	-1.131944e-01
202.465230	1.499500	dec_accept	1.499500	16.000000	n/a	2	-1.127717e-01	-1.127717e-01
202.465230	1.499500	dec_nonsocial_low	1.499500	16.000000	n/a	2	-1.054688e-01	-1.054688e-01
202.465230	1.499500	dec_nonsocial_accept_low	1.499500	16.000000	n/a	2	-1.127717e-01	-1.127717e-01
209.297200	1.266941	dec_nonsocial_choice	1.266941	32.000000	n/a	2	-1.722074e-01	-1.722074e-01
209.297200	1.266941	dec_choice	1.266941	32.000000	n/a	2	-1.679688e-01	-1.679688e-01
209.297200	1.266941	dec_nonsocial_accept	1.266941	32.000000	n/a	2	-1.756944e-01	-1.756944e-01
209.297200	1.266941	dec_accept	1.266941	32.000000	n/a	2	-1.752717e-01	-1.752717e-01
209.297200	1.266941	dec_nonsocial_low	1.266941	32.000000	n/a	2	-1.679688e-01	-1.679688e-01
209.297200	1.266941	dec_nonsocial_accept_low	1.266941	32.000000	n/a	2	-1.752717e-01	-1.752717e-01
216.130300	1.717214	dec_nonsocial_choice	1.717214	32.000000	n/a	8	1.529255e-02	1.529255e-02
216.130300	1.717214	dec_choice	1.717214	32.000000	n/a	8	1.953125e-02	1.953125e-02
216.130300	1.717214	dec_nonsocial_accept	1.717214	32.000000	n/a	8	1.180556e-02	1.180556e-02
216.130300	1.717214	dec_accept	1.717214	32.000000	n/a	8	1.222826e-02	1.222826e-02
216.130300	1.717214	dec_nonsocial_accept_high	1.717214	32.000000	n/a	8	1.136364e-02	1.136364e-02
225.381380	1.299844	dec_nonsocial_choice	1.299844	32.000000	n/a	8	1.529255e-02	1.529255e-02
225.381380	1.299844	dec_choice	1.299844	32.000000	n/a	8	1.953125e-02	1.953125e-02
225.381380	1.299844	dec_nonsocial_accept	1.299844	32.000000	n/a	8	1.180556e-02	1.180556e-02
225.381380	1.299844	dec_accept	1.299844	32.000000	n/a	8	1.222826e-02	1.222826e-02
225.381380	1.299844	dec_nonsocial_accept_high	1.299844	32.000000	n/a	8	1.136364e-02	1.136364e-02
232.214230	1.216896	dec_nonsocial_choice	1.216896	32.000000	n/a	16	2.652926e-01	2.652926e-01
232.214230	1.216896	dec_choice	1.216896	32.000000	n/a	16	2.695312e-01	2.695312e-01
232.214230	1.216896	dec_nonsocial_accept	1.216896	32.000000	n/a	16	2.618056e-01	2.618056e-01
232.214230	1.216896	dec_accept	1.216896	32.000000	n/a	16	2.622283e-01	2.622283e-01
232.214230	1.216896	dec_nonsocial_accept_high	1.216896	32.000000	n/a	16	2.613636e-01	2.613636e-01
243.081300	1.450053	dec_social_choice	1.450053	32.000000	n/a	2	-1.722074e-01	-1.722074e-01
243.081300	1.450053	dec_choice	1.450053	32.000000	n/a	2	-1.766304e-01	-1.766304e-01
243.081300	1.450053	dec_social_accept	1.450053	32.000000	n/a	2	-1.756944e-01	-1.756944e-01
243.081300	1.450053	dec_accept	1.450053	32.000000	n/a	2	-1.761364e-01	-1.761364e-01
243.081300	1.450053	dec_social_low	1.450053	32.000000	n/a	2	-1.766304e-01	-1.766304e-01
243.081300	1.450053	dec_social_accept_low	1.450053	32.000000	n/a	2	-1.766304e-01	-1.766304e-01
253.949000	0.815117	dec_social_choice	0.815117	32.000000	n/a	8	1.529255e-02	1.529255e-02
253.949000	0.815117	dec_choice	0.815117	32.000000	n/a	8	1.086957e-02	1.086957e-02
253.949000	0.815117	dec_social_accept	0.815117	32.000000	n/a	8	1.180556e-02	1.180556e-02
253.949000	0.815117	dec_accept	0.815117	32.000000	n/a	8	1.136364e-02	1.136364e-02
253.949000	0.815117	dec_social_accept_high	0.815117	32.000000	n/a	8	1.086957e-02	1.086957e-02
260.780400	1.217051	dec_social_choice	1.217051	16.000000	n/a	1	-1.722074e-01	-1.722074e-01
260.780400	1.217051	dec_choice	1.217051	16.000000	n/a	1	-1.766304e-01	-1.766304e-01
260.780400	1.217051	dec_social_accept	1.217051	16.000000	n/a	1	-1.756944e-01	-1.756944e-01
260.780400	1.217051	dec_accept	1.217051	16.000000	n/a	1	-1.761364e-01	-1.761364e-01
260.780400	1.217051	dec_social_accept_low	1.217051	16.000000	n/a	1	-1.766304e-01	-1.766304e-01
268.431730	1.366094	dec_social_choice	1.366094	32.000000	n/a	8	1.529255e-02	1.529255e-02
268.431730	1.366094	dec_choice	1.366094	32.000000	n/a	8	1.086957e-02	1.086957e-02
268.431730	1.366094	dec_social_accept	1.366094	32.000000	n/a	8	1.180556e-02	1.180556e-02
268.431730	1.366094	dec_accept	1.366094	32.000000	n/a	8	1.136364e-02	1.136364e-02
268.431730	1.366094	dec_social_high	1.366094	32.000000	n/a	8	1.086957e-02	1.086957e-02
268.431730	1.366094	dec_social_accept_high	1.366094	32.000000	n/a	8	1.086957e-02	1.086957e-02
277.697420	1.083270	dec_social_choice	1.083270	32.000000	n/a	16	2.652926e-01	2.652926e-01
277.697420	1.083270	dec_choice	1.083270	32.000000	n/a	16	2.608696e-01	2.608696e-01
277.697420	1.083270	dec_social_accept	1.083270	32.000000	n/a	16	2.618056e-01	2.618056e-01
277.697420	1.083270	dec_accept	1.083270	32.000000	n/a	16	2.613636e-01	2.613636e-01
277.697420	1.083270	dec_social_accept_high	1.083270	32.000000	n/a	16	2.608696e-01	2.608696e-01
284.531740	1.232811	dec_nonsocial_choice	1.232811	32.000000	n/a	16	2.652926e-01	2.652926e-01
284.531740	1.232811	dec_choice	1.232811	32.000000	n/a	16	2.695312e-01	2.695312e-01
284.531740	1.232811	dec_nonsocial_accept	1.232811	32.000000	n/a	16	2.618056e-01	2.618056e-01
284.531740	1.232811	dec_accept	1.232811	32.000000	n/a	16	2.622283e-01	2.622283e-01
284.531740	1.232811	dec_nonsocial_accept_high	1.232811	32.000000	n/a	16	2.613636e-01	2.613636e-01
293.780550	1.034011	dec_social_choice	1.034011	16.000000	n/a	1	-1.722074e-01	-1.722074e-01
293.780550	1.034011	dec_choice	1.034011	16.000000	n/a	1	-1.766304e-01	-1.766304e-01
293.780550	1.034011	dec_social_accept	1.034011	16.000000	n/a	1	-1.756944e-01	-1.756944e-01
293.780550	1.034011	dec_accept	1.034011	16.000000	n/a	1	-1.761364e-01	-1.761364e-01
293.780550	1.034011	dec_social_low	1.034011	16.000000	n/a	1	-1.766304e-01	-1.766304e-01
293.780550	1.034011	dec_social_accept_low	1.034011	16.000000	n/a	1	-1.766304e-01	-1.766304e-01
300.614320	1.683753	dec_nonsocial_choice	1.683753	16.000000	n/a	8	2.652926e-01	2.652926e-01
300.614320	1.683753	dec_choice	1.683753	16.000000	n/a	8	2.695312e-01	2.695312e-01
300.614320	1.683753	dec_nonsocial_accept	1.683753	16.000000	n/a	8	2.618056e-01	2.618056e-01
300.614320	1.683753	dec_accept	1.683753	16.000000	n/a	8	2.622283e-01	2.622283e-01
300.614320	1.683753	dec_nonsocial_high	1.683753	16.000000	n/a	8	2.695312e-01	2.695312e-01
300.614320	1.683753	dec_nonsocial_accept_high	1.683753	16.000000	n/a	8	2.622283e-01	2.622283e-01
307.448760	1.415184	dec_nonsocial_choice	1.415184	32.000000	n/a	16	2.652926e-01	2.652926e-01
307.448760	1.415184	dec_choice	1.415184	32.000000	n/a	16	2.695312e-01	2.695312e-01
307.448760	1.415184	dec_nonsocial_accept	1.415184	32.000000	n/a	16	2.618056e-01	2.618056e-01
307.448760	1.415184	dec_accept	1.415184	32.000000	n/a	16	2.622283e-01	2.622283e-01
307.448760	1.415184	dec_nonsocial_accept_high	1.415184	32.000000	n/a	16	2.613636e-01	2.613636e-01
314.280400	1.867046	dec_social_choice	1.867046	32.000000	n/a	3	-1.409574e-01	-1.409574e-01
314.280400	1.867046	dec_choice	1.867046	32.000000	n/a	3	-1.453804e-01	-1.453804e-01
314.280400	1.867046	dec_social_accept	1.867046	32.000000	n/a	3	-1.444444e-01	-1.444444e-01
314.280400	1.867046	dec_accept	1.867046	32.000000	n/a	3	-1.448864e-01	-1.448864e-01
314.280400	1.867046	dec_social_low	1.867046	32.000000	n/a	3	-1.453804e-01	-1.453804e-01
314.280400	1.867046	dec_social_accept_low	1.867046	32.000000	n/a	3	-1.453804e-01	-1.453804e-01
321.913120	1.501211	dec_social_choice	1.501211	32.000000	n/a	3	-1.409574e-01	-1.409574e-01
321.913120	1.501211	dec_choice	1.501211	32.000000	n/a	3	-1.453804e-01	-1.453804e-01
321.913120	1.501211	dec_social_accept	1.501211	32.000000	n/a	3	-1.444444e-01	-1.444444e-01
321.913120	1.501211	dec_accept	1.501211	32.000000	n/a	3	-1.448864e-01	-1.448864e-01
321.913120	1.501211	dec_social_low	1.501211	32.000000	n/a	3	-1.453804e-01	-1.453804e-01
321.913120	1.501211	dec_social_accept_low	1.501211	32.000000	n/a	3	-1.453804e-01	-1.453804e-01
329.546970	1.284462	dec_nonsocial_choice	1.284462	16.000000	n/a	1	-1.722074e-01	-1.722074e-01
329.546970	1.284462	dec_choice	1.284462	16.000000	n/a	1	-1.679688e-01	-1.679688e-01
329.546970	1.284462	dec_nonsocial_accept	1.284462	16.000000	n/a	1	-1.756944e-01	-1.756944e-01
329.546970	1.284462	dec_accept	1.284462	16.000000	n/a	1	-1.752717e-01	-1.752717e-01
329.546970	1.284462	dec_nonsocial_accept_low	1.284462	16.000000	n/a	1	-1.761364e-01	-1.761364e-01
337.182430	1.165034	dec_nonsocial_choice	1.165034	16.000000	n/a	4	1.529255e-02	1.529255e-02
337.182430	1.165034	dec_choice	1.165034	16.000000	n/a	4	1.953125e-02	1.953125e-02
337.182430	1.165034	dec_nonsocial_accept	1.165034	16.000000	n/a	4	1.180556e-02	1.180556e-02
337.182430	1.165034	dec_accept	1.165034	16.000000	n/a	4	1.222826e-02	1.222826e-02
337.182430	1.165034	dec_nonsocial_accept_high	1.165034	16.000000	n/a	4	1.136364e-02	1.136364e-02
344.013460	1.583562	dec_social_choice	1.583562	16.000000	n/a	2	-1.097074e-01	-1.097074e-01
344.013460	1.583562	dec_choice	1.583562	16.000000	n/a	2	-1.141304e-01	-1.141304e-01
344.013460	1.583562	dec_social_accept	1.583562	16.000000	n/a	2	-1.131944e-01	-1.131944e-01
344.013460	1.583562	dec_accept	1.583562	16.000000	n/a	2	-1.136364e-01	-1.136364e-01
344.013460	1.583562	dec_social_accept_low	1.583562	16.000000	n/a	2	-1.141304e-01	-1.141304e-01
350.847300	1.584150	dec_nonsocial_choice	1.584150	16.000000	n/a	4	1.529255e-02	1.529255e-02
350.847300	1.584150	dec_choice	1.584150	16.000000	n/a	4	1.953125e-02	1.953125e-02
350.847300	1.584150	dec_nonsocial_accept	1.584150	16.000000	n/a	4	1.180556e-02	1.180556e-02
350.847300	1.584150	dec_accept	1.584150	16.000000	n/a	4	1.222826e-02	1.222826e-02
350.847300	1.584150	dec_nonsocial_high	1.584150	16.000000	n/a	4	1.953125e-02	1.953125e-02
350.847300	1.584150	dec_nonsocial_accept_high	1.584150	16.000000	n/a	4	1.222826e-02	1.222826e-02
357.681270	2.016324	dec_nonsocial_choice	2.016324	32.000000	n/a	16	2.652926e-01	2.652926e-01
357.681270	2.016324	dec_choice	2.016324	32.000000	n/a	16	2.695312e-01	2.695312e-01
357.681270	2.016324	dec_nonsocial_accept	2.016324	32.000000	n/a	16	2.618056e-01	2.618056e-01
357.681270	2.016324	dec_accept	2.016324	32.000000	n/a	16	2.622283e-01	2.622283e-01
357.681270	2.016324	dec_nonsocial_accept_high	2.016324	32.000000	n/a	16	2.613636e-01	2.613636e-01
365.331270	1.382836	dec_social_choice	1.382836	32.000000	n/a	16	2.652926e-01	2.652926e-01
365.331270	1.382836	dec_choice	1.382836	32.000000	n/a	16	2.608696e-01	2.608696e-01
365.331270	1.382836	dec_social_accept	1.382836	32.000000	n/a	16	2.618056e-01	2.618056e-01
365.331270	1.382836	dec_accept	1.382836	32.000000	n/a	16	2.613636e-01	2.613636e-01
365.331270	1.382836	dec_social_accept_high	1.382836	32.000000	n/a	16	2.608696e-01	2.608696e-01
372.164120	0.899692	dec_social_choice	0.899692	16.000000	n/a	2	-1.097074e-01	-1.097074e-01
372.164120	0.899692	dec_choice	0.899692	16.000000	n/a	2	-1.141304e-01	-1.141304e-01
372.164120	0.899692	dec_social_accept	0.899692	16.000000	n/a	2	-1.131944e-01	-1.131944e-01
372.164120	0.899692	dec_accept	0.899692	16.000000	n/a	2	-1.136364e-01	-1.136364e-01
372.164120	0.899692	dec_social_accept_low	0.899692	16.000000	n/a	2	-1.141304e-01	-1.141304e-01
