TrialNumber,Trialn,TrialType,Partner,Feedback,ITI,ISI,ran,order,studyStart,InitFixOnset,decision_onset,resp,resp_onset,rt,ISI_onset,isi_for_trial,ISI_offset,outcome_val,outcome_onset,outcome_offset,trialDuration,ITIonset,ITIoffset,final_fix_offset
1,1,9,3,3,8.075000e-01,2.422500e+00,1.0,0.0,2.6999624e-06,0.010292,4.0336676,1.0,6.204163,2.1704955,6.304559,2.9520047,9.258741,4.0,9.258883,9.868015,5.8343472,9.868199,10.677563,--
2,2,3,1,3,8.075000e-01,2.422500e+00,1.0,1.0,--,--,10.683059,2.0,12.1374035,1.4543447,12.237825,3.6681552,15.907982,9.0,15.908095,16.513002,5.8299427,16.513147,17.323332,--
3,3,2,1,2,8.075000e-01,1.615000e+00,1.0,2.0,--,--,17.325989,2.0,19.087465,1.7614772,19.187819,2.5535228,21.742867,5.0,21.742989,22.349024,5.0230365,22.349169,23.158875,--
4,4,4,2,1,2.422500e+00,1.615000e+00,1.0,3.0,--,--,23.17399,1.0,24.620594,1.4466035,24.72095,2.8683965,27.591875,6.0,27.59199,28.198626,5.0246353,28.198774,30.62286,--
5,5,5,2,2,4.037500e+00,1.615000e+00,1.0,4.0,--,--,30.632996,1.0,31.570507,0.9375116,31.67084,3.3774884,35.04986,5.0,35.049973,35.654663,5.021668,35.654804,39.69576,--
6,6,4,2,1,4.037500e+00,2.422500e+00,1.0,5.0,--,--,39.706116,0.0,42.48585,2.7797368,42.58624,2.3427632,44.931244,999.0,44.93136,45.536007,5.8298926,45.53615,49.575855,--
7,7,4,2,1,8.075000e-01,1.615000e+00,1.0,6.0,--,--,49.58588,0.0,52.361214,2.775334,52.461555,1.539666,54.002884,999.0,54.003,54.606636,5.020758,54.60678,55.4159,--
8,8,3,1,3,8.075000e-01,8.075000e-01,1.0,7.0,--,--,55.418713,0.0,58.192726,2.7740111,58.29307,0.7334889,59.028934,999.0,59.029053,59.63298,4.2142644,59.63312,60.44279,--
9,9,7,3,1,2.422500e+00,8.075000e-01,1.0,8.0,--,--,60.45226,0.0,63.22852,2.7762582,63.328873,0.7312417,64.061966,999.0,64.06208,64.66488,4.212617,64.665016,67.08972,--
10,10,1,1,1,8.075000e-01,2.422500e+00,1.0,9.0,--,--,67.09268,2.0,68.13733,1.044648,68.237656,4.077852,72.3168,2.0,72.31693,72.92294,5.830261,72.92309,73.7325,--
11,11,7,3,1,8.075000e-01,8.075000e-01,1.0,10.0,--,--,73.74139,2.0,75.387634,1.6462497,75.48795,1.8612504,77.351944,1.0,77.35206,77.95704,4.215655,77.9572,78.76683,--
12,12,1,1,1,4.037500e+00,8.075000e-01,1.0,11.0,--,--,78.76962,1.0,80.6206,1.8509742,80.72094,1.6565259,82.37882,7.0,82.37894,82.98393,4.2143083,82.98408,87.02355,--
13,13,9,3,3,2.422500e+00,8.075000e-01,1.0,12.0,--,--,87.032455,2.0,88.370445,1.337985,88.470764,2.169515,90.6428,9.0,90.642914,91.24783,4.215377,91.24798,93.67225,--
14,14,7,3,1,8.075000e-01,1.615000e+00,1.0,13.0,--,--,93.680214,1.0,95.23751,1.5572968,95.33783,2.7577033,98.09751,9.0,98.09763,98.70227,5.022058,98.702415,99.511826,--
15,15,6,2,3,2.422500e+00,8.075000e-01,1.0,14.0,--,--,99.522675,1.0,100.55369,1.0310107,100.65401,2.4764893,103.13229,1.0,103.132416,103.73791,4.2152343,103.73806,106.16228,--
16,16,6,2,3,5.652500e+00,2.422500e+00,1.0,15.0,--,--,106.17258,1.0,106.60391,0.431337,106.704315,4.691163,111.39881,1.0,111.39892,112.003334,5.8307533,112.00348,117.65778,--
17,17,1,1,1,8.075000e-01,1.615000e+00,1.0,16.0,--,--,117.66064,2.0,118.38732,0.7266822,118.48765,3.5883179,122.07779,1.0,122.077896,122.68282,5.0221844,122.68297,123.4925,--
18,18,1,1,1,8.075000e-01,2.422500e+00,1.0,17.0,--,--,123.49432,1.0,124.437164,0.9428402,124.53749,4.17966,128.7188,6.0,128.7189,129.32455,5.8302383,129.3247,130.13483,--
19,19,2,1,2,4.037500e+00,1.615000e+00,1.0,18.0,--,--,130.1366,2.0,130.97026,0.8336584,131.07059,3.4813416,134.55368,5.0,134.55379,135.15846,5.0218635,135.1586,139.19788,--
20,20,7,3,1,4.037500e+00,1.615000e+00,1.0,19.0,--,--,139.2069,1.0,139.737,0.5300916,139.83733,3.7849083,143.62376,9.0,143.62389,144.22856,5.021658,144.2287,148.26807,--
21,21,4,2,1,8.075000e-01,1.615000e+00,1.0,20.0,--,--,148.27951,1.0,150.55388,2.2743616,150.65422,2.0406384,152.69777,7.0,152.69788,153.30217,5.022664,153.30232,154.11179,--
22,22,4,2,1,7.267500e+00,8.075000e-01,1.0,21.0,--,--,154.12193,1.0,154.75366,0.6317347,154.85399,2.8757653,157.73161,9.0,157.73172,158.33534,4.213404,158.33548,165.60574,--
23,23,9,3,3,2.422500e+00,1.615000e+00,1.0,22.0,--,--,165.61485,1.0,166.1369,0.5220507,166.23721,3.7929492,170.03181,1.0,170.03192,170.63705,5.0222087,170.6372,173.06172,--
24,24,6,2,3,5.652500e+00,8.075000e-01,1.0,23.0,--,--,173.0725,1.0,173.70357,0.6310704,173.8039,2.8764296,176.68262,4.0,176.68272,177.2868,4.2143173,177.28696,182.94173,--
25,25,4,2,1,8.075000e-01,2.422500e+00,1.0,24.0,--,--,182.95215,1.0,183.47095,0.518797,183.57129,4.603703,188.17757,7.0,188.17769,188.782,5.8298545,188.78215,189.59172,--
26,26,7,3,1,8.075000e-01,1.615000e+00,1.0,25.0,--,--,189.60081,1.0,190.12016,0.5193536,190.22049,3.7956464,194.01767,7.0,194.01779,194.621,5.0201955,194.62115,195.4316,--
27,27,3,1,3,8.075000e-01,2.422500e+00,1.0,26.0,--,--,195.43443,1.0,196.88673,1.4523067,196.98706,3.6701932,200.65974,1.0,200.65985,201.26534,5.830903,201.26549,202.0747,--
28,28,9,3,3,2.422500e+00,8.075000e-01,1.0,27.0,--,--,202.08362,1.0,202.82024,0.7366117,202.92056,2.7708883,205.69272,1.0,205.69284,206.2982,4.214588,206.29836,208.7233,--
29,29,4,2,1,8.075000e-01,8.075000e-01,1.0,28.0,--,--,208.73442,1.0,210.60364,1.8692205,210.70406,1.6382796,212.34454,6.0,212.34467,212.94981,4.2153926,212.94997,213.75958,--
30,30,9,3,3,4.037500e+00,8.075000e-01,1.0,29.0,--,--,213.76892,1.0,215.11995,1.351034,215.22034,2.156466,217.3787,1.0,217.37881,217.98392,4.215006,217.98407,222.0235,--
31,31,1,1,1,2.422500e+00,8.075000e-01,1.0,30.0,--,--,222.02629,1.0,222.85318,0.8268819,222.9535,2.680618,225.6368,6.0,225.63692,226.24158,4.215288,226.24173,228.66669,--
32,32,3,1,3,7.267500e+00,2.422500e+00,1.0,31.0,--,--,228.66844,1.0,229.18652,0.5180814,229.28685,4.6044188,233.8925,3.0,233.89261,234.4998,5.8313646,234.49995,241.76965,--
33,33,7,3,1,8.075000e-01,2.422500e+00,1.0,32.0,--,--,241.7786,1.0,242.82,1.0414059,242.92033,4.0810943,247.00368,6.0,247.0038,247.60872,5.8301125,247.60886,248.41866,--
34,34,6,2,3,8.075000e-01,2.422500e+00,1.0,33.0,--,--,248.42955,1.0,249.05307,0.623505,249.15341,4.498995,253.6535,2.0,253.65361,254.2612,5.8316474,254.26135,255.07065,--
35,35,9,3,3,4.037500e+00,8.075000e-01,1.0,34.0,--,--,255.07968,1.0,255.60335,0.5236734,255.70372,2.9838266,258.68866,3.0,258.68878,259.29297,4.213277,259.2931,263.33267,--
36,36,6,2,3,2.422500e+00,8.075000e-01,1.0,35.0,--,--,263.34363,1.0,263.86993,0.5263022,263.97028,2.9811978,266.954,2.0,266.95413,267.55777,4.2141304,267.5579,269.98267,--
37,37,3,1,3,2.422500e+00,1.615000e+00,1.0,36.0,--,--,269.98566,1.0,270.82025,0.8345894,270.92065,3.4804106,274.40405,4.0,274.40417,275.00882,5.023149,275.00894,277.43365,--
38,38,5,2,2,8.075000e-01,8.075000e-01,1.0,37.0,--,--,277.44485,1.0,278.16965,0.7248034,278.26996,2.7826965,281.05502,5.0,281.05515,281.65976,4.2149167,281.6599,282.46866,--
39,39,9,3,3,2.422500e+00,2.422500e+00,1.0,38.0,--,--,282.47772,1.0,283.10294,0.625205,283.20328,4.497295,287.70258,2.0,287.7027,288.3069,5.829141,288.307,290.73148,--
40,40,9,3,3,2.422500e+00,2.422500e+00,1.0,39.0,--,--,290.73935,1.0,292.28644,1.5470914,292.3868,3.5754087,295.96375,2.0,295.96387,296.56775,5.8283796,296.56787,298.9923,--
41,41,3,1,3,8.075000e-01,8.075000e-01,1.0,40.0,--,--,298.99506,1.0,299.61978,0.6247087,299.72012,2.8827913,302.60437,4.0,302.6045,303.20816,4.2131066,303.2083,304.0178,--
42,42,4,2,1,2.422500e+00,8.075000e-01,1.0,41.0,--,--,304.0289,1.0,304.65298,0.6240963,304.75333,2.8834038,307.63864,9.0,307.63876,308.2439,4.215018,308.24405,310.66843,--
43,43,1,1,1,2.422500e+00,2.422500e+00,1.0,42.0,--,--,310.67117,1.0,311.203,0.5318364,311.30334,4.5906634,315.89566,7.0,315.89578,316.50073,5.829557,316.50085,318.9254,--
44,44,3,1,3,8.882500e+00,2.422500e+00,1.0,43.0,--,--,318.92715,1.0,319.86996,0.9427834,319.97034,4.1797166,324.15262,2.0,324.15274,324.7573,5.8301225,324.75745,333.6416,--
45,45,1,1,1,8.075000e-01,2.422500e+00,1.0,44.0,--,--,333.64337,0.0,336.41745,2.7740722,336.5178,2.3484278,338.86758,999.0,338.8677,339.4717,5.828335,339.47186,340.28116,--
46,46,1,1,1,8.075000e-01,2.422500e+00,1.0,45.0,--,--,340.28296,1.0,341.0198,0.7368554,341.12018,4.3856444,345.50763,7.0,345.50775,346.11276,5.8297925,346.11288,346.92227,--
47,47,6,2,3,8.075000e-01,8.075000e-01,1.0,46.0,--,--,346.9331,1.0,347.6697,0.7366018,347.77008,2.770898,350.54257,2.0,350.5427,351.1477,4.2145796,351.14783,351.95758,--
48,48,7,3,1,5.652500e+00,1.615000e+00,1.0,47.0,--,--,351.9667,1.0,352.58752,0.6208224,352.68784,3.6941776,356.38464,7.0,356.38474,356.98972,5.023033,356.98987,362.64444,--
49,49,8,3,2,8.075000e-01,1.615000e+00,1.0,48.0,--,--,362.65225,1.0,363.1707,0.5184201,363.271,3.7965798,367.06955,5.0,367.06967,367.67474,5.022466,367.6749,368.48456,--
50,50,8,3,2,5.652500e+00,1.615000e+00,1.0,49.0,--,--,368.4925,1.0,369.0198,0.5273207,369.12015,3.7876792,372.9098,5.0,372.9099,373.5141,5.0215874,373.51425,379.16846,--
51,51,7,3,1,8.075000e-01,1.615000e+00,1.0,50.0,--,--,379.1763,1.0,379.80313,0.6268137,379.90344,3.6881864,383.5937,6.0,383.5938,384.19858,5.0222645,384.19873,385.0087,--
52,52,6,2,3,8.075000e-01,1.615000e+00,1.0,51.0,--,--,385.01944,0.0,387.79285,2.7734196,387.89316,1.5415804,389.43753,999.0,389.43765,390.04166,5.0222116,390.04178,390.85153,--
53,53,6,2,3,8.075000e-01,1.615000e+00,1.0,52.0,--,--,390.86176,1.0,391.48605,0.6243202,391.5864,3.6906798,395.27945,3.0,395.27957,395.88565,5.0239167,395.8858,396.69553,--
54,54,3,1,3,8.075000e-01,2.422500e+00,1.0,53.0,--,--,396.69873,1.0,397.4361,0.7373665,397.5364,4.3851333,401.92404,3.0,401.92416,402.52765,5.82891,402.5278,403.33722,412.00058
