instrText,stimDoor,stimDoorLure,stimFace,stimFaceLure,Instructions.thisRepN,Instructions.thisTrialN,Instructions.thisN,Instructions.thisIndex,Trials.thisRepN,Trials.thisTrialN,Trials.thisN,Trials.thisIndex,Func,Keys,Text,RespTime,Onset,Offset,SystemTime_Start,SystemTime_Stop,Stim,Lure,Participant*,Age,date,expName,psychopyVersion,frameRate,
"In the earlier Feedback Games, you chose which doors contained a prize, and which peers liked you. 

You then saw positive or negative feedback (green check mark or red X) from the door or peer you selected.

You will now see a series of doors and peers, some of which you saw during the earlier Feedback Games, and some that you have never seen before.

Please press the spacebar to continue.",,,,,0,0,0,0,,,,,instrFunc,space,"In the earlier Feedback Games, you chose which doors contained a prize, and which peers liked you. 

You then saw positive or negative feedback (green check mark or red X) from the door or peer you selected.

You will now see a series of doors and peers, some of which you saw during the earlier Feedback Games, and some that you have never seen before.

Please press the spacebar to continue.",16.552486300002784,17.770730799995363,34.47749863076024,2023-04-10 16:16:20.456148,2023-04-10 16:16:37.162124,,,10486,30-49,2023_Apr_10_1616,Recall,2021.2.3,59.87414453781244,
"For doors/peers that you remember selecting and getting feedback from, your job is to RECALL what feedback you received. 

Press '1' if you recall positive feedback. 

Press '2' if you recall negative feedback

Press the spacebar to continue.",,,,,0,1,1,1,,,,,instrFunc,space,"For doors/peers that you remember selecting and getting feedback from, your job is to RECALL what feedback you received. 

Press '1' if you recall positive feedback. 

Press '2' if you recall negative feedback

Press the spacebar to continue.",13.865606899838895,34.36962869996205,48.30419337004423,2023-04-10 16:16:37.163127,2023-04-10 16:16:51.087340,,,10486,30-49,2023_Apr_10_1616,Recall,2021.2.3,59.87414453781244,
"For doors/peers that you don't remember getting feedback from, your job is to PREDICT what feedback you WOULD HAVE received.

Press '9' if you predict positive feedback.

Press '0' if you predict negative feedback. 

Please press the spacebar to continue.",,,,,0,2,2,2,,,,,instrFunc,space,"For doors/peers that you don't remember getting feedback from, your job is to PREDICT what feedback you WOULD HAVE received.

Press '9' if you predict positive feedback.

Press '0' if you predict negative feedback. 

Please press the spacebar to continue.",18.212464400101453,48.28666779980995,66.5600249695126,2023-04-10 16:16:51.088337,2023-04-10 16:17:09.350887,,,10486,30-49,2023_Apr_10_1616,Recall,2021.2.3,59.87414453781244,
"This task is self-paced, and the prompts will always stay on the screen so that you know which buttons to press.

On the next screen we will show you what those prompts look like, so that you know exactly what to expect. 

You will start with either doors or peers, and then switch halfway through. 

Please press the spacebar to continue.",,,,,0,3,3,3,,,,,instrFunc,space,"This task is self-paced, and the prompts will always stay on the screen so that you know which buttons to press.

On the next screen we will show you what those prompts look like, so that you know exactly what to expect. 

You will start with either doors or peers, and then switch halfway through. 

Please press the spacebar to continue.",13.383526400197297,66.54761239979416,79.98373866965994,2023-04-10 16:17:09.351860,2023-04-10 16:17:22.777508,,,10486,30-49,2023_Apr_10_1616,Recall,2021.2.3,59.87414453781244,
,,,,,,,,,,,,,imgtextFunc,space,"Here is what the screen will look like while you make your ratings.
The green circles remind you to press 1 or 9 for positive feedback.
The red circles remind you to press 2 or 0 for positive feedback.









Please let the experimenter know if you have any questions.

Whenever you're ready, press the spacebar to start the task.",19.03066569985822,80.14033239986748,99.38103826972656,2023-04-10 16:17:22.787454,2023-04-10 16:17:42.025332,,,10486,30-49,2023_Apr_10_1616,Recall,2021.2.3,59.87414453781244,
,L_DD504.jpg,1,L_FF504.jpg,1,,,,,0,0,0,43,imgFunc,2,NA,12.624241800047457,99.35479479981586,112.11722111003473,2023-04-10 16:17:42.070190,2023-04-10 16:17:54.833634,L_FF504.jpg,1,10486,30-49,2023_Apr_10_1616,Recall,2021.2.3,59.87414453781244,
,DD012.jpg,0,FF012.jpg,0,,,,,0,1,1,11,imgFunc,2,NA,4.862670300062746,112.12433249992318,117.12039626995102,2023-04-10 16:17:54.842582,2023-04-10 16:17:59.837545,FF012.jpg,0,10486,30-49,2023_Apr_10_1616,Recall,2021.2.3,59.87414453781244,
,SD018.jpg,0,MF018.jpg,0,,,,,0,2,2,67,imgFunc,9,NA,5.058195799821988,117.12083859997801,122.3052542398218,2023-04-10 16:17:59.852513,2023-04-10 16:18:05.024532,MF018.jpg,0,10486,30-49,2023_Apr_10_1616,Recall,2021.2.3,59.87414453781244,
,L_SD504.jpg,1,L_MF504.jpg,1,,,,,0,3,3,93,imgFunc,9,NA,2.0892745999153703,122.28170359996147,124.47534167021513,2023-04-10 16:18:05.033474,2023-04-10 16:18:07.226145,L_MF504.jpg,1,10486,30-49,2023_Apr_10_1616,Recall,2021.2.3,59.87414453781244,
,SD021.jpg,0,MF021.jpg,0,,,,,0,4,4,70,imgFunc,2,NA,2.560138499829918,124.48288819985464,127.14572546980344,2023-04-10 16:18:07.234124,2023-04-10 16:18:09.894805,MF021.jpg,0,10486,30-49,2023_Apr_10_1616,Recall,2021.2.3,59.87414453781244,
,DD022.jpg,0,FF022.jpg,0,,,,,0,5,5,21,imgFunc,0,NA,4.503367600031197,127.14756549987942,131.7463437700644,2023-04-10 16:18:09.901764,2023-04-10 16:18:14.497870,FF022.jpg,0,10486,30-49,2023_Apr_10_1616,Recall,2021.2.3,59.87414453781244,
,SD037.jpg,0,MF037.jpg,0,,,,,0,6,6,86,imgFunc,1,NA,5.075684800045565,131.75927439983934,136.93898596987128,2023-04-10 16:18:14.506848,2023-04-10 16:18:19.685328,MF037.jpg,0,10486,30-49,2023_Apr_10_1616,Recall,2021.2.3,59.87414453781244,
,DD010.jpg,0,FF010.jpg,0,,,,,0,7,7,9,imgFunc,0,NA,4.513272100128233,136.94566759979352,141.56284283963032,2023-04-10 16:18:19.700290,2023-04-10 16:18:24.305751,FF010.jpg,0,10486,30-49,2023_Apr_10_1616,Recall,2021.2.3,59.87414453781244,
,SD011.jpg,0,MF011.jpg,0,,,,,0,8,8,60,imgFunc,9,NA,3.3155313001479954,141.56735099991783,144.97463546996005,2023-04-10 16:18:24.315733,2023-04-10 16:18:27.724143,MF011.jpg,0,10486,30-49,2023_Apr_10_1616,Recall,2021.2.3,59.87414453781244,
,DD034.jpg,0,FF034.jpg,0,,,,,0,9,9,33,imgFunc,2,NA,3.320116799790412,144.97899360000156,148.39315567002632,2023-04-10 16:18:27.732122,2023-04-10 16:18:31.143357,FF034.jpg,0,10486,30-49,2023_Apr_10_1616,Recall,2021.2.3,59.87414453781244,
,L_SD508.jpg,1,L_MF508.jpg,1,,,,,0,10,10,97,imgFunc,2,NA,4.856005100067705,148.39492339990102,153.3443299701903,2023-04-10 16:18:31.150316,2023-04-10 16:18:36.096900,L_MF508.jpg,1,10486,30-49,2023_Apr_10_1616,Recall,2021.2.3,59.87414453781244,
,L_SD506.jpg,1,L_MF506.jpg,1,,,,,0,11,11,95,imgFunc,9,NA,3.492039400152862,153.36703730002046,156.9626001699362,2023-04-10 16:18:36.105876,2023-04-10 16:18:39.699765,L_MF506.jpg,1,10486,30-49,2023_Apr_10_1616,Recall,2021.2.3,59.87414453781244,
,SD016.jpg,0,MF016.jpg,0,,,,,0,12,12,65,imgFunc,1,NA,3.1406356000807136,156.9583917998243,160.20569786964916,2023-04-10 16:18:39.706749,2023-04-10 16:18:42.951835,MF016.jpg,0,10486,30-49,2023_Apr_10_1616,Recall,2021.2.3,59.87414453781244,
,DD006.jpg,0,FF006.jpg,0,,,,,0,13,13,5,imgFunc,0,NA,8.4953953998629,160.20352179999463,168.78884026990272,2023-04-10 16:18:42.958814,2023-04-10 16:18:51.541631,FF006.jpg,0,10486,30-49,2023_Apr_10_1616,Recall,2021.2.3,59.87414453781244,
,SD025.jpg,0,MF025.jpg,0,,,,,0,14,14,74,imgFunc,1,NA,4.94093449995853,168.79794729989953,173.82730436977,2023-04-10 16:18:51.550586,2023-04-10 16:18:56.578448,MF025.jpg,0,10486,30-49,2023_Apr_10_1616,Recall,2021.2.3,59.87414453781244,
,DD019.jpg,0,FF019.jpg,0,,,,,0,15,15,18,imgFunc,9,NA,3.06296919984743,173.8519117999822,177.0288343699649,2023-04-10 16:18:56.587404,2023-04-10 16:18:59.764187,FF019.jpg,0,10486,30-49,2023_Apr_10_1616,Recall,2021.2.3,59.87414453781244,
,L_DD510.jpg,1,L_FF510.jpg,1,,,,,0,16,16,49,imgFunc,9,NA,1.8291124000679702,177.01377679989673,178.94250656990334,2023-04-10 16:18:59.772138,2023-04-10 16:19:01.699021,L_FF510.jpg,1,10486,30-49,2023_Apr_10_1616,Recall,2021.2.3,59.87414453781244,
,SD002.jpg,0,MF002.jpg,0,,,,,0,17,17,51,imgFunc,0,NA,2.629424799932167,178.95748649979942,181.68746806983836,2023-04-10 16:19:01.706009,2023-04-10 16:19:04.433970,MF002.jpg,0,10486,30-49,2023_Apr_10_1616,Recall,2021.2.3,59.87414453781244,
,DD008.jpg,0,FF008.jpg,0,,,,,0,18,18,7,imgFunc,2,NA,5.888552400050685,181.68241099989973,187.6643054697197,2023-04-10 16:19:04.441947,2023-04-10 16:19:10.421223,FF008.jpg,0,10486,30-49,2023_Apr_10_1616,Recall,2021.2.3,59.87414453781244,
,SD024.jpg,0,MF024.jpg,0,,,,,0,19,19,73,imgFunc,9,NA,3.306537700118497,187.69629669981077,191.12559066992253,2023-04-10 16:19:10.430206,2023-04-10 16:19:13.857658,MF024.jpg,0,10486,30-49,2023_Apr_10_1616,Recall,2021.2.3,59.87414453781244,
,SD017.jpg,0,MF017.jpg,0,,,,,0,20,20,66,imgFunc,0,NA,3.5595806997735053,191.10731099988334,194.7542931700591,2023-04-10 16:19:13.865637,2023-04-10 16:19:17.510209,MF017.jpg,0,10486,30-49,2023_Apr_10_1616,Recall,2021.2.3,59.87414453781244,
,DD024.jpg,0,FF024.jpg,0,,,,,0,21,21,23,imgFunc,1,NA,3.787615300156176,194.76731000002474,198.65195034001954,2023-04-10 16:19:17.524168,2023-04-10 16:19:21.395688,FF024.jpg,0,10486,30-49,2023_Apr_10_1616,Recall,2021.2.3,59.87414453781244,
,DD001.jpg,0,FF001.jpg,0,,,,,0,22,22,0,imgFunc,0,NA,10.539059800095856,198.64776389999315,209.28503407002427,2023-04-10 16:19:21.402679,2023-04-10 16:19:32.037034,FF001.jpg,0,10486,30-49,2023_Apr_10_1616,Recall,2021.2.3,59.87414453781244,
,DD007.jpg,0,FF007.jpg,0,,,,,0,23,23,6,imgFunc,1,NA,3.530110400170088,209.32070049992763,212.98073746962473,2023-04-10 16:19:32.047014,2023-04-10 16:19:35.706256,FF007.jpg,0,10486,30-49,2023_Apr_10_1616,Recall,2021.2.3,59.87414453781244,
,SD008.jpg,0,MF008.jpg,0,,,,,0,24,24,57,imgFunc,1,NA,2.4355331999249756,212.9512969998177,215.48154416983016,2023-04-10 16:19:35.713242,2023-04-10 16:19:38.240895,MF008.jpg,0,10486,30-49,2023_Apr_10_1616,Recall,2021.2.3,59.87414453781244,
,SD015.jpg,0,MF015.jpg,0,,,,,0,25,25,64,imgFunc,0,NA,5.481653399998322,215.4970703998115,221.07917946996167,2023-04-10 16:19:38.248853,2023-04-10 16:19:43.828720,MF015.jpg,0,10486,30-49,2023_Apr_10_1616,Recall,2021.2.3,59.87414453781244,
,SD038.jpg,0,MF038.jpg,0,,,,,0,26,26,87,imgFunc,9,NA,1.9973524000961334,221.08552549988963,223.1802306699101,2023-04-10 16:19:43.836677,2023-04-10 16:19:45.930010,MF038.jpg,0,10486,30-49,2023_Apr_10_1616,Recall,2021.2.3,59.87414453781244,
,DD014.jpg,0,FF014.jpg,0,,,,,0,27,27,13,imgFunc,0,NA,2.8264772000256926,223.17627929989249,226.09123567002825,2023-04-10 16:19:45.936991,2023-04-10 16:19:48.848893,FF014.jpg,0,10486,30-49,2023_Apr_10_1616,Recall,2021.2.3,59.87414453781244,
,DD035.jpg,0,FF035.jpg,0,,,,,0,28,28,34,imgFunc,9,NA,2.1710983999073505,226.0957992998883,228.3601017696783,2023-04-10 16:19:48.855880,2023-04-10 16:19:51.117602,FF035.jpg,0,10486,30-49,2023_Apr_10_1616,Recall,2021.2.3,59.87414453781244,
,L_SD507.jpg,1,L_MF507.jpg,1,,,,,0,29,29,96,imgFunc,0,NA,6.406813899986446,228.3719897000119,234.86986346985213,2023-04-10 16:19:51.125564,2023-04-10 16:19:57.621555,L_MF507.jpg,1,10486,30-49,2023_Apr_10_1616,Recall,2021.2.3,59.87414453781244,
,DD021.jpg,0,FF021.jpg,0,,,,,0,30,30,20,imgFunc,9,NA,2.6849410000722855,234.88592319982126,237.67517556995153,2023-04-10 16:19:57.633522,2023-04-10 16:20:00.423806,FF021.jpg,0,10486,30-49,2023_Apr_10_1616,Recall,2021.2.3,59.87414453781244,
,DD037.jpg,0,FF037.jpg,0,,,,,0,31,31,36,imgFunc,9,NA,4.133846299955621,237.67692749993876,241.91003326978534,2023-04-10 16:20:00.430766,2023-04-10 16:20:04.660933,FF037.jpg,0,10486,30-49,2023_Apr_10_1616,Recall,2021.2.3,59.87414453781244,
,SD039.jpg,0,MF039.jpg,0,,,,,0,32,32,88,imgFunc,0,NA,1.8439782001078129,241.91076949983835,243.8541142696049,2023-04-10 16:20:04.669888,2023-04-10 16:20:06.611788,MF039.jpg,0,10486,30-49,2023_Apr_10_1616,Recall,2021.2.3,59.87414453781244,
,DD036.jpg,0,FF036.jpg,0,,,,,0,33,33,35,imgFunc,1,NA,2.185451699886471,243.86534899985418,246.14497616956942,2023-04-10 16:20:06.619745,2023-04-10 16:20:08.896689,FF036.jpg,0,10486,30-49,2023_Apr_10_1616,Recall,2021.2.3,59.87414453781244,
,SD036.jpg,0,MF036.jpg,0,,,,,0,34,34,85,imgFunc,9,NA,7.1398583999834955,246.15089829987846,253.38518376997672,2023-04-10 16:20:08.903671,2023-04-10 16:20:16.135262,MF036.jpg,0,10486,30-49,2023_Apr_10_1616,Recall,2021.2.3,59.87414453781244,
,DD002.jpg,0,FF002.jpg,0,,,,,0,35,35,1,imgFunc,1,NA,2.570746700046584,253.39214379992336,256.0530143699143,2023-04-10 16:20:16.144218,2023-04-10 16:20:18.803655,FF002.jpg,0,10486,30-49,2023_Apr_10_1616,Recall,2021.2.3,59.87414453781244,
,SD001.jpg,0,MF001.jpg,0,,,,,0,36,36,50,imgFunc,9,NA,2.369341399986297,256.0574868998956,258.52236706973054,2023-04-10 16:20:18.810615,2023-04-10 16:20:21.272475,MF001.jpg,0,10486,30-49,2023_Apr_10_1616,Recall,2021.2.3,59.87414453781244,
,L_SD503.jpg,1,L_MF503.jpg,1,,,,,0,37,37,92,imgFunc,9,NA,2.1963887999299914,258.52638909989037,260.8240270696115,2023-04-10 16:20:21.279434,2023-04-10 16:20:23.574164,L_MF503.jpg,1,10486,30-49,2023_Apr_10_1616,Recall,2021.2.3,59.87414453781244,
,L_DD508.jpg,1,L_FF508.jpg,1,,,,,0,38,38,47,imgFunc,9,NA,4.20653670001775,260.82008269988,265.1186888697557,2023-04-10 16:20:23.581145,2023-04-10 16:20:27.877104,L_FF508.jpg,1,10486,30-49,2023_Apr_10_1616,Recall,2021.2.3,59.87414453781244,
,SD003.jpg,0,MF003.jpg,0,,,,,0,39,39,52,imgFunc,9,NA,1.5701691000722349,265.13664299994707,266.8109936697874,2023-04-10 16:20:27.887076,2023-04-10 16:20:29.561613,MF003.jpg,0,10486,30-49,2023_Apr_10_1616,Recall,2021.2.3,59.87414453781244,
,DD038.jpg,0,FF038.jpg,0,,,,,0,40,40,37,imgFunc,9,NA,3.028849400114268,266.81417999998666,269.94551136996597,2023-04-10 16:20:29.568595,2023-04-10 16:20:32.697263,FF038.jpg,0,10486,30-49,2023_Apr_10_1616,Recall,2021.2.3,59.87414453781244,
,DD017.jpg,0,FF017.jpg,0,,,,,0,41,41,16,imgFunc,9,NA,1.4946800998877734,269.9480649000034,271.54408467002213,2023-04-10 16:20:32.704243,2023-04-10 16:20:34.297907,FF017.jpg,0,10486,30-49,2023_Apr_10_1616,Recall,2021.2.3,59.87414453781244,
,SD019.jpg,0,MF019.jpg,0,,,,,0,42,42,68,imgFunc,9,NA,2.5475262999534607,271.5432357999962,274.17453007004224,2023-04-10 16:20:34.305865,2023-04-10 16:20:36.934002,MF019.jpg,0,10486,30-49,2023_Apr_10_1616,Recall,2021.2.3,59.87414453781244,
,L_SD505.jpg,1,L_MF505.jpg,1,,,,,0,43,43,94,imgFunc,0,NA,1.2630234998650849,274.17994119995274,275.52574376994744,2023-04-10 16:20:36.940983,2023-04-10 16:20:38.284565,L_MF505.jpg,1,10486,30-49,2023_Apr_10_1616,Recall,2021.2.3,59.87414453781244,
,SD012.jpg,0,MF012.jpg,0,,,,,0,44,44,61,imgFunc,9,NA,1.5235276999883354,275.5352309998125,277.1478010697756,2023-04-10 16:20:38.292524,2023-04-10 16:20:39.902573,MF012.jpg,0,10486,30-49,2023_Apr_10_1616,Recall,2021.2.3,59.87414453781244,
,SD010.jpg,0,MF010.jpg,0,,,,,0,45,45,59,imgFunc,9,NA,4.014486599946395,277.1561725998763,281.27171926992014,2023-04-10 16:20:39.909533,2023-04-10 16:20:44.022326,MF010.jpg,0,10486,30-49,2023_Apr_10_1616,Recall,2021.2.3,59.87414453781244,
,DD030.jpg,0,FF030.jpg,0,,,,,0,46,46,29,imgFunc,1,NA,1.9336832999251783,281.2689655998256,283.29907256993465,2023-04-10 16:20:44.029308,2023-04-10 16:20:46.056902,FF030.jpg,0,10486,30-49,2023_Apr_10_1616,Recall,2021.2.3,59.87414453781244,
,SD034.jpg,0,MF034.jpg,0,,,,,0,47,47,83,imgFunc,0,NA,3.3425445000175387,283.30835009994917,286.7397449698765,2023-04-10 16:20:46.063883,2023-04-10 16:20:49.492743,MF034.jpg,0,10486,30-49,2023_Apr_10_1616,Recall,2021.2.3,59.87414453781244,
,DD003.jpg,0,FF003.jpg,0,,,,,0,48,48,2,imgFunc,1,NA,2.582396199926734,286.7482977998443,289.4297177698463,2023-04-10 16:20:49.499724,2023-04-10 16:20:52.178320,FF003.jpg,0,10486,30-49,2023_Apr_10_1616,Recall,2021.2.3,59.87414453781244,
,L_DD502.jpg,1,L_FF502.jpg,1,,,,,0,49,49,41,imgFunc,0,NA,2.7399017999414355,289.422791399993,292.2517702698242,2023-04-10 16:20:52.186304,2023-04-10 16:20:55.012913,L_FF502.jpg,1,10486,30-49,2023_Apr_10_1616,Recall,2021.2.3,59.87414453781244,
,DD027.jpg,0,FF027.jpg,0,,,,,0,50,50,26,imgFunc,9,NA,2.26949580013752,292.26919709984213,294.634157869732,2023-04-10 16:20:55.019894,2023-04-10 16:20:57.381832,FF027.jpg,0,10486,30-49,2023_Apr_10_1616,Recall,2021.2.3,59.87414453781244,
,SD029.jpg,0,MF029.jpg,0,,,,,0,51,51,78,imgFunc,9,NA,1.9213831999804825,294.6333225998096,296.64545786962844,2023-04-10 16:20:57.389791,2023-04-10 16:20:59.399510,MF029.jpg,0,10486,30-49,2023_Apr_10_1616,Recall,2021.2.3,59.87414453781244,
,DD031.jpg,0,FF031.jpg,0,,,,,0,52,52,30,imgFunc,0,NA,1.611643800046295,296.6550317998044,298.3691927699838,2023-04-10 16:20:59.406493,2023-04-10 16:21:01.117930,FF031.jpg,0,10486,30-49,2023_Apr_10_1616,Recall,2021.2.3,59.87414453781244,
,SD032.jpg,0,MF032.jpg,0,,,,,0,53,53,81,imgFunc,0,NA,3.039542800048366,298.363104699878,301.492086770013,2023-04-10 16:21:01.125908,2023-04-10 16:21:04.253464,MF032.jpg,0,10486,30-49,2023_Apr_10_1616,Recall,2021.2.3,59.87414453781244,
,L_DD501.jpg,1,L_FF501.jpg,1,,,,,0,54,54,40,imgFunc,9,NA,2.568926500156522,301.49781029997393,304.161297269864,2023-04-10 16:21:04.260446,2023-04-10 16:21:06.922020,L_FF501.jpg,1,10486,30-49,2023_Apr_10_1616,Recall,2021.2.3,59.87414453781244,
,L_SD509.jpg,1,L_MF509.jpg,1,,,,,0,55,55,98,imgFunc,9,NA,1.9055534000508487,304.16908549983054,306.16542906989343,2023-04-10 16:21:06.929011,2023-04-10 16:21:08.922789,L_MF509.jpg,1,10486,30-49,2023_Apr_10_1616,Recall,2021.2.3,59.87414453781244,
,L_DD509.jpg,1,L_FF509.jpg,1,,,,,0,56,56,48,imgFunc,0,NA,3.1114229999948293,306.1712991998065,309.36969266971573,2023-04-10 16:21:08.929777,2023-04-10 16:21:12.125203,L_FF509.jpg,1,10486,30-49,2023_Apr_10_1616,Recall,2021.2.3,59.87414453781244,
,DD011.jpg,0,FF011.jpg,0,,,,,0,57,57,10,imgFunc,1,NA,1.8232533000409603,309.3793839998543,311.2913907698821,2023-04-10 16:21:12.134208,2023-04-10 16:21:14.043786,FF011.jpg,0,10486,30-49,2023_Apr_10_1616,Recall,2021.2.3,59.87414453781244,
,SD006.jpg,0,MF006.jpg,0,,,,,0,58,58,55,imgFunc,9,NA,2.2562941999640316,311.29832269996405,313.66223427001387,2023-04-10 16:21:14.050776,2023-04-10 16:21:16.411858,MF006.jpg,0,10486,30-49,2023_Apr_10_1616,Recall,2021.2.3,59.87414453781244,
,SD023.jpg,0,MF023.jpg,0,,,,,0,59,59,72,imgFunc,9,NA,1.3211292999330908,313.65747489989735,315.0709081697278,2023-04-10 16:21:16.418839,2023-04-10 16:21:17.829330,MF023.jpg,0,10486,30-49,2023_Apr_10_1616,Recall,2021.2.3,59.87414453781244,
,DD026.jpg,0,FF026.jpg,0,,,,,0,60,60,25,imgFunc,1,NA,2.557180800009519,315.0774530998897,317.72529496997595,2023-04-10 16:21:17.837315,2023-04-10 16:21:20.481764,FF026.jpg,0,10486,30-49,2023_Apr_10_1616,Recall,2021.2.3,59.87414453781244,
,DD033.jpg,0,FF033.jpg,0,,,,,0,61,61,32,imgFunc,1,NA,1.6924465000629425,317.72615489992313,319.50424076989293,2023-04-10 16:21:20.489720,2023-04-10 16:21:22.266007,FF033.jpg,0,10486,30-49,2023_Apr_10_1616,Recall,2021.2.3,59.87414453781244,
,SD033.jpg,0,MF033.jpg,0,,,,,0,62,62,82,imgFunc,9,NA,2.219703800044954,319.5109021998942,321.8255170697812,2023-04-10 16:21:22.272966,2023-04-10 16:21:24.584690,MF033.jpg,0,10486,30-49,2023_Apr_10_1616,Recall,2021.2.3,59.87414453781244,
,DD020.jpg,0,FF020.jpg,0,,,,,0,63,63,19,imgFunc,0,NA,1.6365028999280185,321.8301885998808,323.5596724699717,2023-04-10 16:21:24.591650,2023-04-10 16:21:26.319045,FF020.jpg,0,10486,30-49,2023_Apr_10_1616,Recall,2021.2.3,59.87414453781244,
,DD013.jpg,0,FF013.jpg,0,,,,,0,64,64,12,imgFunc,0,NA,4.110246599884704,323.56442820001394,327.76264386973344,2023-04-10 16:21:26.327047,2023-04-10 16:21:30.522341,FF013.jpg,0,10486,30-49,2023_Apr_10_1616,Recall,2021.2.3,59.87414453781244,
,L_SD502.jpg,1,L_MF502.jpg,1,,,,,0,65,65,91,imgFunc,9,NA,2.10599509999156,327.7685767998919,329.9634489698801,2023-04-10 16:21:30.530300,2023-04-10 16:21:32.723296,L_MF502.jpg,1,10486,30-49,2023_Apr_10_1616,Recall,2021.2.3,59.87414453781244,
,DD028.jpg,0,FF028.jpg,0,,,,,0,66,66,27,imgFunc,1,NA,3.293751300079748,329.97289229999296,333.3477036699187,2023-04-10 16:21:32.734267,2023-04-10 16:21:36.109554,FF028.jpg,0,10486,30-49,2023_Apr_10_1616,Recall,2021.2.3,59.87414453781244,
,DD040.jpg,0,FF040.jpg,0,,,,,0,67,67,39,imgFunc,1,NA,1.3712136999238282,333.3594849000219,334.8222672701813,2023-04-10 16:21:36.117534,2023-04-10 16:21:37.577488,FF040.jpg,0,10486,30-49,2023_Apr_10_1616,Recall,2021.2.3,59.87414453781244,
,L_DD506.jpg,1,L_FF506.jpg,1,,,,,0,68,68,45,imgFunc,9,NA,5.069778299890459,334.8288614000194,339.993848569924,2023-04-10 16:21:37.584500,2023-04-10 16:21:42.747364,L_FF506.jpg,1,10486,30-49,2023_Apr_10_1616,Recall,2021.2.3,59.87414453781244,
,DD025.jpg,0,FF025.jpg,0,,,,,0,69,69,24,imgFunc,0,NA,2.5896538000088185,340.00500619993545,342.7000275698956,2023-04-10 16:21:42.756347,2023-04-10 16:21:45.449701,FF025.jpg,0,10486,30-49,2023_Apr_10_1616,Recall,2021.2.3,59.87414453781244,
,SD004.jpg,0,MF004.jpg,0,,,,,0,70,70,53,imgFunc,9,NA,1.395249400055036,342.7033182999585,344.200123869814,2023-04-10 16:21:45.456661,2023-04-10 16:21:46.950920,MF004.jpg,0,10486,30-49,2023_Apr_10_1616,Recall,2021.2.3,59.87414453781244,
,SD040.jpg,0,MF040.jpg,0,,,,,0,71,71,89,imgFunc,9,NA,1.1567087001167238,344.19801189983264,345.444505269872,2023-04-10 16:21:46.957907,2023-04-10 16:21:48.202110,MF040.jpg,0,10486,30-49,2023_Apr_10_1616,Recall,2021.2.3,59.87414453781244,
,DD009.jpg,0,FF009.jpg,0,,,,,0,72,72,8,imgFunc,9,NA,1.9742064999882132,345.45241539995186,347.51445186999626,2023-04-10 16:21:48.210061,2023-04-10 16:21:50.269995,FF009.jpg,0,10486,30-49,2023_Apr_10_1616,Recall,2021.2.3,59.87414453781244,
,L_DD505.jpg,1,L_FF505.jpg,1,,,,,0,73,73,44,imgFunc,2,NA,1.926856900099665,347.5157643998973,349.52950326981954,2023-04-10 16:21:50.276977,2023-04-10 16:21:52.288197,L_FF505.jpg,1,10486,30-49,2023_Apr_10_1616,Recall,2021.2.3,59.87414453781244,
,SD022.jpg,0,MF022.jpg,0,,,,,0,74,74,71,imgFunc,0,NA,3.025629300158471,349.5370308998972,352.65083736972883,2023-04-10 16:21:52.295178,2023-04-10 16:21:55.406671,MF022.jpg,0,10486,30-49,2023_Apr_10_1616,Recall,2021.2.3,59.87414453781244,
,DD005.jpg,0,FF005.jpg,0,,,,,0,75,75,4,imgFunc,9,NA,3.009917499963194,352.65673809987493,355.7541502700187,2023-04-10 16:21:55.413658,2023-04-10 16:21:58.508603,FF005.jpg,0,10486,30-49,2023_Apr_10_1616,Recall,2021.2.3,59.87414453781244,
,L_SD510.jpg,1,L_MF510.jpg,1,,,,,0,76,76,99,imgFunc,0,NA,1.7989206998609006,355.7557389999274,357.6520495698787,2023-04-10 16:21:58.516613,2023-04-10 16:22:00.410555,L_MF510.jpg,1,10486,30-49,2023_Apr_10_1616,Recall,2021.2.3,59.87414453781244,
,L_DD507.jpg,1,L_FF507.jpg,1,,,,,0,77,77,46,imgFunc,0,NA,2.3841574999969453,357.6584069998935,360.13705316977575,2023-04-10 16:22:00.418511,2023-04-10 16:22:02.894649,L_FF507.jpg,1,10486,30-49,2023_Apr_10_1616,Recall,2021.2.3,59.87414453781244,
,SD014.jpg,0,MF014.jpg,0,,,,,0,78,78,63,imgFunc,9,NA,3.381847499869764,360.1487223999575,363.630327870138,2023-04-10 16:22:02.902626,2023-04-10 16:22:06.380739,MF014.jpg,0,10486,30-49,2023_Apr_10_1616,Recall,2021.2.3,59.87414453781244,
,SD007.jpg,0,MF007.jpg,0,,,,,0,79,79,56,imgFunc,9,NA,2.3136307999957353,363.6249681999907,366.0226860700641,2023-04-10 16:22:06.387720,2023-04-10 16:22:08.782495,MF007.jpg,0,10486,30-49,2023_Apr_10_1616,Recall,2021.2.3,59.87414453781244,
,DD029.jpg,0,FF029.jpg,0,,,,,0,80,80,28,imgFunc,1,NA,1.9322083999868482,366.0305542999413,368.0612247698009,2023-04-10 16:22:08.790472,2023-04-10 16:22:10.817925,FF029.jpg,0,10486,30-49,2023_Apr_10_1616,Recall,2021.2.3,59.87414453781244,
,DD032.jpg,0,FF032.jpg,0,,,,,0,81,81,31,imgFunc,9,NA,2.5119531000964344,368.06656419998035,370.67932346998714,2023-04-10 16:22:10.825875,2023-04-10 16:22:13.436056,FF032.jpg,0,10486,30-49,2023_Apr_10_1616,Recall,2021.2.3,59.87414453781244,
,DD023.jpg,0,FF023.jpg,0,,,,,0,82,82,22,imgFunc,9,NA,1.3839762001298368,370.6826482999604,372.16322976979427,2023-04-10 16:22:13.443037,2023-04-10 16:22:14.920620,FF023.jpg,0,10486,30-49,2023_Apr_10_1616,Recall,2021.2.3,59.87414453781244,
,L_SD501.jpg,1,L_MF501.jpg,1,,,,,0,83,83,90,imgFunc,9,NA,2.8718334001023322,372.17073689983226,375.1343351698015,2023-04-10 16:22:14.927628,2023-04-10 16:22:17.889041,L_MF501.jpg,1,10486,30-49,2023_Apr_10_1616,Recall,2021.2.3,59.87414453781244,
,SD028.jpg,0,MF028.jpg,0,,,,,0,84,84,77,imgFunc,9,NA,1.207749400055036,375.1388635998592,376.43638886976987,2023-04-10 16:22:17.896000,2023-04-10 16:22:19.190258,MF028.jpg,0,10486,30-49,2023_Apr_10_1616,Recall,2021.2.3,59.87414453781244,
,DD016.jpg,0,FF016.jpg,0,,,,,0,85,85,15,imgFunc,0,NA,1.5914150001481175,376.43517979979515,378.11524586961605,2023-04-10 16:22:19.197242,2023-04-10 16:22:20.874768,FF016.jpg,0,10486,30-49,2023_Apr_10_1616,Recall,2021.2.3,59.87414453781244,
,SD030.jpg,0,MF030.jpg,0,,,,,0,86,86,79,imgFunc,0,NA,1.6078600001055747,378.1227197998669,379.8184879699256,2023-04-10 16:22:20.882746,2023-04-10 16:22:22.575575,MF030.jpg,0,10486,30-49,2023_Apr_10_1616,Recall,2021.2.3,59.87414453781244,
,DD018.jpg,0,FF018.jpg,0,,,,,0,87,87,17,imgFunc,9,NA,1.4259659999515861,379.8245914999861,381.33854156988673,2023-04-10 16:22:22.582558,2023-04-10 16:22:24.093550,FF018.jpg,0,10486,30-49,2023_Apr_10_1616,Recall,2021.2.3,59.87414453781244,
,SD031.jpg,0,MF031.jpg,0,,,,,0,88,88,80,imgFunc,9,NA,1.5271194998640567,381.33944619982503,382.9531154697761,2023-04-10 16:22:24.100509,2023-04-10 16:22:25.711330,MF031.jpg,0,10486,30-49,2023_Apr_10_1616,Recall,2021.2.3,59.87414453781244,
,SD009.jpg,0,MF009.jpg,0,,,,,0,89,89,58,imgFunc,0,NA,1.3264269998762757,382.9641831999179,384.3937725701835,2023-04-10 16:22:25.719287,2023-04-10 16:22:27.145483,MF009.jpg,0,10486,30-49,2023_Apr_10_1616,Recall,2021.2.3,59.87414453781244,
,SD035.jpg,0,MF035.jpg,0,,,,,0,90,90,84,imgFunc,9,NA,1.1049315000418574,384.39366750000045,385.59123327001,2023-04-10 16:22:27.152464,2023-04-10 16:22:28.346649,MF035.jpg,0,10486,30-49,2023_Apr_10_1616,Recall,2021.2.3,59.87414453781244,
,DD039.jpg,0,FF039.jpg,0,,,,,0,91,91,38,imgFunc,1,NA,2.7885190001688898,385.6060789998155,388.50033956975676,2023-04-10 16:22:28.355626,2023-04-10 16:22:31.249308,FF039.jpg,0,10486,30-49,2023_Apr_10_1616,Recall,2021.2.3,59.87414453781244,
,SD013.jpg,0,MF013.jpg,0,,,,,0,92,92,62,imgFunc,9,NA,1.598475300008431,388.50001229997724,390.19541187002324,2023-04-10 16:22:31.257293,2023-04-10 16:22:32.949902,MF013.jpg,0,10486,30-49,2023_Apr_10_1616,Recall,2021.2.3,59.87414453781244,
,SD005.jpg,0,MF005.jpg,0,,,,,0,93,93,54,imgFunc,2,NA,3.0459263001102954,390.1967360000126,393.3286152698565,2023-04-10 16:22:32.956890,2023-04-10 16:22:36.086127,MF005.jpg,0,10486,30-49,2023_Apr_10_1616,Recall,2021.2.3,59.87414453781244,
,DD004.jpg,0,FF004.jpg,0,,,,,0,94,94,3,imgFunc,2,NA,1.695559199899435,393.3389476998709,395.1332130697556,2023-04-10 16:22:36.094106,2023-04-10 16:22:37.887489,FF004.jpg,0,10486,30-49,2023_Apr_10_1616,Recall,2021.2.3,59.87414453781244,
,SD020.jpg,0,MF020.jpg,0,,,,,0,95,95,69,imgFunc,9,NA,1.235245699994266,395.1352358998265,396.4631204700563,2023-04-10 16:22:37.895466,2023-04-10 16:22:39.221156,MF020.jpg,0,10486,30-49,2023_Apr_10_1616,Recall,2021.2.3,59.87414453781244,
,SD026.jpg,0,MF026.jpg,0,,,,,0,96,96,75,imgFunc,9,NA,1.1028196001425385,396.46776979998685,397.6646749700885,2023-04-10 16:22:39.228116,2023-04-10 16:22:40.421932,MF026.jpg,0,10486,30-49,2023_Apr_10_1616,Recall,2021.2.3,59.87414453781244,
,SD027.jpg,0,MF027.jpg,0,,,,,0,97,97,76,imgFunc,2,NA,2.2642400001641363,397.666442199843,400.01488806982525,2023-04-10 16:22:40.428914,2023-04-10 16:22:42.774297,MF027.jpg,0,10486,30-49,2023_Apr_10_1616,Recall,2021.2.3,59.87414453781244,
,DD015.jpg,0,FF015.jpg,0,,,,,0,98,98,14,imgFunc,1,NA,3.603920399909839,400.0305669999216,403.7438700699713,2023-04-10 16:22:42.782256,2023-04-10 16:22:46.492988,FF015.jpg,0,10486,30-49,2023_Apr_10_1616,Recall,2021.2.3,59.87414453781244,
,L_DD503.jpg,1,L_FF503.jpg,1,,,,,0,99,99,42,imgFunc,9,NA,3.2397885001264513,403.7387049999088,407.0687348700594,2023-04-10 16:22:46.500968,2023-04-10 16:22:49.829430,L_FF503.jpg,1,10486,30-49,2023_Apr_10_1616,Recall,2021.2.3,59.87414453781244,
,,,,,,,,,,,,,instrFunc,space,"Great work! 

 Now you will switch to the other image type.

 Press the spacebar whenever you are ready to start.",4.706329700071365,407.00824929983355,411.7530647700187,2023-04-10 16:22:49.830434,2023-04-10 16:22:54.564776,,,10486,30-49,2023_Apr_10_1616,Recall,2021.2.3,59.87414453781244,
,DD022.jpg,0,FF022.jpg,0,,,,,0,0,0,21,imgFunc,1,NA,7.302887299796566,411.84369120001793,419.2575688099023,2023-04-10 16:22:54.598659,2023-04-10 16:23:02.003959,DD022.jpg,0,10486,30-49,2023_Apr_10_1616,Recall,2021.2.3,59.87414453781244,
,DD011.jpg,0,FF011.jpg,0,,,,,0,1,1,10,imgFunc,2,NA,1.6612877999432385,419.2532632998191,421.01401846972294,2023-04-10 16:23:02.012910,2023-04-10 16:23:03.771975,DD011.jpg,0,10486,30-49,2023_Apr_10_1616,Recall,2021.2.3,59.87414453781244,
,SD005.jpg,0,MF005.jpg,0,,,,,0,2,2,54,imgFunc,0,NA,5.807163899997249,421.01135299983434,426.9117240700871,2023-04-10 16:23:03.778956,2023-04-10 16:23:09.676784,SD005.jpg,0,10486,30-49,2023_Apr_10_1616,Recall,2021.2.3,59.87414453781244,
,SD021.jpg,0,MF021.jpg,0,,,,,0,3,3,70,imgFunc,0,NA,3.000296500045806,426.94606619980186,430.0588754399214,2023-04-10 16:23:09.692719,2023-04-10 16:23:12.795320,SD021.jpg,0,10486,30-49,2023_Apr_10_1616,Recall,2021.2.3,59.87414453781244,
,SD026.jpg,0,MF026.jpg,0,,,,,0,4,4,75,imgFunc,1,NA,2.1478381999768317,430.03865609993227,432.2691182696726,2023-04-10 16:23:12.802301,2023-04-10 16:23:15.030010,SD026.jpg,0,10486,30-49,2023_Apr_10_1616,Recall,2021.2.3,59.87414453781244,
,SD033.jpg,0,MF033.jpg,0,,,,,0,5,5,82,imgFunc,2,NA,1.9699025999289006,432.27256159996614,434.33555337018333,2023-04-10 16:23:15.037969,2023-04-10 16:23:17.098087,SD033.jpg,0,10486,30-49,2023_Apr_10_1616,Recall,2021.2.3,59.87414453781244,
,DD035.jpg,0,FF035.jpg,0,,,,,0,6,6,34,imgFunc,2,NA,5.1626778999343514,434.3438287000172,439.59353206981905,2023-04-10 16:23:17.105068,2023-04-10 16:23:22.352065,DD035.jpg,0,10486,30-49,2023_Apr_10_1616,Recall,2021.2.3,59.87414453781244,
,SD013.jpg,0,MF013.jpg,0,,,,,0,7,7,62,imgFunc,1,NA,1.3734495998360217,439.6049836999737,441.0836200697813,2023-04-10 16:23:22.360015,2023-04-10 16:23:23.836800,SD013.jpg,0,10486,30-49,2023_Apr_10_1616,Recall,2021.2.3,59.87414453781244,
,DD008.jpg,0,FF008.jpg,0,,,,,0,8,8,7,imgFunc,1,NA,3.0016684997826815,441.08893419988453,444.1847813697532,2023-04-10 16:23:23.844780,2023-04-10 16:23:26.938636,DD008.jpg,0,10486,30-49,2023_Apr_10_1616,Recall,2021.2.3,59.87414453781244,
,SD016.jpg,0,MF016.jpg,0,,,,,0,9,9,65,imgFunc,9,NA,4.431729699950665,444.1787490998395,448.69556136988103,2023-04-10 16:23:26.945591,2023-04-10 16:23:31.459279,SD016.jpg,0,10486,30-49,2023_Apr_10_1616,Recall,2021.2.3,59.87414453781244,
,DD038.jpg,0,FF038.jpg,0,,,,,0,10,10,37,imgFunc,9,NA,2.6758580999448895,448.7106434998568,451.48815356963314,2023-04-10 16:23:31.467268,2023-04-10 16:23:34.243645,DD038.jpg,0,10486,30-49,2023_Apr_10_1616,Recall,2021.2.3,59.87414453781244,
,SD035.jpg,0,MF035.jpg,0,,,,,0,11,11,84,imgFunc,0,NA,1.9242354999296367,451.48623889987357,453.5009509699885,2023-04-10 16:23:34.250605,2023-04-10 16:23:36.262402,SD035.jpg,0,10486,30-49,2023_Apr_10_1616,Recall,2021.2.3,59.87414453781244,
,SD011.jpg,0,MF011.jpg,0,,,,,0,12,12,60,imgFunc,1,NA,4.429148599971086,453.509370099986,458.02445267001167,2023-04-10 16:23:36.269389,2023-04-10 16:23:40.781954,SD011.jpg,0,10486,30-49,2023_Apr_10_1616,Recall,2021.2.3,59.87414453781244,
,DD013.jpg,0,FF013.jpg,0,,,,,0,13,13,12,imgFunc,0,NA,1.8470747999381274,458.0273328998592,459.9559384698514,2023-04-10 16:23:40.790934,2023-04-10 16:23:42.717290,DD013.jpg,0,10486,30-49,2023_Apr_10_1616,Recall,2021.2.3,59.87414453781244,
,DD031.jpg,0,FF031.jpg,0,,,,,0,14,14,30,imgFunc,2,NA,1.8812260997947305,459.9611198999919,461.9400254697539,2023-04-10 16:23:42.724272,2023-04-10 16:23:44.701468,DD031.jpg,0,10486,30-49,2023_Apr_10_1616,Recall,2021.2.3,59.87414453781244,
,SD025.jpg,0,MF025.jpg,0,,,,,0,15,15,74,imgFunc,2,NA,1.4452372998930514,461.94115570001304,463.47132316976786,2023-04-10 16:23:44.709447,2023-04-10 16:23:46.236399,SD025.jpg,0,10486,30-49,2023_Apr_10_1616,Recall,2021.2.3,59.87414453781244,
,SD039.jpg,0,MF039.jpg,0,,,,,0,16,16,88,imgFunc,9,NA,3.598343800054863,463.4761018999852,467.15622246987186,2023-04-10 16:23:46.244355,2023-04-10 16:23:49.921885,SD039.jpg,0,10486,30-49,2023_Apr_10_1616,Recall,2021.2.3,59.87414453781244,
,L_SD510.jpg,1,L_MF510.jpg,1,,,,,0,17,17,99,imgFunc,9,NA,2.326730699976906,467.1636460998561,469.5780170697253,2023-04-10 16:23:49.928874,2023-04-10 16:23:52.340073,L_SD510.jpg,1,10486,30-49,2023_Apr_10_1616,Recall,2021.2.3,59.87414453781244,
,DD025.jpg,0,FF025.jpg,0,,,,,0,18,18,24,imgFunc,9,NA,1.9587604000698775,469.57960970001295,471.62513076979667,2023-04-10 16:23:52.348052,2023-04-10 16:23:54.392092,DD025.jpg,0,10486,30-49,2023_Apr_10_1616,Recall,2021.2.3,59.87414453781244,
,DD001.jpg,0,FF001.jpg,0,,,,,0,19,19,0,imgFunc,9,NA,1.7506900001317263,471.63575479993597,473.482213169802,2023-04-10 16:23:54.399051,2023-04-10 16:23:56.243134,DD001.jpg,0,10486,30-49,2023_Apr_10_1616,Recall,2021.2.3,59.87414453781244,
,L_DD508.jpg,1,L_FF508.jpg,1,,,,,0,20,20,47,imgFunc,9,NA,6.5199110000394285,473.4905310999602,480.1077495701611,2023-04-10 16:23:56.250144,2023-04-10 16:24:02.864845,L_DD508.jpg,1,10486,30-49,2023_Apr_10_1616,Recall,2021.2.3,59.87414453781244,
,DD016.jpg,0,FF016.jpg,0,,,,,0,21,21,15,imgFunc,9,NA,2.5855344999581575,480.1208254999947,482.79859687015414,2023-04-10 16:24:02.873821,2023-04-10 16:24:05.549918,DD016.jpg,0,10486,30-49,2023_Apr_10_1616,Recall,2021.2.3,59.87414453781244,
,DD037.jpg,0,FF037.jpg,0,,,,,0,22,22,36,imgFunc,1,NA,1.8642077997792512,482.7941701998934,484.74107596999966,2023-04-10 16:24:05.556877,2023-04-10 16:24:07.501119,DD037.jpg,0,10486,30-49,2023_Apr_10_1616,Recall,2021.2.3,59.87414453781244,
,DD028.jpg,0,FF028.jpg,0,,,,,0,23,23,27,imgFunc,0,NA,2.6847847001627088,484.74156349990517,487.50612906971946,2023-04-10 16:24:07.508106,2023-04-10 16:24:10.269464,DD028.jpg,0,10486,30-49,2023_Apr_10_1616,Recall,2021.2.3,59.87414453781244,
,L_SD507.jpg,1,L_MF507.jpg,1,,,,,0,24,24,96,imgFunc,0,NA,1.4076344000641257,487.50671529979445,489.0040325697046,2023-04-10 16:24:10.276445,2023-04-10 16:24:11.770641,L_SD507.jpg,1,10486,30-49,2023_Apr_10_1616,Recall,2021.2.3,59.87414453781244,
,DD021.jpg,0,FF021.jpg,0,,,,,0,25,25,20,imgFunc,0,NA,3.6375792999751866,489.01277779997326,492.7437753700651,2023-04-10 16:24:11.778598,2023-04-10 16:24:15.506642,DD021.jpg,0,10486,30-49,2023_Apr_10_1616,Recall,2021.2.3,59.87414453781244,
,SD003.jpg,0,MF003.jpg,0,,,,,0,26,26,52,imgFunc,0,NA,1.970317699946463,492.75199000001885,494.8161729699932,2023-04-10 16:24:15.514621,2023-04-10 16:24:17.575475,SD003.jpg,0,10486,30-49,2023_Apr_10_1616,Recall,2021.2.3,59.87414453781244,
,DD006.jpg,0,FF006.jpg,0,,,,,0,27,27,5,imgFunc,1,NA,2.0152119998820126,494.8191584998276,496.9327967695426,2023-04-10 16:24:17.582456,2023-04-10 16:24:19.693541,DD006.jpg,0,10486,30-49,2023_Apr_10_1616,Recall,2021.2.3,59.87414453781244,
,L_SD508.jpg,1,L_MF508.jpg,1,,,,,0,28,28,97,imgFunc,9,NA,1.9935243998188525,496.9369057000149,499.01687927008606,2023-04-10 16:24:19.700500,2023-04-10 16:24:21.778342,L_SD508.jpg,1,10486,30-49,2023_Apr_10_1616,Recall,2021.2.3,59.87414453781244,
,L_SD501.jpg,1,L_MF501.jpg,1,,,,,0,29,29,90,imgFunc,1,NA,2.611543199978769,499.0147672998719,501.7128420697991,2023-04-10 16:24:21.785302,2023-04-10 16:24:24.480454,L_SD501.jpg,1,10486,30-49,2023_Apr_10_1616,Recall,2021.2.3,59.87414453781244,
,L_DD504.jpg,1,L_FF504.jpg,1,,,,,0,30,30,43,imgFunc,0,NA,1.626185500063002,501.7281057999935,503.4323070696555,2023-04-10 16:24:24.492432,2023-04-10 16:24:26.197929,L_DD504.jpg,1,10486,30-49,2023_Apr_10_1616,Recall,2021.2.3,59.87414453781244,
,SD001.jpg,0,MF001.jpg,0,,,,,0,31,31,50,imgFunc,0,NA,3.8719759001396596,503.44239779980853,507.40726306987926,2023-04-10 16:24:26.205876,2023-04-10 16:24:30.167576,SD001.jpg,0,10486,30-49,2023_Apr_10_1616,Recall,2021.2.3,59.87414453781244,
,DD017.jpg,0,FF017.jpg,0,,,,,0,32,32,16,imgFunc,1,NA,1.342398300068453,507.4122060998343,508.8423818696756,2023-04-10 16:24:30.174558,2023-04-10 16:24:31.602161,DD017.jpg,0,10486,30-49,2023_Apr_10_1616,Recall,2021.2.3,59.87414453781244,
,DD003.jpg,0,FF003.jpg,0,,,,,0,33,33,2,imgFunc,9,NA,2.357092499965802,508.8532418999821,511.30642774002627,2023-04-10 16:24:31.615127,2023-04-10 16:24:34.053864,DD003.jpg,0,10486,30-49,2023_Apr_10_1616,Recall,2021.2.3,59.87414453781244,
,L_SD506.jpg,1,L_MF506.jpg,1,,,,,0,34,34,95,imgFunc,0,NA,1.6182009000331163,511.2961476999335,513.0091004699934,2023-04-10 16:24:34.061821,2023-04-10 16:24:35.771684,L_SD506.jpg,1,10486,30-49,2023_Apr_10_1616,Recall,2021.2.3,59.87414453781244,
,L_DD510.jpg,1,L_FF510.jpg,1,,,,,0,35,35,49,imgFunc,0,NA,2.7617413999978453,513.0085424999706,515.8561712696683,2023-04-10 16:24:35.778671,2023-04-10 16:24:38.623534,L_DD510.jpg,1,10486,30-49,2023_Apr_10_1616,Recall,2021.2.3,59.87414453781244,
,SD029.jpg,0,MF029.jpg,0,,,,,0,36,36,78,imgFunc,9,NA,2.705877000000328,515.8644101999234,518.6617241699714,2023-04-10 16:24:38.631488,2023-04-10 16:24:41.425520,SD029.jpg,0,10486,30-49,2023_Apr_10_1616,Recall,2021.2.3,59.87414453781244,
,L_DD509.jpg,1,L_FF509.jpg,1,,,,,0,37,37,48,imgFunc,0,NA,1.4478557999245822,518.6824880999047,520.2358268396929,2023-04-10 16:24:41.438485,2023-04-10 16:24:42.977382,L_DD509.jpg,1,10486,30-49,2023_Apr_10_1616,Recall,2021.2.3,59.87414453781244,
,SD018.jpg,0,MF018.jpg,0,,,,,0,38,38,67,imgFunc,1,NA,3.156793999951333,520.2294766998384,523.4763718699105,2023-04-10 16:24:42.984370,2023-04-10 16:24:46.229126,SD018.jpg,0,10486,30-49,2023_Apr_10_1616,Recall,2021.2.3,59.87414453781244,
,SD009.jpg,0,MF009.jpg,0,,,,,0,39,39,58,imgFunc,9,NA,2.768857799936086,523.4733778999653,526.337941269856,2023-04-10 16:24:46.236107,2023-04-10 16:24:49.098124,SD009.jpg,0,10486,30-49,2023_Apr_10_1616,Recall,2021.2.3,59.87414453781244,
,DD014.jpg,0,FF014.jpg,0,,,,,0,40,40,13,imgFunc,0,NA,1.1772373002022505,526.3450982999057,527.6079981697258,2023-04-10 16:24:49.105084,2023-04-10 16:24:50.365722,DD014.jpg,0,10486,30-49,2023_Apr_10_1616,Recall,2021.2.3,59.87414453781244,
,DD020.jpg,0,FF020.jpg,0,,,,,0,41,41,19,imgFunc,9,NA,2.502521599875763,527.6117752999999,530.2085796701722,2023-04-10 16:24:50.372704,2023-04-10 16:24:52.967374,DD020.jpg,0,10486,30-49,2023_Apr_10_1616,Recall,2021.2.3,59.87414453781244,
,DD007.jpg,0,FF007.jpg,0,,,,,0,42,42,6,imgFunc,9,NA,1.155074100010097,530.2312307998072,531.4946450695861,2023-04-10 16:24:52.974356,2023-04-10 16:24:54.235016,DD007.jpg,0,10486,30-49,2023_Apr_10_1616,Recall,2021.2.3,59.87414453781244,
,L_DD505.jpg,1,L_FF505.jpg,1,,,,,0,43,43,44,imgFunc,0,NA,2.713700999971479,531.4725608997978,534.2705872699153,2023-04-10 16:24:54.241976,2023-04-10 16:24:57.037440,L_DD505.jpg,1,10486,30-49,2023_Apr_10_1616,Recall,2021.2.3,59.87414453781244,
,DD033.jpg,0,FF033.jpg,0,,,,,0,44,44,32,imgFunc,9,NA,1.201066000154242,534.281170199858,535.5772088696249,2023-04-10 16:24:57.044399,2023-04-10 16:24:58.338357,DD033.jpg,0,10486,30-49,2023_Apr_10_1616,Recall,2021.2.3,59.87414453781244,
,L_DD502.jpg,1,L_FF502.jpg,1,,,,,0,45,45,41,imgFunc,9,NA,1.797309699933976,535.5810263999738,537.4610255698208,2023-04-10 16:24:58.345338,2023-04-10 16:25:00.222478,L_DD502.jpg,1,10486,30-49,2023_Apr_10_1616,Recall,2021.2.3,59.87414453781244,
,SD031.jpg,0,MF031.jpg,0,,,,,0,46,46,80,imgFunc,9,NA,1.901792700169608,537.4605140998028,539.4408571699169,2023-04-10 16:25:00.229466,2023-04-10 16:25:02.207219,SD031.jpg,0,10486,30-49,2023_Apr_10_1616,Recall,2021.2.3,59.87414453781244,
,DD023.jpg,0,FF023.jpg,0,,,,,0,47,47,22,imgFunc,0,NA,2.5502724999096245,539.4521902999841,542.0991410696879,2023-04-10 16:25:02.215204,2023-04-10 16:25:04.859456,DD023.jpg,0,10486,30-49,2023_Apr_10_1616,Recall,2021.2.3,59.87414453781244,
,SD008.jpg,0,MF008.jpg,0,,,,,0,48,48,57,imgFunc,0,NA,2.17922420008108,542.1030815998092,544.3655495694838,2023-04-10 16:25:04.867408,2023-04-10 16:25:07.127656,SD008.jpg,0,10486,30-49,2023_Apr_10_1616,Recall,2021.2.3,59.87414453781244,
,DD029.jpg,0,FF029.jpg,0,,,,,0,49,49,28,imgFunc,0,NA,2.317572900094092,544.372652299935,546.7861280702055,2023-04-10 16:25:07.135648,2023-04-10 16:25:09.546228,DD029.jpg,0,10486,30-49,2023_Apr_10_1616,Recall,2021.2.3,59.87414453781244,
,DD002.jpg,0,FF002.jpg,0,,,,,0,50,50,1,imgFunc,0,NA,1.0472145001403987,546.7870818998199,547.9160717695486,2023-04-10 16:25:09.553188,2023-04-10 16:25:10.679924,DD002.jpg,0,10486,30-49,2023_Apr_10_1616,Recall,2021.2.3,59.87414453781244,
,SD034.jpg,0,MF034.jpg,0,,,,,0,51,51,83,imgFunc,9,NA,2.065443799830973,547.9287810998503,550.0855609697755,2023-04-10 16:25:10.690894,2023-04-10 16:25:12.848149,SD034.jpg,0,10486,30-49,2023_Apr_10_1616,Recall,2021.2.3,59.87414453781244,
,L_SD503.jpg,1,L_MF503.jpg,1,,,,,0,52,52,92,imgFunc,9,NA,2.9157018999103457,550.0870083998889,553.0843276695814,2023-04-10 16:25:12.855133,2023-04-10 16:25:15.850147,L_SD503.jpg,1,10486,30-49,2023_Apr_10_1616,Recall,2021.2.3,59.87414453781244,
,L_DD507.jpg,1,L_FF507.jpg,1,,,,,0,53,53,46,imgFunc,0,NA,1.437857500044629,553.1084502998274,554.653027469758,2023-04-10 16:25:15.859096,2023-04-10 16:25:17.402003,L_DD507.jpg,1,10486,30-49,2023_Apr_10_1616,Recall,2021.2.3,59.87414453781244,
,L_SD504.jpg,1,L_MF504.jpg,1,,,,,0,54,54,93,imgFunc,9,NA,3.54278130014427,554.6514432998374,558.2971059698611,2023-04-10 16:25:17.409982,2023-04-10 16:25:21.054243,L_SD504.jpg,1,10486,30-49,2023_Apr_10_1616,Recall,2021.2.3,59.87414453781244,
,DD019.jpg,0,FF019.jpg,0,,,,,0,55,55,18,imgFunc,9,NA,1.5182648000773042,558.3079670998268,559.9201332696248,2023-04-10 16:25:21.062221,2023-04-10 16:25:22.671930,DD019.jpg,0,10486,30-49,2023_Apr_10_1616,Recall,2021.2.3,59.87414453781244,
,SD032.jpg,0,MF032.jpg,0,,,,,0,56,56,81,imgFunc,0,NA,1.3483871999196708,559.9418430000078,561.3984212700743,2023-04-10 16:25:22.682903,2023-04-10 16:25:24.140039,SD032.jpg,0,10486,30-49,2023_Apr_10_1616,Recall,2021.2.3,59.87414453781244,
,DD030.jpg,0,FF030.jpg,0,,,,,0,57,57,29,imgFunc,9,NA,1.6414450998418033,561.4009249999654,563.1411076700315,2023-04-10 16:25:24.150012,2023-04-10 16:25:25.891375,DD030.jpg,0,10486,30-49,2023_Apr_10_1616,Recall,2021.2.3,59.87414453781244,
,DD024.jpg,0,FF024.jpg,0,,,,,0,58,58,23,imgFunc,2,NA,3.519183099968359,563.1389500999358,566.7510764698964,2023-04-10 16:25:25.899327,2023-04-10 16:25:29.509702,DD024.jpg,0,10486,30-49,2023_Apr_10_1616,Recall,2021.2.3,59.87414453781244,
,SD010.jpg,0,MF010.jpg,0,,,,,0,59,59,59,imgFunc,0,NA,4.0975085000973195,566.7766960998997,570.9837644698564,2023-04-10 16:25:29.521668,2023-04-10 16:25:33.729478,SD010.jpg,0,10486,30-49,2023_Apr_10_1616,Recall,2021.2.3,59.87414453781244,
,L_SD502.jpg,1,L_MF502.jpg,1,,,,,0,60,60,91,imgFunc,9,NA,1.5569275000598282,570.9813377999235,572.6434882699978,2023-04-10 16:25:33.737430,2023-04-10 16:25:35.398023,L_SD502.jpg,1,10486,30-49,2023_Apr_10_1616,Recall,2021.2.3,59.87414453781244,
,SD007.jpg,0,MF007.jpg,0,,,,,0,61,61,56,imgFunc,1,NA,1.6277673000004143,572.6384868999012,574.3514092697296,2023-04-10 16:25:35.404983,2023-04-10 16:25:37.115445,SD007.jpg,0,10486,30-49,2023_Apr_10_1616,Recall,2021.2.3,59.87414453781244,
,DD004.jpg,0,FF004.jpg,0,,,,,0,62,62,3,imgFunc,2,NA,1.9311268001329154,574.3591063998174,576.3732803696766,2023-04-10 16:25:37.122427,2023-04-10 16:25:39.134069,DD004.jpg,0,10486,30-49,2023_Apr_10_1616,Recall,2021.2.3,59.87414453781244,
,L_SD509.jpg,1,L_MF509.jpg,1,,,,,0,63,63,98,imgFunc,9,NA,1.1106159000191838,576.3876331998035,577.598545769928,2023-04-10 16:25:39.142020,2023-04-10 16:25:40.351215,L_SD509.jpg,1,10486,30-49,2023_Apr_10_1616,Recall,2021.2.3,59.87414453781244,
,SD006.jpg,0,MF006.jpg,0,,,,,0,64,64,55,imgFunc,0,NA,1.6975153000093997,577.6007269998081,579.3951650699601,2023-04-10 16:25:40.359194,2023-04-10 16:25:42.151619,SD006.jpg,0,10486,30-49,2023_Apr_10_1616,Recall,2021.2.3,59.87414453781244,
,SD014.jpg,0,MF014.jpg,0,,,,,0,65,65,63,imgFunc,0,NA,1.2925724000670016,579.4055293998681,580.8016032697633,2023-04-10 16:25:42.159570,2023-04-10 16:25:43.553852,SD014.jpg,0,10486,30-49,2023_Apr_10_1616,Recall,2021.2.3,59.87414453781244,
,DD009.jpg,0,FF009.jpg,0,,,,,0,66,66,8,imgFunc,0,NA,1.2128082001581788,580.8053458000068,582.1111310699489,2023-04-10 16:25:43.564846,2023-04-10 16:25:44.871339,DD009.jpg,0,10486,30-49,2023_Apr_10_1616,Recall,2021.2.3,59.87414453781244,
,SD019.jpg,0,MF019.jpg,0,,,,,0,67,67,68,imgFunc,9,NA,1.4354471999686211,582.1347286999226,583.68056916981,2023-04-10 16:25:44.879318,2023-04-10 16:25:46.422237,SD019.jpg,0,10486,30-49,2023_Apr_10_1616,Recall,2021.2.3,59.87414453781244,
,DD027.jpg,0,FF027.jpg,0,,,,,0,68,68,26,imgFunc,0,NA,1.1433778998907655,583.6748887998983,584.9190909699537,2023-04-10 16:25:46.430184,2023-04-10 16:25:47.672872,DD027.jpg,0,10486,30-49,2023_Apr_10_1616,Recall,2021.2.3,59.87414453781244,
,DD032.jpg,0,FF032.jpg,0,,,,,0,69,69,31,imgFunc,0,NA,1.5492718000896275,584.924813099904,586.5701108700596,2023-04-10 16:25:47.680852,2023-04-10 16:25:49.324490,DD032.jpg,0,10486,30-49,2023_Apr_10_1616,Recall,2021.2.3,59.87414453781244,
,DD018.jpg,0,FF018.jpg,0,,,,,0,70,70,17,imgFunc,0,NA,1.0613798000849783,586.5727774999104,587.7352213698905,2023-04-10 16:25:49.332446,2023-04-10 16:25:50.492353,DD018.jpg,0,10486,30-49,2023_Apr_10_1616,Recall,2021.2.3,59.87414453781244,
,DD026.jpg,0,FF026.jpg,0,,,,,0,71,71,25,imgFunc,1,NA,2.2109349998645484,587.7353271997999,590.0298031696584,2023-04-10 16:25:50.500355,2023-04-10 16:25:52.793219,DD026.jpg,0,10486,30-49,2023_Apr_10_1616,Recall,2021.2.3,59.87414453781244,
,SD004.jpg,0,MF004.jpg,0,,,,,0,72,72,53,imgFunc,0,NA,3.4589091998059303,590.0471955998801,593.6138215395622,2023-04-10 16:25:52.808202,2023-04-10 16:25:56.362731,SD004.jpg,0,10486,30-49,2023_Apr_10_1616,Recall,2021.2.3,59.87414453781244,
,SD040.jpg,0,MF040.jpg,0,,,,,0,73,73,89,imgFunc,9,NA,1.478065799921751,593.6044641998596,595.1673298699316,2023-04-10 16:25:56.370682,2023-04-10 16:25:57.930554,SD040.jpg,0,10486,30-49,2023_Apr_10_1616,Recall,2021.2.3,59.87414453781244,
,SD027.jpg,0,MF027.jpg,0,,,,,0,74,74,76,imgFunc,9,NA,1.1808619999792427,595.1813364999834,596.461065769894,2023-04-10 16:25:57.938524,2023-04-10 16:25:59.215129,SD027.jpg,0,10486,30-49,2023_Apr_10_1616,Recall,2021.2.3,59.87414453781244,
,SD024.jpg,0,MF024.jpg,0,,,,,0,75,75,73,imgFunc,0,NA,1.7155015000607818,596.4626640998758,598.2746128698345,2023-04-10 16:25:59.223077,2023-04-10 16:26:01.032254,SD024.jpg,0,10486,30-49,2023_Apr_10_1616,Recall,2021.2.3,59.87414453781244,
,L_DD501.jpg,1,L_FF501.jpg,1,,,,,0,76,76,40,imgFunc,0,NA,1.4503763001412153,598.2879081999417,599.8354673697613,2023-04-10 16:26:01.039236,2023-04-10 16:26:02.584144,L_DD501.jpg,1,10486,30-49,2023_Apr_10_1616,Recall,2021.2.3,59.87414453781244,
,DD034.jpg,0,FF034.jpg,0,,,,,0,77,77,33,imgFunc,1,NA,1.5520433997735381,599.8341661000159,601.4740819702856,2023-04-10 16:26:02.594111,2023-04-10 16:26:04.234738,DD034.jpg,0,10486,30-49,2023_Apr_10_1616,Recall,2021.2.3,59.87414453781244,
,DD005.jpg,0,FF005.jpg,0,,,,,0,78,78,4,imgFunc,9,NA,2.6595312000717968,601.4865800999105,604.2498885698151,2023-04-10 16:26:04.242717,2023-04-10 16:26:07.003334,DD005.jpg,0,10486,30-49,2023_Apr_10_1616,Recall,2021.2.3,59.87414453781244,
,L_DD506.jpg,1,L_FF506.jpg,1,,,,,0,79,79,45,imgFunc,9,NA,1.1331907999701798,604.2609421999659,605.4908662699163,2023-04-10 16:26:07.011313,2023-04-10 16:26:08.238065,L_DD506.jpg,1,10486,30-49,2023_Apr_10_1616,Recall,2021.2.3,59.87414453781244,
,DD040.jpg,0,FF040.jpg,0,,,,,0,80,80,39,imgFunc,2,NA,3.0015606998931617,605.4805498998612,608.5681387698278,2023-04-10 16:26:08.250033,2023-04-10 16:26:11.339774,DD040.jpg,0,10486,30-49,2023_Apr_10_1616,Recall,2021.2.3,59.87414453781244,
,L_SD505.jpg,1,L_MF505.jpg,1,,,,,0,81,81,94,imgFunc,0,NA,2.153015200048685,608.6010534998495,610.8647984699346,2023-04-10 16:26:11.347752,2023-04-10 16:26:13.608723,L_SD505.jpg,1,10486,30-49,2023_Apr_10_1616,Recall,2021.2.3,59.87414453781244,
,SD015.jpg,0,MF015.jpg,0,,,,,0,82,82,64,imgFunc,0,NA,1.0497534999158233,610.8643264998682,612.009097969858,2023-04-10 16:26:13.616704,2023-04-10 16:26:14.759673,SD015.jpg,0,10486,30-49,2023_Apr_10_1616,Recall,2021.2.3,59.87414453781244,
,DD036.jpg,0,FF036.jpg,0,,,,,0,83,83,35,imgFunc,0,NA,0.7864133999682963,612.0157947000116,612.9091120699886,2023-04-10 16:26:14.768631,2023-04-10 16:26:15.660255,DD036.jpg,0,10486,30-49,2023_Apr_10_1616,Recall,2021.2.3,59.87414453781244,
,SD002.jpg,0,MF002.jpg,0,,,,,0,84,84,51,imgFunc,0,NA,0.8337425999343395,612.9610357999336,613.9350581397302,2023-04-10 16:26:15.679204,2023-04-10 16:26:16.644630,SD002.jpg,0,10486,30-49,2023_Apr_10_1616,Recall,2021.2.3,59.87414453781244,
,SD036.jpg,0,MF036.jpg,0,,,,,0,85,85,85,imgFunc,0,NA,1.8400580999441445,613.9460344000254,615.9315079399385,2023-04-10 16:26:16.665575,2023-04-10 16:26:18.645296,SD036.jpg,0,10486,30-49,2023_Apr_10_1616,Recall,2021.2.3,59.87414453781244,
,SD020.jpg,0,MF020.jpg,0,,,,,0,86,86,69,imgFunc,0,NA,0.815936999861151,615.95424059988,616.9298324398696,2023-04-10 16:26:18.663248,2023-04-10 16:26:19.629678,SD020.jpg,0,10486,30-49,2023_Apr_10_1616,Recall,2021.2.3,59.87414453781244,
,SD037.jpg,0,MF037.jpg,0,,,,,0,87,87,86,imgFunc,0,NA,1.623602299951017,616.9224963998422,618.6822510398924,2023-04-10 16:26:19.647624,2023-04-10 16:26:21.397958,SD037.jpg,0,10486,30-49,2023_Apr_10_1616,Recall,2021.2.3,59.87414453781244,
,SD022.jpg,0,MF022.jpg,0,,,,,0,88,88,71,imgFunc,0,NA,1.393502099905163,618.7049248998519,620.2379448397551,2023-04-10 16:26:21.419899,2023-04-10 16:26:22.948823,SD022.jpg,0,10486,30-49,2023_Apr_10_1616,Recall,2021.2.3,59.87414453781244,
,L_DD503.jpg,1,L_FF503.jpg,1,,,,,0,89,89,42,imgFunc,0,NA,1.560166500043124,620.2420367000159,621.9377251400147,2023-04-10 16:26:22.964780,2023-04-10 16:26:24.650286,L_DD503.jpg,1,10486,30-49,2023_Apr_10_1616,Recall,2021.2.3,59.87414453781244,
,DD015.jpg,0,FF015.jpg,0,,,,,0,90,90,14,imgFunc,9,NA,0.9884537998586893,621.9338332999032,623.0423298396636,2023-04-10 16:26:24.667241,2023-04-10 16:26:25.767309,DD015.jpg,0,10486,30-49,2023_Apr_10_1616,Recall,2021.2.3,59.87414453781244,
,SD030.jpg,0,MF030.jpg,0,,,,,0,91,91,79,imgFunc,0,NA,2.003245099913329,623.0548451999202,625.1829192398582,2023-04-10 16:26:25.784264,2023-04-10 16:26:27.902615,SD030.jpg,0,10486,30-49,2023_Apr_10_1616,Recall,2021.2.3,59.87414453781244,
,SD023.jpg,0,MF023.jpg,0,,,,,0,92,92,72,imgFunc,9,NA,2.3794678000267595,625.2065218000207,627.7212059102021,2023-04-10 16:26:27.933533,2023-04-10 16:26:30.436859,SD023.jpg,0,10486,30-49,2023_Apr_10_1616,Recall,2021.2.3,59.87414453781244,
,SD012.jpg,0,MF012.jpg,0,,,,,0,93,93,61,imgFunc,0,NA,0.8777014000806957,627.7323008999228,628.7367811398581,2023-04-10 16:26:30.456807,2023-04-10 16:26:31.454147,SD012.jpg,0,10486,30-49,2023_Apr_10_1616,Recall,2021.2.3,59.87414453781244,
,SD017.jpg,0,MF017.jpg,0,,,,,0,94,94,66,imgFunc,9,NA,2.124897399917245,628.7411672999151,630.9990796400234,2023-04-10 16:26:31.473097,2023-04-10 16:26:33.723098,SD017.jpg,0,10486,30-49,2023_Apr_10_1616,Recall,2021.2.3,59.87414453781244,
,SD028.jpg,0,MF028.jpg,0,,,,,0,95,95,77,imgFunc,2,NA,2.6800820000935346,631.017920000013,633.8418616401032,2023-04-10 16:26:33.742050,2023-04-10 16:26:36.558539,SD028.jpg,0,10486,30-49,2023_Apr_10_1616,Recall,2021.2.3,59.87414453781244,
,SD038.jpg,0,MF038.jpg,0,,,,,0,96,96,87,imgFunc,1,NA,1.451672499999404,633.8463118998334,635.4219783397857,2023-04-10 16:26:36.575494,2023-04-10 16:26:38.142315,SD038.jpg,0,10486,30-49,2023_Apr_10_1616,Recall,2021.2.3,59.87414453781244,
,DD039.jpg,0,FF039.jpg,0,,,,,0,97,97,38,imgFunc,0,NA,2.9998472998850048,635.434308799915,638.5743210399523,2023-04-10 16:26:38.162262,2023-04-10 16:26:41.294909,DD039.jpg,0,10486,30-49,2023_Apr_10_1616,Recall,2021.2.3,59.87414453781244,
,DD010.jpg,0,FF010.jpg,0,,,,,0,98,98,9,imgFunc,9,NA,1.23470630007796,638.5353967999108,639.8615456698462,2023-04-10 16:26:41.303886,2023-04-10 16:26:42.629353,DD010.jpg,0,10486,30-49,2023_Apr_10_1616,Recall,2021.2.3,59.87414453781244,
,DD012.jpg,0,FF012.jpg,0,,,,,0,99,99,11,imgFunc,0,NA,1.1817807999905199,639.8762151999399,641.1555615698453,2023-04-10 16:26:42.637333,2023-04-10 16:26:43.913926,DD012.jpg,0,10486,30-49,2023_Apr_10_1616,Recall,2021.2.3,59.87414453781244,
