onset	duration	trial_type	rt	resp
0.00040819996502250433	0.5941836999263614	fixation_1	999	999
0.5946578999282792	3.0011986000463367	face	1.5322799000423402	1
3.595894399913959	0.5941836999263614	fixation_2	999	999
4.144527099910192	1.0166196000063792	feedback win	999	999
5.161148799932562	5.315750999958254	ITI	999	999
10.48226649989374	0.5957747000502422	fixation_1	999	999
11.078110299888067	3.0017591000068933	face	1.7824108001077548	1
14.07992499996908	0.5957747000502422	fixation_2	999	999
14.627863599918783	1.0164562000427395	feedback loss	999	999
15.644321999978274	1.117952000000514	ITI	999	999
16.765318599995226	0.5955818999791518	fixation_1	999	999
17.360955699929036	3.001046600053087	face	1.7824123000027612	2
20.36204189993441	0.5955818999791518	fixation_2	999	999
20.910886599915102	1.0165754000190645	feedback win	999	999
21.92746429995168	1.1182704999810085	ITI	999	999
23.048857699963264	0.595614799996838	fixation_1	999	999
23.644543699920177	3.0013105999678373	face	1.7822115999879315	1
26.645891699939966	0.595614799996838	fixation_2	999	999
27.194468099973164	1.016410099924542	feedback win	999	999
28.21088039991446	3.215925100026652	ITI	999	999
31.429939499939792	0.5981509999837726	fixation_1	999	999
32.028147199889645	3.001894700108096	face	1.7824443000135943	2
35.03007939993404	0.5981509999837726	fixation_2	999	999
35.57775309996214	1.0166610999731347	feedback loss	999	999
36.594416399952024	5.316502699977718	ITI	999	999
41.914053799933754	0.5969869999680668	fixation_1	999	999
42.51110029988922	3.0015437001129612	face	1.7822737001115456	1
45.51268169994	0.5969869999680668	fixation_2	999	999
46.06070609996095	1.0168474999954924	feedback loss	999	999
47.07755589997396	3.2173566999845207	ITI	999	999
50.29808699991554	0.6127217999892309	fixation_1	999	999
50.91087099991273	3.0008144000312313	face	1.7831131999846548	1
53.91172329999972	0.6127217999892309	fixation_2	999	999
54.4608238999499	1.0168756999773905	feedback win	999	999
55.47770159994252	3.2172327999724075	ITI	999	999
58.69810279994272	0.6132118999958038	fixation_1	999	999
59.31137699994724	3.0016314999666065	face	2.0319148999406025	1
62.31304599996656	0.6132118999958038	fixation_2	999	999
62.860741399927065	1.0167140000266954	feedback loss	999	999
63.87745749996975	1.1174507000250742	ITI	999	999
64.99821109999903	0.6126788998953998	fixation_1	999	999
65.61096649989486	3.0020082000410184	face	1.782948900014162	2
68.61301239999011	0.6126788998953998	fixation_2	999	999
69.16080429998692	1.0000749999890104	feedback win	999	999
70.16088139999192	1.1176699999487028	ITI	999	999
71.28182389994618	0.595930999959819	fixation_1	999	999
71.87783579993993	3.0007375000277534	face	2.033022499992512	2
74.87861909996718	0.595930999959819	fixation_2	999	999
75.42768309998792	1.0000394999515265	feedback win	999	999
76.4277247999562	1.1181846000254154	ITI	999	999
77.54922699998133	0.5951549999881536	fixation_1	999	999
78.14446129999124	3.001397299929522	face	1.5323003999656066	1
81.14589589997195	0.5951549999881536	fixation_2	999	999
81.69435729994439	1.016386799979955	feedback loss	999	999
82.71074629994109	3.2164689999772236	ITI	999	999
85.93062179989647	0.6137636000057682	fixation_1	999	999
86.5444656999316	3.0014229000080377	face	1.2824468000326306	1
89.54592689999845	0.6137636000057682	fixation_2	999	999
90.09436659992207	1.0164240000303835	feedback loss	999	999
91.1107927999692	1.1171240999829024	ITI	999	999
92.23125199996866	0.5961788999848068	fixation_1	999	999
92.8274962999858	3.0010094000026584	face	2.033031899947673	2
95.82854329992551	0.5961788999848068	fixation_2	999	999
96.37768759997562	1.0166404999326915	feedback win	999	999
97.39433009992354	5.315658700070344	ITI	999	999
102.7133857998997	0.5972514000022784	fixation_1	999	999
103.31069039995782	3.0011686999350786	face	1.5325693000340834	1
106.31189639994409	0.5972514000022784	fixation_2	999	999
106.86079039995093	1.0168253999436274	feedback win	999	999
107.87761799991131	1.118324900045991	ITI	999	999
108.9993603999028	0.5948963999981061	fixation_1	999	999
109.59433869994245	3.0015583999920636	face	1.7827120999572799	1
112.59593489998952	0.5948963999981061	fixation_2	999	999
113.14397609990556	1.0003801999846473	feedback win	999	999
114.14435879990924	5.316697300062515	ITI	999	999
119.4645471998956	0.5962779000401497	fixation_1	999	999
120.060899999924	3.0015208000550047	face	2.032973999972455	2
123.06246009992901	0.5962779000401497	fixation_2	999	999
123.61087369988672	1.0168166001094505	feedback win	999	999
124.62769269989803	3.216981500037946	ITI	999	999
127.84817059990019	0.6126079000532627	fixation_1	999	999
128.46085719997063	3.000902200001292	face	1.533059199922718	1
131.46179629990365	0.6126079000532627	fixation_2	999	999
132.0106757999165	1.0001611000625417	feedback win	999	999
133.0108390999958	3.216440499993041	ITI	999	999
136.23075919994153	0.6297859000042081	fixation_1	999	999
136.86063019989524	3.00126310007181	face	1.5324399000965059	1
139.86193079990335	0.6297859000042081	fixation_2	999	999
140.41105499991681	1.0166042000055313	feedback win	999	999
141.42766129993834	3.2172265000408515	ITI	999	999
144.6483931998955	0.5953887000214309	fixation_1	999	999
145.24384119990282	3.001413800055161	face	2.032718600006774	1
148.24529469991103	0.5953887000214309	fixation_2	999	999
148.7940035999054	1.0002534000668675	feedback win	999	999
149.79425909998827	11.61666029994376	ITI	999	999
161.41467469988856	0.595957100042142	fixation_1	999	999
162.01072119991295	3.0021591000258923	face	2.0327969000209123	2
165.01291879999917	0.595957100042142	fixation_2	999	999
165.56080209999345	1.0164817000040784	feedback loss	999	999
166.57728579989634	5.317003500065766	ITI	999	999
171.89782469999045	0.596375499968417	fixation_1	999	999
172.49429239996243	3.0012157999444753	face	1.782470399979502	1
175.49555519991554	0.596375499968417	fixation_2	999	999
176.04405079991557	1.0166679000249133	feedback win	999	999
177.06072079995647	5.316182599985041	ITI	999	999
182.3804176999256	0.5971078000729904	fixation_1	999	999
182.97762729995884	3.001261099940166	face	2.282333599985577	1
185.97892739996314	0.5971078000729904	fixation_2	999	999
186.52747989993077	1.0000084000639617	feedback loss	999	999
187.5274903998943	3.2164944000542164	ITI	999	999
190.74766999995336	0.5964663999620825	fixation_1	999	999
191.34421679994557	3.0020728999515995	face	1.782382300007157	1
194.3463278999552	0.5964663999620825	fixation_2	999	999
194.89373649994377	1.0000078999437392	feedback loss	999	999
195.8937464999035	1.1181719000451267	ITI	999	999
197.01552929996978	0.6283862999407575	fixation_1	999	999
197.64399449992925	3.0018837000243366	face	2.0324949000496417	2
200.64591599989217	0.6283862999407575	fixation_2	999	999
201.19395190000068	1.0170675999252126	feedback loss	999	999
202.21102249994874	1.11791509995237	ITI	999	999
203.33249739999883	0.594915899913758	fixation_1	999	999
203.92749499995261	3.001224200008437	face	1.7823588999453932	2
206.92875879991334	0.594915899913758	fixation_2	999	999
207.47742079989985	1.016374700004235	feedback win	999	999
208.49379759992007	5.317126400070265	ITI	999	999
213.8145094999345	0.5962479000445455	fixation_1	999	999
214.41085809993092	3.000989899970591	face	1.5320903999963775	1
217.41188589995727	0.5962479000445455	fixation_2	999	999
217.96070469997358	1.0000573999714106	feedback loss	999	999
218.96076419996098	5.317270100000314	ITI	999	999
224.28173539997078	0.5952492000069469	fixation_1	999	999
224.87705439992715	3.0007248000474647	face	1.5340278999647126	1
227.87781719991472	0.5952492000069469	fixation_2	999	999
228.42731179995462	1.0000702999532223	feedback win	999	999
229.42738419992384	3.216534100007266	ITI	999	999
232.64751839998644	0.5960952999303117	fixation_1	999	999
233.2436942999484	3.0021715000038967	face	1.5329647000180557	2
236.24590449989773	0.5960952999303117	fixation_2	999	999
236.7939092000015	1.0167728998931125	feedback loss	999	999
237.81068429991137	1.1182384000858292	ITI	999	999
238.93276799994055	0.5946707000257447	fixation_1	999	999
239.52753759990446	3.000813700025901	face	2.032092300010845	2
242.52838939998765	0.5946707000257447	fixation_2	999	999
243.0771756999893	1.0161896999925375	feedback win	999	999
244.09336829988752	3.2162776000332087	ITI	999	999
247.31352949992288	0.5971689000725746	fixation_1	999	999
247.9107872999739	3.0009081999305636	face	2.0321786999702454	1
250.91173639998306	0.5971689000725746	fixation_2	999	999
251.46073299995624	1.016643299954012	feedback loss	999	999
252.47737839992624	1.117617900017649	ITI	999	999
253.59897639998235	0.5949616999132559	fixation_1	999	999
254.1940255999798	3.0018584999488667	face	1.5329215999227017	1
257.1959214999806	0.5949616999132559	fixation_2	999	999
257.74386649997905	1.000108200008981	feedback loss	999	999
258.7439933998976	1.1178307000081986	ITI	999	999
259.86569989996497	0.5955324999522418	fixation_1	999	999
260.4613221999025	3.001271800021641	face	1.7817284000338987	2
263.4626316999784	0.5955324999522418	fixation_2	999	999
264.01062399998773	1.0000409999629483	feedback loss	999	999
265.01066719996743	1.1172448999714106	ITI	999	999
266.13189149997197	0.5950121999485418	fixation_1	999	999
266.7269870999735	3.0018835000228137	face	2.2825914999702945	2
269.72890819993336	0.5950121999485418	fixation_2	999	999
270.27735319989733	1.0161718000890687	feedback win	999	999
271.2935271000024	5.316369799897075	ITI	999	999
276.6137777999975	0.5967626998899505	fixation_1	999	999
277.21070969989523	3.0009427000768483	face	2.2832349000964314	2
280.21169409994036	0.5967626998899505	fixation_2	999	999
280.7605810998939	1.0001302000600845	feedback loss	999	999
281.76072979997844	1.1175806999672204	ITI	999	999
282.8822815999156	0.611516600009054	fixation_1	999	999
283.493905399926	3.001697100000456	face	1.532944899983704	1
286.4956403999822	0.611516600009054	fixation_2	999	999
287.043564899941	1.000263400026597	feedback loss	999	999
288.04383039998356	3.2162738000042737	ITI	999	999
291.2641802999424	0.5961256000446156	fixation_1	999	999
291.86039269994944	3.001556299976073	face	1.5336066000163555	2
294.86198649997823	0.5961256000446156	fixation_2	999	999
295.41056199988816	1.000014900113456	feedback win	999	999
296.4105789999012	5.3170002000406384	ITI	999	999
301.73182739992626	0.5954217000398785	fixation_1	999	999
302.3273396999575	3.0012987999944016	face	1.5326090999878943	2
305.3286747999955	0.5954217000398785	fixation_2	999	999
305.8768581999466	1.0166303999722004	feedback loss	999	999
306.8935073999455	5.316292500006966	ITI	999	999
312.21383869997226	0.6128513999283314	fixation_1	999	999
312.8267694999231	3.002215399988927	face	1.2828421000158414	1
315.8290234999731	0.6128513999283314	fixation_2	999	999
316.37694439990446	1.0000314000062644	feedback win	999	999
317.3769779999275	1.1179362999973819	ITI	999	999
318.49907359993085	0.5946899000555277	fixation_1	999	999
319.09386679995805	3.0010031999554485	face	1.5330152999376878	2
322.0949066999601	0.5946899000555277	fixation_2	999	999
322.64391919993795	1.0165840999688953	feedback loss	999	999
323.66050559992436	1.1175552000058815	ITI	999	999
324.7821793999756	0.5948716999264434	fixation_1	999	999
325.37714569992386	3.001731100026518	face	2.0318464000010863	1
328.3789152998943	0.5948716999264434	fixation_2	999	999
328.92678339988925	1.0001618000678718	feedback loss	999	999
329.9269472999731	5.316978199989535	ITI	999	999
