onset	duration	trial_type	rt	resp
0.000421399949118495	0.6397194999735802	fixation_1	999	999
0.6401974000036716	3.001371799968183	face	2.282708599930629	2
3.6416156999766827	0.6397194999735802	fixation_2	999	999
4.1898507999721915	1.0165050000650808	feedback win	999	999
5.206357799936086	5.316415100009181	ITI	999	999
10.538968799985014	0.6341357999481261	fixation_1	999	999
11.173148999921978	3.0012933000689372	face	2.032588000060059	1
14.17448309995234	0.6341357999481261	fixation_2	999	999
14.723095100023784	1.0003228998975828	feedback loss	999	999
15.723420099937357	1.118460400030017	ITI	999	999
16.845036800019443	0.6284284999128431	fixation_1	999	999
17.47353680001106	3.0008634999394417	face	2.2823492999887094	2
20.47444020002149	0.6284284999128431	fixation_2	999	999
21.023231799947098	1.0001776000717655	feedback win	999	999
22.023411500034854	1.1174891999689862	ITI	999	999
23.144021300016902	0.6294718999415636	fixation_1	999	999
23.773551899939775	3.001318800030276	face	2.282348999986425	2
26.77491029992234	0.6294718999415636	fixation_2	999	999
27.323168999981135	1.000283999950625	feedback win	999	999
28.323455199948512	3.215698800049722	ITI	999	999
31.542243400006555	0.6312490999698639	fixation_1	999	999
32.17355059995316	3.001200700062327	face	2.0327102000592276	1
35.17479129997082	0.6312490999698639	fixation_2	999	999
35.72304009995423	1.0002572999801487	feedback loss	999	999
36.723299699951895	5.3155969000654295	ITI	999	999
42.0420799999265	0.6313354000449181	fixation_1	999	999
42.67347719997633	3.0010845999931917	face	2.5334592000581324	2
45.67460269993171	0.6313354000449181	fixation_2	999	999
46.22305869997945	1.000348399975337	feedback loss	999	999
47.223409299971536	3.2165570999495685	ITI	999	999
50.44299290003255	0.6304073999635875	fixation_1	999	999
51.07346460002009	3.0013870999682695	face	2.2828691999893636	2
54.07489099993836	0.6304073999635875	fixation_2	999	999
54.62337709998246	1.0163993999594823	feedback win	999	999
55.639778599957936	3.216071099974215	ITI	999	999
58.859038800001144	0.631656099925749	fixation_1	999	999
59.49075679993257	3.000832000048831	face	2.5321215000003576	1
62.49162919993978	0.631656099925749	fixation_2	999	999
63.04006999998819	1.0166656000074	feedback loss	999	999
64.05673770001158	1.1181551999179646	ITI	999	999
65.17828150000423	0.628413200029172	fixation_1	999	999
65.80677479994483	3.00109620008152	face	2.2827582000754774	1
68.8079114999855	0.628413200029172	fixation_2	999	999
69.35672009992413	1.0000254000769928	feedback win	999	999
70.35674770001788	1.117260199971497	ITI	999	999
71.47726860002149	0.6289973999373615	fixation_1	999	999
72.10632479994092	3.0019366000778973	face	2.2825103000504896	2
75.10830349999014	0.6289973999373615	fixation_2	999	999
75.6572196999332	1.0159100000746548	feedback win	999	999
76.67313270003069	1.1177610999438912	ITI	999	999
77.79409749992192	0.6293217000784352	fixation_1	999	999
78.42349860002287	3.0011581999715418	face	2.5334610999561846	2
81.42469649994746	0.6293217000784352	fixation_2	999	999
81.97332230000757	1.0000338000245392	feedback loss	999	999
82.97335829993244	3.2156696000602096	ITI	999	999
86.19236049999017	0.6309948000125587	fixation_1	999	999
86.82343749993015	3.001028300030157	face	2.533352000056766	2
89.82450610003434	0.6309948000125587	fixation_2	999	999
90.3731738999486	1.0166487999958917	feedback loss	999	999
91.38982489996124	1.1177139000501484	ITI	999	999
92.51092979998793	0.6288324999623001	fixation_1	999	999
93.13991309993435	3.0011266000801697	face	2.0330077999969944	1
96.14107849996071	0.6288324999623001	fixation_2	999	999
96.68981110001914	1.0168222999200225	feedback win	999	999
97.70663559995592	5.317211800022051	ITI	999	999
103.02732370002195	0.6293628999264911	fixation_1	999	999
103.65675760002341	3.001121199922636	face	2.032233199919574	2
106.65791539999191	0.6293628999264911	fixation_2	999	999
107.20660339994356	1.0165718999924138	feedback win	999	999
108.22317739995196	1.1185063000302762	ITI	999	999
109.3450272999471	0.6281150000868365	fixation_1	999	999
109.97321480000392	3.0010743000311777	face	2.2823472999734804	1
112.97432939999271	0.6281150000868365	fixation_2	999	999
113.52283629996236	1.0001286000479013	feedback win	999	999
114.52296700002626	5.316924199927598	ITI	999	999
119.84332420001738	0.6299964999780059	fixation_1	999	999
120.47339649999049	3.0012955999700353	face	2.2822637000354007	1
123.47473190003075	0.6299964999780059	fixation_2	999	999
124.02282960002776	1.000228299992159	feedback win	999	999
125.02306010003667	3.2178499998990446	ITI	999	999
128.24438319995534	0.6286714000161737	fixation_1	999	999
128.87314429995604	3.0005915000801906	face	1.7830075999954715	1
131.87377279996872	0.6286714000161737	fixation_2	999	999
132.42309319996275	1.0001377000007778	feedback win	999	999
133.42323309998028	3.216798400040716	ITI	999	999
136.64352079993114	0.6296406000619754	fixation_1	999	999
137.27323849999812	3.0017149000195786	face	2.5334002999588847	1
140.27499379997607	0.6296406000619754	fixation_2	999	999
140.8228412999306	1.0006290000164881	feedback win	999	999
141.82347249996383	3.216874000034295	ITI	999	999
145.04386839992367	0.6293543000938371	fixation_1	999	999
145.67329970002174	3.0007307999767363	face	2.5322656999342144	2
148.67406889994163	0.6293543000938371	fixation_2	999	999
149.2229692999972	1.0165413999930024	feedback win	999	999
150.23951270000543	11.616404599975795	ITI	999	999
161.85951899993233	0.630333200097084	fixation_1	999	999
162.48994499992114	3.002031800104305	face	2.2827848000451922	1
165.49201839999296	0.630333200097084	fixation_2	999	999
166.03983639995568	1.0163614000193775	feedback loss	999	999
167.0561999999918	5.3168305000290275	ITI	999	999
172.37670609995257	0.6298343000235036	fixation_1	999	999
173.00665009999648	3.0016662999987602	face	2.0329942000098526	2
176.00835729995742	0.6298343000235036	fixation_2	999	999
176.55596100003459	1.0003371998900548	feedback win	999	999
177.5563003999414	5.316001300001517	ITI	999	999
182.87597109994385	0.630239500082098	fixation_1	999	999
183.50630110001657	3.000580199994147	face	2.283235999988392	1
186.5069213999668	0.630239500082098	fixation_2	999	999
187.0564302999992	1.0164701000321656	feedback loss	999	999
188.07290249993093	3.216110200039111	ITI	999	999
191.29275419993792	0.6299625000683591	fixation_1	999	999
191.92280549998395	3.001143499976024	face	2.2836890999460593	1
194.92398840002716	0.6299625000683591	fixation_2	999	999
195.47291220002808	1.0170795999001712	feedback loss	999	999
196.49001149996184	1.11686239996925	ITI	999	999
197.61043290002272	0.6293352999491617	fixation_1	999	999
198.23983780003618	3.001194999902509	face	2.032055199961178	1
201.24107440002263	0.6293352999491617	fixation_2	999	999
201.78980599995703	1.0166307999752462	feedback loss	999	999
202.80643919995055	1.117461199988611	ITI	999	999
203.92751890001819	0.6285964999115095	fixation_1	999	999
204.55619409994688	3.0016983000095934	face	1.7834109000395983	1
207.55793120001908	0.6285964999115095	fixation_2	999	999
208.1067677999381	1.0159229000564665	feedback win	999	999
209.12269280001055	5.316224699956365	ITI	999	999
214.4426602999447	0.6302640000358224	fixation_1	999	999
215.07302340003662	3.001884099910967	face	2.2839321999344975	1
218.0749441999942	0.6302640000358224	fixation_2	999	999
218.62279880000278	1.000051699928008	feedback loss	999	999
219.62285269994754	5.3170617000432685	ITI	999	999
224.94365489995107	0.6290834000101313	fixation_1	999	999
225.57283600000665	3.0015428999904543	face	2.532454499974847	1
228.57441879995167	0.6290834000101313	fixation_2	999	999
229.12261159997433	1.0000472000101581	feedback win	999	999
230.1226614000043	3.2160049999365583	ITI	999	999
233.3425173999276	0.6303071000147611	fixation_1	999	999
233.9729296999285	3.0023550000041723	face	2.534941300051287	1
236.97532470000442	0.6303071000147611	fixation_2	999	999
237.52260469994508	1.016644800081849	feedback loss	999	999
238.5392515999265	1.1176607999950647	ITI	999	999
239.66063449997455	0.6289472000207752	fixation_1	999	999
240.28970760002267	3.00018450000789	face	2.2822024999186397	2
243.28993159998208	0.6289472000207752	fixation_2	999	999
243.8397125999909	1.0166233000345528	feedback win	999	999
244.85633809992578	3.2175840000854805	ITI	999	999
248.0778078000294	0.6281246999278665	fixation_1	999	999
248.70601019996684	3.0021539999870583	face	2.282855900004506	2
251.70820440002717	0.6281246999278665	fixation_2	999	999
252.25601349992212	1.0000783000141382	feedback loss	999	999
253.25609419995453	1.1170351000037044	ITI	999	999
254.37707299995236	0.6293154000304639	fixation_1	999	999
255.0064877999248	3.001386500080116	face	2.5342369000427425	2
258.0079154999694	0.6293154000304639	fixation_2	999	999
258.5559447000269	1.0000559999607503	feedback loss	999	999
259.5560028000036	1.1177093000151217	ITI	999	999
260.6775430999696	0.628761800006032	fixation_1	999	999
261.3064121999778	3.000580699997954	face	2.534012999967672	2
264.30703269992955	0.628761800006032	fixation_2	999	999
264.85645049996674	1.016338499961421	feedback loss	999	999
265.8727911999449	1.1172403000527993	ITI	999	999
266.9938426000299	0.6287230999441817	fixation_1	999	999
267.6226509999251	3.0009974000276998	face	1.7833107000915334	1
270.6236870000139	0.6287230999441817	fixation_2	999	999
271.17256899992935	1.0002394000766799	feedback win	999	999
272.1728106000228	5.317163100000471	ITI	999	999
277.4939174000174	0.6286673999857157	fixation_1	999	999
278.1226967999246	3.00118120003026	face	2.0331818000413477	2
281.1239195999224	0.6286673999857157	fixation_2	999	999
281.6730361999944	1.0165296000195667	feedback loss	999	999
282.68956810003147	1.1178355999290943	ITI	999	999
283.8113949999679	0.6282638000557199	fixation_1	999	999
284.4397646000143	3.0012193999718875	face	2.2817427999107167	2
287.4410240999423	0.6282638000557199	fixation_2	999	999
287.9895393999759	1.016443100059405	feedback loss	999	999
289.00598469993565	3.2169613000005484	ITI	999	999
292.22698119992856	0.6288639000849798	fixation_1	999	999
292.8559502999997	3.001329299993813	face	2.2827216000296175	1
295.85731619992293	0.6288639000849798	fixation_2	999	999
296.4062663000077	1.0163749000057578	feedback win	999	999
297.4226579000242	5.316260599996895	ITI	999	999
302.7429157999577	0.6299927000654861	fixation_1	999	999
303.37301620002836	3.0016319999704137	face	2.5329295999836177	1
306.37468839995563	0.6299927000654861	fixation_2	999	999
306.9233194999397	1.0161285999929532	feedback loss	999	999
307.93945039995015	5.316544400062412	ITI	999	999
313.2601419999264	0.629374900017865	fixation_1	999	999
313.88964459998533	3.0002429999876767	face	1.782076200004667	2
316.8899249000242	0.629374900017865	fixation_2	999	999
317.43947550002486	1.016396899940446	feedback win	999	999
318.4558746999828	1.117272699950263	ITI	999	999
319.5772005999461	0.6288260000292212	fixation_1	999	999
320.2061241000192	3.0019060999620706	face	2.2997941999929026	2
323.2080686999252	0.6288260000292212	fixation_2	999	999
323.75598080002237	1.0164409999269992	feedback loss	999	999
324.7724239999661	1.1184866999974474	ITI	999	999
325.8950627000304	0.6273749999236315	fixation_1	999	999
326.52251809998415	3.0015245999675244	face	2.0326290000230074	2
329.52408060000744	0.6273749999236315	fixation_2	999	999
330.07258709997404	1.0001857000170276	feedback loss	999	999
331.0727750000078	5.31703109992668	ITI	999	999
