instrText,stimDoor,stimDoorLure,stimFace,stimFaceLure,Instructions.thisRepN,Instructions.thisTrialN,Instructions.thisN,Instructions.thisIndex,Trials.thisRepN,Trials.thisTrialN,Trials.thisN,Trials.thisIndex,Func,Keys,Text,RespTime,Onset,Offset,SystemTime_Start,SystemTime_Stop,Stim,Lure,Participant*,Age,date,expName,psychopyVersion,frameRate,
"In the earlier Feedback Games, you chose which doors contained a prize, and which peers liked you. 

You then saw positive or negative feedback (green check mark or red X) from the door or peer you selected.

You will now see a series of doors and peers, some of which you saw during the earlier Feedback Games, and some that you have never seen before.

Please press the spacebar to continue.",,,,,0,0,0,0,,,,,instrFunc,space,"In the earlier Feedback Games, you chose which doors contained a prize, and which peers liked you. 

You then saw positive or negative feedback (green check mark or red X) from the door or peer you selected.

You will now see a series of doors and peers, some of which you saw during the earlier Feedback Games, and some that you have never seen before.

Please press the spacebar to continue.",20.999963300069794,17.9263832999859,38.98978302022442,2023-08-08 18:18:44.909678,2023-08-08 18:19:05.966067,,,10781,30-49,2023-08-08_18h18.41.954,Recall,2021.2.3,59.95768186698681,
"For doors/peers that you remember selecting and getting feedback from, your job is to RECALL what feedback you received. 

Press '1' if you recall positive feedback. 

Press '2' if you recall negative feedback

Press the spacebar to continue.",,,,,0,1,1,1,,,,,instrFunc,space,"For doors/peers that you remember selecting and getting feedback from, your job is to RECALL what feedback you received. 

Press '1' if you recall positive feedback. 

Press '2' if you recall negative feedback

Press the spacebar to continue.",17.623935099923983,38.958527100039646,56.634729410288855,2023-08-08 18:19:05.967068,2023-08-08 18:19:23.627816,,,10781,30-49,2023-08-08_18h18.41.954,Recall,2021.2.3,59.95768186698681,
"For doors/peers that you don't remember getting feedback from, your job is to PREDICT what feedback you WOULD HAVE received.

Press '9' if you predict positive feedback.

Press '0' if you predict negative feedback. 

Please press the spacebar to continue.",,,,,0,2,2,2,,,,,instrFunc,space,"For doors/peers that you don't remember getting feedback from, your job is to PREDICT what feedback you WOULD HAVE received.

Press '9' if you predict positive feedback.

Press '0' if you predict negative feedback. 

Please press the spacebar to continue.",11.745843900134787,56.62036980013363,68.42668181029148,2023-08-08 18:19:23.628817,2023-08-08 18:19:35.419644,,,10781,30-49,2023-08-08_18h18.41.954,Recall,2021.2.3,59.95768186698681,
"This task is self-paced, and the prompts will always stay on the screen so that you know which buttons to press.

On the next screen we will show you what those prompts look like, so that you know exactly what to expect. 

You will start with either doors or peers, and then switch halfway through. 

Please press the spacebar to continue.",,,,,0,3,3,3,,,,,instrFunc,space,"This task is self-paced, and the prompts will always stay on the screen so that you know which buttons to press.

On the next screen we will show you what those prompts look like, so that you know exactly what to expect. 

You will start with either doors or peers, and then switch halfway through. 

Please press the spacebar to continue.",8.045090000145137,68.40926250000484,76.49698681011796,2023-08-08 18:19:35.420645,2023-08-08 18:19:43.492852,,,10781,30-49,2023-08-08_18h18.41.954,Recall,2021.2.3,59.95768186698681,
,,,,,,,,,,,,,imgtextFunc,space,"Here is what the screen will look like while you make your ratings.
The green circles remind you to press 1 or 9 for positive feedback.
The red circles remind you to press 2 or 0 for negative feedback.









Please let the experimenter know if you have any questions.

Whenever you're ready, press the spacebar to start the task.",28.40028590010479,76.6138396000024,105.18162120995112,2023-08-08 18:19:43.502827,2023-08-08 18:20:12.064010,,,10781,30-49,2023-08-08_18h18.41.954,Recall,2021.2.3,59.95768186698681,
,SD012.jpg,0,MF012.jpg,0,,,,,0,0,0,61,imgFunc,0,NA,24.618388700066134,105.1799288999755,129.93522602994926,2023-08-08 18:20:12.102485,2023-08-08 18:20:36.847743,SD012.jpg,0,10781,30-49,2023-08-08_18h18.41.954,Recall,2021.2.3,59.95768186698681,
,L_DD501.jpg,1,L_FF501.jpg,1,,,,,0,1,1,40,imgFunc,1,NA,6.691368300002068,129.9388387000654,136.75228481041268,2023-08-08 18:20:36.859714,2023-08-08 18:20:43.669414,L_DD501.jpg,1,10781,30-49,2023-08-08_18h18.41.954,Recall,2021.2.3,59.95768186698681,
,SD006.jpg,0,MF006.jpg,0,,,,,0,2,2,55,imgFunc,2,NA,5.660466900095344,136.73807179997675,142.50713730975986,2023-08-08 18:20:43.678392,2023-08-08 18:20:49.440690,SD006.jpg,0,10781,30-49,2023-08-08_18h18.41.954,Recall,2021.2.3,59.95768186698681,
,SD025.jpg,0,MF025.jpg,0,,,,,0,3,3,74,imgFunc,1,NA,1.5713178999722004,142.50708979996853,144.1809095100034,2023-08-08 18:20:49.453661,2023-08-08 18:20:51.124687,SD025.jpg,0,10781,30-49,2023-08-08_18h18.41.954,Recall,2021.2.3,59.95768186698681,
,DD021.jpg,0,FF021.jpg,0,,,,,0,4,4,20,imgFunc,1,NA,2.1942556998692453,144.18803880014457,146.4899977101013,2023-08-08 18:20:51.132668,2023-08-08 18:20:53.426266,DD021.jpg,0,10781,30-49,2023-08-08_18h18.41.954,Recall,2021.2.3,59.95768186698681,
,L_SD502.jpg,1,L_MF502.jpg,1,,,,,0,5,5,91,imgFunc,2,NA,7.291375000029802,146.4749947001692,153.86585791036487,2023-08-08 18:20:53.433249,2023-08-08 18:21:00.815149,L_SD502.jpg,1,10781,30-49,2023-08-08_18h18.41.954,Recall,2021.2.3,59.95768186698681,
,L_SD504.jpg,1,L_MF504.jpg,1,,,,,0,6,6,93,imgFunc,0,NA,3.0608487999998033,153.88949239999056,157.07357451017015,2023-08-08 18:21:00.824127,2023-08-08 18:21:04.000723,L_SD504.jpg,1,10781,30-49,2023-08-08_18h18.41.954,Recall,2021.2.3,59.95768186698681,
,DD034.jpg,0,FF034.jpg,0,,,,,0,7,7,33,imgFunc,2,NA,2.049780699890107,157.06061660009436,159.20263081020676,2023-08-08 18:21:04.013690,2023-08-08 18:21:06.152133,DD034.jpg,0,10781,30-49,2023-08-08_18h18.41.954,Recall,2021.2.3,59.95768186698681,
,L_SD510.jpg,1,L_MF510.jpg,1,,,,,0,8,8,99,imgFunc,0,NA,6.847101399907842,159.19913740013726,166.138375909999,2023-08-08 18:21:06.160136,2023-08-08 18:21:13.090312,L_SD510.jpg,1,10781,30-49,2023-08-08_18h18.41.954,Recall,2021.2.3,59.95768186698681,
,DD015.jpg,0,FF015.jpg,0,,,,,0,9,9,14,imgFunc,2,NA,5.386505000060424,166.14761180011556,171.63301241002046,2023-08-08 18:21:13.099290,2023-08-08 18:21:18.577696,DD015.jpg,0,10781,30-49,2023-08-08_18h18.41.954,Recall,2021.2.3,59.95768186698681,
,DD018.jpg,0,FF018.jpg,0,,,,,0,10,10,17,imgFunc,2,NA,2.7669436000287533,171.64742210018449,174.5304585103877,2023-08-08 18:21:18.586702,2023-08-08 18:21:21.463190,DD018.jpg,0,10781,30-49,2023-08-08_18h18.41.954,Recall,2021.2.3,59.95768186698681,
,SD030.jpg,0,MF030.jpg,0,,,,,0,11,11,79,imgFunc,0,NA,5.066901599988341,174.53134910017252,179.71930831042118,2023-08-08 18:21:21.471170,2023-08-08 18:21:26.650247,SD030.jpg,0,10781,30-49,2023-08-08_18h18.41.954,Recall,2021.2.3,59.95768186698681,
,SD017.jpg,0,MF017.jpg,0,,,,,0,12,12,66,imgFunc,9,NA,4.399297600146383,179.71894480008632,184.22297341004014,2023-08-08 18:21:26.666206,2023-08-08 18:21:31.170034,SD017.jpg,0,10781,30-49,2023-08-08_18h18.41.954,Recall,2021.2.3,59.95768186698681,
,DD017.jpg,0,FF017.jpg,0,,,,,0,13,13,16,imgFunc,0,NA,6.737189200008288,184.22119410010055,191.05976251023822,2023-08-08 18:21:31.178014,2023-08-08 18:21:38.008417,DD017.jpg,0,10781,30-49,2023-08-08_18h18.41.954,Recall,2021.2.3,59.95768186698681,
,SD002.jpg,0,MF002.jpg,0,,,,,0,14,14,51,imgFunc,0,NA,3.083426099969074,191.0748030000832,194.27499831002206,2023-08-08 18:21:38.017395,2023-08-08 18:21:41.210720,SD002.jpg,0,10781,30-49,2023-08-08_18h18.41.954,Recall,2021.2.3,59.95768186698681,
,SD020.jpg,0,MF020.jpg,0,,,,,0,15,15,69,imgFunc,1,NA,2.9022099999710917,194.27188990009017,197.29217641009018,2023-08-08 18:21:41.217703,2023-08-08 18:21:44.229475,SD020.jpg,0,10781,30-49,2023-08-08_18h18.41.954,Recall,2021.2.3,59.95768186698681,
,SD011.jpg,0,MF011.jpg,0,,,,,0,16,16,60,imgFunc,2,NA,4.011737399967387,197.29850260005333,201.43464941019192,2023-08-08 18:21:44.237484,2023-08-08 18:21:48.365562,SD011.jpg,0,10781,30-49,2023-08-08_18h18.41.954,Recall,2021.2.3,59.95768186698681,
,DD008.jpg,0,FF008.jpg,0,,,,,0,17,17,7,imgFunc,0,NA,6.232649999903515,201.4295926000923,207.7540276099462,2023-08-08 18:21:48.380525,2023-08-08 18:21:54.703747,DD008.jpg,0,10781,30-49,2023-08-08_18h18.41.954,Recall,2021.2.3,59.95768186698681,
,SD004.jpg,0,MF004.jpg,0,,,,,0,18,18,53,imgFunc,0,NA,1.6664042000193149,207.75581590016373,209.52096231025644,2023-08-08 18:21:54.712725,2023-08-08 18:21:56.471484,SD004.jpg,0,10781,30-49,2023-08-08_18h18.41.954,Recall,2021.2.3,59.95768186698681,
,SD038.jpg,0,MF038.jpg,0,,,,,0,19,19,87,imgFunc,0,NA,5.007102099945769,209.5188987001311,214.62384541030042,2023-08-08 18:21:56.478467,2023-08-08 18:22:01.574246,SD038.jpg,0,10781,30-49,2023-08-08_18h18.41.954,Recall,2021.2.3,59.95768186698681,
,DD030.jpg,0,FF030.jpg,0,,,,,0,20,20,29,imgFunc,0,NA,5.061739299912006,214.6403135000728,219.80826521036215,2023-08-08 18:22:01.584216,2023-08-08 18:22:06.745819,DD030.jpg,0,10781,30-49,2023-08-08_18h18.41.954,Recall,2021.2.3,59.95768186698681,
,DD004.jpg,0,FF004.jpg,0,,,,,0,21,21,3,imgFunc,2,NA,4.548937299987301,219.8092776001431,224.46128831012174,2023-08-08 18:22:06.754797,2023-08-08 18:22:11.399161,DD004.jpg,0,10781,30-49,2023-08-08_18h18.41.954,Recall,2021.2.3,59.95768186698681,
,DD038.jpg,0,FF038.jpg,0,,,,,0,22,22,37,imgFunc,2,NA,4.04809009982273,224.4460719001945,228.58189751021564,2023-08-08 18:22:11.407141,2023-08-08 18:22:15.535325,DD038.jpg,0,10781,30-49,2023-08-08_18h18.41.954,Recall,2021.2.3,59.95768186698681,
,SD024.jpg,0,MF024.jpg,0,,,,,0,23,23,73,imgFunc,0,NA,8.13155739987269,228.58664680016227,236.81026181019843,2023-08-08 18:22:15.542308,2023-08-08 18:22:23.757881,SD024.jpg,0,10781,30-49,2023-08-08_18h18.41.954,Recall,2021.2.3,59.95768186698681,
,DD037.jpg,0,FF037.jpg,0,,,,,0,24,24,36,imgFunc,9,NA,2.812243399908766,236.80985309998505,239.72718840977177,2023-08-08 18:22:23.766859,2023-08-08 18:22:26.676629,DD037.jpg,0,10781,30-49,2023-08-08_18h18.41.954,Recall,2021.2.3,59.95768186698681,
,DD010.jpg,0,FF010.jpg,0,,,,,0,25,25,9,imgFunc,0,NA,1.6933663999661803,239.7288108000066,241.5309246100951,2023-08-08 18:22:26.684609,2023-08-08 18:22:28.477817,DD010.jpg,0,10781,30-49,2023-08-08_18h18.41.954,Recall,2021.2.3,59.95768186698681,
,SD032.jpg,0,MF032.jpg,0,,,,,0,26,26,81,imgFunc,1,NA,3.643590700114146,241.53874620003626,245.2812994099222,2023-08-08 18:22:28.490784,2023-08-08 18:22:32.230508,SD032.jpg,0,10781,30-49,2023-08-08_18h18.41.954,Recall,2021.2.3,59.95768186698681,
,L_DD509.jpg,1,L_FF509.jpg,1,,,,,0,27,27,48,imgFunc,0,NA,1.8268680998589844,245.27540599997155,247.19431071006693,2023-08-08 18:22:32.238489,2023-08-08 18:22:34.148583,L_DD509.jpg,1,10781,30-49,2023-08-08_18h18.41.954,Recall,2021.2.3,59.95768186698681,
,SD021.jpg,0,MF021.jpg,0,,,,,0,28,28,70,imgFunc,1,NA,1.740502699976787,247.19377670018002,249.03019701037556,2023-08-08 18:22:34.155566,2023-08-08 18:22:35.983194,SD021.jpg,0,10781,30-49,2023-08-08_18h18.41.954,Recall,2021.2.3,59.95768186698681,
,DD019.jpg,0,FF019.jpg,0,,,,,0,29,29,18,imgFunc,1,NA,2.1079818999860436,249.04209070000798,251.26059691002592,2023-08-08 18:22:35.991174,2023-08-08 18:22:38.201465,DD019.jpg,0,10781,30-49,2023-08-08_18h18.41.954,Recall,2021.2.3,59.95768186698681,
,L_SD501.jpg,1,L_MF501.jpg,1,,,,,0,30,30,90,imgFunc,0,NA,3.3868957001250237,251.25130340014584,254.73773300996982,2023-08-08 18:22:38.209446,2023-08-08 18:22:41.687358,L_SD501.jpg,1,10781,30-49,2023-08-08_18h18.41.954,Recall,2021.2.3,59.95768186698681,
,SD003.jpg,0,MF003.jpg,0,,,,,0,31,31,52,imgFunc,0,NA,3.6277479000855237,254.75430480018258,258.47794671030715,2023-08-08 18:22:41.701323,2023-08-08 18:22:45.423416,SD003.jpg,0,10781,30-49,2023-08-08_18h18.41.954,Recall,2021.2.3,59.95768186698681,
,DD028.jpg,0,FF028.jpg,0,,,,,0,32,32,27,imgFunc,9,NA,3.684463399928063,258.4657755000517,262.2372741100844,2023-08-08 18:22:45.430399,2023-08-08 18:22:49.193047,DD028.jpg,0,10781,30-49,2023-08-08_18h18.41.954,Recall,2021.2.3,59.95768186698681,
,SD008.jpg,0,MF008.jpg,0,,,,,0,33,33,57,imgFunc,9,NA,1.3946678000502288,262.2433679001406,263.7458870103583,2023-08-08 18:22:49.200030,2023-08-08 18:22:50.693701,SD008.jpg,0,10781,30-49,2023-08-08_18h18.41.954,Recall,2021.2.3,59.95768186698681,
,SD035.jpg,0,MF035.jpg,0,,,,,0,34,34,84,imgFunc,0,NA,1.2932537999004126,263.74493140005507,265.1299691100139,2023-08-08 18:22:50.701703,2023-08-08 18:22:52.077691,SD035.jpg,0,10781,30-49,2023-08-08_18h18.41.954,Recall,2021.2.3,59.95768186698681,
,L_SD507.jpg,1,L_MF507.jpg,1,,,,,0,35,35,96,imgFunc,0,NA,3.62390030012466,265.134331200039,268.871632209979,2023-08-08 18:22:52.085694,2023-08-08 18:22:55.814060,L_SD507.jpg,1,10781,30-49,2023-08-08_18h18.41.954,Recall,2021.2.3,59.95768186698681,
,DD001.jpg,0,FF001.jpg,0,,,,,0,36,36,0,imgFunc,0,NA,1.11855320003815,268.8796943000052,270.0990755101666,2023-08-08 18:22:55.830019,2023-08-08 18:22:57.048542,DD001.jpg,0,10781,30-49,2023-08-08_18h18.41.954,Recall,2021.2.3,59.95768186698681,
,DD032.jpg,0,FF032.jpg,0,,,,,0,37,37,31,imgFunc,0,NA,1.1656666002236307,270.0885313001927,271.3407585101668,2023-08-08 18:22:57.055525,2023-08-08 18:22:58.299000,DD032.jpg,0,10781,30-49,2023-08-08_18h18.41.954,Recall,2021.2.3,59.95768186698681,
,SD023.jpg,0,MF023.jpg,0,,,,,0,38,38,72,imgFunc,9,NA,6.809800900053233,271.340398899978,278.2462413099129,2023-08-08 18:22:58.306980,2023-08-08 18:23:05.204268,SD023.jpg,0,10781,30-49,2023-08-08_18h18.41.954,Recall,2021.2.3,59.95768186698681,
,L_SD506.jpg,1,L_MF506.jpg,1,,,,,0,39,39,95,imgFunc,1,NA,1.807639200007543,278.2625596001744,280.1777617102489,2023-08-08 18:23:05.213245,2023-08-08 18:23:07.122209,L_SD506.jpg,1,10781,30-49,2023-08-08_18h18.41.954,Recall,2021.2.3,59.95768186698681,
,SD037.jpg,0,MF037.jpg,0,,,,,0,40,40,86,imgFunc,2,NA,3.7107061001006514,280.19134460017085,284.02782581048086,2023-08-08 18:23:07.130189,2023-08-08 18:23:10.958472,SD037.jpg,0,10781,30-49,2023-08-08_18h18.41.954,Recall,2021.2.3,59.95768186698681,
,SD018.jpg,0,MF018.jpg,0,,,,,0,41,41,67,imgFunc,1,NA,4.588661599904299,284.00141720008105,288.6896866101306,2023-08-08 18:23:10.965455,2023-08-08 18:23:15.644992,SD018.jpg,0,10781,30-49,2023-08-08_18h18.41.954,Recall,2021.2.3,59.95768186698681,
,DD023.jpg,0,FF023.jpg,0,,,,,0,42,42,22,imgFunc,0,NA,1.3538025999441743,288.70036460016854,290.14950521010906,2023-08-08 18:23:15.653970,2023-08-08 18:23:17.096142,DD023.jpg,0,10781,30-49,2023-08-08_18h18.41.954,Recall,2021.2.3,59.95768186698681,
,L_SD505.jpg,1,L_MF505.jpg,1,,,,,0,43,43,94,imgFunc,9,NA,2.10466320021078,290.14947210019454,292.3521048100665,2023-08-08 18:23:17.103125,2023-08-08 18:23:19.297102,L_SD505.jpg,1,10781,30-49,2023-08-08_18h18.41.954,Recall,2021.2.3,59.95768186698681,
,DD003.jpg,0,FF003.jpg,0,,,,,0,44,44,2,imgFunc,0,NA,2.4004359000828117,292.3498451001942,294.851091010496,2023-08-08 18:23:19.306078,2023-08-08 18:23:21.799343,DD003.jpg,0,10781,30-49,2023-08-08_18h18.41.954,Recall,2021.2.3,59.95768186698681,
,DD033.jpg,0,FF033.jpg,0,,,,,0,45,45,32,imgFunc,9,NA,4.469598500058055,294.86463850014843,299.43896901025437,2023-08-08 18:23:21.813154,2023-08-08 18:23:26.386141,DD033.jpg,0,10781,30-49,2023-08-08_18h18.41.954,Recall,2021.2.3,59.95768186698681,
,SD005.jpg,0,MF005.jpg,0,,,,,0,46,46,54,imgFunc,0,NA,4.598564499989152,299.43968429998495,304.142219010042,2023-08-08 18:23:26.394121,2023-08-08 18:23:31.089315,SD005.jpg,0,10781,30-49,2023-08-08_18h18.41.954,Recall,2021.2.3,59.95768186698681,
,L_DD503.jpg,1,L_FF503.jpg,1,,,,,0,47,47,42,imgFunc,0,NA,1.0255734999664128,304.1326620001346,305.247605610406,2023-08-08 18:23:31.099166,2023-08-08 18:23:32.206665,L_DD503.jpg,1,10781,30-49,2023-08-08_18h18.41.954,Recall,2021.2.3,59.95768186698681,
,SD015.jpg,0,MF015.jpg,0,,,,,0,48,48,64,imgFunc,0,NA,1.8779619000852108,305.2639095999766,307.249505110085,2023-08-08 18:23:32.214667,2023-08-08 18:23:34.191505,SD015.jpg,0,10781,30-49,2023-08-08_18h18.41.954,Recall,2021.2.3,59.95768186698681,
,DD020.jpg,0,FF020.jpg,0,,,,,0,49,49,19,imgFunc,0,NA,1.9076789000537246,307.2584495001938,309.27753621013835,2023-08-08 18:23:34.199509,2023-08-08 18:23:36.209147,DD020.jpg,0,10781,30-49,2023-08-08_18h18.41.954,Recall,2021.2.3,59.95768186698681,
,SD022.jpg,0,MF022.jpg,0,,,,,0,50,50,71,imgFunc,0,NA,2.9671970999334008,309.2630249999929,312.3189110099338,2023-08-08 18:23:36.224108,2023-08-08 18:23:39.278614,SD022.jpg,0,10781,30-49,2023-08-08_18h18.41.954,Recall,2021.2.3,59.95768186698681,
,SD010.jpg,0,MF010.jpg,0,,,,,0,51,51,59,imgFunc,0,NA,2.8061394998803735,312.3199179000221,315.2238340100739,2023-08-08 18:23:39.285597,2023-08-08 18:23:42.180919,SD010.jpg,0,10781,30-49,2023-08-08_18h18.41.954,Recall,2021.2.3,59.95768186698681,
,SD029.jpg,0,MF029.jpg,0,,,,,0,52,52,78,imgFunc,0,NA,4.409263799898326,315.22883280017413,319.7329123101663,2023-08-08 18:23:42.187902,2023-08-08 18:23:46.683803,SD029.jpg,0,10781,30-49,2023-08-08_18h18.41.954,Recall,2021.2.3,59.95768186698681,
,DD016.jpg,0,FF016.jpg,0,,,,,0,53,53,15,imgFunc,0,NA,1.290490800049156,319.75555820018053,321.17170421010815,2023-08-08 18:23:46.692802,2023-08-08 18:23:48.101613,DD016.jpg,0,10781,30-49,2023-08-08_18h18.41.954,Recall,2021.2.3,59.95768186698681,
,L_SD509.jpg,1,L_MF509.jpg,1,,,,,0,54,54,98,imgFunc,0,NA,1.6217877001035959,321.15247169998474,322.87174480990507,2023-08-08 18:23:48.108597,2023-08-08 18:23:49.819295,L_SD509.jpg,1,10781,30-49,2023-08-08_18h18.41.954,Recall,2021.2.3,59.95768186698681,
,SD013.jpg,0,MF013.jpg,0,,,,,0,55,55,62,imgFunc,9,NA,2.3828901001252234,322.87923840014264,325.3507605101913,2023-08-08 18:23:49.834257,2023-08-08 18:23:52.304436,SD013.jpg,0,10781,30-49,2023-08-08_18h18.41.954,Recall,2021.2.3,59.95768186698681,
,L_SD508.jpg,1,L_MF508.jpg,1,,,,,0,56,56,97,imgFunc,0,NA,1.6122385999187827,325.3459291001782,327.04895491036586,2023-08-08 18:23:52.311420,2023-08-08 18:23:54.006103,L_SD508.jpg,1,10781,30-49,2023-08-08_18h18.41.954,Recall,2021.2.3,59.95768186698681,
,DD012.jpg,0,FF012.jpg,0,,,,,0,57,57,11,imgFunc,9,NA,0.8807117000687867,327.06115450011566,328.04591771028936,2023-08-08 18:23:54.013086,2023-08-08 18:23:54.989307,DD012.jpg,0,10781,30-49,2023-08-08_18h18.41.954,Recall,2021.2.3,59.95768186698681,
,DD024.jpg,0,FF024.jpg,0,,,,,0,58,58,23,imgFunc,9,NA,1.087218000087887,328.03863470000215,329.22404161002487,2023-08-08 18:23:54.997285,2023-08-08 18:23:56.173949,DD024.jpg,0,10781,30-49,2023-08-08_18h18.41.954,Recall,2021.2.3,59.95768186698681,
,SD028.jpg,0,MF028.jpg,0,,,,,0,59,59,77,imgFunc,0,NA,1.0839466000907123,329.22627290012315,330.411976010073,2023-08-08 18:23:56.180932,2023-08-08 18:23:57.358252,SD028.jpg,0,10781,30-49,2023-08-08_18h18.41.954,Recall,2021.2.3,59.95768186698681,
,L_DD508.jpg,1,L_FF508.jpg,1,,,,,0,60,60,47,imgFunc,0,NA,1.7813250999897718,330.40057600010186,332.2702680102084,2023-08-08 18:23:57.365235,2023-08-08 18:23:59.226318,L_DD508.jpg,1,10781,30-49,2023-08-08_18h18.41.954,Recall,2021.2.3,59.95768186698681,
,SD033.jpg,0,MF033.jpg,0,,,,,0,61,61,82,imgFunc,0,NA,2.279738700017333,332.2784592001699,334.6651808102615,2023-08-08 18:23:59.233291,2023-08-08 18:24:01.611306,SD033.jpg,0,10781,30-49,2023-08-08_18h18.41.954,Recall,2021.2.3,59.95768186698681,
,DD005.jpg,0,FF005.jpg,0,,,,,0,62,62,4,imgFunc,9,NA,1.1427547000348568,334.6712952000089,335.92362930998206,2023-08-08 18:24:01.618289,2023-08-08 18:24:02.862391,DD005.jpg,0,10781,30-49,2023-08-08_18h18.41.954,Recall,2021.2.3,59.95768186698681,
,DD022.jpg,0,FF022.jpg,0,,,,,0,63,63,21,imgFunc,0,NA,0.6045209998264909,335.929706600029,336.64848431013525,2023-08-08 18:24:02.869374,2023-08-08 18:24:03.579450,DD022.jpg,0,10781,30-49,2023-08-08_18h18.41.954,Recall,2021.2.3,59.95768186698681,
,DD035.jpg,0,FF035.jpg,0,,,,,0,64,64,34,imgFunc,9,NA,1.6734776000957936,336.6447507000994,338.4193624104373,2023-08-08 18:24:03.592416,2023-08-08 18:24:05.364047,DD035.jpg,0,10781,30-49,2023-08-08_18h18.41.954,Recall,2021.2.3,59.95768186698681,
,DD039.jpg,0,FF039.jpg,0,,,,,0,65,65,38,imgFunc,9,NA,2.3241920000873506,338.40194470016286,340.8222086101305,2023-08-08 18:24:05.371030,2023-08-08 18:24:07.782386,DD039.jpg,0,10781,30-49,2023-08-08_18h18.41.954,Recall,2021.2.3,59.95768186698681,
,SD036.jpg,0,MF036.jpg,0,,,,,0,66,66,85,imgFunc,0,NA,2.1493885000236332,340.8326232000254,343.0859668101184,2023-08-08 18:24:07.789368,2023-08-08 18:24:10.034008,SD036.jpg,0,10781,30-49,2023-08-08_18h18.41.954,Recall,2021.2.3,59.95768186698681,
,L_DD504.jpg,1,L_FF504.jpg,1,,,,,0,67,67,43,imgFunc,9,NA,1.9732973000500351,343.08873370010406,345.175394610269,2023-08-08 18:24:10.040991,2023-08-08 18:24:12.119247,L_DD504.jpg,1,10781,30-49,2023-08-08_18h18.41.954,Recall,2021.2.3,59.95768186698681,
,DD029.jpg,0,FF029.jpg,0,,,,,0,68,68,28,imgFunc,0,NA,4.360090099973604,345.16622250014916,349.6206046103034,2023-08-08 18:24:12.126230,2023-08-08 18:24:16.571576,DD029.jpg,0,10781,30-49,2023-08-08_18h18.41.954,Recall,2021.2.3,59.95768186698681,
,DD011.jpg,0,FF011.jpg,0,,,,,0,69,69,10,imgFunc,0,NA,2.958889000117779,349.64720430015586,352.71862600999884,2023-08-08 18:24:16.587558,2023-08-08 18:24:19.657862,DD011.jpg,0,10781,30-49,2023-08-08_18h18.41.954,Recall,2021.2.3,59.95768186698681,
,DD040.jpg,0,FF040.jpg,0,,,,,0,70,70,39,imgFunc,0,NA,1.6156486000400037,352.69462130009197,354.39777901000343,2023-08-08 18:24:19.664845,2023-08-08 18:24:21.358976,DD040.jpg,0,10781,30-49,2023-08-08_18h18.41.954,Recall,2021.2.3,59.95768186698681,
,SD014.jpg,0,MF014.jpg,0,,,,,0,71,71,63,imgFunc,1,NA,5.038266899995506,354.3996970001608,359.52172050997615,2023-08-08 18:24:21.365959,2023-08-08 18:24:26.479267,SD014.jpg,0,10781,30-49,2023-08-08_18h18.41.954,Recall,2021.2.3,59.95768186698681,
,L_DD506.jpg,1,L_FF506.jpg,1,,,,,0,72,72,45,imgFunc,0,NA,1.2052591999527067,359.53698200010695,360.85215091030113,2023-08-08 18:24:26.488268,2023-08-08 18:24:27.796669,L_DD506.jpg,1,10781,30-49,2023-08-08_18h18.41.954,Recall,2021.2.3,59.95768186698681,
,DD025.jpg,0,FF025.jpg,0,,,,,0,73,73,24,imgFunc,9,NA,2.3229508998338133,360.84289610013366,363.2620788102504,2023-08-08 18:24:27.804676,2023-08-08 18:24:30.214462,DD025.jpg,0,10781,30-49,2023-08-08_18h18.41.954,Recall,2021.2.3,59.95768186698681,
,SD034.jpg,0,MF034.jpg,0,,,,,0,74,74,83,imgFunc,0,NA,0.7972534999717027,363.26495350012556,364.15287161036395,2023-08-08 18:24:30.229390,2023-08-08 18:24:31.115808,SD034.jpg,0,10781,30-49,2023-08-08_18h18.41.954,Recall,2021.2.3,59.95768186698681,
,DD014.jpg,0,FF014.jpg,0,,,,,0,75,75,13,imgFunc,0,NA,1.3136730000842363,364.15653320006095,365.55940661020577,2023-08-08 18:24:31.122791,2023-08-08 18:24:32.517007,DD014.jpg,0,10781,30-49,2023-08-08_18h18.41.954,Recall,2021.2.3,59.95768186698681,
,SD001.jpg,0,MF001.jpg,0,,,,,0,76,76,50,imgFunc,0,NA,1.0006864999886602,365.56548270001076,366.66793011012487,2023-08-08 18:24:32.523990,2023-08-08 18:24:33.617759,SD001.jpg,0,10781,30-49,2023-08-08_18h18.41.954,Recall,2021.2.3,59.95768186698681,
,SD039.jpg,0,MF039.jpg,0,,,,,0,77,77,88,imgFunc,9,NA,1.084797800052911,366.66532890009694,367.85136450990103,2023-08-08 18:24:33.624742,2023-08-08 18:24:34.801784,SD039.jpg,0,10781,30-49,2023-08-08_18h18.41.954,Recall,2021.2.3,59.95768186698681,
,DD027.jpg,0,FF027.jpg,0,,,,,0,78,78,26,imgFunc,0,NA,1.5960321000311524,367.850244600093,369.5529450101312,2023-08-08 18:24:34.808767,2023-08-08 18:24:36.503004,DD027.jpg,0,10781,30-49,2023-08-08_18h18.41.954,Recall,2021.2.3,59.95768186698681,
,DD006.jpg,0,FF006.jpg,0,,,,,0,79,79,5,imgFunc,0,NA,1.222663699882105,369.55152990017086,370.8708072102163,2023-08-08 18:24:36.509987,2023-08-08 18:24:37.820521,DD006.jpg,0,10781,30-49,2023-08-08_18h18.41.954,Recall,2021.2.3,59.95768186698681,
,L_DD505.jpg,1,L_FF505.jpg,1,,,,,0,80,80,44,imgFunc,9,NA,2.265540699940175,370.8606355001684,373.2134332100395,2023-08-08 18:24:37.828502,2023-08-08 18:24:40.172281,L_DD505.jpg,1,10781,30-49,2023-08-08_18h18.41.954,Recall,2021.2.3,59.95768186698681,
,L_DD507.jpg,1,L_FF507.jpg,1,,,,,0,81,81,46,imgFunc,0,NA,0.8482903998810798,373.2138979001902,374.1497742100619,2023-08-08 18:24:40.179264,2023-08-08 18:24:41.106338,L_DD507.jpg,1,10781,30-49,2023-08-08_18h18.41.954,Recall,2021.2.3,59.95768186698681,
,DD009.jpg,0,FF009.jpg,0,,,,,0,82,82,8,imgFunc,0,NA,2.4876436998602003,374.1505842001643,376.73751591029577,2023-08-08 18:24:41.113321,2023-08-08 18:24:43.691342,DD009.jpg,0,10781,30-49,2023-08-08_18h18.41.954,Recall,2021.2.3,59.95768186698681,
,SD040.jpg,0,MF040.jpg,0,,,,,0,83,83,89,imgFunc,0,NA,1.8594500999897718,376.7385367001407,378.67888201004826,2023-08-08 18:24:43.705329,2023-08-08 18:24:45.643008,SD040.jpg,0,10781,30-49,2023-08-08_18h18.41.954,Recall,2021.2.3,59.95768186698681,
,SD009.jpg,0,MF009.jpg,0,,,,,0,84,84,58,imgFunc,9,NA,1.500393700087443,378.68969899998046,380.2926200099755,2023-08-08 18:24:45.649991,2023-08-08 18:24:47.244076,SD009.jpg,0,10781,30-49,2023-08-08_18h18.41.954,Recall,2021.2.3,59.95768186698681,
,SD016.jpg,0,MF016.jpg,0,,,,,0,85,85,65,imgFunc,1,NA,1.7701142001897097,380.2840009999927,382.1371705099009,2023-08-08 18:24:47.251059,2023-08-08 18:24:49.095508,SD016.jpg,0,10781,30-49,2023-08-08_18h18.41.954,Recall,2021.2.3,59.95768186698681,
,L_DD502.jpg,1,L_FF502.jpg,1,,,,,0,86,86,41,imgFunc,0,NA,1.3509945999830961,382.14321580016986,383.5959386101458,2023-08-08 18:24:49.102491,2023-08-08 18:24:50.546396,L_DD502.jpg,1,10781,30-49,2023-08-08_18h18.41.954,Recall,2021.2.3,59.95768186698681,
,DD026.jpg,0,FF026.jpg,0,,,,,0,87,87,25,imgFunc,0,NA,1.84927500016056,383.596961800009,385.5493574098218,2023-08-08 18:24:50.554377,2023-08-08 18:24:52.497771,DD026.jpg,0,10781,30-49,2023-08-08_18h18.41.954,Recall,2021.2.3,59.95768186698681,
,DD002.jpg,0,FF002.jpg,0,,,,,0,88,88,1,imgFunc,9,NA,2.104964799946174,385.5572021000553,387.7626852102112,2023-08-08 18:24:52.512761,2023-08-08 18:24:54.716325,DD002.jpg,0,10781,30-49,2023-08-08_18h18.41.954,Recall,2021.2.3,59.95768186698681,
,DD013.jpg,0,FF013.jpg,0,,,,,0,89,89,12,imgFunc,9,NA,2.8936618000734597,387.76049880008213,390.7476692101918,2023-08-08 18:24:54.723308,2023-08-08 18:24:57.701529,DD013.jpg,0,10781,30-49,2023-08-08_18h18.41.954,Recall,2021.2.3,59.95768186698681,
,SD007.jpg,0,MF007.jpg,0,,,,,0,90,90,56,imgFunc,0,NA,1.2574640000239015,390.74033820000477,392.0923038101755,2023-08-08 18:24:57.708512,2023-08-08 18:24:59.052271,SD007.jpg,0,10781,30-49,2023-08-08_18h18.41.954,Recall,2021.2.3,59.95768186698681,
,DD036.jpg,0,FF036.jpg,0,,,,,0,91,91,35,imgFunc,9,NA,2.1177727999165654,392.10438090004027,394.3243769099936,2023-08-08 18:24:59.059252,2023-08-08 18:25:01.270828,DD036.jpg,0,10781,30-49,2023-08-08_18h18.41.954,Recall,2021.2.3,59.95768186698681,
,SD031.jpg,0,MF031.jpg,0,,,,,0,92,92,80,imgFunc,0,NA,1.9474885000381619,394.3145380001515,396.3508454102557,2023-08-08 18:25:01.277832,2023-08-08 18:25:03.305711,SD031.jpg,0,10781,30-49,2023-08-08_18h18.41.954,Recall,2021.2.3,59.95768186698681,
,L_SD503.jpg,1,L_MF503.jpg,1,,,,,0,93,93,92,imgFunc,9,NA,1.9422123001422733,396.3597870999947,398.3985385100823,2023-08-08 18:25:03.319676,2023-08-08 18:25:05.356891,L_SD503.jpg,1,10781,30-49,2023-08-08_18h18.41.954,Recall,2021.2.3,59.95768186698681,
,SD027.jpg,0,MF027.jpg,0,,,,,0,94,94,76,imgFunc,9,NA,2.7335453000850976,398.4005351001397,401.22087911027484,2023-08-08 18:25:05.363875,2023-08-08 18:25:08.175837,SD027.jpg,0,10781,30-49,2023-08-08_18h18.41.954,Recall,2021.2.3,59.95768186698681,
,L_DD510.jpg,1,L_FF510.jpg,1,,,,,0,95,95,49,imgFunc,0,NA,2.4327271999791265,401.2134440999944,403.7330134101212,2023-08-08 18:25:08.182820,2023-08-08 18:25:10.694200,L_DD510.jpg,1,10781,30-49,2023-08-08_18h18.41.954,Recall,2021.2.3,59.95768186698681,
,DD031.jpg,0,FF031.jpg,0,,,,,0,96,96,30,imgFunc,0,NA,1.8344187999609858,403.7397314000409,405.67627040995285,2023-08-08 18:25:10.701183,2023-08-08 18:25:12.628961,DD031.jpg,0,10781,30-49,2023-08-08_18h18.41.954,Recall,2021.2.3,59.95768186698681,
,DD007.jpg,0,FF007.jpg,0,,,,,0,97,97,6,imgFunc,9,NA,2.43207829981111,405.6860721001867,408.22287721023895,2023-08-08 18:25:12.635944,2023-08-08 18:25:15.163974,DD007.jpg,0,10781,30-49,2023-08-08_18h18.41.954,Recall,2021.2.3,59.95768186698681,
,SD019.jpg,0,MF019.jpg,0,,,,,0,98,98,68,imgFunc,0,NA,1.7135828998871148,408.2124793000985,410.0320573099889,2023-08-08 18:25:15.170957,2023-08-08 18:25:16.982029,SD019.jpg,0,10781,30-49,2023-08-08_18h18.41.954,Recall,2021.2.3,59.95768186698681,
,SD026.jpg,0,MF026.jpg,0,,,,,0,99,99,75,imgFunc,0,NA,1.3199238001834601,410.0301893001888,411.4492969100829,2023-08-08 18:25:16.989012,2023-08-08 18:25:18.399702,SD026.jpg,0,10781,30-49,2023-08-08_18h18.41.954,Recall,2021.2.3,59.95768186698681,
,,,,,,,,,,,,,instrFunc,space,"Great work! 

 Now you will switch to the other image type.

 Press the spacebar whenever you are ready to start.",2.4049313000869006,411.37723450013436,413.82608931022696,2023-08-08 18:25:18.400702,2023-08-08 18:25:20.833614,,,10781,30-49,2023-08-08_18h18.41.954,Recall,2021.2.3,59.95768186698681,
,DD039.jpg,0,FF039.jpg,0,,,,,0,0,0,38,imgFunc,2,NA,12.271532399812713,413.9186391001567,426.3061355301179,2023-08-08 18:25:20.869358,2023-08-08 18:25:33.243530,FF039.jpg,0,10781,30-49,2023-08-08_18h18.41.954,Recall,2021.2.3,59.95768186698681,
,L_SD506.jpg,1,L_MF506.jpg,1,,,,,0,1,1,95,imgFunc,2,NA,4.628812500042841,426.3132900001947,431.06469481042586,2023-08-08 18:25:33.252508,2023-08-08 18:25:37.997077,L_MF506.jpg,1,10781,30-49,2023-08-08_18h18.41.954,Recall,2021.2.3,59.95768186698681,
,DD004.jpg,0,FF004.jpg,0,,,,,0,2,2,3,imgFunc,1,NA,3.910006299847737,431.04797499999404,435.0488446103409,2023-08-08 18:25:38.006146,2023-08-08 18:25:42.000249,FF004.jpg,0,10781,30-49,2023-08-08_18h18.41.954,Recall,2021.2.3,59.95768186698681,
,L_DD504.jpg,1,L_FF504.jpg,1,,,,,0,3,3,43,imgFunc,2,NA,1.7207985001150519,435.0613506999798,436.88474690984003,2023-08-08 18:25:42.013199,2023-08-08 18:25:43.834606,L_FF504.jpg,1,10781,30-49,2023-08-08_18h18.41.954,Recall,2021.2.3,59.95768186698681,
,DD031.jpg,0,FF031.jpg,0,,,,,0,4,4,30,imgFunc,2,NA,1.646097999997437,436.88799439999275,438.6415209097322,2023-08-08 18:25:43.841589,2023-08-08 18:25:45.586061,FF031.jpg,0,10781,30-49,2023-08-08_18h18.41.954,Recall,2021.2.3,59.95768186698681,
,SD008.jpg,0,MF008.jpg,0,,,,,0,5,5,57,imgFunc,2,NA,10.555280699860305,438.6348133001011,449.29415881005116,2023-08-08 18:25:45.593044,2023-08-08 18:25:56.243492,MF008.jpg,0,10781,30-49,2023-08-08_18h18.41.954,Recall,2021.2.3,59.95768186698681,
,SD027.jpg,0,MF027.jpg,0,,,,,0,6,6,76,imgFunc,2,NA,2.1663430999033153,449.3195568001829,451.60273561044596,2023-08-08 18:25:56.252308,2023-08-08 18:25:58.528740,MF027.jpg,0,10781,30-49,2023-08-08_18h18.41.954,Recall,2021.2.3,59.95768186698681,
,SD039.jpg,0,MF039.jpg,0,,,,,0,7,7,88,imgFunc,0,NA,5.324027800001204,451.5939625001047,457.0324306101538,2023-08-08 18:25:58.535724,2023-08-08 18:26:03.965606,MF039.jpg,0,10781,30-49,2023-08-08_18h18.41.954,Recall,2021.2.3,59.95768186698681,
,L_DD510.jpg,1,L_FF510.jpg,1,,,,,0,8,8,49,imgFunc,2,NA,4.144262699875981,457.01370949996635,461.2482663099654,2023-08-08 18:26:03.974615,2023-08-08 18:26:08.202279,L_FF510.jpg,1,10781,30-49,2023-08-08_18h18.41.954,Recall,2021.2.3,59.95768186698681,
,L_SD504.jpg,1,L_MF504.jpg,1,,,,,0,9,9,93,imgFunc,9,NA,13.885599999921396,461.2486904000398,475.2266640099697,2023-08-08 18:26:08.209263,2023-08-08 18:26:22.179039,L_MF504.jpg,1,10781,30-49,2023-08-08_18h18.41.954,Recall,2021.2.3,59.95768186698681,
,SD026.jpg,0,MF026.jpg,0,,,,,0,10,10,75,imgFunc,0,NA,8.393023800104856,475.26898320019245,483.80080340988934,2023-08-08 18:26:22.191009,2023-08-08 18:26:30.718237,MF026.jpg,0,10781,30-49,2023-08-08_18h18.41.954,Recall,2021.2.3,59.95768186698681,
,L_SD510.jpg,1,L_MF510.jpg,1,,,,,0,11,11,99,imgFunc,9,NA,3.027140700025484,483.77877550013363,486.91235391027294,2023-08-08 18:26:30.727215,2023-08-08 18:26:33.853786,L_MF510.jpg,1,10781,30-49,2023-08-08_18h18.41.954,Recall,2021.2.3,59.95768186698681,
,SD032.jpg,0,MF032.jpg,0,,,,,0,12,12,81,imgFunc,1,NA,2.4768366999924183,486.9132704001386,489.4887829099316,2023-08-08 18:26:33.866753,2023-08-08 18:26:36.439200,MF032.jpg,0,10781,30-49,2023-08-08_18h18.41.954,Recall,2021.2.3,59.95768186698681,
,DD015.jpg,0,FF015.jpg,0,,,,,0,13,13,14,imgFunc,1,NA,1.5411733000073582,489.48875800007954,491.12539730989374,2023-08-08 18:26:36.446182,2023-08-08 18:26:38.073692,FF015.jpg,0,10781,30-49,2023-08-08_18h18.41.954,Recall,2021.2.3,59.95768186698681,
,SD029.jpg,0,MF029.jpg,0,,,,,0,14,14,78,imgFunc,0,NA,4.343913400080055,491.11779720010236,495.5553951100446,2023-08-08 18:26:38.080697,2023-08-08 18:26:42.509959,MF029.jpg,0,10781,30-49,2023-08-08_18h18.41.954,Recall,2021.2.3,59.95768186698681,
,DD040.jpg,0,FF040.jpg,0,,,,,0,15,15,39,imgFunc,2,NA,5.569926499854773,495.5641398001462,501.23207981023006,2023-08-08 18:26:42.518918,2023-08-08 18:26:48.180633,FF040.jpg,0,10781,30-49,2023-08-08_18h18.41.954,Recall,2021.2.3,59.95768186698681,
,DD035.jpg,0,FF035.jpg,0,,,,,0,16,16,34,imgFunc,2,NA,1.986391199985519,501.2436910001561,503.3435716102831,2023-08-08 18:26:48.189611,2023-08-08 18:26:50.282250,FF035.jpg,0,10781,30-49,2023-08-08_18h18.41.954,Recall,2021.2.3,59.95768186698681,
,SD034.jpg,0,MF034.jpg,0,,,,,0,17,17,83,imgFunc,2,NA,4.310390499886125,503.3514237999916,507.77372640999965,2023-08-08 18:26:50.297212,2023-08-08 18:26:54.719107,MF034.jpg,0,10781,30-49,2023-08-08_18h18.41.954,Recall,2021.2.3,59.95768186698681,
,L_SD505.jpg,1,L_MF505.jpg,1,,,,,0,18,18,94,imgFunc,0,NA,2.3060663000214845,507.7640385001432,510.16687201010063,2023-08-08 18:26:54.726090,2023-08-08 18:26:57.120620,L_MF505.jpg,1,10781,30-49,2023-08-08_18h18.41.954,Recall,2021.2.3,59.95768186698681,
,DD025.jpg,0,FF025.jpg,0,,,,,0,19,19,24,imgFunc,0,NA,3.9038430999498814,510.174049400026,514.1788316098973,2023-08-08 18:26:57.127603,2023-08-08 18:27:01.123544,FF025.jpg,0,10781,30-49,2023-08-08_18h18.41.954,Recall,2021.2.3,59.95768186698681,
,DD005.jpg,0,FF005.jpg,0,,,,,0,20,20,4,imgFunc,2,NA,3.3612962998449802,514.1725708001759,517.6265109102242,2023-08-08 18:27:01.130527,2023-08-08 18:27:04.576120,FF005.jpg,0,10781,30-49,2023-08-08_18h18.41.954,Recall,2021.2.3,59.95768186698681,
,DD003.jpg,0,FF003.jpg,0,,,,,0,21,21,2,imgFunc,1,NA,2.5533911001402885,517.6444427000824,520.3140274102334,2023-08-08 18:27:04.583103,2023-08-08 18:27:07.244540,FF003.jpg,0,10781,30-49,2023-08-08_18h18.41.954,Recall,2021.2.3,59.95768186698681,
,L_DD505.jpg,1,L_FF505.jpg,1,,,,,0,22,22,44,imgFunc,1,NA,1.223053699824959,520.294940700056,521.6142495102249,2023-08-08 18:27:07.252249,2023-08-08 18:27:08.562143,L_FF505.jpg,1,10781,30-49,2023-08-08_18h18.41.954,Recall,2021.2.3,59.95768186698681,
,DD023.jpg,0,FF023.jpg,0,,,,,0,23,23,22,imgFunc,2,NA,0.9864026999566704,521.6116622001864,522.6969856102951,2023-08-08 18:27:08.569148,2023-08-08 18:27:09.646245,FF023.jpg,0,10781,30-49,2023-08-08_18h18.41.954,Recall,2021.2.3,59.95768186698681,
,L_DD506.jpg,1,L_FF506.jpg,1,,,,,0,24,24,45,imgFunc,1,NA,2.2632810999639332,522.6947042001411,525.0647201100364,2023-08-08 18:27:09.653228,2023-08-08 18:27:12.014497,L_FF506.jpg,1,10781,30-49,2023-08-08_18h18.41.954,Recall,2021.2.3,59.95768186698681,
,SD006.jpg,0,MF006.jpg,0,,,,,0,25,25,55,imgFunc,1,NA,8.421313599916175,525.064693100052,533.5890171101782,2023-08-08 18:27:12.021481,2023-08-08 18:27:20.537250,MF006.jpg,0,10781,30-49,2023-08-08_18h18.41.954,Recall,2021.2.3,59.95768186698681,
,DD036.jpg,0,FF036.jpg,0,,,,,0,26,26,35,imgFunc,1,NA,3.5846841998863965,533.6212500000838,537.3254631101154,2023-08-08 18:27:20.553119,2023-08-08 18:27:24.256813,FF036.jpg,0,10781,30-49,2023-08-08_18h18.41.954,Recall,2021.2.3,59.95768186698681,
,DD010.jpg,0,FF010.jpg,0,,,,,0,27,27,9,imgFunc,2,NA,6.307468099985272,537.298606300028,543.7053279101383,2023-08-08 18:27:24.263796,2023-08-08 18:27:30.661400,FF010.jpg,0,10781,30-49,2023-08-08_18h18.41.954,Recall,2021.2.3,59.95768186698681,
,L_SD508.jpg,1,L_MF508.jpg,1,,,,,0,28,28,97,imgFunc,0,NA,7.53377169999294,543.7122955999803,551.3493618099019,2023-08-08 18:27:30.670377,2023-08-08 18:27:38.300078,L_MF508.jpg,1,10781,30-49,2023-08-08_18h18.41.954,Recall,2021.2.3,59.95768186698681,
,SD010.jpg,0,MF010.jpg,0,,,,,0,29,29,59,imgFunc,9,NA,3.5760574000887573,551.3658809000626,555.0495240101591,2023-08-08 18:27:38.309077,2023-08-08 18:27:41.986190,MF010.jpg,0,10781,30-49,2023-08-08_18h18.41.954,Recall,2021.2.3,59.95768186698681,
,SD002.jpg,0,MF002.jpg,0,,,,,0,30,30,51,imgFunc,0,NA,5.429673299891874,555.0483673000708,560.5874500100035,2023-08-08 18:27:41.993173,2023-08-08 18:27:47.523585,MF002.jpg,0,10781,30-49,2023-08-08_18h18.41.954,Recall,2021.2.3,59.95768186698681,
,L_DD502.jpg,1,L_FF502.jpg,1,,,,,0,31,31,41,imgFunc,0,NA,2.117987899808213,560.592040500138,562.8101505101658,2023-08-08 18:27:47.539544,2023-08-08 18:27:49.758184,L_FF502.jpg,1,10781,30-49,2023-08-08_18h18.41.954,Recall,2021.2.3,59.95768186698681,
,SD012.jpg,0,MF012.jpg,0,,,,,0,32,32,61,imgFunc,0,NA,2.222305600065738,562.8073738999665,565.127101209946,2023-08-08 18:27:49.765167,2023-08-08 18:27:52.076634,MF012.jpg,0,10781,30-49,2023-08-08_18h18.41.954,Recall,2021.2.3,59.95768186698681,
,DD038.jpg,0,FF038.jpg,0,,,,,0,33,33,37,imgFunc,0,NA,2.0188547000288963,565.1231933000963,567.2430276100058,2023-08-08 18:27:52.083617,2023-08-08 18:27:54.194808,FF038.jpg,0,10781,30-49,2023-08-08_18h18.41.954,Recall,2021.2.3,59.95768186698681,
,DD016.jpg,0,FF016.jpg,0,,,,,0,34,34,15,imgFunc,0,NA,5.233766000019386,567.2439194000326,572.5826896103099,2023-08-08 18:27:54.201791,2023-08-08 18:27:59.531748,FF016.jpg,0,10781,30-49,2023-08-08_18h18.41.954,Recall,2021.2.3,59.95768186698681,
,DD007.jpg,0,FF007.jpg,0,,,,,0,35,35,6,imgFunc,0,NA,6.764874999877065,572.5932690000627,579.4648645101115,2023-08-08 18:27:59.539726,2023-08-08 18:28:06.403871,FF007.jpg,0,10781,30-49,2023-08-08_18h18.41.954,Recall,2021.2.3,59.95768186698681,
,DD030.jpg,0,FF030.jpg,0,,,,,0,36,36,29,imgFunc,0,NA,6.057769300183281,579.4520552000031,585.6044469100889,2023-08-08 18:28:06.412849,2023-08-08 18:28:12.557867,FF030.jpg,0,10781,30-49,2023-08-08_18h18.41.954,Recall,2021.2.3,59.95768186698681,
,SD011.jpg,0,MF011.jpg,0,,,,,0,37,37,60,imgFunc,0,NA,2.3580826001707464,585.6315761001315,588.1146597103216,2023-08-08 18:28:12.566875,2023-08-08 18:28:15.043239,MF011.jpg,0,10781,30-49,2023-08-08_18h18.41.954,Recall,2021.2.3,59.95768186698681,
,SD031.jpg,0,MF031.jpg,0,,,,,0,38,38,80,imgFunc,0,NA,4.115055099828169,588.0908694001846,592.3119590103161,2023-08-08 18:28:15.050230,2023-08-08 18:28:19.262892,MF031.jpg,0,10781,30-49,2023-08-08_18h18.41.954,Recall,2021.2.3,59.95768186698681,
,SD033.jpg,0,MF033.jpg,0,,,,,0,39,39,82,imgFunc,9,NA,1.920778299914673,592.3252251001541,594.3611936098896,2023-08-08 18:28:19.269875,2023-08-08 18:28:21.297520,MF033.jpg,0,10781,30-49,2023-08-08_18h18.41.954,Recall,2021.2.3,59.95768186698681,
,DD014.jpg,0,FF014.jpg,0,,,,,0,40,40,13,imgFunc,0,NA,3.9221145999617875,594.3639068000484,598.3872314100154,2023-08-08 18:28:21.312371,2023-08-08 18:28:25.333639,FF014.jpg,0,10781,30-49,2023-08-08_18h18.41.954,Recall,2021.2.3,59.95768186698681,
,SD020.jpg,0,MF020.jpg,0,,,,,0,41,41,69,imgFunc,0,NA,4.677312800195068,598.3842653001193,603.1726855100133,2023-08-08 18:28:25.340622,2023-08-08 18:28:30.120399,MF020.jpg,0,10781,30-49,2023-08-08_18h18.41.954,Recall,2021.2.3,59.95768186698681,
,L_SD503.jpg,1,L_MF503.jpg,1,,,,,0,42,42,92,imgFunc,0,NA,8.670833399984986,603.1671353999991,611.9396602101624,2023-08-08 18:28:30.128377,2023-08-08 18:28:38.893576,L_MF503.jpg,1,10781,30-49,2023-08-08_18h18.41.954,Recall,2021.2.3,59.95768186698681,
,SD030.jpg,0,MF030.jpg,0,,,,,0,43,43,79,imgFunc,9,NA,7.983494199812412,611.9665109000634,620.0684082100634,2023-08-08 18:28:38.903551,2023-08-08 18:28:46.999393,MF030.jpg,0,10781,30-49,2023-08-08_18h18.41.954,Recall,2021.2.3,59.95768186698681,
,SD017.jpg,0,MF017.jpg,0,,,,,0,44,44,66,imgFunc,9,NA,2.5404753000475466,620.0493152001873,622.6826741101686,2023-08-08 18:28:47.008371,2023-08-08 18:28:49.634676,MF017.jpg,0,10781,30-49,2023-08-08_18h18.41.954,Recall,2021.2.3,59.95768186698681,
,DD032.jpg,0,FF032.jpg,0,,,,,0,45,45,31,imgFunc,9,NA,2.0314913000911474,622.702385700075,624.840651310049,2023-08-08 18:28:49.649638,2023-08-08 18:28:51.785948,FF032.jpg,0,10781,30-49,2023-08-08_18h18.41.954,Recall,2021.2.3,59.95768186698681,
,SD004.jpg,0,MF004.jpg,0,,,,,0,46,46,53,imgFunc,9,NA,1.4788200000766665,624.8391516001429,626.425691110082,2023-08-08 18:28:51.792931,2023-08-08 18:28:53.370605,MF004.jpg,0,10781,30-49,2023-08-08_18h18.41.954,Recall,2021.2.3,59.95768186698681,
,DD022.jpg,0,FF022.jpg,0,,,,,0,47,47,21,imgFunc,2,NA,7.40978330001235,626.4203046001494,633.9276421102695,2023-08-08 18:28:53.377588,2023-08-08 18:29:00.876253,FF022.jpg,0,10781,30-49,2023-08-08_18h18.41.954,Recall,2021.2.3,59.95768186698681,
,SD022.jpg,0,MF022.jpg,0,,,,,0,48,48,71,imgFunc,9,NA,5.893893500091508,633.9360566001851,639.9381319100503,2023-08-08 18:29:00.885230,2023-08-08 18:29:06.880384,MF022.jpg,0,10781,30-49,2023-08-08_18h18.41.954,Recall,2021.2.3,59.95768186698681,
,DD033.jpg,0,FF033.jpg,0,,,,,0,49,49,32,imgFunc,0,NA,5.11850869981572,639.9435451000463,645.1784542100504,2023-08-08 18:29:06.889361,2023-08-08 18:29:12.117363,FF033.jpg,0,10781,30-49,2023-08-08_18h18.41.954,Recall,2021.2.3,59.95768186698681,
,DD018.jpg,0,FF018.jpg,0,,,,,0,50,50,17,imgFunc,0,NA,1.8307803000789136,645.1753088000696,647.1080534099601,2023-08-08 18:29:12.126341,2023-08-08 18:29:14.052140,FF018.jpg,0,10781,30-49,2023-08-08_18h18.41.954,Recall,2021.2.3,59.95768186698681,
,DD008.jpg,0,FF008.jpg,0,,,,,0,51,51,7,imgFunc,1,NA,2.816333399852738,647.1016695001163,650.0222955101635,2023-08-08 18:29:14.059123,2023-08-08 18:29:16.970752,FF008.jpg,0,10781,30-49,2023-08-08_18h18.41.954,Recall,2021.2.3,59.95768186698681,
,SD023.jpg,0,MF023.jpg,0,,,,,0,52,52,72,imgFunc,0,NA,6.648665799992159,650.0292448999826,656.7854756100569,2023-08-08 18:29:16.977757,2023-08-08 18:29:23.725796,MF023.jpg,0,10781,30-49,2023-08-08_18h18.41.954,Recall,2021.2.3,59.95768186698681,
,L_DD507.jpg,1,L_FF507.jpg,1,,,,,0,53,53,46,imgFunc,0,NA,1.0894375999923795,656.7803911000956,657.9796110102907,2023-08-08 18:29:23.734774,2023-08-08 18:29:24.926664,L_FF507.jpg,1,10781,30-49,2023-08-08_18h18.41.954,Recall,2021.2.3,59.95768186698681,
,SD019.jpg,0,MF019.jpg,0,,,,,0,54,54,68,imgFunc,0,NA,2.0553166999015957,657.9903208001051,660.1478474100586,2023-08-08 18:29:24.939631,2023-08-08 18:29:27.093726,MF019.jpg,0,10781,30-49,2023-08-08_18h18.41.954,Recall,2021.2.3,59.95768186698681,
,SD014.jpg,0,MF014.jpg,0,,,,,0,55,55,63,imgFunc,9,NA,7.58037169999443,660.1374684001785,667.810657110298,2023-08-08 18:29:27.101704,2023-08-08 18:29:34.766992,MF014.jpg,0,10781,30-49,2023-08-08_18h18.41.954,Recall,2021.2.3,59.95768186698681,
,SD018.jpg,0,MF018.jpg,0,,,,,0,56,56,67,imgFunc,9,NA,2.2491019000299275,667.8127192000393,670.1629514100496,2023-08-08 18:29:34.775969,2023-08-08 18:29:37.118829,MF018.jpg,0,10781,30-49,2023-08-08_18h18.41.954,Recall,2021.2.3,59.95768186698681,
,SD036.jpg,0,MF036.jpg,0,,,,,0,57,57,85,imgFunc,0,NA,2.0700785999652,670.1755568999797,672.362385410117,2023-08-08 18:29:37.125812,2023-08-08 18:29:39.303430,MF036.jpg,0,10781,30-49,2023-08-08_18h18.41.954,Recall,2021.2.3,59.95768186698681,
,SD038.jpg,0,MF038.jpg,0,,,,,0,58,58,87,imgFunc,9,NA,3.1674454000312835,672.3665275000967,675.6516987099312,2023-08-08 18:29:39.311413,2023-08-08 18:29:42.589223,MF038.jpg,0,10781,30-49,2023-08-08_18h18.41.954,Recall,2021.2.3,59.95768186698681,
,SD005.jpg,0,MF005.jpg,0,,,,,0,59,59,54,imgFunc,9,NA,6.797687700018287,675.6562483001035,682.5647868104279,2023-08-08 18:29:42.603187,2023-08-08 18:29:49.510645,MF005.jpg,0,10781,30-49,2023-08-08_18h18.41.954,Recall,2021.2.3,59.95768186698681,
,L_SD507.jpg,1,L_MF507.jpg,1,,,,,0,60,60,96,imgFunc,9,NA,3.0737457999493927,682.5562554001808,685.7240103101358,2023-08-08 18:29:49.519622,2023-08-08 18:29:52.679866,L_MF507.jpg,1,10781,30-49,2023-08-08_18h18.41.954,Recall,2021.2.3,59.95768186698681,
,SD028.jpg,0,MF028.jpg,0,,,,,0,61,61,77,imgFunc,0,NA,2.6183579999487847,685.7315283999778,688.451848810073,2023-08-08 18:29:52.686849,2023-08-08 18:29:55.398323,MF028.jpg,0,10781,30-49,2023-08-08_18h18.41.954,Recall,2021.2.3,59.95768186698681,
,DD009.jpg,0,FF009.jpg,0,,,,,0,62,62,8,imgFunc,0,NA,10.060768599854782,688.4489082000218,698.6082178100478,2023-08-08 18:29:55.405306,2023-08-08 18:30:05.555785,FF009.jpg,0,10781,30-49,2023-08-08_18h18.41.954,Recall,2021.2.3,59.95768186698681,
,DD017.jpg,0,FF017.jpg,0,,,,,0,63,63,16,imgFunc,9,NA,3.2435339000076056,698.6343666000757,702.0025006101932,2023-08-08 18:30:05.564764,2023-08-08 18:30:08.925236,FF017.jpg,0,10781,30-49,2023-08-08_18h18.41.954,Recall,2021.2.3,59.95768186698681,
,L_DD508.jpg,1,L_FF508.jpg,1,,,,,0,64,64,47,imgFunc,9,NA,1.3205355000682175,701.9813755999785,703.4172308098059,2023-08-08 18:30:08.932219,2023-08-08 18:30:10.359232,L_FF508.jpg,1,10781,30-49,2023-08-08_18h18.41.954,Recall,2021.2.3,59.95768186698681,
,SD037.jpg,0,MF037.jpg,0,,,,,0,65,65,86,imgFunc,9,NA,2.0699620000086725,703.4078715001233,705.5772902101744,2023-08-08 18:30:10.366215,2023-08-08 18:30:12.527328,MF037.jpg,0,10781,30-49,2023-08-08_18h18.41.954,Recall,2021.2.3,59.95768186698681,
,L_DD509.jpg,1,L_FF509.jpg,1,,,,,0,66,66,48,imgFunc,0,NA,1.8464019000530243,705.5754307999741,707.528263610322,2023-08-08 18:30:12.534312,2023-08-08 18:30:14.478729,L_FF509.jpg,1,10781,30-49,2023-08-08_18h18.41.954,Recall,2021.2.3,59.95768186698681,
,DD019.jpg,0,FF019.jpg,0,,,,,0,67,67,18,imgFunc,0,NA,1.513822800014168,707.532096200157,709.1521245099138,2023-08-08 18:30:14.485713,2023-08-08 18:30:16.096565,FF019.jpg,0,10781,30-49,2023-08-08_18h18.41.954,Recall,2021.2.3,59.95768186698681,
,DD001.jpg,0,FF001.jpg,0,,,,,0,68,68,0,imgFunc,0,NA,1.484019999857992,709.16151370015,710.7523981102277,2023-08-08 18:30:16.109567,2023-08-08 18:30:17.697791,FF001.jpg,0,10781,30-49,2023-08-08_18h18.41.954,Recall,2021.2.3,59.95768186698681,
,DD006.jpg,0,FF006.jpg,0,,,,,0,69,69,5,imgFunc,0,NA,2.8054042998701334,710.7522326000035,713.6725439100992,2023-08-08 18:30:17.704774,2023-08-08 18:30:20.616591,FF006.jpg,0,10781,30-49,2023-08-08_18h18.41.954,Recall,2021.2.3,59.95768186698681,
,SD025.jpg,0,MF025.jpg,0,,,,,0,70,70,74,imgFunc,9,NA,1.676767900120467,713.6730550001375,715.4592554101255,2023-08-08 18:30:20.623574,2023-08-08 18:30:22.401161,MF025.jpg,0,10781,30-49,2023-08-08_18h18.41.954,Recall,2021.2.3,59.95768186698681,
,DD037.jpg,0,FF037.jpg,0,,,,,0,71,71,36,imgFunc,9,NA,4.444562599994242,715.4492246001028,719.9876474102493,2023-08-08 18:30:22.408144,2023-08-08 18:30:26.937858,FF037.jpg,0,10781,30-49,2023-08-08_18h18.41.954,Recall,2021.2.3,59.95768186698681,
,SD040.jpg,0,MF040.jpg,0,,,,,0,72,72,89,imgFunc,0,NA,4.211594599997625,720.0021973999683,724.3188366100658,2023-08-08 18:30:26.946835,2023-08-08 18:30:31.256839,MF040.jpg,0,10781,30-49,2023-08-08_18h18.41.954,Recall,2021.2.3,59.95768186698681,
,L_DD501.jpg,1,L_FF501.jpg,1,,,,,0,73,73,40,imgFunc,0,NA,2.8713922000024468,724.326451000059,727.2967986101285,2023-08-08 18:30:31.272799,2023-08-08 18:30:34.243123,L_FF501.jpg,1,10781,30-49,2023-08-08_18h18.41.954,Recall,2021.2.3,59.95768186698681,
,SD013.jpg,0,MF013.jpg,0,,,,,0,74,74,62,imgFunc,0,NA,3.244032399961725,727.289784300141,730.6276694100816,2023-08-08 18:30:34.250106,2023-08-08 18:30:37.578875,MF013.jpg,0,10781,30-49,2023-08-08_18h18.41.954,Recall,2021.2.3,59.95768186698681,
,DD029.jpg,0,FF029.jpg,0,,,,,0,75,75,28,imgFunc,0,NA,5.379581699846312,730.6339356000535,736.1223212101031,2023-08-08 18:30:37.585858,2023-08-08 18:30:43.066135,FF029.jpg,0,10781,30-49,2023-08-08_18h18.41.954,Recall,2021.2.3,59.95768186698681,
,DD026.jpg,0,FF026.jpg,0,,,,,0,76,76,25,imgFunc,0,NA,1.434308699797839,736.13965440006,737.7034494101536,2023-08-08 18:30:43.076110,2023-08-08 18:30:44.633784,FF026.jpg,0,10781,30-49,2023-08-08_18h18.41.954,Recall,2021.2.3,59.95768186698681,
,L_SD502.jpg,1,L_MF502.jpg,1,,,,,0,77,77,91,imgFunc,0,NA,1.962230899836868,737.7076369000133,739.7931804102845,2023-08-08 18:30:44.641764,2023-08-08 18:30:46.718439,L_MF502.jpg,1,10781,30-49,2023-08-08_18h18.41.954,Recall,2021.2.3,59.95768186698681,
,SD024.jpg,0,MF024.jpg,0,,,,,0,78,78,73,imgFunc,9,NA,3.0234342000912875,739.7662961001042,742.8864618102089,2023-08-08 18:30:46.726441,2023-08-08 18:30:49.837578,MF024.jpg,0,10781,30-49,2023-08-08_18h18.41.954,Recall,2021.2.3,59.95768186698681,
,DD021.jpg,0,FF021.jpg,0,,,,,0,79,79,20,imgFunc,9,NA,7.151693099876866,742.8941983999684,750.1513048100751,2023-08-08 18:30:49.844561,2023-08-08 18:30:57.092954,FF021.jpg,0,10781,30-49,2023-08-08_18h18.41.954,Recall,2021.2.3,59.95768186698681,
,L_SD501.jpg,1,L_MF501.jpg,1,,,,,0,80,80,90,imgFunc,9,NA,1.4121145999524742,750.1536869001575,751.66960071004,2023-08-08 18:30:57.101932,2023-08-08 18:30:58.610740,L_MF501.jpg,1,10781,30-49,2023-08-08_18h18.41.954,Recall,2021.2.3,59.95768186698681,
,DD028.jpg,0,FF028.jpg,0,,,,,0,81,81,27,imgFunc,9,NA,3.0153719999361783,751.6625374001451,754.7831273102202,2023-08-08 18:30:58.617723,2023-08-08 18:31:01.729483,FF028.jpg,0,10781,30-49,2023-08-08_18h18.41.954,Recall,2021.2.3,59.95768186698681,
,DD013.jpg,0,FF013.jpg,0,,,,,0,82,82,12,imgFunc,0,NA,2.040149899898097,754.7897235001437,756.9298473102972,2023-08-08 18:31:01.743448,2023-08-08 18:31:03.880921,FF013.jpg,0,10781,30-49,2023-08-08_18h18.41.954,Recall,2021.2.3,59.95768186698681,
,SD021.jpg,0,MF021.jpg,0,,,,,0,83,83,70,imgFunc,9,NA,2.3069186999928206,756.930744000012,759.3332423102111,2023-08-08 18:31:03.888902,2023-08-08 18:31:06.282811,MF021.jpg,0,10781,30-49,2023-08-08_18h18.41.954,Recall,2021.2.3,59.95768186698681,
,SD035.jpg,0,MF035.jpg,0,,,,,0,84,84,84,imgFunc,9,NA,2.9131742999888957,759.3326954999939,762.3531899100635,2023-08-08 18:31:06.289794,2023-08-08 18:31:09.301427,MF035.jpg,0,10781,30-49,2023-08-08_18h18.41.954,Recall,2021.2.3,59.95768186698681,
,DD024.jpg,0,FF024.jpg,0,,,,,0,85,85,23,imgFunc,0,NA,1.4582382999360561,762.3556941000279,763.9253103099763,2023-08-08 18:31:09.308411,2023-08-08 18:31:10.869291,FF024.jpg,0,10781,30-49,2023-08-08_18h18.41.954,Recall,2021.2.3,59.95768186698681,
,SD015.jpg,0,MF015.jpg,0,,,,,0,86,86,64,imgFunc,0,NA,3.5811721000354737,763.9364030000288,767.6406048098579,2023-08-08 18:31:10.876275,2023-08-08 18:31:14.571858,MF015.jpg,0,10781,30-49,2023-08-08_18h18.41.954,Recall,2021.2.3,59.95768186698681,
,SD016.jpg,0,MF016.jpg,0,,,,,0,87,87,65,imgFunc,9,NA,1.609599299961701,767.64408680005,769.3641494100448,2023-08-08 18:31:14.586820,2023-08-08 18:31:16.306454,MF016.jpg,0,10781,30-49,2023-08-08_18h18.41.954,Recall,2021.2.3,59.95768186698681,
,DD011.jpg,0,FF011.jpg,0,,,,,0,88,88,10,imgFunc,0,NA,8.524423000169918,769.3533322000876,777.976850009989,2023-08-08 18:31:16.314457,2023-08-08 18:31:24.929515,FF011.jpg,0,10781,30-49,2023-08-08_18h18.41.954,Recall,2021.2.3,59.95768186698681,
,SD007.jpg,0,MF007.jpg,0,,,,,0,89,89,56,imgFunc,9,NA,8.318927699932829,777.998889700044,786.4359786103014,2023-08-08 18:31:24.938515,2023-08-08 18:31:33.368695,MF007.jpg,0,10781,30-49,2023-08-08_18h18.41.954,Recall,2021.2.3,59.95768186698681,
,L_DD503.jpg,1,L_FF503.jpg,1,,,,,0,90,90,42,imgFunc,0,NA,1.8169964998960495,786.4288961000275,788.3618727102876,2023-08-08 18:31:33.377673,2023-08-08 18:31:35.303435,L_FF503.jpg,1,10781,30-49,2023-08-08_18h18.41.954,Recall,2021.2.3,59.95768186698681,
,DD034.jpg,0,FF034.jpg,0,,,,,0,91,91,33,imgFunc,0,NA,3.7944984000641853,788.3713543000631,792.2921762100887,2023-08-08 18:31:35.310418,2023-08-08 18:31:39.223100,FF034.jpg,0,10781,30-49,2023-08-08_18h18.41.954,Recall,2021.2.3,59.95768186698681,
,L_SD509.jpg,1,L_MF509.jpg,1,,,,,0,92,92,98,imgFunc,0,NA,2.4240298001095653,792.2698686001822,794.7904167103115,2023-08-08 18:31:39.230083,2023-08-08 18:31:41.741525,L_MF509.jpg,1,10781,30-49,2023-08-08_18h18.41.954,Recall,2021.2.3,59.95768186698681,
,DD027.jpg,0,FF027.jpg,0,,,,,0,93,93,26,imgFunc,0,NA,1.9613338999915868,794.7880550001282,796.857632510364,2023-08-08 18:31:41.748508,2023-08-08 18:31:43.808859,FF027.jpg,0,10781,30-49,2023-08-08_18h18.41.954,Recall,2021.2.3,59.95768186698681,
,SD001.jpg,0,MF001.jpg,0,,,,,0,94,94,50,imgFunc,9,NA,5.335641600191593,796.8700751999859,802.3194954101928,2023-08-08 18:31:43.819827,2023-08-08 18:31:49.263437,MF001.jpg,0,10781,30-49,2023-08-08_18h18.41.954,Recall,2021.2.3,59.95768186698681,
,DD012.jpg,0,FF012.jpg,0,,,,,0,95,95,11,imgFunc,9,NA,1.7137896998319775,802.3557397001423,804.2010755101219,2023-08-08 18:31:49.274427,2023-08-08 18:31:51.114818,FF012.jpg,0,10781,30-49,2023-08-08_18h18.41.954,Recall,2021.2.3,59.95768186698681,
,DD002.jpg,0,FF002.jpg,0,,,,,0,96,96,1,imgFunc,0,NA,4.307266000192612,804.1864549000748,808.6095436101314,2023-08-08 18:31:51.129781,2023-08-08 18:31:55.551237,FF002.jpg,0,10781,30-49,2023-08-08_18h18.41.954,Recall,2021.2.3,59.95768186698681,
,SD003.jpg,0,MF003.jpg,0,,,,,0,97,97,52,imgFunc,0,NA,1.3213694000151008,808.6041024001315,810.0400882100221,2023-08-08 18:31:55.558220,2023-08-08 18:31:56.985929,MF003.jpg,0,10781,30-49,2023-08-08_18h18.41.954,Recall,2021.2.3,59.95768186698681,
,DD020.jpg,0,FF020.jpg,0,,,,,0,98,98,19,imgFunc,0,NA,4.108346599852666,810.0414803000167,814.2628282101359,2023-08-08 18:31:56.992912,2023-08-08 18:32:01.205303,FF020.jpg,0,10781,30-49,2023-08-08_18h18.41.954,Recall,2021.2.3,59.95768186698681,
,SD009.jpg,0,MF009.jpg,0,,,,,0,99,99,58,imgFunc,0,NA,6.407719400012866,814.2539441999979,820.7592678100336,2023-08-08 18:32:01.213309,2023-08-08 18:32:07.710237,MF009.jpg,0,10781,30-49,2023-08-08_18h18.41.954,Recall,2021.2.3,59.95768186698681,
