onset	duration	trial_type	response_time	Endowment	Endowment_pmod	Decision	Decision_pmod	Offer_pmod
4.519956	2	cue_nonsocial	n/a	16	-8	n/a	n/a	n/a
4.519956	2	cue_nonsocial_low	n/a	16	-6	n/a	n/a	n/a
12.170051	2	cue_nonsocial	n/a	32	8	n/a	n/a	n/a
12.170051	2	cue_nonsocial_high	n/a	32	10	n/a	n/a	n/a
19.819883	2	cue_nonsocial	n/a	32	8	n/a	n/a	n/a
19.819883	2	cue_nonsocial_high	n/a	32	10	n/a	n/a	n/a
26.653278	2	cue_nonsocial	n/a	16	-8	n/a	n/a	n/a
26.653278	2	cue_nonsocial_low	n/a	16	-6	n/a	n/a	n/a
37.631200	2	cue_social	n/a	16	-6	n/a	n/a	n/a
37.631200	2	cue_social_low	n/a	16	-8	n/a	n/a	n/a
44.352886	2	cue_nonsocial	n/a	16	-8	n/a	n/a	n/a
44.352886	2	cue_nonsocial_low	n/a	16	-6	n/a	n/a	n/a
53.603550	2	cue_nonsocial	n/a	16	-8	n/a	n/a	n/a
53.603550	2	cue_nonsocial_low	n/a	16	-6	n/a	n/a	n/a
60.497246	2	cue_social	n/a	32	10	n/a	n/a	n/a
60.497246	2	cue_social_high	n/a	32	8	n/a	n/a	n/a
69.703064	2	cue_nonsocial	n/a	16	-8	n/a	n/a	n/a
69.703064	2	cue_nonsocial_low	n/a	16	-6	n/a	n/a	n/a
77.353020	2	cue_nonsocial	n/a	32	8	n/a	n/a	n/a
77.353020	2	cue_nonsocial_high	n/a	32	10	n/a	n/a	n/a
85.003040	2	cue_nonsocial	n/a	16	-8	n/a	n/a	n/a
85.003040	2	cue_nonsocial_low	n/a	16	-6	n/a	n/a	n/a
91.885770	2	cue_social	n/a	16	-6	n/a	n/a	n/a
91.885770	2	cue_social_low	n/a	16	-8	n/a	n/a	n/a
101.086510	2	cue_nonsocial	n/a	32	8	n/a	n/a	n/a
101.086510	2	cue_nonsocial_high	n/a	32	10	n/a	n/a	n/a
107.919586	2	cue_nonsocial	n/a	32	8	n/a	n/a	n/a
107.919586	2	cue_nonsocial_high	n/a	32	10	n/a	n/a	n/a
114.820300	2	cue_social	n/a	32	10	n/a	n/a	n/a
114.820300	2	cue_social_high	n/a	32	8	n/a	n/a	n/a
121.670720	2	cue_social	n/a	32	10	n/a	n/a	n/a
121.670720	2	cue_social_high	n/a	32	8	n/a	n/a	n/a
129.297520	2	cue_social	n/a	32	10	n/a	n/a	n/a
129.297520	2	cue_social_high	n/a	32	8	n/a	n/a	n/a
136.932190	2	cue_social	n/a	32	10	n/a	n/a	n/a
136.932190	2	cue_social_high	n/a	32	8	n/a	n/a	n/a
143.703120	2	cue_nonsocial	n/a	32	8	n/a	n/a	n/a
143.703120	2	cue_nonsocial_high	n/a	32	10	n/a	n/a	n/a
150.606310	2	cue_social	n/a	16	-6	n/a	n/a	n/a
150.606310	2	cue_social_low	n/a	16	-8	n/a	n/a	n/a
158.284730	2	cue_social	n/a	16	-6	n/a	n/a	n/a
158.284730	2	cue_social_low	n/a	16	-8	n/a	n/a	n/a
165.003050	2	cue_nonsocial	n/a	32	8	n/a	n/a	n/a
165.003050	2	cue_nonsocial_high	n/a	32	10	n/a	n/a	n/a
174.253250	2	cue_nonsocial	n/a	16	-8	n/a	n/a	n/a
174.253250	2	cue_nonsocial_low	n/a	16	-6	n/a	n/a	n/a
181.121120	2	cue_social	n/a	16	-6	n/a	n/a	n/a
181.121120	2	cue_social_low	n/a	16	-8	n/a	n/a	n/a
188.735820	2	cue_social	n/a	16	-6	n/a	n/a	n/a
188.735820	2	cue_social_low	n/a	16	-8	n/a	n/a	n/a
195.625850	2	cue_social	n/a	16	-6	n/a	n/a	n/a
195.625850	2	cue_social_low	n/a	16	-8	n/a	n/a	n/a
202.459760	2	cue_social	n/a	32	10	n/a	n/a	n/a
202.459760	2	cue_social_high	n/a	32	8	n/a	n/a	n/a
213.252930	2	cue_nonsocial	n/a	32	8	n/a	n/a	n/a
213.252930	2	cue_nonsocial_high	n/a	32	10	n/a	n/a	n/a
222.572660	2	cue_social	n/a	32	10	n/a	n/a	n/a
222.572660	2	cue_social_high	n/a	32	8	n/a	n/a	n/a
229.444550	2	cue_social	n/a	32	10	n/a	n/a	n/a
229.444550	2	cue_social_high	n/a	32	8	n/a	n/a	n/a
236.169430	2	cue_nonsocial	n/a	16	-8	n/a	n/a	n/a
236.169430	2	cue_nonsocial_low	n/a	16	-6	n/a	n/a	n/a
243.002850	2	cue_nonsocial	n/a	32	8	n/a	n/a	n/a
243.002850	2	cue_nonsocial_high	n/a	32	10	n/a	n/a	n/a
249.836040	2	cue_nonsocial	n/a	16	-8	n/a	n/a	n/a
249.836040	2	cue_nonsocial_low	n/a	16	-6	n/a	n/a	n/a
257.469700	2	cue_nonsocial	n/a	16	-8	n/a	n/a	n/a
257.469700	2	cue_nonsocial_low	n/a	16	-6	n/a	n/a	n/a
265.119660	2	cue_nonsocial	n/a	32	8	n/a	n/a	n/a
265.119660	2	cue_nonsocial_high	n/a	32	10	n/a	n/a	n/a
272.029240	2	cue_social	n/a	16	-6	n/a	n/a	n/a
272.029240	2	cue_social_low	n/a	16	-8	n/a	n/a	n/a
281.260280	2	cue_social	n/a	16	-6	n/a	n/a	n/a
281.260280	2	cue_social_low	n/a	16	-8	n/a	n/a	n/a
288.852700	2	cue_nonsocial	n/a	32	8	n/a	n/a	n/a
288.852700	2	cue_nonsocial_high	n/a	32	10	n/a	n/a	n/a
296.502930	2	cue_nonsocial	n/a	16	-8	n/a	n/a	n/a
296.502930	2	cue_nonsocial_low	n/a	16	-6	n/a	n/a	n/a
305.814450	2	cue_social	n/a	16	-6	n/a	n/a	n/a
305.814450	2	cue_social_low	n/a	16	-8	n/a	n/a	n/a
312.646940	2	cue_social	n/a	16	-6	n/a	n/a	n/a
312.646940	2	cue_social_low	n/a	16	-8	n/a	n/a	n/a
323.518860	2	cue_social	n/a	32	10	n/a	n/a	n/a
323.518860	2	cue_social_high	n/a	32	8	n/a	n/a	n/a
330.342500	2	cue_social	n/a	16	-6	n/a	n/a	n/a
330.342500	2	cue_social_low	n/a	16	-8	n/a	n/a	n/a
342.843630	2	cue_social	n/a	16	-6	n/a	n/a	n/a
342.843630	2	cue_social_low	n/a	16	-8	n/a	n/a	n/a
349.662100	2	cue_social	n/a	16	-6	n/a	n/a	n/a
349.662100	2	cue_social_low	n/a	16	-8	n/a	n/a	n/a
357.319520	2	cue_social	n/a	16	-6	n/a	n/a	n/a
357.319520	2	cue_social_low	n/a	16	-8	n/a	n/a	n/a
364.069370	2	cue_nonsocial	n/a	16	-8	n/a	n/a	n/a
364.069370	2	cue_nonsocial_low	n/a	16	-6	n/a	n/a	n/a
370.902300	2	cue_nonsocial	n/a	32	8	n/a	n/a	n/a
370.902300	2	cue_nonsocial_high	n/a	32	10	n/a	n/a	n/a
6.527020	1.082900	dec_nonsocial_choice	1.082900	16.000000	n/a	1	-1.686198e-01	-1.686198e-01
6.527020	1.082900	dec_choice	1.082900	16.000000	n/a	1	-1.679688e-01	-1.679688e-01
6.527020	1.082900	dec_nonsocial_accept	1.082900	16.000000	n/a	1	-1.686198e-01	-1.686198e-01
6.527020	1.082900	dec_accept	1.082900	16.000000	n/a	1	-1.679688e-01	-1.679688e-01
6.527020	1.082900	dec_nonsocial_accept_low	1.082900	16.000000	n/a	1	-1.692708e-01	-1.692708e-01
14.176868	1.432969	dec_nonsocial_choice	1.432969	32.000000	n/a	3	-1.373698e-01	-1.373698e-01
14.176868	1.432969	dec_choice	1.432969	32.000000	n/a	3	-1.367188e-01	-1.367188e-01
14.176868	1.432969	dec_nonsocial_accept	1.432969	32.000000	n/a	3	-1.373698e-01	-1.373698e-01
14.176868	1.432969	dec_accept	1.432969	32.000000	n/a	3	-1.367188e-01	-1.367188e-01
14.176868	1.432969	dec_nonsocial_low	1.432969	32.000000	n/a	3	-1.367188e-01	-1.367188e-01
14.176868	1.432969	dec_nonsocial_accept_low	1.432969	32.000000	n/a	3	-1.367188e-01	-1.367188e-01
21.826204	1.500146	dec_nonsocial_choice	1.500146	32.000000	n/a	16	2.688802e-01	2.688802e-01
21.826204	1.500146	dec_choice	1.500146	32.000000	n/a	16	2.695312e-01	2.695312e-01
21.826204	1.500146	dec_nonsocial_accept	1.500146	32.000000	n/a	16	2.688802e-01	2.688802e-01
21.826204	1.500146	dec_accept	1.500146	32.000000	n/a	16	2.695312e-01	2.695312e-01
21.826204	1.500146	dec_nonsocial_accept_high	1.500146	32.000000	n/a	16	2.682292e-01	2.682292e-01
28.659916	1.049627	dec_nonsocial_choice	1.049627	16.000000	n/a	1	-1.686198e-01	-1.686198e-01
28.659916	1.049627	dec_choice	1.049627	16.000000	n/a	1	-1.679688e-01	-1.679688e-01
28.659916	1.049627	dec_nonsocial_accept	1.049627	16.000000	n/a	1	-1.686198e-01	-1.686198e-01
28.659916	1.049627	dec_accept	1.049627	16.000000	n/a	1	-1.679688e-01	-1.679688e-01
28.659916	1.049627	dec_nonsocial_low	1.049627	16.000000	n/a	1	-1.679688e-01	-1.679688e-01
28.659916	1.049627	dec_nonsocial_accept_low	1.049627	16.000000	n/a	1	-1.679688e-01	-1.679688e-01
39.527023	0.965431	dec_social_choice	0.965431	16.000000	n/a	8	2.688802e-01	2.688802e-01
39.527023	0.965431	dec_choice	0.965431	16.000000	n/a	8	2.682292e-01	2.682292e-01
39.527023	0.965431	dec_social_accept	0.965431	16.000000	n/a	8	2.688802e-01	2.688802e-01
39.527023	0.965431	dec_accept	0.965431	16.000000	n/a	8	2.682292e-01	2.682292e-01
39.527023	0.965431	dec_social_high	0.965431	16.000000	n/a	8	2.682292e-01	2.682292e-01
39.527023	0.965431	dec_social_accept_high	0.965431	16.000000	n/a	8	2.682292e-01	2.682292e-01
46.359077	1.000861	dec_nonsocial_choice	1.000861	16.000000	n/a	4	1.888021e-02	1.888021e-02
46.359077	1.000861	dec_choice	1.000861	16.000000	n/a	4	1.953125e-02	1.953125e-02
46.359077	1.000861	dec_nonsocial_accept	1.000861	16.000000	n/a	4	1.888021e-02	1.888021e-02
46.359077	1.000861	dec_accept	1.000861	16.000000	n/a	4	1.953125e-02	1.953125e-02
46.359077	1.000861	dec_nonsocial_high	1.000861	16.000000	n/a	4	1.953125e-02	1.953125e-02
46.359077	1.000861	dec_nonsocial_accept_high	1.000861	16.000000	n/a	4	1.953125e-02	1.953125e-02
55.610767	0.798912	dec_nonsocial_choice	0.798912	16.000000	n/a	2	-1.061198e-01	-1.061198e-01
55.610767	0.798912	dec_choice	0.798912	16.000000	n/a	2	-1.054688e-01	-1.054688e-01
55.610767	0.798912	dec_nonsocial_accept	0.798912	16.000000	n/a	2	-1.061198e-01	-1.061198e-01
55.610767	0.798912	dec_accept	0.798912	16.000000	n/a	2	-1.054688e-01	-1.054688e-01
55.610767	0.798912	dec_nonsocial_low	0.798912	16.000000	n/a	2	-1.054688e-01	-1.054688e-01
55.610767	0.798912	dec_nonsocial_accept_low	0.798912	16.000000	n/a	2	-1.054688e-01	-1.054688e-01
62.443024	1.015945	dec_social_choice	1.015945	32.000000	n/a	16	2.688802e-01	2.688802e-01
62.443024	1.015945	dec_choice	1.015945	32.000000	n/a	16	2.682292e-01	2.682292e-01
62.443024	1.015945	dec_social_accept	1.015945	32.000000	n/a	16	2.688802e-01	2.688802e-01
62.443024	1.015945	dec_accept	1.015945	32.000000	n/a	16	2.682292e-01	2.682292e-01
62.443024	1.015945	dec_social_accept_high	1.015945	32.000000	n/a	16	2.682292e-01	2.682292e-01
71.709114	0.866770	dec_nonsocial_choice	0.866770	16.000000	n/a	1	-1.686198e-01	-1.686198e-01
71.709114	0.866770	dec_choice	0.866770	16.000000	n/a	1	-1.679688e-01	-1.679688e-01
71.709114	0.866770	dec_nonsocial_accept	0.866770	16.000000	n/a	1	-1.686198e-01	-1.686198e-01
71.709114	0.866770	dec_accept	0.866770	16.000000	n/a	1	-1.679688e-01	-1.679688e-01
71.709114	0.866770	dec_nonsocial_accept_low	0.866770	16.000000	n/a	1	-1.692708e-01	-1.692708e-01
79.359890	1.199752	dec_nonsocial_choice	1.199752	32.000000	n/a	3	-1.373698e-01	-1.373698e-01
79.359890	1.199752	dec_choice	1.199752	32.000000	n/a	3	-1.367188e-01	-1.367188e-01
79.359890	1.199752	dec_nonsocial_accept	1.199752	32.000000	n/a	3	-1.373698e-01	-1.373698e-01
79.359890	1.199752	dec_accept	1.199752	32.000000	n/a	3	-1.367188e-01	-1.367188e-01
79.359890	1.199752	dec_nonsocial_low	1.199752	32.000000	n/a	3	-1.367188e-01	-1.367188e-01
79.359890	1.199752	dec_nonsocial_accept_low	1.199752	32.000000	n/a	3	-1.367188e-01	-1.367188e-01
87.010086	0.950116	dec_nonsocial_choice	0.950116	16.000000	n/a	2	-1.061198e-01	-1.061198e-01
87.010086	0.950116	dec_choice	0.950116	16.000000	n/a	2	-1.054688e-01	-1.054688e-01
87.010086	0.950116	dec_nonsocial_accept	0.950116	16.000000	n/a	2	-1.061198e-01	-1.061198e-01
87.010086	0.950116	dec_accept	0.950116	16.000000	n/a	2	-1.054688e-01	-1.054688e-01
87.010086	0.950116	dec_nonsocial_low	0.950116	16.000000	n/a	2	-1.054688e-01	-1.054688e-01
87.010086	0.950116	dec_nonsocial_accept_low	0.950116	16.000000	n/a	2	-1.054688e-01	-1.054688e-01
93.843080	0.999760	dec_social_choice	0.999760	16.000000	n/a	2	-1.061198e-01	-1.061198e-01
93.843080	0.999760	dec_choice	0.999760	16.000000	n/a	2	-1.067708e-01	-1.067708e-01
93.843080	0.999760	dec_social_accept	0.999760	16.000000	n/a	2	-1.061198e-01	-1.061198e-01
93.843080	0.999760	dec_accept	0.999760	16.000000	n/a	2	-1.067708e-01	-1.067708e-01
93.843080	0.999760	dec_social_low	0.999760	16.000000	n/a	2	-1.067708e-01	-1.067708e-01
93.843080	0.999760	dec_social_accept_low	0.999760	16.000000	n/a	2	-1.067708e-01	-1.067708e-01
103.092140	0.900643	dec_nonsocial_choice	0.900643	32.000000	n/a	16	2.688802e-01	2.688802e-01
103.092140	0.900643	dec_choice	0.900643	32.000000	n/a	16	2.695312e-01	2.695312e-01
103.092140	0.900643	dec_nonsocial_accept	0.900643	32.000000	n/a	16	2.688802e-01	2.688802e-01
103.092140	0.900643	dec_accept	0.900643	32.000000	n/a	16	2.695312e-01	2.695312e-01
103.092140	0.900643	dec_nonsocial_accept_high	0.900643	32.000000	n/a	16	2.682292e-01	2.682292e-01
109.926636	1.015745	dec_nonsocial_choice	1.015745	32.000000	n/a	8	1.888021e-02	1.888021e-02
109.926636	1.015745	dec_choice	1.015745	32.000000	n/a	8	1.953125e-02	1.953125e-02
109.926636	1.015745	dec_nonsocial_accept	1.015745	32.000000	n/a	8	1.888021e-02	1.888021e-02
109.926636	1.015745	dec_accept	1.015745	32.000000	n/a	8	1.953125e-02	1.953125e-02
109.926636	1.015745	dec_nonsocial_high	1.015745	32.000000	n/a	8	1.953125e-02	1.953125e-02
109.926636	1.015745	dec_nonsocial_accept_high	1.015745	32.000000	n/a	8	1.953125e-02	1.953125e-02
116.759155	1.316692	dec_social_choice	1.316692	32.000000	n/a	3	-1.373698e-01	-1.373698e-01
116.759155	1.316692	dec_choice	1.316692	32.000000	n/a	3	-1.380208e-01	-1.380208e-01
116.759155	1.316692	dec_social_accept	1.316692	32.000000	n/a	3	-1.373698e-01	-1.373698e-01
116.759155	1.316692	dec_accept	1.316692	32.000000	n/a	3	-1.380208e-01	-1.380208e-01
116.759155	1.316692	dec_social_low	1.316692	32.000000	n/a	3	-1.380208e-01	-1.380208e-01
116.759155	1.316692	dec_social_accept_low	1.316692	32.000000	n/a	3	-1.380208e-01	-1.380208e-01
123.592280	1.017470	dec_social_choice	1.017470	32.000000	n/a	16	2.688802e-01	2.688802e-01
123.592280	1.017470	dec_choice	1.017470	32.000000	n/a	16	2.682292e-01	2.682292e-01
123.592280	1.017470	dec_social_accept	1.017470	32.000000	n/a	16	2.688802e-01	2.688802e-01
123.592280	1.017470	dec_accept	1.017470	32.000000	n/a	16	2.682292e-01	2.682292e-01
123.592280	1.017470	dec_social_accept_high	1.017470	32.000000	n/a	16	2.682292e-01	2.682292e-01
131.225450	0.983665	dec_social_choice	0.983665	32.000000	n/a	2	-1.686198e-01	-1.686198e-01
131.225450	0.983665	dec_choice	0.983665	32.000000	n/a	2	-1.692708e-01	-1.692708e-01
131.225450	0.983665	dec_social_accept	0.983665	32.000000	n/a	2	-1.686198e-01	-1.686198e-01
131.225450	0.983665	dec_accept	0.983665	32.000000	n/a	2	-1.692708e-01	-1.692708e-01
131.225450	0.983665	dec_social_accept_low	0.983665	32.000000	n/a	2	-1.692708e-01	-1.692708e-01
138.877080	1.198996	dec_social_choice	1.198996	32.000000	n/a	8	1.888021e-02	1.888021e-02
138.877080	1.198996	dec_choice	1.198996	32.000000	n/a	8	1.822917e-02	1.822917e-02
138.877080	1.198996	dec_social_accept	1.198996	32.000000	n/a	8	1.888021e-02	1.888021e-02
138.877080	1.198996	dec_accept	1.198996	32.000000	n/a	8	1.822917e-02	1.822917e-02
138.877080	1.198996	dec_social_high	1.198996	32.000000	n/a	8	1.822917e-02	1.822917e-02
138.877080	1.198996	dec_social_accept_high	1.198996	32.000000	n/a	8	1.822917e-02	1.822917e-02
145.709170	1.399951	dec_nonsocial_choice	1.399951	32.000000	n/a	3	-1.373698e-01	-1.373698e-01
145.709170	1.399951	dec_choice	1.399951	32.000000	n/a	3	-1.367188e-01	-1.367188e-01
145.709170	1.399951	dec_nonsocial_accept	1.399951	32.000000	n/a	3	-1.373698e-01	-1.373698e-01
145.709170	1.399951	dec_accept	1.399951	32.000000	n/a	3	-1.367188e-01	-1.367188e-01
145.709170	1.399951	dec_nonsocial_accept_low	1.399951	32.000000	n/a	3	-1.380208e-01	-1.380208e-01
152.542160	0.834165	dec_social_choice	0.834165	16.000000	n/a	1	-1.686198e-01	-1.686198e-01
152.542160	0.834165	dec_choice	0.834165	16.000000	n/a	1	-1.692708e-01	-1.692708e-01
152.542160	0.834165	dec_social_accept	0.834165	16.000000	n/a	1	-1.686198e-01	-1.686198e-01
152.542160	0.834165	dec_accept	0.834165	16.000000	n/a	1	-1.692708e-01	-1.692708e-01
152.542160	0.834165	dec_social_low	0.834165	16.000000	n/a	1	-1.692708e-01	-1.692708e-01
152.542160	0.834165	dec_social_accept_low	0.834165	16.000000	n/a	1	-1.692708e-01	-1.692708e-01
160.175630	0.950555	dec_social_choice	0.950555	16.000000	n/a	8	2.688802e-01	2.688802e-01
160.175630	0.950555	dec_choice	0.950555	16.000000	n/a	8	2.682292e-01	2.682292e-01
160.175630	0.950555	dec_social_accept	0.950555	16.000000	n/a	8	2.688802e-01	2.688802e-01
160.175630	0.950555	dec_accept	0.950555	16.000000	n/a	8	2.682292e-01	2.682292e-01
160.175630	0.950555	dec_social_high	0.950555	16.000000	n/a	8	2.682292e-01	2.682292e-01
160.175630	0.950555	dec_social_accept_high	0.950555	16.000000	n/a	8	2.682292e-01	2.682292e-01
167.009110	0.983861	dec_nonsocial_choice	0.983861	32.000000	n/a	2	-1.686198e-01	-1.686198e-01
167.009110	0.983861	dec_choice	0.983861	32.000000	n/a	2	-1.679688e-01	-1.679688e-01
167.009110	0.983861	dec_nonsocial_accept	0.983861	32.000000	n/a	2	-1.686198e-01	-1.686198e-01
167.009110	0.983861	dec_accept	0.983861	32.000000	n/a	2	-1.679688e-01	-1.679688e-01
167.009110	0.983861	dec_nonsocial_accept_low	0.983861	32.000000	n/a	2	-1.692708e-01	-1.692708e-01
176.259200	1.200224	dec_nonsocial_choice	1.200224	16.000000	n/a	4	1.888021e-02	1.888021e-02
176.259200	1.200224	dec_choice	1.200224	16.000000	n/a	4	1.953125e-02	1.953125e-02
176.259200	1.200224	dec_nonsocial_accept	1.200224	16.000000	n/a	4	1.888021e-02	1.888021e-02
176.259200	1.200224	dec_accept	1.200224	16.000000	n/a	4	1.953125e-02	1.953125e-02
176.259200	1.200224	dec_nonsocial_high	1.200224	16.000000	n/a	4	1.953125e-02	1.953125e-02
176.259200	1.200224	dec_nonsocial_accept_high	1.200224	16.000000	n/a	4	1.953125e-02	1.953125e-02
183.092160	1.067336	dec_social_choice	1.067336	16.000000	n/a	2	-1.061198e-01	-1.061198e-01
183.092160	1.067336	dec_choice	1.067336	16.000000	n/a	2	-1.067708e-01	-1.067708e-01
183.092160	1.067336	dec_social_accept	1.067336	16.000000	n/a	2	-1.061198e-01	-1.061198e-01
183.092160	1.067336	dec_accept	1.067336	16.000000	n/a	2	-1.067708e-01	-1.067708e-01
183.092160	1.067336	dec_social_accept_low	1.067336	16.000000	n/a	2	-1.067708e-01	-1.067708e-01
190.727170	0.881942	dec_social_choice	0.881942	16.000000	n/a	2	-1.061198e-01	-1.061198e-01
190.727170	0.881942	dec_choice	0.881942	16.000000	n/a	2	-1.067708e-01	-1.067708e-01
190.727170	0.881942	dec_social_accept	0.881942	16.000000	n/a	2	-1.061198e-01	-1.061198e-01
190.727170	0.881942	dec_accept	0.881942	16.000000	n/a	2	-1.067708e-01	-1.067708e-01
190.727170	0.881942	dec_social_accept_low	0.881942	16.000000	n/a	2	-1.067708e-01	-1.067708e-01
197.559510	0.899904	dec_social_choice	0.899904	16.000000	n/a	1	-1.686198e-01	-1.686198e-01
197.559510	0.899904	dec_choice	0.899904	16.000000	n/a	1	-1.692708e-01	-1.692708e-01
197.559510	0.899904	dec_social_accept	0.899904	16.000000	n/a	1	-1.686198e-01	-1.686198e-01
197.559510	0.899904	dec_accept	0.899904	16.000000	n/a	1	-1.692708e-01	-1.692708e-01
197.559510	0.899904	dec_social_low	0.899904	16.000000	n/a	1	-1.692708e-01	-1.692708e-01
197.559510	0.899904	dec_social_accept_low	0.899904	16.000000	n/a	1	-1.692708e-01	-1.692708e-01
204.392060	0.883518	dec_social_choice	0.883518	32.000000	n/a	8	1.888021e-02	1.888021e-02
204.392060	0.883518	dec_choice	0.883518	32.000000	n/a	8	1.822917e-02	1.822917e-02
204.392060	0.883518	dec_social_accept	0.883518	32.000000	n/a	8	1.888021e-02	1.888021e-02
204.392060	0.883518	dec_accept	0.883518	32.000000	n/a	8	1.822917e-02	1.822917e-02
204.392060	0.883518	dec_social_accept_high	0.883518	32.000000	n/a	8	1.822917e-02	1.822917e-02
215.258820	1.150695	dec_nonsocial_choice	1.150695	32.000000	n/a	16	2.688802e-01	2.688802e-01
215.258820	1.150695	dec_choice	1.150695	32.000000	n/a	16	2.695312e-01	2.695312e-01
215.258820	1.150695	dec_nonsocial_accept	1.150695	32.000000	n/a	16	2.688802e-01	2.688802e-01
215.258820	1.150695	dec_accept	1.150695	32.000000	n/a	16	2.695312e-01	2.695312e-01
215.258820	1.150695	dec_nonsocial_accept_high	1.150695	32.000000	n/a	16	2.682292e-01	2.682292e-01
224.509250	1.183448	dec_social_choice	1.183448	32.000000	n/a	3	-1.373698e-01	-1.373698e-01
224.509250	1.183448	dec_choice	1.183448	32.000000	n/a	3	-1.380208e-01	-1.380208e-01
224.509250	1.183448	dec_social_accept	1.183448	32.000000	n/a	3	-1.373698e-01	-1.373698e-01
224.509250	1.183448	dec_accept	1.183448	32.000000	n/a	3	-1.380208e-01	-1.380208e-01
224.509250	1.183448	dec_social_accept_low	1.183448	32.000000	n/a	3	-1.380208e-01	-1.380208e-01
231.342100	1.100512	dec_social_choice	1.100512	32.000000	n/a	2	-1.686198e-01	-1.686198e-01
231.342100	1.100512	dec_choice	1.100512	32.000000	n/a	2	-1.692708e-01	-1.692708e-01
231.342100	1.100512	dec_social_accept	1.100512	32.000000	n/a	2	-1.686198e-01	-1.686198e-01
231.342100	1.100512	dec_accept	1.100512	32.000000	n/a	2	-1.692708e-01	-1.692708e-01
231.342100	1.100512	dec_social_low	1.100512	32.000000	n/a	2	-1.692708e-01	-1.692708e-01
231.342100	1.100512	dec_social_accept_low	1.100512	32.000000	n/a	2	-1.692708e-01	-1.692708e-01
238.175140	1.034284	dec_nonsocial_choice	1.034284	16.000000	n/a	8	2.688802e-01	2.688802e-01
238.175140	1.034284	dec_choice	1.034284	16.000000	n/a	8	2.695312e-01	2.695312e-01
238.175140	1.034284	dec_nonsocial_accept	1.034284	16.000000	n/a	8	2.688802e-01	2.688802e-01
238.175140	1.034284	dec_accept	1.034284	16.000000	n/a	8	2.695312e-01	2.695312e-01
238.175140	1.034284	dec_nonsocial_high	1.034284	16.000000	n/a	8	2.695312e-01	2.695312e-01
238.175140	1.034284	dec_nonsocial_accept_high	1.034284	16.000000	n/a	8	2.695312e-01	2.695312e-01
245.010070	1.049127	dec_nonsocial_choice	1.049127	32.000000	n/a	8	1.888021e-02	1.888021e-02
245.010070	1.049127	dec_choice	1.049127	32.000000	n/a	8	1.953125e-02	1.953125e-02
245.010070	1.049127	dec_nonsocial_accept	1.049127	32.000000	n/a	8	1.888021e-02	1.888021e-02
245.010070	1.049127	dec_accept	1.049127	32.000000	n/a	8	1.953125e-02	1.953125e-02
245.010070	1.049127	dec_nonsocial_accept_high	1.049127	32.000000	n/a	8	1.822917e-02	1.822917e-02
251.841870	1.034177	dec_nonsocial_choice	1.034177	16.000000	n/a	1	-1.686198e-01	-1.686198e-01
251.841870	1.034177	dec_choice	1.034177	16.000000	n/a	1	-1.679688e-01	-1.679688e-01
251.841870	1.034177	dec_nonsocial_accept	1.034177	16.000000	n/a	1	-1.686198e-01	-1.686198e-01
251.841870	1.034177	dec_accept	1.034177	16.000000	n/a	1	-1.679688e-01	-1.679688e-01
251.841870	1.034177	dec_nonsocial_accept_low	1.034177	16.000000	n/a	1	-1.692708e-01	-1.692708e-01
259.476100	0.866059	dec_nonsocial_choice	0.866059	16.000000	n/a	8	2.688802e-01	2.688802e-01
259.476100	0.866059	dec_choice	0.866059	16.000000	n/a	8	2.695312e-01	2.695312e-01
259.476100	0.866059	dec_nonsocial_accept	0.866059	16.000000	n/a	8	2.688802e-01	2.688802e-01
259.476100	0.866059	dec_accept	0.866059	16.000000	n/a	8	2.695312e-01	2.695312e-01
259.476100	0.866059	dec_nonsocial_high	0.866059	16.000000	n/a	8	2.695312e-01	2.695312e-01
259.476100	0.866059	dec_nonsocial_accept_high	0.866059	16.000000	n/a	8	2.695312e-01	2.695312e-01
267.125120	1.100897	dec_nonsocial_choice	1.100897	32.000000	n/a	2	-1.686198e-01	-1.686198e-01
267.125120	1.100897	dec_choice	1.100897	32.000000	n/a	2	-1.679688e-01	-1.679688e-01
267.125120	1.100897	dec_nonsocial_accept	1.100897	32.000000	n/a	2	-1.686198e-01	-1.686198e-01
267.125120	1.100897	dec_accept	1.100897	32.000000	n/a	2	-1.679688e-01	-1.679688e-01
267.125120	1.100897	dec_nonsocial_low	1.100897	32.000000	n/a	2	-1.679688e-01	-1.679688e-01
267.125120	1.100897	dec_nonsocial_accept_low	1.100897	32.000000	n/a	2	-1.679688e-01	-1.679688e-01
273.958470	1.051000	dec_social_choice	1.051000	16.000000	n/a	2	-1.061198e-01	-1.061198e-01
273.958470	1.051000	dec_choice	1.051000	16.000000	n/a	2	-1.067708e-01	-1.067708e-01
273.958470	1.051000	dec_social_accept	1.051000	16.000000	n/a	2	-1.061198e-01	-1.061198e-01
273.958470	1.051000	dec_accept	1.051000	16.000000	n/a	2	-1.067708e-01	-1.067708e-01
273.958470	1.051000	dec_social_low	1.051000	16.000000	n/a	2	-1.067708e-01	-1.067708e-01
273.958470	1.051000	dec_social_accept_low	1.051000	16.000000	n/a	2	-1.067708e-01	-1.067708e-01
283.209100	1.366299	dec_social_choice	1.366299	16.000000	n/a	8	2.688802e-01	2.688802e-01
283.209100	1.366299	dec_choice	1.366299	16.000000	n/a	8	2.682292e-01	2.682292e-01
283.209100	1.366299	dec_social_accept	1.366299	16.000000	n/a	8	2.688802e-01	2.688802e-01
283.209100	1.366299	dec_accept	1.366299	16.000000	n/a	8	2.682292e-01	2.682292e-01
283.209100	1.366299	dec_social_accept_high	1.366299	16.000000	n/a	8	2.682292e-01	2.682292e-01
290.859280	1.033351	dec_nonsocial_choice	1.033351	32.000000	n/a	8	1.888021e-02	1.888021e-02
290.859280	1.033351	dec_choice	1.033351	32.000000	n/a	8	1.953125e-02	1.953125e-02
290.859280	1.033351	dec_nonsocial_accept	1.033351	32.000000	n/a	8	1.888021e-02	1.888021e-02
290.859280	1.033351	dec_accept	1.033351	32.000000	n/a	8	1.953125e-02	1.953125e-02
290.859280	1.033351	dec_nonsocial_high	1.033351	32.000000	n/a	8	1.953125e-02	1.953125e-02
290.859280	1.033351	dec_nonsocial_accept_high	1.033351	32.000000	n/a	8	1.953125e-02	1.953125e-02
298.508540	1.216964	dec_nonsocial_choice	1.216964	16.000000	n/a	8	2.688802e-01	2.688802e-01
298.508540	1.216964	dec_choice	1.216964	16.000000	n/a	8	2.695312e-01	2.695312e-01
298.508540	1.216964	dec_nonsocial_accept	1.216964	16.000000	n/a	8	2.688802e-01	2.688802e-01
298.508540	1.216964	dec_accept	1.216964	16.000000	n/a	8	2.695312e-01	2.695312e-01
298.508540	1.216964	dec_nonsocial_high	1.216964	16.000000	n/a	8	2.695312e-01	2.695312e-01
298.508540	1.216964	dec_nonsocial_accept_high	1.216964	16.000000	n/a	8	2.695312e-01	2.695312e-01
307.759460	0.816011	dec_social_choice	0.816011	16.000000	n/a	1	-1.686198e-01	-1.686198e-01
307.759460	0.816011	dec_choice	0.816011	16.000000	n/a	1	-1.692708e-01	-1.692708e-01
307.759460	0.816011	dec_social_accept	0.816011	16.000000	n/a	1	-1.686198e-01	-1.686198e-01
307.759460	0.816011	dec_accept	0.816011	16.000000	n/a	1	-1.692708e-01	-1.692708e-01
307.759460	0.816011	dec_social_low	0.816011	16.000000	n/a	1	-1.692708e-01	-1.692708e-01
307.759460	0.816011	dec_social_accept_low	0.816011	16.000000	n/a	1	-1.692708e-01	-1.692708e-01
314.593170	0.815595	dec_social_choice	0.815595	16.000000	n/a	4	1.888021e-02	1.888021e-02
314.593170	0.815595	dec_choice	0.815595	16.000000	n/a	4	1.822917e-02	1.822917e-02
314.593170	0.815595	dec_social_accept	0.815595	16.000000	n/a	4	1.888021e-02	1.888021e-02
314.593170	0.815595	dec_accept	0.815595	16.000000	n/a	4	1.822917e-02	1.822917e-02
314.593170	0.815595	dec_social_high	0.815595	16.000000	n/a	4	1.822917e-02	1.822917e-02
314.593170	0.815595	dec_social_accept_high	0.815595	16.000000	n/a	4	1.822917e-02	1.822917e-02
325.459200	1.399847	dec_social_choice	1.399847	32.000000	n/a	8	1.888021e-02	1.888021e-02
325.459200	1.399847	dec_choice	1.399847	32.000000	n/a	8	1.822917e-02	1.822917e-02
325.459200	1.399847	dec_social_accept	1.399847	32.000000	n/a	8	1.888021e-02	1.888021e-02
325.459200	1.399847	dec_accept	1.399847	32.000000	n/a	8	1.822917e-02	1.822917e-02
325.459200	1.399847	dec_social_accept_high	1.399847	32.000000	n/a	8	1.822917e-02	1.822917e-02
332.291900	0.933968	dec_social_choice	0.933968	16.000000	n/a	8	2.688802e-01	2.688802e-01
332.291900	0.933968	dec_choice	0.933968	16.000000	n/a	8	2.682292e-01	2.682292e-01
332.291900	0.933968	dec_social_accept	0.933968	16.000000	n/a	8	2.688802e-01	2.688802e-01
332.291900	0.933968	dec_accept	0.933968	16.000000	n/a	8	2.682292e-01	2.682292e-01
332.291900	0.933968	dec_social_accept_high	0.933968	16.000000	n/a	8	2.682292e-01	2.682292e-01
344.775850	0.949987	dec_social_choice	0.949987	16.000000	n/a	4	1.888021e-02	1.888021e-02
344.775850	0.949987	dec_choice	0.949987	16.000000	n/a	4	1.822917e-02	1.822917e-02
344.775850	0.949987	dec_social_accept	0.949987	16.000000	n/a	4	1.888021e-02	1.888021e-02
344.775850	0.949987	dec_accept	0.949987	16.000000	n/a	4	1.822917e-02	1.822917e-02
344.775850	0.949987	dec_social_high	0.949987	16.000000	n/a	4	1.822917e-02	1.822917e-02
344.775850	0.949987	dec_social_accept_high	0.949987	16.000000	n/a	4	1.822917e-02	1.822917e-02
351.608400	1.100621	dec_social_choice	1.100621	16.000000	n/a	1	-1.686198e-01	-1.686198e-01
351.608400	1.100621	dec_choice	1.100621	16.000000	n/a	1	-1.692708e-01	-1.692708e-01
351.608400	1.100621	dec_social_accept	1.100621	16.000000	n/a	1	-1.686198e-01	-1.686198e-01
351.608400	1.100621	dec_accept	1.100621	16.000000	n/a	1	-1.692708e-01	-1.692708e-01
351.608400	1.100621	dec_social_accept_low	1.100621	16.000000	n/a	1	-1.692708e-01	-1.692708e-01
359.242700	1.016459	dec_social_choice	1.016459	16.000000	n/a	4	1.888021e-02	1.888021e-02
359.242700	1.016459	dec_choice	1.016459	16.000000	n/a	4	1.822917e-02	1.822917e-02
359.242700	1.016459	dec_social_accept	1.016459	16.000000	n/a	4	1.888021e-02	1.888021e-02
359.242700	1.016459	dec_accept	1.016459	16.000000	n/a	4	1.822917e-02	1.822917e-02
359.242700	1.016459	dec_social_accept_high	1.016459	16.000000	n/a	4	1.822917e-02	1.822917e-02
366.075380	0.966662	dec_nonsocial_choice	0.966662	16.000000	n/a	2	-1.061198e-01	-1.061198e-01
366.075380	0.966662	dec_choice	0.966662	16.000000	n/a	2	-1.054688e-01	-1.054688e-01
366.075380	0.966662	dec_nonsocial_accept	0.966662	16.000000	n/a	2	-1.061198e-01	-1.061198e-01
366.075380	0.966662	dec_accept	0.966662	16.000000	n/a	2	-1.054688e-01	-1.054688e-01
366.075380	0.966662	dec_nonsocial_accept_low	0.966662	16.000000	n/a	2	-1.067708e-01	-1.067708e-01
372.908660	0.916529	dec_nonsocial_choice	0.916529	32.000000	n/a	8	1.888021e-02	1.888021e-02
372.908660	0.916529	dec_choice	0.916529	32.000000	n/a	8	1.953125e-02	1.953125e-02
372.908660	0.916529	dec_nonsocial_accept	0.916529	32.000000	n/a	8	1.888021e-02	1.888021e-02
372.908660	0.916529	dec_accept	0.916529	32.000000	n/a	8	1.953125e-02	1.953125e-02
372.908660	0.916529	dec_nonsocial_accept_high	0.916529	32.000000	n/a	8	1.822917e-02	1.822917e-02
