onset	duration	trial_type	response_time	Endowment	Endowment_pmod	Decision	Decision_pmod	Offer_pmod
4.609515	2	cue_social	n/a	16	-7	n/a	n/a	n/a
4.609515	2	cue_social_low	n/a	16	-8	n/a	n/a	n/a
12.158151	2	cue_nonsocial	n/a	32	8	n/a	n/a	n/a
12.158151	2	cue_nonsocial_high	n/a	32	9	n/a	n/a	n/a
18.991673	2	cue_nonsocial	n/a	16	-8	n/a	n/a	n/a
18.991673	2	cue_nonsocial_low	n/a	16	-7	n/a	n/a	n/a
26.706335	2	cue_social	n/a	32	9	n/a	n/a	n/a
26.706335	2	cue_social_high	n/a	32	8	n/a	n/a	n/a
33.584930	2	cue_social	n/a	16	-7	n/a	n/a	n/a
33.584930	2	cue_social_low	n/a	16	-8	n/a	n/a	n/a
41.207275	2	cue_social	n/a	16	-7	n/a	n/a	n/a
41.207275	2	cue_social_low	n/a	16	-8	n/a	n/a	n/a
48.774685	2	cue_nonsocial	n/a	16	-8	n/a	n/a	n/a
48.774685	2	cue_nonsocial_low	n/a	16	-7	n/a	n/a	n/a
55.609085	2	cue_nonsocial	n/a	32	8	n/a	n/a	n/a
55.609085	2	cue_nonsocial_high	n/a	32	9	n/a	n/a	n/a
62.441425	2	cue_nonsocial	n/a	16	-8	n/a	n/a	n/a
62.441425	2	cue_nonsocial_low	n/a	16	-7	n/a	n/a	n/a
73.399414	2	cue_social	n/a	16	-7	n/a	n/a	n/a
73.399414	2	cue_social_low	n/a	16	-8	n/a	n/a	n/a
80.141450	2	cue_nonsocial	n/a	16	-8	n/a	n/a	n/a
80.141450	2	cue_nonsocial_low	n/a	16	-7	n/a	n/a	n/a
87.063736	2	cue_social	n/a	16	-7	n/a	n/a	n/a
87.063736	2	cue_social_low	n/a	16	-8	n/a	n/a	n/a
93.807945	2	cue_nonsocial	n/a	32	8	n/a	n/a	n/a
93.807945	2	cue_nonsocial_high	n/a	32	9	n/a	n/a	n/a
103.058070	2	cue_nonsocial	n/a	32	8	n/a	n/a	n/a
103.058070	2	cue_nonsocial_high	n/a	32	9	n/a	n/a	n/a
109.891320	2	cue_nonsocial	n/a	16	-8	n/a	n/a	n/a
109.891320	2	cue_nonsocial_low	n/a	16	-7	n/a	n/a	n/a
116.828840	2	cue_social	n/a	32	9	n/a	n/a	n/a
116.828840	2	cue_social_high	n/a	32	8	n/a	n/a	n/a
123.558100	2	cue_nonsocial	n/a	32	8	n/a	n/a	n/a
123.558100	2	cue_nonsocial_high	n/a	32	9	n/a	n/a	n/a
131.190690	2	cue_nonsocial	n/a	16	-8	n/a	n/a	n/a
131.190690	2	cue_nonsocial_low	n/a	16	-7	n/a	n/a	n/a
140.460130	2	cue_nonsocial	n/a	16	-8	n/a	n/a	n/a
140.460130	2	cue_nonsocial_low	n/a	16	-7	n/a	n/a	n/a
147.387000	2	cue_social	n/a	32	9	n/a	n/a	n/a
147.387000	2	cue_social_high	n/a	32	8	n/a	n/a	n/a
154.124620	2	cue_nonsocial	n/a	16	-8	n/a	n/a	n/a
154.124620	2	cue_nonsocial_low	n/a	16	-7	n/a	n/a	n/a
161.053540	2	cue_social	n/a	32	9	n/a	n/a	n/a
161.053540	2	cue_social_high	n/a	32	8	n/a	n/a	n/a
173.559170	2	cue_social	n/a	16	-7	n/a	n/a	n/a
173.559170	2	cue_social_low	n/a	16	-8	n/a	n/a	n/a
180.274540	2	cue_nonsocial	n/a	32	8	n/a	n/a	n/a
180.274540	2	cue_nonsocial_high	n/a	32	9	n/a	n/a	n/a
187.107880	2	cue_nonsocial	n/a	32	8	n/a	n/a	n/a
187.107880	2	cue_nonsocial_high	n/a	32	9	n/a	n/a	n/a
194.041690	2	cue_social	n/a	32	9	n/a	n/a	n/a
194.041690	2	cue_social_high	n/a	32	8	n/a	n/a	n/a
204.886690	2	cue_social	n/a	32	9	n/a	n/a	n/a
204.886690	2	cue_social_high	n/a	32	8	n/a	n/a	n/a
212.493840	2	cue_social	n/a	16	-7	n/a	n/a	n/a
212.493840	2	cue_social_low	n/a	16	-8	n/a	n/a	n/a
221.789350	2	cue_social	n/a	32	9	n/a	n/a	n/a
221.789350	2	cue_social_high	n/a	32	8	n/a	n/a	n/a
231.078160	2	cue_social	n/a	16	-7	n/a	n/a	n/a
231.078160	2	cue_social_low	n/a	16	-8	n/a	n/a	n/a
238.660720	2	cue_social	n/a	16	-7	n/a	n/a	n/a
238.660720	2	cue_social_low	n/a	16	-8	n/a	n/a	n/a
246.309500	2	cue_social	n/a	32	9	n/a	n/a	n/a
246.309500	2	cue_social_high	n/a	32	8	n/a	n/a	n/a
253.074080	2	cue_nonsocial	n/a	32	8	n/a	n/a	n/a
253.074080	2	cue_nonsocial_high	n/a	32	9	n/a	n/a	n/a
262.340850	2	cue_nonsocial	n/a	16	-8	n/a	n/a	n/a
262.340850	2	cue_nonsocial_low	n/a	16	-7	n/a	n/a	n/a
269.174130	2	cue_nonsocial	n/a	16	-8	n/a	n/a	n/a
269.174130	2	cue_nonsocial_low	n/a	16	-7	n/a	n/a	n/a
276.082600	2	cue_social	n/a	16	-7	n/a	n/a	n/a
276.082600	2	cue_social_low	n/a	16	-8	n/a	n/a	n/a
286.874200	2	cue_nonsocial	n/a	32	8	n/a	n/a	n/a
286.874200	2	cue_nonsocial_high	n/a	32	9	n/a	n/a	n/a
293.768600	2	cue_social	n/a	32	9	n/a	n/a	n/a
293.768600	2	cue_social_high	n/a	32	8	n/a	n/a	n/a
301.454440	2	cue_social	n/a	16	-7	n/a	n/a	n/a
301.454440	2	cue_social_low	n/a	16	-8	n/a	n/a	n/a
308.190640	2	cue_nonsocial	n/a	32	8	n/a	n/a	n/a
308.190640	2	cue_nonsocial_high	n/a	32	9	n/a	n/a	n/a
315.023900	2	cue_nonsocial	n/a	32	8	n/a	n/a	n/a
315.023900	2	cue_nonsocial_high	n/a	32	9	n/a	n/a	n/a
324.337220	2	cue_social	n/a	16	-7	n/a	n/a	n/a
324.337220	2	cue_social_low	n/a	16	-8	n/a	n/a	n/a
332.000640	2	cue_social	n/a	32	9	n/a	n/a	n/a
332.000640	2	cue_social_high	n/a	32	8	n/a	n/a	n/a
338.823240	2	cue_social	n/a	16	-7	n/a	n/a	n/a
338.823240	2	cue_social_low	n/a	16	-8	n/a	n/a	n/a
346.470520	2	cue_social	n/a	16	-7	n/a	n/a	n/a
346.470520	2	cue_social_low	n/a	16	-8	n/a	n/a	n/a
354.074000	2	cue_nonsocial	n/a	16	-8	n/a	n/a	n/a
354.074000	2	cue_nonsocial_low	n/a	16	-7	n/a	n/a	n/a
363.324280	2	cue_nonsocial	n/a	32	8	n/a	n/a	n/a
363.324280	2	cue_nonsocial_high	n/a	32	9	n/a	n/a	n/a
370.157200	2	cue_nonsocial	n/a	16	-8	n/a	n/a	n/a
370.157200	2	cue_nonsocial_low	n/a	16	-7	n/a	n/a	n/a
6.514549	1.483491	dec_social_choice	1.483491	16.000000	n/a	0	0	-2.291667e-01
6.514549	1.483491	dec_choice	1.483491	16.000000	n/a	0	0	-2.304688e-01
6.514549	1.483491	dec_social_reject	1.483491	16.000000	n/a	0	0	-5.000000e-02
6.514549	1.483491	dec_reject	1.483491	16.000000	n/a	0	0	-6.250000e-02
6.514549	1.483491	dec_social_reject_low	1.483491	16.000000	n/a	1	-1.679688e-01	-2.304688e-01
14.164269	1.500198	dec_nonsocial_choice	1.500198	32.000000	n/a	2	-1.666667e-01	-1.666667e-01
14.164269	1.500198	dec_choice	1.500198	32.000000	n/a	2	-1.653646e-01	-1.653646e-01
14.164269	1.500198	dec_nonsocial_accept	1.500198	32.000000	n/a	2	-1.907051e-01	-1.907051e-01
14.164269	1.500198	dec_accept	1.500198	32.000000	n/a	2	-1.653646e-01	-1.653646e-01
14.164269	1.500198	dec_nonsocial_accept_low	1.500198	32.000000	n/a	2	-2.312500e-01	-2.312500e-01
20.997923	0.899860	dec_nonsocial_choice	0.899860	16.000000	n/a	4	2.083333e-02	2.083333e-02
20.997923	0.899860	dec_choice	0.899860	16.000000	n/a	4	2.213542e-02	2.213542e-02
20.997923	0.899860	dec_nonsocial_accept	0.899860	16.000000	n/a	4	-3.205128e-03	-3.205128e-03
20.997923	0.899860	dec_accept	0.899860	16.000000	n/a	4	2.213542e-02	2.213542e-02
20.997923	0.899860	dec_nonsocial_accept_high	0.899860	16.000000	n/a	4	-4.375000e-02	-4.375000e-02
28.647340	1.533806	dec_social_choice	1.533806	32.000000	n/a	3	-1.354167e-01	-1.354167e-01
28.647340	1.533806	dec_choice	1.533806	32.000000	n/a	3	-1.367188e-01	-1.367188e-01
28.647340	1.533806	dec_social_accept	1.533806	32.000000	n/a	3	-1.594551e-01	-1.594551e-01
28.647340	1.533806	dec_accept	1.533806	32.000000	n/a	3	-2.000000e-01	-2.000000e-01
28.647340	1.533806	dec_social_low	1.533806	32.000000	n/a	3	-1.367188e-01	-1.367188e-01
28.647340	1.533806	dec_social_accept_low	1.533806	32.000000	n/a	3	-1.367188e-01	-1.367188e-01
35.481956	1.265261	dec_social_choice	1.265261	16.000000	n/a	4	2.083333e-02	2.083333e-02
35.481956	1.265261	dec_choice	1.265261	16.000000	n/a	4	1.953125e-02	1.953125e-02
35.481956	1.265261	dec_social_accept	1.265261	16.000000	n/a	4	-3.205128e-03	-3.205128e-03
35.481956	1.265261	dec_accept	1.265261	16.000000	n/a	4	-4.375000e-02	-4.375000e-02
35.481956	1.265261	dec_social_high	1.265261	16.000000	n/a	4	1.953125e-02	1.953125e-02
35.481956	1.265261	dec_social_accept_high	1.265261	16.000000	n/a	4	1.953125e-02	1.953125e-02
43.130337	1.250722	dec_social_choice	1.250722	16.000000	n/a	0	0	-2.291667e-01
43.130337	1.250722	dec_choice	1.250722	16.000000	n/a	0	0	-2.304688e-01
43.130337	1.250722	dec_social_reject	1.250722	16.000000	n/a	0	0	-5.000000e-02
43.130337	1.250722	dec_reject	1.250722	16.000000	n/a	0	0	-6.250000e-02
43.130337	1.250722	dec_social_low	1.250722	16.000000	n/a	0	-2.304688e-01	-2.304688e-01
43.130337	1.250722	dec_social_reject_low	1.250722	16.000000	n/a	1	-1.679688e-01	-2.304688e-01
50.782196	1.348763	dec_nonsocial_choice	1.348763	16.000000	n/a	1	-1.666667e-01	-1.666667e-01
50.782196	1.348763	dec_choice	1.348763	16.000000	n/a	1	-1.653646e-01	-1.653646e-01
50.782196	1.348763	dec_nonsocial_accept	1.348763	16.000000	n/a	1	-1.907051e-01	-1.907051e-01
50.782196	1.348763	dec_accept	1.348763	16.000000	n/a	1	-1.653646e-01	-1.653646e-01
50.782196	1.348763	dec_nonsocial_accept_low	1.348763	16.000000	n/a	1	-2.312500e-01	-2.312500e-01
57.615380	0.815309	dec_nonsocial_choice	0.815309	32.000000	n/a	3	-1.354167e-01	-1.354167e-01
57.615380	0.815309	dec_choice	0.815309	32.000000	n/a	3	-1.341146e-01	-1.341146e-01
57.615380	0.815309	dec_nonsocial_accept	0.815309	32.000000	n/a	3	-1.594551e-01	-1.594551e-01
57.615380	0.815309	dec_accept	0.815309	32.000000	n/a	3	-1.341146e-01	-1.341146e-01
57.615380	0.815309	dec_nonsocial_accept_low	0.815309	32.000000	n/a	3	-2.000000e-01	-2.000000e-01
64.447780	1.133608	dec_nonsocial_choice	1.133608	16.000000	n/a	4	2.083333e-02	2.083333e-02
64.447780	1.133608	dec_choice	1.133608	16.000000	n/a	4	2.213542e-02	2.213542e-02
64.447780	1.133608	dec_nonsocial_accept	1.133608	16.000000	n/a	4	-3.205128e-03	-3.205128e-03
64.447780	1.133608	dec_accept	1.133608	16.000000	n/a	4	2.213542e-02	2.213542e-02
64.447780	1.133608	dec_nonsocial_high	1.133608	16.000000	n/a	4	2.213542e-02	2.213542e-02
64.447780	1.133608	dec_nonsocial_accept_high	1.133608	16.000000	n/a	4	2.213542e-02	2.213542e-02
75.314995	1.133108	dec_social_choice	1.133108	16.000000	n/a	8	2.708333e-01	2.708333e-01
75.314995	1.133108	dec_choice	1.133108	16.000000	n/a	8	2.695312e-01	2.695312e-01
75.314995	1.133108	dec_social_accept	1.133108	16.000000	n/a	8	2.467949e-01	2.467949e-01
75.314995	1.133108	dec_accept	1.133108	16.000000	n/a	8	2.062500e-01	2.062500e-01
75.314995	1.133108	dec_social_high	1.133108	16.000000	n/a	8	2.695312e-01	2.695312e-01
75.314995	1.133108	dec_social_accept_high	1.133108	16.000000	n/a	8	2.695312e-01	2.695312e-01
82.148760	1.198702	dec_nonsocial_choice	1.198702	16.000000	n/a	8	2.708333e-01	2.708333e-01
82.148760	1.198702	dec_choice	1.198702	16.000000	n/a	8	2.721354e-01	2.721354e-01
82.148760	1.198702	dec_nonsocial_accept	1.198702	16.000000	n/a	8	2.467949e-01	2.467949e-01
82.148760	1.198702	dec_accept	1.198702	16.000000	n/a	8	2.721354e-01	2.721354e-01
82.148760	1.198702	dec_nonsocial_accept_high	1.198702	16.000000	n/a	8	2.062500e-01	2.062500e-01
88.981570	1.349372	dec_social_choice	1.349372	16.000000	n/a	0	0	-2.291667e-01
88.981570	1.349372	dec_choice	1.349372	16.000000	n/a	0	0	-2.304688e-01
88.981570	1.349372	dec_social_reject	1.349372	16.000000	n/a	0	0	1.250000e-02
88.981570	1.349372	dec_reject	1.349372	16.000000	n/a	0	0	0
88.981570	1.349372	dec_social_low	1.349372	16.000000	n/a	0	-2.304688e-01	-2.304688e-01
88.981570	1.349372	dec_social_reject_low	1.349372	16.000000	n/a	2	-1.054688e-01	-2.304688e-01
95.814445	1.333592	dec_nonsocial_choice	1.333592	32.000000	n/a	3	-1.354167e-01	-1.354167e-01
95.814445	1.333592	dec_choice	1.333592	32.000000	n/a	3	-1.341146e-01	-1.341146e-01
95.814445	1.333592	dec_nonsocial_accept	1.333592	32.000000	n/a	3	-1.594551e-01	-1.594551e-01
95.814445	1.333592	dec_accept	1.333592	32.000000	n/a	3	-1.341146e-01	-1.341146e-01
95.814445	1.333592	dec_nonsocial_low	1.333592	32.000000	n/a	3	-1.341146e-01	-1.341146e-01
95.814445	1.333592	dec_nonsocial_accept_low	1.333592	32.000000	n/a	3	-1.341146e-01	-1.341146e-01
105.063866	1.266422	dec_nonsocial_choice	1.266422	32.000000	n/a	8	2.083333e-02	2.083333e-02
105.063866	1.266422	dec_choice	1.266422	32.000000	n/a	8	2.213542e-02	2.213542e-02
105.063866	1.266422	dec_nonsocial_accept	1.266422	32.000000	n/a	8	-3.205128e-03	-3.205128e-03
105.063866	1.266422	dec_accept	1.266422	32.000000	n/a	8	2.213542e-02	2.213542e-02
105.063866	1.266422	dec_nonsocial_accept_high	1.266422	32.000000	n/a	8	-4.375000e-02	-4.375000e-02
111.897980	1.465966	dec_nonsocial_choice	1.465966	16.000000	n/a	8	2.708333e-01	2.708333e-01
111.897980	1.465966	dec_choice	1.465966	16.000000	n/a	8	2.721354e-01	2.721354e-01
111.897980	1.465966	dec_nonsocial_accept	1.465966	16.000000	n/a	8	2.467949e-01	2.467949e-01
111.897980	1.465966	dec_accept	1.465966	16.000000	n/a	8	2.721354e-01	2.721354e-01
111.897980	1.465966	dec_nonsocial_accept_high	1.465966	16.000000	n/a	8	2.062500e-01	2.062500e-01
118.730700	1.200142	dec_social_choice	1.200142	32.000000	n/a	2	-1.666667e-01	-1.666667e-01
118.730700	1.200142	dec_choice	1.200142	32.000000	n/a	2	-1.679688e-01	-1.679688e-01
118.730700	1.200142	dec_social_accept	1.200142	32.000000	n/a	2	-1.907051e-01	-1.907051e-01
118.730700	1.200142	dec_accept	1.200142	32.000000	n/a	2	-2.312500e-01	-2.312500e-01
118.730700	1.200142	dec_social_low	1.200142	32.000000	n/a	2	-1.679688e-01	-1.679688e-01
118.730700	1.200142	dec_social_accept_low	1.200142	32.000000	n/a	2	-1.679688e-01	-1.679688e-01
125.563890	0.900473	dec_nonsocial_choice	0.900473	32.000000	n/a	8	2.083333e-02	2.083333e-02
125.563890	0.900473	dec_choice	0.900473	32.000000	n/a	8	2.213542e-02	2.213542e-02
125.563890	0.900473	dec_nonsocial_accept	0.900473	32.000000	n/a	8	-3.205128e-03	-3.205128e-03
125.563890	0.900473	dec_accept	0.900473	32.000000	n/a	8	2.213542e-02	2.213542e-02
125.563890	0.900473	dec_nonsocial_high	0.900473	32.000000	n/a	8	2.213542e-02	2.213542e-02
125.563890	0.900473	dec_nonsocial_accept_high	0.900473	32.000000	n/a	8	2.213542e-02	2.213542e-02
133.198070	0.965536	dec_nonsocial_choice	0.965536	16.000000	n/a	8	2.708333e-01	2.708333e-01
133.198070	0.965536	dec_choice	0.965536	16.000000	n/a	8	2.721354e-01	2.721354e-01
133.198070	0.965536	dec_nonsocial_accept	0.965536	16.000000	n/a	8	2.467949e-01	2.467949e-01
133.198070	0.965536	dec_accept	0.965536	16.000000	n/a	8	2.721354e-01	2.721354e-01
133.198070	0.965536	dec_nonsocial_high	0.965536	16.000000	n/a	8	2.721354e-01	2.721354e-01
133.198070	0.965536	dec_nonsocial_accept_high	0.965536	16.000000	n/a	8	2.721354e-01	2.721354e-01
142.463330	1.234285	dec_nonsocial_choice	1.234285	16.000000	n/a	1	-1.666667e-01	-1.666667e-01
142.463330	1.234285	dec_choice	1.234285	16.000000	n/a	1	-1.653646e-01	-1.653646e-01
142.463330	1.234285	dec_nonsocial_accept	1.234285	16.000000	n/a	1	-1.907051e-01	-1.907051e-01
142.463330	1.234285	dec_accept	1.234285	16.000000	n/a	1	-1.653646e-01	-1.653646e-01
142.463330	1.234285	dec_nonsocial_accept_low	1.234285	16.000000	n/a	1	-2.312500e-01	-2.312500e-01
149.297820	2.132854	dec_social_choice	2.132854	32.000000	n/a	8	2.083333e-02	2.083333e-02
149.297820	2.132854	dec_choice	2.132854	32.000000	n/a	8	1.953125e-02	1.953125e-02
149.297820	2.132854	dec_social_accept	2.132854	32.000000	n/a	8	-3.205128e-03	-3.205128e-03
149.297820	2.132854	dec_accept	2.132854	32.000000	n/a	8	-4.375000e-02	-4.375000e-02
149.297820	2.132854	dec_social_high	2.132854	32.000000	n/a	8	1.953125e-02	1.953125e-02
149.297820	2.132854	dec_social_accept_high	2.132854	32.000000	n/a	8	1.953125e-02	1.953125e-02
156.130660	1.900126	dec_nonsocial_choice	1.900126	16.000000	n/a	1	-1.666667e-01	-1.666667e-01
156.130660	1.900126	dec_choice	1.900126	16.000000	n/a	1	-1.653646e-01	-1.653646e-01
156.130660	1.900126	dec_nonsocial_accept	1.900126	16.000000	n/a	1	-1.907051e-01	-1.907051e-01
156.130660	1.900126	dec_accept	1.900126	16.000000	n/a	1	-1.653646e-01	-1.653646e-01
156.130660	1.900126	dec_nonsocial_accept_low	1.900126	16.000000	n/a	1	-2.312500e-01	-2.312500e-01
162.964230	1.383313	dec_social_choice	1.383313	32.000000	n/a	0	0	-2.291667e-01
162.964230	1.383313	dec_choice	1.383313	32.000000	n/a	0	0	-2.304688e-01
162.964230	1.383313	dec_social_reject	1.383313	32.000000	n/a	0	0	-5.000000e-02
162.964230	1.383313	dec_reject	1.383313	32.000000	n/a	0	0	-6.250000e-02
162.964230	1.383313	dec_social_reject_low	1.383313	32.000000	n/a	2	-1.679688e-01	-2.304688e-01
175.447860	1.515855	dec_social_choice	1.515855	16.000000	n/a	8	2.708333e-01	2.708333e-01
175.447860	1.515855	dec_choice	1.515855	16.000000	n/a	8	2.695312e-01	2.695312e-01
175.447860	1.515855	dec_social_accept	1.515855	16.000000	n/a	8	2.467949e-01	2.467949e-01
175.447860	1.515855	dec_accept	1.515855	16.000000	n/a	8	2.062500e-01	2.062500e-01
175.447860	1.515855	dec_social_high	1.515855	16.000000	n/a	8	2.695312e-01	2.695312e-01
175.447860	1.515855	dec_social_accept_high	1.515855	16.000000	n/a	8	2.695312e-01	2.695312e-01
182.281100	1.032863	dec_nonsocial_choice	1.032863	32.000000	n/a	3	-1.354167e-01	-1.354167e-01
182.281100	1.032863	dec_choice	1.032863	32.000000	n/a	3	-1.341146e-01	-1.341146e-01
182.281100	1.032863	dec_nonsocial_accept	1.032863	32.000000	n/a	3	-1.594551e-01	-1.594551e-01
182.281100	1.032863	dec_accept	1.032863	32.000000	n/a	3	-1.341146e-01	-1.341146e-01
182.281100	1.032863	dec_nonsocial_low	1.032863	32.000000	n/a	3	-1.341146e-01	-1.341146e-01
182.281100	1.032863	dec_nonsocial_accept_low	1.032863	32.000000	n/a	3	-1.341146e-01	-1.341146e-01
189.114790	1.499223	dec_nonsocial_choice	1.499223	32.000000	n/a	2	-1.666667e-01	-1.666667e-01
189.114790	1.499223	dec_choice	1.499223	32.000000	n/a	2	-1.653646e-01	-1.653646e-01
189.114790	1.499223	dec_nonsocial_accept	1.499223	32.000000	n/a	2	-1.907051e-01	-1.907051e-01
189.114790	1.499223	dec_accept	1.499223	32.000000	n/a	2	-1.653646e-01	-1.653646e-01
189.114790	1.499223	dec_nonsocial_accept_low	1.499223	32.000000	n/a	2	-2.312500e-01	-2.312500e-01
195.947590	1.449542	dec_social_choice	1.449542	32.000000	n/a	0	0	-2.291667e-01
195.947590	1.449542	dec_choice	1.449542	32.000000	n/a	0	0	-2.304688e-01
195.947590	1.449542	dec_social_reject	1.449542	32.000000	n/a	0	0	-1.875000e-02
195.947590	1.449542	dec_reject	1.449542	32.000000	n/a	0	0	-3.125000e-02
195.947590	1.449542	dec_social_reject_low	1.449542	32.000000	n/a	3	-1.367188e-01	-2.304688e-01
206.812680	1.484184	dec_social_choice	1.484184	32.000000	n/a	16	2.708333e-01	2.708333e-01
206.812680	1.484184	dec_choice	1.484184	32.000000	n/a	16	2.695312e-01	2.695312e-01
206.812680	1.484184	dec_social_accept	1.484184	32.000000	n/a	16	2.467949e-01	2.467949e-01
206.812680	1.484184	dec_accept	1.484184	32.000000	n/a	16	2.062500e-01	2.062500e-01
206.812680	1.484184	dec_social_high	1.484184	32.000000	n/a	16	2.695312e-01	2.695312e-01
206.812680	1.484184	dec_social_accept_high	1.484184	32.000000	n/a	16	2.695312e-01	2.695312e-01
214.462680	0.984025	dec_social_choice	0.984025	16.000000	n/a	4	2.083333e-02	2.083333e-02
214.462680	0.984025	dec_choice	0.984025	16.000000	n/a	4	1.953125e-02	1.953125e-02
214.462680	0.984025	dec_social_accept	0.984025	16.000000	n/a	4	-3.205128e-03	-3.205128e-03
214.462680	0.984025	dec_accept	0.984025	16.000000	n/a	4	-4.375000e-02	-4.375000e-02
214.462680	0.984025	dec_social_high	0.984025	16.000000	n/a	4	1.953125e-02	1.953125e-02
214.462680	0.984025	dec_social_accept_high	0.984025	16.000000	n/a	4	1.953125e-02	1.953125e-02
223.713900	1.700111	dec_social_choice	1.700111	32.000000	n/a	0	0	-2.291667e-01
223.713900	1.700111	dec_choice	1.700111	32.000000	n/a	0	0	-2.304688e-01
223.713900	1.700111	dec_social_reject	1.700111	32.000000	n/a	0	0	-1.875000e-02
223.713900	1.700111	dec_reject	1.700111	32.000000	n/a	0	0	-3.125000e-02
223.713900	1.700111	dec_social_reject_low	1.700111	32.000000	n/a	3	-1.367188e-01	-2.304688e-01
232.963750	1.516337	dec_social_choice	1.516337	16.000000	n/a	8	2.708333e-01	2.708333e-01
232.963750	1.516337	dec_choice	1.516337	16.000000	n/a	8	2.695312e-01	2.695312e-01
232.963750	1.516337	dec_social_accept	1.516337	16.000000	n/a	8	2.467949e-01	2.467949e-01
232.963750	1.516337	dec_accept	1.516337	16.000000	n/a	8	2.062500e-01	2.062500e-01
232.963750	1.516337	dec_social_high	1.516337	16.000000	n/a	8	2.695312e-01	2.695312e-01
232.963750	1.516337	dec_social_accept_high	1.516337	16.000000	n/a	8	2.695312e-01	2.695312e-01
240.612920	1.200746	dec_social_choice	1.200746	16.000000	n/a	8	2.708333e-01	2.708333e-01
240.612920	1.200746	dec_choice	1.200746	16.000000	n/a	8	2.695312e-01	2.695312e-01
240.612920	1.200746	dec_social_accept	1.200746	16.000000	n/a	8	2.467949e-01	2.467949e-01
240.612920	1.200746	dec_accept	1.200746	16.000000	n/a	8	2.062500e-01	2.062500e-01
240.612920	1.200746	dec_social_high	1.200746	16.000000	n/a	8	2.695312e-01	2.695312e-01
240.612920	1.200746	dec_social_accept_high	1.200746	16.000000	n/a	8	2.695312e-01	2.695312e-01
248.247960	2.232986	dec_social_choice	2.232986	32.000000	n/a	8	2.083333e-02	2.083333e-02
248.247960	2.232986	dec_choice	2.232986	32.000000	n/a	8	1.953125e-02	1.953125e-02
248.247960	2.232986	dec_social_accept	2.232986	32.000000	n/a	8	-3.205128e-03	-3.205128e-03
248.247960	2.232986	dec_accept	2.232986	32.000000	n/a	8	-4.375000e-02	-4.375000e-02
248.247960	2.232986	dec_social_accept_high	2.232986	32.000000	n/a	8	1.953125e-02	1.953125e-02
255.080660	1.165955	dec_nonsocial_choice	1.165955	32.000000	n/a	16	2.708333e-01	2.708333e-01
255.080660	1.165955	dec_choice	1.165955	32.000000	n/a	16	2.721354e-01	2.721354e-01
255.080660	1.165955	dec_nonsocial_accept	1.165955	32.000000	n/a	16	2.467949e-01	2.467949e-01
255.080660	1.165955	dec_accept	1.165955	32.000000	n/a	16	2.721354e-01	2.721354e-01
255.080660	1.165955	dec_nonsocial_accept_high	1.165955	32.000000	n/a	16	2.062500e-01	2.062500e-01
264.347630	1.032548	dec_nonsocial_choice	1.032548	16.000000	n/a	1	-1.666667e-01	-1.666667e-01
264.347630	1.032548	dec_choice	1.032548	16.000000	n/a	1	-1.653646e-01	-1.653646e-01
264.347630	1.032548	dec_nonsocial_accept	1.032548	16.000000	n/a	1	-1.907051e-01	-1.907051e-01
264.347630	1.032548	dec_accept	1.032548	16.000000	n/a	1	-1.653646e-01	-1.653646e-01
264.347630	1.032548	dec_nonsocial_accept_low	1.032548	16.000000	n/a	1	-2.312500e-01	-2.312500e-01
271.180630	1.249601	dec_nonsocial_choice	1.249601	16.000000	n/a	8	2.708333e-01	2.708333e-01
271.180630	1.249601	dec_choice	1.249601	16.000000	n/a	8	2.721354e-01	2.721354e-01
271.180630	1.249601	dec_nonsocial_accept	1.249601	16.000000	n/a	8	2.467949e-01	2.467949e-01
271.180630	1.249601	dec_accept	1.249601	16.000000	n/a	8	2.721354e-01	2.721354e-01
271.180630	1.249601	dec_nonsocial_high	1.249601	16.000000	n/a	8	2.721354e-01	2.721354e-01
271.180630	1.249601	dec_nonsocial_accept_high	1.249601	16.000000	n/a	8	2.721354e-01	2.721354e-01
278.013460	2.116853	dec_social_choice	2.116853	16.000000	n/a	4	2.083333e-02	2.083333e-02
278.013460	2.116853	dec_choice	2.116853	16.000000	n/a	4	1.953125e-02	1.953125e-02
278.013460	2.116853	dec_social_accept	2.116853	16.000000	n/a	4	-3.205128e-03	-3.205128e-03
278.013460	2.116853	dec_accept	2.116853	16.000000	n/a	4	-4.375000e-02	-4.375000e-02
278.013460	2.116853	dec_social_accept_high	2.116853	16.000000	n/a	4	1.953125e-02	1.953125e-02
288.880860	1.332871	dec_nonsocial_choice	1.332871	32.000000	n/a	8	2.083333e-02	2.083333e-02
288.880860	1.332871	dec_choice	1.332871	32.000000	n/a	8	2.213542e-02	2.213542e-02
288.880860	1.332871	dec_nonsocial_accept	1.332871	32.000000	n/a	8	-3.205128e-03	-3.205128e-03
288.880860	1.332871	dec_accept	1.332871	32.000000	n/a	8	2.213542e-02	2.213542e-02
288.880860	1.332871	dec_nonsocial_accept_high	1.332871	32.000000	n/a	8	-4.375000e-02	-4.375000e-02
295.713170	0.933928	dec_social_choice	0.933928	32.000000	n/a	0	0	-2.291667e-01
295.713170	0.933928	dec_choice	0.933928	32.000000	n/a	0	0	-2.304688e-01
295.713170	0.933928	dec_social_reject	0.933928	32.000000	n/a	0	0	-5.000000e-02
295.713170	0.933928	dec_reject	0.933928	32.000000	n/a	0	0	-6.250000e-02
295.713170	0.933928	dec_social_low	0.933928	32.000000	n/a	0	-2.304688e-01	-2.304688e-01
295.713170	0.933928	dec_social_reject_low	0.933928	32.000000	n/a	2	-1.679688e-01	-2.304688e-01
303.364000	1.699696	dec_social_choice	1.699696	16.000000	n/a	4	2.083333e-02	2.083333e-02
303.364000	1.699696	dec_choice	1.699696	16.000000	n/a	4	1.953125e-02	1.953125e-02
303.364000	1.699696	dec_social_accept	1.699696	16.000000	n/a	4	-3.205128e-03	-3.205128e-03
303.364000	1.699696	dec_accept	1.699696	16.000000	n/a	4	-4.375000e-02	-4.375000e-02
303.364000	1.699696	dec_social_accept_high	1.699696	16.000000	n/a	4	1.953125e-02	1.953125e-02
310.196960	1.133105	dec_nonsocial_choice	1.133105	32.000000	n/a	3	-1.354167e-01	-1.354167e-01
310.196960	1.133105	dec_choice	1.133105	32.000000	n/a	3	-1.341146e-01	-1.341146e-01
310.196960	1.133105	dec_nonsocial_accept	1.133105	32.000000	n/a	3	-1.594551e-01	-1.594551e-01
310.196960	1.133105	dec_accept	1.133105	32.000000	n/a	3	-1.341146e-01	-1.341146e-01
310.196960	1.133105	dec_nonsocial_low	1.133105	32.000000	n/a	3	-1.341146e-01	-1.341146e-01
310.196960	1.133105	dec_nonsocial_accept_low	1.133105	32.000000	n/a	3	-1.341146e-01	-1.341146e-01
317.030760	1.065628	dec_nonsocial_choice	1.065628	32.000000	n/a	3	-1.354167e-01	-1.354167e-01
317.030760	1.065628	dec_choice	1.065628	32.000000	n/a	3	-1.341146e-01	-1.341146e-01
317.030760	1.065628	dec_nonsocial_accept	1.065628	32.000000	n/a	3	-1.594551e-01	-1.594551e-01
317.030760	1.065628	dec_accept	1.065628	32.000000	n/a	3	-1.341146e-01	-1.341146e-01
317.030760	1.065628	dec_nonsocial_low	1.065628	32.000000	n/a	3	-1.341146e-01	-1.341146e-01
317.030760	1.065628	dec_nonsocial_accept_low	1.065628	32.000000	n/a	3	-1.341146e-01	-1.341146e-01
326.296700	1.766050	dec_social_choice	1.766050	16.000000	n/a	2	-1.041667e-01	-1.041667e-01
326.296700	1.766050	dec_choice	1.766050	16.000000	n/a	2	-1.054688e-01	-1.054688e-01
326.296700	1.766050	dec_social_accept	1.766050	16.000000	n/a	2	-1.282051e-01	-1.282051e-01
326.296700	1.766050	dec_accept	1.766050	16.000000	n/a	2	-1.687500e-01	-1.687500e-01
326.296700	1.766050	dec_social_low	1.766050	16.000000	n/a	2	-1.054688e-01	-1.054688e-01
326.296700	1.766050	dec_social_accept_low	1.766050	16.000000	n/a	2	-1.054688e-01	-1.054688e-01
333.946500	1.133741	dec_social_choice	1.133741	32.000000	n/a	0	0	-2.291667e-01
333.946500	1.133741	dec_choice	1.133741	32.000000	n/a	0	0	-2.304688e-01
333.946500	1.133741	dec_social_reject	1.133741	32.000000	n/a	0	0	-5.000000e-02
333.946500	1.133741	dec_reject	1.133741	32.000000	n/a	0	0	-6.250000e-02
333.946500	1.133741	dec_social_reject_low	1.133741	32.000000	n/a	2	-1.679688e-01	-2.304688e-01
340.779880	1.966449	dec_social_choice	1.966449	16.000000	n/a	2	-1.041667e-01	-1.041667e-01
340.779880	1.966449	dec_choice	1.966449	16.000000	n/a	2	-1.054688e-01	-1.054688e-01
340.779880	1.966449	dec_social_accept	1.966449	16.000000	n/a	2	-1.282051e-01	-1.282051e-01
340.779880	1.966449	dec_accept	1.966449	16.000000	n/a	2	-1.687500e-01	-1.687500e-01
340.779880	1.966449	dec_social_accept_low	1.966449	16.000000	n/a	2	-1.054688e-01	-1.054688e-01
348.429530	1.333663	dec_social_choice	1.333663	16.000000	n/a	0	0	-2.291667e-01
348.429530	1.333663	dec_choice	1.333663	16.000000	n/a	0	0	-2.304688e-01
348.429530	1.333663	dec_social_reject	1.333663	16.000000	n/a	0	0	3.875000e-01
348.429530	1.333663	dec_reject	1.333663	16.000000	n/a	0	0	3.750000e-01
348.429530	1.333663	dec_social_reject_low	1.333663	16.000000	n/a	8	2.695312e-01	-2.304688e-01
356.080540	1.365679	dec_nonsocial_choice	1.365679	16.000000	n/a	8	2.708333e-01	2.708333e-01
356.080540	1.365679	dec_choice	1.365679	16.000000	n/a	8	2.721354e-01	2.721354e-01
356.080540	1.365679	dec_nonsocial_accept	1.365679	16.000000	n/a	8	2.467949e-01	2.467949e-01
356.080540	1.365679	dec_accept	1.365679	16.000000	n/a	8	2.721354e-01	2.721354e-01
356.080540	1.365679	dec_nonsocial_accept_high	1.365679	16.000000	n/a	8	2.062500e-01	2.062500e-01
365.329530	1.016552	dec_nonsocial_choice	1.016552	32.000000	n/a	8	2.083333e-02	2.083333e-02
365.329530	1.016552	dec_choice	1.016552	32.000000	n/a	8	2.213542e-02	2.213542e-02
365.329530	1.016552	dec_nonsocial_accept	1.016552	32.000000	n/a	8	-3.205128e-03	-3.205128e-03
365.329530	1.016552	dec_accept	1.016552	32.000000	n/a	8	2.213542e-02	2.213542e-02
365.329530	1.016552	dec_nonsocial_accept_high	1.016552	32.000000	n/a	8	-4.375000e-02	-4.375000e-02
372.162870	0.783653	dec_nonsocial_choice	0.783653	16.000000	n/a	2	-1.041667e-01	-1.041667e-01
372.162870	0.783653	dec_choice	0.783653	16.000000	n/a	2	-1.028646e-01	-1.028646e-01
372.162870	0.783653	dec_nonsocial_accept	0.783653	16.000000	n/a	2	-1.282051e-01	-1.282051e-01
372.162870	0.783653	dec_accept	0.783653	16.000000	n/a	2	-1.028646e-01	-1.028646e-01
372.162870	0.783653	dec_nonsocial_accept_low	0.783653	16.000000	n/a	2	-1.687500e-01	-1.687500e-01
