onset	duration	trial_type	response_time	Endowment	Endowment_pmod	Decision	Decision_pmod	Offer_pmod
4.518194	2	cue_nonsocial	n/a	32	7	n/a	n/a	n/a
4.518194	2	cue_nonsocial_high	n/a	32	11	n/a	n/a	n/a
11.352194	2	cue_nonsocial	n/a	16	-9	n/a	n/a	n/a
11.352194	2	cue_nonsocial_low	n/a	16	-5	n/a	n/a	n/a
19.057796	2	cue_social	n/a	16	-5	n/a	n/a	n/a
19.057796	2	cue_social_low	n/a	16	-9	n/a	n/a	n/a
25.834982	2	cue_nonsocial	n/a	16	-9	n/a	n/a	n/a
25.834982	2	cue_nonsocial_low	n/a	16	-5	n/a	n/a	n/a
35.085014	2	cue_nonsocial	n/a	32	7	n/a	n/a	n/a
35.085014	2	cue_nonsocial_high	n/a	32	11	n/a	n/a	n/a
45.951990	2	cue_nonsocial	n/a	32	7	n/a	n/a	n/a
45.951990	2	cue_nonsocial_high	n/a	32	11	n/a	n/a	n/a
56.818470	2	cue_nonsocial	n/a	32	7	n/a	n/a	n/a
56.818470	2	cue_nonsocial_high	n/a	32	11	n/a	n/a	n/a
64.528650	2	cue_social	n/a	16	-5	n/a	n/a	n/a
64.528650	2	cue_social_low	n/a	16	-9	n/a	n/a	n/a
71.369550	2	cue_social	n/a	16	-5	n/a	n/a	n/a
71.369550	2	cue_social_low	n/a	16	-9	n/a	n/a	n/a
79.012825	2	cue_social	n/a	16	-5	n/a	n/a	n/a
79.012825	2	cue_social_low	n/a	16	-9	n/a	n/a	n/a
85.785065	2	cue_nonsocial	n/a	32	7	n/a	n/a	n/a
85.785065	2	cue_nonsocial_high	n/a	32	11	n/a	n/a	n/a
98.333080	2	cue_social	n/a	32	11	n/a	n/a	n/a
98.333080	2	cue_social_high	n/a	32	7	n/a	n/a	n/a
105.101790	2	cue_nonsocial	n/a	32	7	n/a	n/a	n/a
105.101790	2	cue_nonsocial_high	n/a	32	11	n/a	n/a	n/a
112.029340	2	cue_social	n/a	16	-5	n/a	n/a	n/a
112.029340	2	cue_social_low	n/a	16	-9	n/a	n/a	n/a
121.249210	2	cue_social	n/a	16	-5	n/a	n/a	n/a
121.249210	2	cue_social_low	n/a	16	-9	n/a	n/a	n/a
132.131230	2	cue_social	n/a	16	-5	n/a	n/a	n/a
132.131230	2	cue_social_low	n/a	16	-9	n/a	n/a	n/a
139.004790	2	cue_social	n/a	32	11	n/a	n/a	n/a
139.004790	2	cue_social_high	n/a	32	7	n/a	n/a	n/a
145.734910	2	cue_nonsocial	n/a	32	7	n/a	n/a	n/a
145.734910	2	cue_nonsocial_high	n/a	32	11	n/a	n/a	n/a
154.984850	2	cue_nonsocial	n/a	32	7	n/a	n/a	n/a
154.984850	2	cue_nonsocial_high	n/a	32	11	n/a	n/a	n/a
161.866560	2	cue_social	n/a	32	11	n/a	n/a	n/a
161.866560	2	cue_social_high	n/a	32	7	n/a	n/a	n/a
171.068130	2	cue_nonsocial	n/a	32	7	n/a	n/a	n/a
171.068130	2	cue_nonsocial_high	n/a	32	11	n/a	n/a	n/a
177.970200	2	cue_social	n/a	16	-5	n/a	n/a	n/a
177.970200	2	cue_social_low	n/a	16	-9	n/a	n/a	n/a
185.608370	2	cue_social	n/a	32	11	n/a	n/a	n/a
185.608370	2	cue_social_high	n/a	32	7	n/a	n/a	n/a
193.201420	2	cue_nonsocial	n/a	16	-9	n/a	n/a	n/a
193.201420	2	cue_nonsocial_low	n/a	16	-5	n/a	n/a	n/a
200.112140	2	cue_social	n/a	16	-5	n/a	n/a	n/a
200.112140	2	cue_social_low	n/a	16	-9	n/a	n/a	n/a
207.684650	2	cue_nonsocial	n/a	32	7	n/a	n/a	n/a
207.684650	2	cue_nonsocial_high	n/a	32	11	n/a	n/a	n/a
217.000560	2	cue_social	n/a	16	-5	n/a	n/a	n/a
217.000560	2	cue_social_low	n/a	16	-9	n/a	n/a	n/a
223.820590	2	cue_social	n/a	32	11	n/a	n/a	n/a
223.820590	2	cue_social_high	n/a	32	7	n/a	n/a	n/a
231.417860	2	cue_nonsocial	n/a	32	7	n/a	n/a	n/a
231.417860	2	cue_nonsocial_high	n/a	32	11	n/a	n/a	n/a
238.251270	2	cue_nonsocial	n/a	16	-9	n/a	n/a	n/a
238.251270	2	cue_nonsocial_low	n/a	16	-5	n/a	n/a	n/a
245.139400	2	cue_social	n/a	32	11	n/a	n/a	n/a
245.139400	2	cue_social_high	n/a	32	7	n/a	n/a	n/a
252.800160	2	cue_social	n/a	16	-5	n/a	n/a	n/a
252.800160	2	cue_social_low	n/a	16	-9	n/a	n/a	n/a
259.620200	2	cue_social	n/a	32	11	n/a	n/a	n/a
259.620200	2	cue_social_high	n/a	32	7	n/a	n/a	n/a
266.401100	2	cue_nonsocial	n/a	16	-9	n/a	n/a	n/a
266.401100	2	cue_nonsocial_low	n/a	16	-5	n/a	n/a	n/a
273.295100	2	cue_social	n/a	16	-5	n/a	n/a	n/a
273.295100	2	cue_social_low	n/a	16	-9	n/a	n/a	n/a
280.067840	2	cue_nonsocial	n/a	16	-9	n/a	n/a	n/a
280.067840	2	cue_nonsocial_low	n/a	16	-5	n/a	n/a	n/a
287.770320	2	cue_social	n/a	16	-5	n/a	n/a	n/a
287.770320	2	cue_social_low	n/a	16	-9	n/a	n/a	n/a
295.429500	2	cue_social	n/a	16	-5	n/a	n/a	n/a
295.429500	2	cue_social_low	n/a	16	-9	n/a	n/a	n/a
304.617920	2	cue_nonsocial	n/a	32	7	n/a	n/a	n/a
304.617920	2	cue_nonsocial_high	n/a	32	11	n/a	n/a	n/a
311.451050	2	cue_nonsocial	n/a	32	7	n/a	n/a	n/a
311.451050	2	cue_nonsocial_high	n/a	32	11	n/a	n/a	n/a
318.349980	2	cue_social	n/a	16	-5	n/a	n/a	n/a
318.349980	2	cue_social_low	n/a	16	-9	n/a	n/a	n/a
325.934300	2	cue_nonsocial	n/a	16	-9	n/a	n/a	n/a
325.934300	2	cue_nonsocial_low	n/a	16	-5	n/a	n/a	n/a
332.836360	2	cue_social	n/a	32	11	n/a	n/a	n/a
332.836360	2	cue_social_high	n/a	32	7	n/a	n/a	n/a
342.017730	2	cue_nonsocial	n/a	16	-9	n/a	n/a	n/a
342.017730	2	cue_nonsocial_low	n/a	16	-5	n/a	n/a	n/a
348.850800	2	cue_nonsocial	n/a	16	-9	n/a	n/a	n/a
348.850800	2	cue_nonsocial_low	n/a	16	-5	n/a	n/a	n/a
356.500270	2	cue_nonsocial	n/a	32	7	n/a	n/a	n/a
356.500270	2	cue_nonsocial_high	n/a	32	11	n/a	n/a	n/a
363.333920	2	cue_nonsocial	n/a	16	-9	n/a	n/a	n/a
363.333920	2	cue_nonsocial_low	n/a	16	-5	n/a	n/a	n/a
371.038240	2	cue_social	n/a	16	-5	n/a	n/a	n/a
371.038240	2	cue_social_low	n/a	16	-9	n/a	n/a	n/a
6.524497	1.300357	dec_nonsocial_choice	1.300357	32.000000	n/a	3	-1.373698e-01	-1.373698e-01
6.524497	1.300357	dec_choice	1.300357	32.000000	n/a	3	-1.354167e-01	-1.354167e-01
6.524497	1.300357	dec_nonsocial_accept	1.300357	32.000000	n/a	3	-1.328125e-01	-1.328125e-01
6.524497	1.300357	dec_accept	1.300357	32.000000	n/a	3	-1.491477e-01	-1.491477e-01
6.524497	1.300357	dec_nonsocial_low	1.300357	32.000000	n/a	3	-1.354167e-01	-1.354167e-01
6.524497	1.300357	dec_nonsocial_accept_low	1.300357	32.000000	n/a	3	-1.491477e-01	-1.491477e-01
13.359122	0.899301	dec_nonsocial_choice	0.899301	16.000000	n/a	4	1.888021e-02	1.888021e-02
13.359122	0.899301	dec_choice	0.899301	16.000000	n/a	4	2.083333e-02	2.083333e-02
13.359122	0.899301	dec_nonsocial_accept	0.899301	16.000000	n/a	4	2.343750e-02	2.343750e-02
13.359122	0.899301	dec_accept	0.899301	16.000000	n/a	4	7.102273e-03	7.102273e-03
13.359122	0.899301	dec_nonsocial_accept_high	0.899301	16.000000	n/a	4	4.910714e-02	4.910714e-02
21.007908	1.500298	dec_social_choice	1.500298	16.000000	n/a	8	2.688802e-01	2.688802e-01
21.007908	1.500298	dec_choice	1.500298	16.000000	n/a	8	2.669271e-01	2.669271e-01
21.007908	1.500298	dec_social_accept	1.500298	16.000000	n/a	8	2.734375e-01	2.734375e-01
21.007908	1.500298	dec_accept	1.500298	16.000000	n/a	8	2.991071e-01	2.991071e-01
21.007908	1.500298	dec_social_accept_high	1.500298	16.000000	n/a	8	2.669271e-01	2.669271e-01
27.841202	0.750116	dec_nonsocial_choice	0.750116	16.000000	n/a	1	-1.686198e-01	-1.686198e-01
27.841202	0.750116	dec_choice	0.750116	16.000000	n/a	1	-1.666667e-01	-1.666667e-01
27.841202	0.750116	dec_nonsocial_accept	0.750116	16.000000	n/a	1	-1.640625e-01	-1.640625e-01
27.841202	0.750116	dec_accept	0.750116	16.000000	n/a	1	-1.803977e-01	-1.803977e-01
27.841202	0.750116	dec_nonsocial_accept_low	0.750116	16.000000	n/a	1	-1.383929e-01	-1.383929e-01
37.091694	0.882866	dec_nonsocial_choice	0.882866	32.000000	n/a	16	2.688802e-01	2.688802e-01
37.091694	0.882866	dec_choice	0.882866	32.000000	n/a	16	2.708333e-01	2.708333e-01
37.091694	0.882866	dec_nonsocial_accept	0.882866	32.000000	n/a	16	2.734375e-01	2.734375e-01
37.091694	0.882866	dec_accept	0.882866	32.000000	n/a	16	2.571023e-01	2.571023e-01
37.091694	0.882866	dec_nonsocial_accept_high	0.882866	32.000000	n/a	16	2.991071e-01	2.991071e-01
47.958233	1.883290	dec_nonsocial_choice	1.883290	32.000000	n/a	16	2.688802e-01	2.688802e-01
47.958233	1.883290	dec_choice	1.883290	32.000000	n/a	16	2.708333e-01	2.708333e-01
47.958233	1.883290	dec_nonsocial_accept	1.883290	32.000000	n/a	16	2.734375e-01	2.734375e-01
47.958233	1.883290	dec_accept	1.883290	32.000000	n/a	16	2.571023e-01	2.571023e-01
47.958233	1.883290	dec_nonsocial_high	1.883290	32.000000	n/a	16	2.708333e-01	2.708333e-01
47.958233	1.883290	dec_nonsocial_accept_high	1.883290	32.000000	n/a	16	2.571023e-01	2.571023e-01
58.824260	1.000405	dec_nonsocial_choice	1.000405	32.000000	n/a	16	2.688802e-01	2.688802e-01
58.824260	1.000405	dec_choice	1.000405	32.000000	n/a	16	2.708333e-01	2.708333e-01
58.824260	1.000405	dec_nonsocial_accept	1.000405	32.000000	n/a	16	2.734375e-01	2.734375e-01
58.824260	1.000405	dec_accept	1.000405	32.000000	n/a	16	2.571023e-01	2.571023e-01
58.824260	1.000405	dec_nonsocial_accept_high	1.000405	32.000000	n/a	16	2.991071e-01	2.991071e-01
66.474930	1.549807	dec_social_choice	1.549807	16.000000	n/a	8	2.688802e-01	2.688802e-01
66.474930	1.549807	dec_choice	1.549807	16.000000	n/a	8	2.669271e-01	2.669271e-01
66.474930	1.549807	dec_social_accept	1.549807	16.000000	n/a	8	2.734375e-01	2.734375e-01
66.474930	1.549807	dec_accept	1.549807	16.000000	n/a	8	2.991071e-01	2.991071e-01
66.474930	1.549807	dec_social_accept_high	1.549807	16.000000	n/a	8	2.669271e-01	2.669271e-01
73.308870	1.249359	dec_social_choice	1.249359	16.000000	n/a	4	1.888021e-02	1.888021e-02
73.308870	1.249359	dec_choice	1.249359	16.000000	n/a	4	1.692708e-02	1.692708e-02
73.308870	1.249359	dec_social_accept	1.249359	16.000000	n/a	4	2.343750e-02	2.343750e-02
73.308870	1.249359	dec_accept	1.249359	16.000000	n/a	4	4.910714e-02	4.910714e-02
73.308870	1.249359	dec_social_high	1.249359	16.000000	n/a	4	1.692708e-02	1.692708e-02
73.308870	1.249359	dec_social_accept_high	1.249359	16.000000	n/a	4	1.692708e-02	1.692708e-02
80.958640	1.699351	dec_social_choice	1.699351	16.000000	n/a	2	-1.061198e-01	-1.061198e-01
80.958640	1.699351	dec_choice	1.699351	16.000000	n/a	2	-1.080729e-01	-1.080729e-01
80.958640	1.699351	dec_social_accept	1.699351	16.000000	n/a	2	-1.015625e-01	-1.015625e-01
80.958640	1.699351	dec_accept	1.699351	16.000000	n/a	2	-7.589286e-02	-7.589286e-02
80.958640	1.699351	dec_social_accept_low	1.699351	16.000000	n/a	2	-1.080729e-01	-1.080729e-01
87.791630	1.699716	dec_nonsocial_choice	1.699716	32.000000	n/a	0	0	-2.311198e-01
87.791630	1.699716	dec_choice	1.699716	32.000000	n/a	0	0	-2.291667e-01
87.791630	1.699716	dec_nonsocial_reject	1.699716	32.000000	n/a	0	0	-1.510417e-01
87.791630	1.699716	dec_reject	1.699716	32.000000	n/a	0	0	1.562500e-02
87.791630	1.699716	dec_nonsocial_reject_low	1.699716	32.000000	n/a	3	-1.843750e-01	-2.781250e-01
100.273810	2.401165	dec_social_choice	2.401165	32.000000	n/a	0	0	-2.311198e-01
100.273810	2.401165	dec_choice	2.401165	32.000000	n/a	0	0	-2.330729e-01
100.273810	2.401165	dec_social_reject	2.401165	32.000000	n/a	0	0	-1.510417e-01
100.273810	2.401165	dec_reject	2.401165	32.000000	n/a	0	0	-1.843750e-01
100.273810	2.401165	dec_social_reject_low	2.401165	32.000000	n/a	3	-1.393229e-01	-2.330729e-01
107.108860	1.049712	dec_nonsocial_choice	1.049712	32.000000	n/a	16	2.688802e-01	2.688802e-01
107.108860	1.049712	dec_choice	1.049712	32.000000	n/a	16	2.708333e-01	2.708333e-01
107.108860	1.049712	dec_nonsocial_accept	1.049712	32.000000	n/a	16	2.734375e-01	2.734375e-01
107.108860	1.049712	dec_accept	1.049712	32.000000	n/a	16	2.571023e-01	2.571023e-01
107.108860	1.049712	dec_nonsocial_high	1.049712	32.000000	n/a	16	2.708333e-01	2.708333e-01
107.108860	1.049712	dec_nonsocial_accept_high	1.049712	32.000000	n/a	16	2.571023e-01	2.571023e-01
113.940834	1.183714	dec_social_choice	1.183714	16.000000	n/a	2	-1.061198e-01	-1.061198e-01
113.940834	1.183714	dec_choice	1.183714	16.000000	n/a	2	-1.080729e-01	-1.080729e-01
113.940834	1.183714	dec_social_accept	1.183714	16.000000	n/a	2	-1.015625e-01	-1.015625e-01
113.940834	1.183714	dec_accept	1.183714	16.000000	n/a	2	-7.589286e-02	-7.589286e-02
113.940834	1.183714	dec_social_accept_low	1.183714	16.000000	n/a	2	-1.080729e-01	-1.080729e-01
123.208030	1.383770	dec_social_choice	1.383770	16.000000	n/a	2	-1.061198e-01	-1.061198e-01
123.208030	1.383770	dec_choice	1.383770	16.000000	n/a	2	-1.080729e-01	-1.080729e-01
123.208030	1.383770	dec_social_accept	1.383770	16.000000	n/a	2	-1.015625e-01	-1.015625e-01
123.208030	1.383770	dec_accept	1.383770	16.000000	n/a	2	-7.589286e-02	-7.589286e-02
123.208030	1.383770	dec_social_accept_low	1.383770	16.000000	n/a	2	-1.080729e-01	-1.080729e-01
134.075210	1.715563	dec_social_choice	1.715563	16.000000	n/a	0	0	-2.311198e-01
134.075210	1.715563	dec_choice	1.715563	16.000000	n/a	0	0	-2.330729e-01
134.075210	1.715563	dec_social_reject	1.715563	16.000000	n/a	0	0	-1.822917e-01
134.075210	1.715563	dec_reject	1.715563	16.000000	n/a	0	0	-2.156250e-01
134.075210	1.715563	dec_social_reject_low	1.715563	16.000000	n/a	1	-1.705729e-01	-2.330729e-01
140.907140	1.650558	dec_social_choice	1.650558	32.000000	n/a	0	0	-2.311198e-01
140.907140	1.650558	dec_choice	1.650558	32.000000	n/a	0	0	-2.330729e-01
140.907140	1.650558	dec_social_reject	1.650558	32.000000	n/a	0	0	2.552083e-01
140.907140	1.650558	dec_reject	1.650558	32.000000	n/a	0	0	2.218750e-01
140.907140	1.650558	dec_social_low	1.650558	32.000000	n/a	0	-2.330729e-01	-2.330729e-01
140.907140	1.650558	dec_social_reject_low	1.650558	32.000000	n/a	16	2.669271e-01	-2.330729e-01
147.740780	0.850364	dec_nonsocial_choice	0.850364	32.000000	n/a	2	-1.686198e-01	-1.686198e-01
147.740780	0.850364	dec_choice	0.850364	32.000000	n/a	2	-1.666667e-01	-1.666667e-01
147.740780	0.850364	dec_nonsocial_accept	0.850364	32.000000	n/a	2	-1.640625e-01	-1.640625e-01
147.740780	0.850364	dec_accept	0.850364	32.000000	n/a	2	-1.803977e-01	-1.803977e-01
147.740780	0.850364	dec_nonsocial_accept_low	0.850364	32.000000	n/a	2	-1.383929e-01	-1.383929e-01
156.991820	0.915050	dec_nonsocial_choice	0.915050	32.000000	n/a	3	-1.373698e-01	-1.373698e-01
156.991820	0.915050	dec_choice	0.915050	32.000000	n/a	3	-1.354167e-01	-1.354167e-01
156.991820	0.915050	dec_nonsocial_accept	0.915050	32.000000	n/a	3	-1.328125e-01	-1.328125e-01
156.991820	0.915050	dec_accept	0.915050	32.000000	n/a	3	-1.491477e-01	-1.491477e-01
156.991820	0.915050	dec_nonsocial_low	0.915050	32.000000	n/a	3	-1.354167e-01	-1.354167e-01
156.991820	0.915050	dec_nonsocial_accept_low	0.915050	32.000000	n/a	3	-1.491477e-01	-1.491477e-01
163.824570	1.933046	dec_social_choice	1.933046	32.000000	n/a	8	1.888021e-02	1.888021e-02
163.824570	1.933046	dec_choice	1.933046	32.000000	n/a	8	1.692708e-02	1.692708e-02
163.824570	1.933046	dec_social_accept	1.933046	32.000000	n/a	8	2.343750e-02	2.343750e-02
163.824570	1.933046	dec_accept	1.933046	32.000000	n/a	8	4.910714e-02	4.910714e-02
163.824570	1.933046	dec_social_high	1.933046	32.000000	n/a	8	1.692708e-02	1.692708e-02
163.824570	1.933046	dec_social_accept_high	1.933046	32.000000	n/a	8	1.692708e-02	1.692708e-02
173.074280	1.183785	dec_nonsocial_choice	1.183785	32.000000	n/a	3	-1.373698e-01	-1.373698e-01
173.074280	1.183785	dec_choice	1.183785	32.000000	n/a	3	-1.354167e-01	-1.354167e-01
173.074280	1.183785	dec_nonsocial_accept	1.183785	32.000000	n/a	3	-1.328125e-01	-1.328125e-01
173.074280	1.183785	dec_accept	1.183785	32.000000	n/a	3	-1.491477e-01	-1.491477e-01
173.074280	1.183785	dec_nonsocial_low	1.183785	32.000000	n/a	3	-1.354167e-01	-1.354167e-01
173.074280	1.183785	dec_nonsocial_accept_low	1.183785	32.000000	n/a	3	-1.491477e-01	-1.491477e-01
179.908680	1.548919	dec_social_choice	1.548919	16.000000	n/a	4	1.888021e-02	1.888021e-02
179.908680	1.548919	dec_choice	1.548919	16.000000	n/a	4	1.692708e-02	1.692708e-02
179.908680	1.548919	dec_social_accept	1.548919	16.000000	n/a	4	2.343750e-02	2.343750e-02
179.908680	1.548919	dec_accept	1.548919	16.000000	n/a	4	4.910714e-02	4.910714e-02
179.908680	1.548919	dec_social_accept_high	1.548919	16.000000	n/a	4	1.692708e-02	1.692708e-02
187.557880	1.865874	dec_social_choice	1.865874	32.000000	n/a	8	1.888021e-02	1.888021e-02
187.557880	1.865874	dec_choice	1.865874	32.000000	n/a	8	1.692708e-02	1.692708e-02
187.557880	1.865874	dec_social_accept	1.865874	32.000000	n/a	8	2.343750e-02	2.343750e-02
187.557880	1.865874	dec_accept	1.865874	32.000000	n/a	8	4.910714e-02	4.910714e-02
187.557880	1.865874	dec_social_high	1.865874	32.000000	n/a	8	1.692708e-02	1.692708e-02
187.557880	1.865874	dec_social_accept_high	1.865874	32.000000	n/a	8	1.692708e-02	1.692708e-02
195.208390	1.465450	dec_nonsocial_choice	1.465450	16.000000	n/a	0	0	-2.311198e-01
195.208390	1.465450	dec_choice	1.465450	16.000000	n/a	0	0	-2.291667e-01
195.208390	1.465450	dec_nonsocial_reject	1.465450	16.000000	n/a	0	0	-1.822917e-01
195.208390	1.465450	dec_reject	1.465450	16.000000	n/a	0	0	-1.562500e-02
195.208390	1.465450	dec_nonsocial_low	1.465450	16.000000	n/a	0	-2.291667e-01	-2.291667e-01
195.208390	1.465450	dec_nonsocial_reject_low	1.465450	16.000000	n/a	1	-1.562500e-02	-7.812500e-02
202.041030	2.049853	dec_social_choice	2.049853	16.000000	n/a	0	0	-2.311198e-01
202.041030	2.049853	dec_choice	2.049853	16.000000	n/a	0	0	-2.330729e-01
202.041030	2.049853	dec_social_reject	2.049853	16.000000	n/a	0	0	-1.822917e-01
202.041030	2.049853	dec_reject	2.049853	16.000000	n/a	0	0	-2.156250e-01
202.041030	2.049853	dec_social_reject_low	2.049853	16.000000	n/a	1	-1.705729e-01	-2.330729e-01
209.690800	1.166372	dec_nonsocial_choice	1.166372	32.000000	n/a	8	1.888021e-02	1.888021e-02
209.690800	1.166372	dec_choice	1.166372	32.000000	n/a	8	2.083333e-02	2.083333e-02
209.690800	1.166372	dec_nonsocial_accept	1.166372	32.000000	n/a	8	2.343750e-02	2.343750e-02
209.690800	1.166372	dec_accept	1.166372	32.000000	n/a	8	7.102273e-03	7.102273e-03
209.690800	1.166372	dec_nonsocial_accept_high	1.166372	32.000000	n/a	8	4.910714e-02	4.910714e-02
218.940730	1.683503	dec_social_choice	1.683503	16.000000	n/a	1	-1.686198e-01	-1.686198e-01
218.940730	1.683503	dec_choice	1.683503	16.000000	n/a	1	-1.705729e-01	-1.705729e-01
218.940730	1.683503	dec_social_accept	1.683503	16.000000	n/a	1	-1.640625e-01	-1.640625e-01
218.940730	1.683503	dec_accept	1.683503	16.000000	n/a	1	-1.383929e-01	-1.383929e-01
218.940730	1.683503	dec_social_low	1.683503	16.000000	n/a	1	-1.705729e-01	-1.705729e-01
218.940730	1.683503	dec_social_accept_low	1.683503	16.000000	n/a	1	-1.705729e-01	-1.705729e-01
225.774730	2.149397	dec_social_choice	2.149397	32.000000	n/a	0	0	-2.311198e-01
225.774730	2.149397	dec_choice	2.149397	32.000000	n/a	0	0	-2.330729e-01
225.774730	2.149397	dec_social_reject	2.149397	32.000000	n/a	0	0	5.208333e-03
225.774730	2.149397	dec_reject	2.149397	32.000000	n/a	0	0	-2.812500e-02
225.774730	2.149397	dec_social_low	2.149397	32.000000	n/a	0	-2.330729e-01	-2.330729e-01
225.774730	2.149397	dec_social_reject_low	2.149397	32.000000	n/a	8	1.692708e-02	-2.330729e-01
233.423660	1.316567	dec_nonsocial_choice	1.316567	32.000000	n/a	2	-1.686198e-01	-1.686198e-01
233.423660	1.316567	dec_choice	1.316567	32.000000	n/a	2	-1.666667e-01	-1.666667e-01
233.423660	1.316567	dec_nonsocial_accept	1.316567	32.000000	n/a	2	-1.640625e-01	-1.640625e-01
233.423660	1.316567	dec_accept	1.316567	32.000000	n/a	2	-1.803977e-01	-1.803977e-01
233.423660	1.316567	dec_nonsocial_low	1.316567	32.000000	n/a	2	-1.666667e-01	-1.666667e-01
233.423660	1.316567	dec_nonsocial_accept_low	1.316567	32.000000	n/a	2	-1.803977e-01	-1.803977e-01
240.257480	1.349995	dec_nonsocial_choice	1.349995	16.000000	n/a	4	1.888021e-02	1.888021e-02
240.257480	1.349995	dec_choice	1.349995	16.000000	n/a	4	2.083333e-02	2.083333e-02
240.257480	1.349995	dec_nonsocial_accept	1.349995	16.000000	n/a	4	2.343750e-02	2.343750e-02
240.257480	1.349995	dec_accept	1.349995	16.000000	n/a	4	7.102273e-03	7.102273e-03
240.257480	1.349995	dec_nonsocial_accept_high	1.349995	16.000000	n/a	4	4.910714e-02	4.910714e-02
247.090700	1.316186	dec_social_choice	1.316186	32.000000	n/a	2	-1.686198e-01	-1.686198e-01
247.090700	1.316186	dec_choice	1.316186	32.000000	n/a	2	-1.705729e-01	-1.705729e-01
247.090700	1.316186	dec_social_accept	1.316186	32.000000	n/a	2	-1.640625e-01	-1.640625e-01
247.090700	1.316186	dec_accept	1.316186	32.000000	n/a	2	-1.383929e-01	-1.383929e-01
247.090700	1.316186	dec_social_low	1.316186	32.000000	n/a	2	-1.705729e-01	-1.705729e-01
247.090700	1.316186	dec_social_accept_low	1.316186	32.000000	n/a	2	-1.705729e-01	-1.705729e-01
254.740970	2.399974	dec_social_choice	2.399974	16.000000	n/a	1	-1.686198e-01	-1.686198e-01
254.740970	2.399974	dec_choice	2.399974	16.000000	n/a	1	-1.705729e-01	-1.705729e-01
254.740970	2.399974	dec_social_accept	2.399974	16.000000	n/a	1	-1.640625e-01	-1.640625e-01
254.740970	2.399974	dec_accept	2.399974	16.000000	n/a	1	-1.383929e-01	-1.383929e-01
254.740970	2.399974	dec_social_accept_low	2.399974	16.000000	n/a	1	-1.705729e-01	-1.705729e-01
261.574860	1.732633	dec_social_choice	1.732633	32.000000	n/a	0	0	-2.311198e-01
261.574860	1.732633	dec_choice	1.732633	32.000000	n/a	0	0	-2.330729e-01
261.574860	1.732633	dec_social_reject	1.732633	32.000000	n/a	0	0	-1.822917e-01
261.574860	1.732633	dec_reject	1.732633	32.000000	n/a	0	0	-2.156250e-01
261.574860	1.732633	dec_social_reject_low	1.732633	32.000000	n/a	2	-1.705729e-01	-2.330729e-01
268.406740	1.733808	dec_nonsocial_choice	1.733808	16.000000	n/a	8	2.688802e-01	2.688802e-01
268.406740	1.733808	dec_choice	1.733808	16.000000	n/a	8	2.708333e-01	2.708333e-01
268.406740	1.733808	dec_nonsocial_accept	1.733808	16.000000	n/a	8	2.734375e-01	2.734375e-01
268.406740	1.733808	dec_accept	1.733808	16.000000	n/a	8	2.571023e-01	2.571023e-01
268.406740	1.733808	dec_nonsocial_high	1.733808	16.000000	n/a	8	2.708333e-01	2.708333e-01
268.406740	1.733808	dec_nonsocial_accept_high	1.733808	16.000000	n/a	8	2.571023e-01	2.571023e-01
275.241120	1.682810	dec_social_choice	1.682810	16.000000	n/a	2	-1.061198e-01	-1.061198e-01
275.241120	1.682810	dec_choice	1.682810	16.000000	n/a	2	-1.080729e-01	-1.080729e-01
275.241120	1.682810	dec_social_accept	1.682810	16.000000	n/a	2	-1.015625e-01	-1.015625e-01
275.241120	1.682810	dec_accept	1.682810	16.000000	n/a	2	-7.589286e-02	-7.589286e-02
275.241120	1.682810	dec_social_accept_low	1.682810	16.000000	n/a	2	-1.080729e-01	-1.080729e-01
282.073700	0.983652	dec_nonsocial_choice	0.983652	16.000000	n/a	2	-1.061198e-01	-1.061198e-01
282.073700	0.983652	dec_choice	0.983652	16.000000	n/a	2	-1.041667e-01	-1.041667e-01
282.073700	0.983652	dec_nonsocial_accept	0.983652	16.000000	n/a	2	-1.015625e-01	-1.015625e-01
282.073700	0.983652	dec_accept	0.983652	16.000000	n/a	2	-1.178977e-01	-1.178977e-01
282.073700	0.983652	dec_nonsocial_low	0.983652	16.000000	n/a	2	-1.041667e-01	-1.041667e-01
282.073700	0.983652	dec_nonsocial_accept_low	0.983652	16.000000	n/a	2	-1.178977e-01	-1.178977e-01
289.724520	1.499316	dec_social_choice	1.499316	16.000000	n/a	0	0	-2.311198e-01
289.724520	1.499316	dec_choice	1.499316	16.000000	n/a	0	0	-2.330729e-01
289.724520	1.499316	dec_social_reject	1.499316	16.000000	n/a	0	0	2.552083e-01
289.724520	1.499316	dec_reject	1.499316	16.000000	n/a	0	0	2.218750e-01
289.724520	1.499316	dec_social_reject_low	1.499316	16.000000	n/a	8	2.669271e-01	-2.330729e-01
297.373170	2.000653	dec_social_choice	2.000653	16.000000	n/a	2	-1.061198e-01	-1.061198e-01
297.373170	2.000653	dec_choice	2.000653	16.000000	n/a	2	-1.080729e-01	-1.080729e-01
297.373170	2.000653	dec_social_accept	2.000653	16.000000	n/a	2	-1.015625e-01	-1.015625e-01
297.373170	2.000653	dec_accept	2.000653	16.000000	n/a	2	-7.589286e-02	-7.589286e-02
297.373170	2.000653	dec_social_accept_low	2.000653	16.000000	n/a	2	-1.080729e-01	-1.080729e-01
306.624450	1.299151	dec_nonsocial_choice	1.299151	32.000000	n/a	8	1.888021e-02	1.888021e-02
306.624450	1.299151	dec_choice	1.299151	32.000000	n/a	8	2.083333e-02	2.083333e-02
306.624450	1.299151	dec_nonsocial_accept	1.299151	32.000000	n/a	8	2.343750e-02	2.343750e-02
306.624450	1.299151	dec_accept	1.299151	32.000000	n/a	8	7.102273e-03	7.102273e-03
306.624450	1.299151	dec_nonsocial_accept_high	1.299151	32.000000	n/a	8	4.910714e-02	4.910714e-02
313.456670	0.916850	dec_nonsocial_choice	0.916850	32.000000	n/a	2	-1.686198e-01	-1.686198e-01
313.456670	0.916850	dec_choice	0.916850	32.000000	n/a	2	-1.666667e-01	-1.666667e-01
313.456670	0.916850	dec_nonsocial_accept	0.916850	32.000000	n/a	2	-1.640625e-01	-1.640625e-01
313.456670	0.916850	dec_accept	0.916850	32.000000	n/a	2	-1.803977e-01	-1.803977e-01
313.456670	0.916850	dec_nonsocial_low	0.916850	32.000000	n/a	2	-1.666667e-01	-1.666667e-01
313.456670	0.916850	dec_nonsocial_accept_low	0.916850	32.000000	n/a	2	-1.803977e-01	-1.803977e-01
320.289760	2.017484	dec_social_choice	2.017484	16.000000	n/a	0	0	-2.311198e-01
320.289760	2.017484	dec_choice	2.017484	16.000000	n/a	0	0	-2.330729e-01
320.289760	2.017484	dec_social_reject	2.017484	16.000000	n/a	0	0	2.552083e-01
320.289760	2.017484	dec_reject	2.017484	16.000000	n/a	0	0	2.218750e-01
320.289760	2.017484	dec_social_low	2.017484	16.000000	n/a	0	-2.330729e-01	-2.330729e-01
320.289760	2.017484	dec_social_reject_low	2.017484	16.000000	n/a	8	2.669271e-01	-2.330729e-01
327.940500	1.316221	dec_nonsocial_choice	1.316221	16.000000	n/a	4	1.888021e-02	1.888021e-02
327.940500	1.316221	dec_choice	1.316221	16.000000	n/a	4	2.083333e-02	2.083333e-02
327.940500	1.316221	dec_nonsocial_accept	1.316221	16.000000	n/a	4	2.343750e-02	2.343750e-02
327.940500	1.316221	dec_accept	1.316221	16.000000	n/a	4	7.102273e-03	7.102273e-03
327.940500	1.316221	dec_nonsocial_high	1.316221	16.000000	n/a	4	2.083333e-02	2.083333e-02
327.940500	1.316221	dec_nonsocial_accept_high	1.316221	16.000000	n/a	4	7.102273e-03	7.102273e-03
334.772920	1.134148	dec_social_choice	1.134148	32.000000	n/a	0	0	-2.311198e-01
334.772920	1.134148	dec_choice	1.134148	32.000000	n/a	0	0	-2.330729e-01
334.772920	1.134148	dec_social_reject	1.134148	32.000000	n/a	0	0	2.552083e-01
334.772920	1.134148	dec_reject	1.134148	32.000000	n/a	0	0	2.218750e-01
334.772920	1.134148	dec_social_reject_low	1.134148	32.000000	n/a	16	2.669271e-01	-2.330729e-01
344.024750	0.965523	dec_nonsocial_choice	0.965523	16.000000	n/a	4	1.888021e-02	1.888021e-02
344.024750	0.965523	dec_choice	0.965523	16.000000	n/a	4	2.083333e-02	2.083333e-02
344.024750	0.965523	dec_nonsocial_accept	0.965523	16.000000	n/a	4	2.343750e-02	2.343750e-02
344.024750	0.965523	dec_accept	0.965523	16.000000	n/a	4	7.102273e-03	7.102273e-03
344.024750	0.965523	dec_nonsocial_accept_high	0.965523	16.000000	n/a	4	4.910714e-02	4.910714e-02
350.857540	2.683035	dec_nonsocial_choice	2.683035	16.000000	n/a	8	2.688802e-01	2.688802e-01
350.857540	2.683035	dec_choice	2.683035	16.000000	n/a	8	2.708333e-01	2.708333e-01
350.857540	2.683035	dec_nonsocial_accept	2.683035	16.000000	n/a	8	2.734375e-01	2.734375e-01
350.857540	2.683035	dec_accept	2.683035	16.000000	n/a	8	2.571023e-01	2.571023e-01
350.857540	2.683035	dec_nonsocial_high	2.683035	16.000000	n/a	8	2.708333e-01	2.708333e-01
350.857540	2.683035	dec_nonsocial_accept_high	2.683035	16.000000	n/a	8	2.571023e-01	2.571023e-01
358.507600	0.799516	dec_nonsocial_choice	0.799516	32.000000	n/a	2	-1.686198e-01	-1.686198e-01
358.507600	0.799516	dec_choice	0.799516	32.000000	n/a	2	-1.666667e-01	-1.666667e-01
358.507600	0.799516	dec_nonsocial_accept	0.799516	32.000000	n/a	2	-1.640625e-01	-1.640625e-01
358.507600	0.799516	dec_accept	0.799516	32.000000	n/a	2	-1.803977e-01	-1.803977e-01
358.507600	0.799516	dec_nonsocial_low	0.799516	32.000000	n/a	2	-1.666667e-01	-1.666667e-01
358.507600	0.799516	dec_nonsocial_accept_low	0.799516	32.000000	n/a	2	-1.803977e-01	-1.803977e-01
365.340330	1.250002	dec_nonsocial_choice	1.250002	16.000000	n/a	2	-1.061198e-01	-1.061198e-01
365.340330	1.250002	dec_choice	1.250002	16.000000	n/a	2	-1.041667e-01	-1.041667e-01
365.340330	1.250002	dec_nonsocial_accept	1.250002	16.000000	n/a	2	-1.015625e-01	-1.015625e-01
365.340330	1.250002	dec_accept	1.250002	16.000000	n/a	2	-1.178977e-01	-1.178977e-01
365.340330	1.250002	dec_nonsocial_low	1.250002	16.000000	n/a	2	-1.041667e-01	-1.041667e-01
365.340330	1.250002	dec_nonsocial_accept_low	1.250002	16.000000	n/a	2	-1.178977e-01	-1.178977e-01
372.990880	1.732700	dec_social_choice	1.732700	16.000000	n/a	0	0	-2.311198e-01
372.990880	1.732700	dec_choice	1.732700	16.000000	n/a	0	0	-2.330729e-01
372.990880	1.732700	dec_social_reject	1.732700	16.000000	n/a	0	0	5.208333e-03
372.990880	1.732700	dec_reject	1.732700	16.000000	n/a	0	0	-2.812500e-02
372.990880	1.732700	dec_social_low	1.732700	16.000000	n/a	0	-2.330729e-01	-2.330729e-01
372.990880	1.732700	dec_social_reject_low	1.732700	16.000000	n/a	4	1.692708e-02	-2.330729e-01
