onset	duration	trial_type	rt	resp	gender	image_left	image_right
0.6288157000672072	3.0019873999990523	decision	1.7829587999731302	right	F	FF017.jpg	FF018.jpg
4.178451900137588	1.000568299787119	loss	n/a	n/a	n/a	FF017.jpg	FF018.jpg
11.128749799914658	3.0011441002134234	decision	1.7833016000222415	left	F	FF035.jpg	FF036.jpg
14.678681300021708	1.0000328999012709	win	n/a	n/a	n/a	FF035.jpg	FF036.jpg
21.628816100070253	3.001274300040677	decision	2.281827999977395	left	F	FF021.jpg	FF022.jpg
25.178625300060958	1.0163743000011891	loss	n/a	n/a	n/a	FF021.jpg	FF022.jpg
32.14508750010282	3.0017482000403106	decision	2.0327621998731047	right	M	MF025.jpg	MF026.jpg
35.69529499998316	1.0164723999332637	loss	n/a	n/a	n/a	MF025.jpg	MF026.jpg
38.46242320002057	3.001508800080046	decision	1.532522999914363	right	M	MF027.jpg	MF028.jpg
42.011487500043586	1.0168208999093622	loss	n/a	n/a	n/a	MF027.jpg	MF028.jpg
44.7784603999462	3.000997700029984	decision	2.282264000037685	left	M	MF023.jpg	MF024.jpg
48.32856660010293	1.0000201999209821	win	n/a	n/a	n/a	MF023.jpg	MF024.jpg
51.07865200005472	3.001589599996805	decision	1.532947100000456	left	F	FF037.jpg	FF038.jpg
54.628577600000426	1.0164801001083106	win	n/a	n/a	n/a	FF037.jpg	FF038.jpg
59.4951947000809	3.001685000024736	decision	1.782799599925056	left	M	MF011.jpg	MF012.jpg
63.04518559994176	1.016267300117761	loss	n/a	n/a	n/a	MF011.jpg	MF012.jpg
67.91156979999505	3.0012781999539584	decision	2.0321919000707567	left	F	FF009.jpg	FF010.jpg
71.4619855999481	1.016372000100091	win	n/a	n/a	n/a	FF009.jpg	FF010.jpg
74.22830089996569	3.0013703000731766	decision	1.5325498001184314	right	F	FF027.jpg	FF028.jpg
77.77815830009058	1.0002880999818444	win	n/a	n/a	n/a	FF027.jpg	FF028.jpg
82.62828850001097	3.0010579999070615	decision	1.532506600022316	left	F	FF015.jpg	FF016.jpg
86.17811550013721	1.0168116998393089	loss	n/a	n/a	n/a	FF015.jpg	FF016.jpg
93.14476529997773	3.000844200141728	decision	1.783379000145942	right	M	MF029.jpg	MF030.jpg
96.69488309998997	1.000022199936211	loss	n/a	n/a	n/a	MF029.jpg	MF030.jpg
101.54511040006764	3.0012999000027776	decision	1.7825718000531197	left	M	MF015.jpg	MF016.jpg
105.09463019995019	1.0001892000436783	win	n/a	n/a	n/a	MF015.jpg	MF016.jpg
112.04462040006183	3.0010611000470817	decision	2.033096799859777	left	M	MF007.jpg	MF008.jpg
115.59505090001039	1.0166440000757575	win	n/a	n/a	n/a	MF007.jpg	MF008.jpg
120.46129589993507	3.001412200042978	decision	1.7825198001228273	right	M	MF017.jpg	MF018.jpg
124.01129800011404	1.000020899809897	win	n/a	n/a	n/a	MF017.jpg	MF018.jpg
126.76181389996782	3.001571699976921	decision	2.03191090002656	right	F	FF033.jpg	FF034.jpg
130.31130659999326	1.0003381001297385	win	n/a	n/a	n/a	FF033.jpg	FF034.jpg
133.06169710005634	3.0011239999439567	decision	2.0320393999572843	left	F	FF007.jpg	FF008.jpg
136.61146080004983	1.000561699969694	loss	n/a	n/a	n/a	FF007.jpg	FF008.jpg
139.36170629994012	3.0019688000902534	decision	2.282851600088179	left	F	FF023.jpg	FF024.jpg
142.91155900014564	1.0166693998035043	loss	n/a	n/a	n/a	FF023.jpg	FF024.jpg
156.17809980013408	3.0016780998557806	decision	1.7824599999003112	right	M	MF009.jpg	MF010.jpg
159.7281454000622	1.0165985999628901	loss	n/a	n/a	n/a	MF009.jpg	MF010.jpg
164.5950064000208	3.0007587000727654	decision	2.032100100070238	right	F	FF001.jpg	FF002.jpg
168.14460489992052	1.0167331001721323	win	n/a	n/a	n/a	FF001.jpg	FF002.jpg
170.91142329992726	3.000886900117621	decision	2.2821098000276834	left	M	MF019.jpg	MF020.jpg
174.4611380000133	1.0000213000457734	loss	n/a	n/a	n/a	MF019.jpg	MF020.jpg
181.41120730014518	3.0018560998141766	decision	2.0324726998806	left	F	FF031.jpg	FF032.jpg
184.96106810006313	1.0002125999890268	loss	n/a	n/a	n/a	FF031.jpg	FF032.jpg
189.81116120005026	3.001381600042805	decision	2.2826737000141293	left	M	MF005.jpg	MF006.jpg
193.3614575001411	1.0165945999324322	win	n/a	n/a	n/a	MF005.jpg	MF006.jpg
196.12812809995376	3.0019199000671506	decision	2.0322511000558734	right	F	FF019.jpg	FF020.jpg
199.67776170000434	1.0002345000393689	win	n/a	n/a	n/a	FF019.jpg	FF020.jpg
206.62782990001142	3.001311300089583	decision	2.534391700057313	right	M	MF013.jpg	MF014.jpg
210.17790160002187	1.0000823999289423	loss	n/a	n/a	n/a	MF013.jpg	MF014.jpg
217.12787319999188	3.001126900082454	decision	2.0324353999458253	left	M	MF031.jpg	MF032.jpg
220.67775420006365	1.0167550998739898	loss	n/a	n/a	n/a	MF031.jpg	MF032.jpg
225.54464550013654	3.000742199830711	decision	1.7830169999506325	left	F	FF039.jpg	FF040.jpg
229.09429859998636	1.0002665999345481	loss	n/a	n/a	n/a	FF039.jpg	FF040.jpg
231.84435139992274	3.001118600135669	decision	1.7841119000222534	left	F	FF005.jpg	FF006.jpg
235.39443200011738	1.016679999884218	loss	n/a	n/a	n/a	FF005.jpg	FF006.jpg
242.36134880012833	3.0011997998226434	decision	1.7823199999984354	right	M	MF037.jpg	MF038.jpg
245.91115669999272	1.0164787000976503	loss	n/a	n/a	n/a	MF037.jpg	MF038.jpg
248.67769289994612	3.0019992000889033	decision	2.2829398000612855	left	M	MF039.jpg	MF040.jpg
252.22755350009538	1.0172323998995125	win	n/a	n/a	n/a	MF039.jpg	MF040.jpg
254.9943290001247	3.0012014999520034	decision	1.7822902000043541	left	M	MF033.jpg	MF034.jpg
258.54416760010645	1.0002900999970734	loss	n/a	n/a	n/a	MF033.jpg	MF034.jpg
261.29470359999686	3.002218300011009	decision	1.7828123001381755	right	F	FF013.jpg	FF014.jpg
264.8441604000982	1.01662899996154	win	n/a	n/a	n/a	FF013.jpg	FF014.jpg
269.7116948000621	3.0019666000735015	decision	1.7819461000617594	left	M	MF001.jpg	MF002.jpg
273.2610629000701	1.0163354999385774	win	n/a	n/a	n/a	MF001.jpg	MF002.jpg
276.02742299996316	3.00067300000228	decision	2.283371400088072	left	F	FF003.jpg	FF004.jpg
279.5774608000647	1.0000312998890877	win	n/a	n/a	n/a	FF003.jpg	FF004.jpg
284.4273821001407	3.0011080999393016	decision	2.2832980998791754	right	M	MF003.jpg	MF004.jpg
287.9775706001092	1.0163975998293608	win	n/a	n/a	n/a	MF003.jpg	MF004.jpg
294.9444347000681	3.0020393000449985	decision	2.2816438998561352	left	F	FF025.jpg	FF026.jpg
298.49397019995376	1.0002739999908954	win	n/a	n/a	n/a	FF025.jpg	FF026.jpg
305.44408220006153	3.0005367000121623	decision	2.2832919999491423	right	M	MF035.jpg	MF036.jpg
308.99424139992334	1.0162818001117557	win	n/a	n/a	n/a	MF035.jpg	MF036.jpg
311.7610394000076	3.033995500067249	decision-missed	n/a	n/a	F	FF011.jpg	FF012.jpg
315.3442756999284	1.0166049001272768	loss	n/a	n/a	n/a	FF011.jpg	FF012.jpg
318.1106847000774	3.0007445998489857	decision	1.7830816998612136	left	M	MF021.jpg	MF022.jpg
321.6605772001203	1.0003208999987692	win	n/a	n/a	n/a	MF021.jpg	MF022.jpg
326.5110033999663	3.0008010000456125	decision	2.032227700110525	left	F	FF029.jpg	FF030.jpg
330.0605230999645	1.0165893000084907	loss	n/a	n/a	n/a	FF029.jpg	FF030.jpg
