TrialNumber,Trial,cLeft,cRight,Partner,Reciprocate,ISI,ITI,ran,order,onset,bpress,resp,resp_onset,highlow,rt,ISIpad,ISI_onset,ISI_offset,outcome_onset,outcome_offset,duration,ITI_onset,ITI_offset
1,1,4,2,1,0,5.000000e-01,8.075000e-01,1.0,0.0,4.023967,999.0,999.0,7.0312343,999.0,0.0,0.0,7.034587,9.273919,999.0,999.0,994.976,11.280463,12.08175
2,2,0,8,1,1,2,2.422500e+00,1.0,1.0,12.087151,1.0,0,13.682311,low,1.5951601,1.4048399,14.20133,18.838863,18.838976,20.840446,8.753295,20.840822,23.260073
3,3,2,0,2,0,5.000000e-01,8.075000e-01,1.0,2.0,23.384106,2.0,0,25.649164,low,2.2650588,0.7349413,26.16813,28.634848,28.634966,30.636583,7.2524776,30.636961,31.44292
4,4,0,8,3,1,2,5.652500e+00,1.0,3.0,31.465322,2.0,8,33.699036,high,2.2337108,0.7662893,34.219074,38.21652,38.219,40.22081,8.755486,40.22118,45.86893
5,5,4,2,3,0,5.000000e-01,8.075000e-01,1.0,4.0,45.880417,1.0,4,47.69914,high,1.8187215,1.1812785,48.218124,51.13138,51.133865,53.13594,7.2555237,53.13632,53.938595
6,6,8,4,3,0,2,4.037500e+00,1.0,5.0,53.950493,1.0,8,55.898476,high,1.9479818,1.0520182,56.419197,60.702053,60.702446,62.704918,8.754424,62.705296,66.7386
7,7,8,0,2,0,5.000000e-01,2.422500e+00,1.0,6.0,66.8574,2.0,0,68.89836,low,2.0409627,0.9590373,69.41903,72.107506,72.10762,74.108986,7.251585,74.10937,76.52968
8,8,2,4,2,1,2,2.422500e+00,1.0,7.0,76.64712,1.0,2,78.43174,low,1.7846233,1.2153767,78.95125,83.39791,83.39978,85.40197,8.754849,85.40234,87.81996
9,9,8,4,2,0,2,7.267500e+00,1.0,8.0,87.93903,2.0,4,90.04899,low,2.109953,0.8900471,90.56813,94.68991,94.69182,96.693924,8.754892,96.694305,103.95663
10,10,8,2,2,0,2,2.422500e+00,1.0,9.0,104.07448,2.0,2,105.89898,low,1.824504,1.175496,106.41808,110.8256,110.826,112.828186,8.753714,112.82858,115.24797
11,11,4,8,1,0,2,2.422500e+00,1.0,10.0,115.25337,1.0,4,117.84926,low,2.5958867,0.4041132,118.36738,122.00396,122.00591,124.00884,8.755472,124.009224,126.42695
12,12,0,4,1,0,5.000000e-01,8.075000e-01,1.0,11.0,126.431725,1.0,0,128.16476,low,1.7330334,1.2669666,128.68507,131.68188,131.68199,133.68399,7.2522607,133.68437,134.48994
13,13,0,2,1,0,5.000000e-01,8.075000e-01,1.0,12.0,134.49315,1.0,0,136.19809,low,1.7049401,1.2950599,136.71808,139.74315,139.74327,141.74512,7.2519717,141.7455,142.55095
14,14,2,4,1,1,5.000000e-01,8.075000e-01,1.0,13.0,142.55528,1.0,2,144.14879,low,1.5935105,1.4064895,144.66708,147.8058,147.80798,149.81,7.2547116,149.81036,150.6127
15,15,4,0,2,0,2,2.422500e+00,1.0,14.0,150.73064,2.0,0,152.44852,low,1.7178849,1.2821151,152.96707,157.48094,157.48106,159.48294,8.752315,159.48332,161.90398
16,16,0,2,1,1,5.000000e-01,2.422500e+00,1.0,15.0,161.90932,1.0,0,163.64886,low,1.7395554,1.2604446,164.16711,167.16008,167.1602,169.16188,7.2525706,169.16226,171.58202
17,17,8,0,2,1,2,8.075000e-01,1.0,16.0,171.69904,2.0,0,173.4652,low,1.7661662,1.2338338,173.98508,178.44992,178.45004,180.45197,8.752931,180.45235,181.2581
18,18,8,2,3,1,5.000000e-01,8.075000e-01,1.0,17.0,181.26926,1.0,8,183.1985,high,1.929255,1.070745,183.71712,186.51996,186.52167,188.52362,7.2543693,188.52399,189.32715
19,19,0,2,2,1,3.500000e+00,8.075000e-01,1.0,18.0,189.44208,1.0,0,191.29868,low,1.8565892,1.1434108,191.81924,197.69197,197.6921,199.69397,10.251879,199.69434,200.49962
20,20,8,2,3,1,5.000000e-01,8.075000e-01,1.0,19.0,200.51065,1.0,8,202.19818,high,1.6875294,1.3124706,202.7181,205.76186,205.76225,207.7645,7.2538466,207.76491,208.56804
21,21,0,8,1,0,2,5.652500e+00,1.0,20.0,208.57368,1.0,0,210.2815,low,1.7078173,1.2921827,210.80112,215.32463,215.32475,217.32611,8.752434,217.32649,222.97685
22,22,8,2,3,0,5.000000e-01,4.037500e+00,1.0,21.0,222.98921,1.0,8,224.73145,high,1.7422342,1.2577658,225.25023,228.23994,228.24173,230.24406,7.25485,230.24443,234.27696
23,23,0,4,3,1,5.000000e-01,8.882500e+00,1.0,22.0,234.28838,2.0,4,236.33124,high,2.0428617,0.9571384,236.8511,239.5394,239.54115,241.54297,7.2545943,241.54335,250.42195
24,24,4,2,3,1,5.000000e-01,8.075000e-01,1.0,23.0,250.43343,1.0,4,252.16528,high,1.7318639,1.2681361,252.68527,255.68388,255.68428,257.68686,7.2534466,257.68726,258.49228
25,25,0,4,3,0,5.000000e-01,2.422500e+00,1.0,24.0,258.50385,2.0,4,260.3319,high,1.8280629,1.1719371,260.85077,263.75497,263.75677,265.75928,7.255437,265.75964,268.17697
26,26,8,4,2,1,5.000000e-01,4.037500e+00,1.0,25.0,268.29178,1.0,8,270.11514,high,1.8233571,1.1766429,270.63318,273.5429,273.54477,275.54654,7.2547626,275.5469,279.579
27,27,0,2,3,1,3.500000e+00,8.075000e-01,1.0,26.0,279.5915,2.0,2,281.53116,high,1.9396718,1.0603282,282.05084,287.84274,287.8445,289.84793,10.256466,289.84833,290.6497
28,28,2,8,3,0,5.000000e-01,8.075000e-01,1.0,27.0,290.66132,2.0,8,292.28177,high,1.6204509,1.3795491,292.80096,295.912,295.91373,297.917,7.255682,297.9174,298.7187
29,29,4,8,1,1,2,8.075000e-01,1.0,28.0,298.72302,2.0,8,300.44812,high,1.7250896,1.2749104,300.9675,305.47397,305.47595,307.47864,8.755606,307.479,308.28094
30,30,2,0,3,0,5.000000e-01,8.075000e-01,1.0,29.0,308.29318,1.0,2,309.9809,high,1.6876875,1.3123125,310.50027,313.54376,313.5455,315.54898,7.2557845,315.54935,316.35065
31,31,8,2,1,0,5.000000e-01,8.075000e-01,1.0,30.0,316.3561,1.0,8,318.24805,high,1.8919123,1.1080877,318.7676,321.60666,321.60855,323.6113,7.255168,323.61166,324.4138
32,32,8,2,2,0,2,8.075000e-01,1.0,31.0,324.52658,1.0,8,326.24835,high,1.7217551,1.2782449,326.76718,331.27765,331.27942,333.2826,8.756006,333.283,334.08496
33,33,8,2,2,1,5.000000e-01,8.075000e-01,1.0,32.0,334.1999,2.0,2,336.41507,low,2.2151842,0.7848159,336.93484,339.45084,339.45285,341.45596,7.2560782,341.45636,342.25784
34,34,4,8,3,1,2,2.422500e+00,1.0,33.0,342.27008,2.0,8,344.2145,high,1.9444431,1.0555569,344.73505,349.021,349.0227,351.02698,8.756891,351.02734,353.44263
35,35,4,0,2,1,5.000000e-01,4.037500e+00,1.0,34.0,353.55658,2.0,0,355.26495,low,1.70835,1.29165,355.7841,358.80597,358.8061,360.80792,7.251316,360.8083,364.8446
36,36,0,8,3,0,5.000000e-01,2.422500e+00,1.0,35.0,364.85706,2.0,8,366.74762,high,1.8905596,1.1094404,367.26807,370.108,370.10977,372.11163,7.2545905,372.11203,374.52914
37,37,2,8,1,1,5.000000e-01,2.422500e+00,1.0,36.0,374.53326,1.0,2,376.8978,low,2.3645184,0.6354816,377.4181,379.7836,379.78555,381.7879,7.254627,381.7883,384.20636
38,38,4,0,1,1,2,8.075000e-01,1.0,37.0,384.21088,2.0,0,385.88138,low,1.670497,1.329503,386.40112,390.96198,390.9621,392.964,8.75311,392.96436,393.76898
39,39,2,8,1,1,3.500000e+00,4.037500e+00,1.0,38.0,393.7733,1.0,2,395.69815,low,1.9248563,1.0751437,396.2179,402.024,402.02435,404.02664,10.253354,404.02704,408.06113
40,40,4,2,2,0,5.000000e-01,8.075000e-01,1.0,39.0,408.17563,2.0,2,409.93124,low,1.7556376,1.2443624,410.45105,413.42606,413.42798,415.43097,7.2553406,415.43134,416.2337
41,41,2,8,1,0,3.500000e+00,7.267500e+00,1.0,40.0,416.239,1.0,2,418.13107,low,1.8920583,1.1079417,418.65048,424.49,424.49188,426.49365,10.254636,426.49402,433.75714
42,42,8,2,2,1,2,8.075000e-01,1.0,41.0,433.87534,2.0,2,435.7812,low,1.905871,1.094129,436.3002,440.62598,440.62805,442.63004,8.754689,442.6304,443.43365
