TrialNumber,Trial,cLeft,cRight,Partner,Reciprocate,ISI,ITI,ran,order,onset,bpress,resp,resp_onset,highlow,rt,ISIpad,ISI_onset,ISI_offset,outcome_onset,outcome_offset,duration,ITI_onset,ITI_offset
1,1,2,0,1,1,5.000000e-01,8.075000e-01,1.0,0.0,4.021411,2.0,0,6.001291,low,1.9798799,1.0201201,6.5211897,9.271815,9.271966,11.273905,7.2524943,11.274356,12.07857
2,2,0,2,3,1,2,8.075000e-01,1.0,1.0,12.101543,2.0,2,14.034776,high,1.9332324,1.0667676,14.554413,18.851892,18.854565,20.85689,8.755346,20.857264,21.659607
3,3,0,2,3,0,5.000000e-01,5.652500e+00,1.0,2.0,21.669369,2.0,2,23.367695,high,1.6983265,1.3016735,23.888834,26.919788,26.922012,28.92479,7.255421,28.925165,34.572903
4,4,2,4,2,1,5.000000e-01,4.037500e+00,1.0,3.0,34.70174,1.0,2,36.450596,low,1.7488555,1.2511445,36.97098,39.952988,39.955048,41.95803,7.2562904,41.958405,45.98976
5,5,2,0,2,0,5.000000e-01,8.075000e-01,1.0,4.0,46.106777,2.0,0,47.784626,low,1.67785,1.32215,48.304,51.35727,51.357388,53.358948,7.2521725,53.359325,54.16504
6,6,4,0,3,1,5.000000e-01,4.037500e+00,1.0,5.0,54.176285,1.0,4,55.801132,high,1.624848,1.375152,56.31992,59.42798,59.429684,61.432056,7.2557745,61.432426,65.4639
7,7,8,2,2,1,2,8.075000e-01,1.0,6.0,65.581375,2.0,2,67.33474,low,1.7533606,1.2466394,67.85448,72.3319,72.33377,74.33557,8.754195,74.335945,75.13955
8,8,2,8,2,0,2,8.075000e-01,1.0,7.0,75.25626,2.0,8,77.46834,high,2.212077,0.7879231,77.987976,82.00757,82.00929,84.01105,8.754787,84.01142,84.81368
9,9,2,8,1,0,2,8.075000e-01,1.0,8.0,84.816666,1.0,2,86.600746,low,1.784079,1.215921,87.12117,91.56792,91.569885,93.57165,8.754984,93.57202,94.37598
10,10,2,0,1,0,5.000000e-01,8.075000e-01,1.0,9.0,94.379105,2.0,0,95.90116,low,1.5220602,1.4779398,96.421165,99.629906,99.63002,101.630844,7.2517385,101.63122,102.437805
11,11,0,8,1,0,5.000000e-01,8.075000e-01,1.0,10.0,102.442184,1.0,0,104.784546,low,2.3423617,0.6576382,105.30398,107.69206,107.69218,109.69401,7.2518263,109.69439,110.49993
12,12,0,8,1,1,2,4.037500e+00,1.0,11.0,110.5018,1.0,0,112.15104,low,1.6492364,1.3507636,112.67047,117.25289,117.25301,119.254906,8.753107,119.25529,123.28957
13,13,0,4,2,0,2,2.422500e+00,1.0,12.0,123.40608,1.0,0,125.30054,low,1.8944527,1.1055473,125.82087,130.1559,130.15602,132.1579,8.751815,132.15826,134.57892
14,14,0,8,3,0,2,8.882500e+00,1.0,13.0,134.59006,2.0,8,136.43372,high,1.8436503,1.1563497,136.954,141.34036,141.34244,143.344,8.75394,143.34439,152.2229
15,15,8,4,3,0,5.000000e-01,2.422500e+00,1.0,14.0,152.23434,1.0,8,154.51785,high,2.2835047,0.7164953,155.03658,157.48454,157.48494,159.487,7.252654,159.48737,161.9066
16,16,8,4,1,0,5.000000e-01,8.075000e-01,1.0,15.0,161.90942,1.0,8,164.40135,high,2.491921,0.5080791,164.92001,167.16098,167.16287,169.16496,7.255525,169.16533,169.9666
17,17,2,4,2,0,3.500000e+00,4.037500e+00,1.0,16.0,170.08357,1.0,2,171.81712,low,1.7335511,1.2664489,172.33699,178.3349,178.33661,180.33994,10.256368,180.3403,184.37192
18,18,4,8,2,1,3.500000e+00,2.422500e+00,1.0,17.0,184.48988,1.0,4,186.4338,low,1.9439261,1.0560739,186.954,192.74092,192.74278,194.74442,10.254525,194.74478,197.16293
19,19,2,8,1,0,5.000000e-01,2.422500e+00,1.0,18.0,197.16705,1.0,2,199.21739,low,2.0503347,0.9496652,199.73698,202.41763,202.41951,204.4219,7.2548556,204.42229,206.84093
20,20,2,8,3,1,5.000000e-01,5.652500e+00,1.0,19.0,206.85074,2.0,8,208.51752,high,1.666766,1.333234,209.0372,212.10172,212.10345,214.10562,7.2548766,214.10599,219.75407
21,21,4,0,3,0,5.000000e-01,8.075000e-01,1.0,20.0,219.76553,1.0,4,222.4339,high,2.6683638,0.3316363,222.95306,225.01617,225.01796,227.01979,7.2542663,227.02017,227.82394
22,22,2,8,2,0,5.000000e-01,2.422500e+00,1.0,21.0,227.9395,1.0,2,229.50078,low,1.5612901,1.4387099,230.02115,233.18999,233.1917,235.19394,7.2544374,235.1943,237.61282
23,23,8,2,3,1,2,2.422500e+00,1.0,22.0,237.62527,1.0,8,239.23427,high,1.609,1.391,239.75478,244.3756,244.3773,246.37906,8.753787,246.37944,248.79776
24,24,0,8,3,1,2,8.075000e-01,1.0,23.0,248.80975,2.0,8,250.58443,high,1.7746783,1.2253217,251.10399,255.56094,255.56133,257.56335,8.753608,257.56372,258.36688
25,25,0,4,1,0,2,8.075000e-01,1.0,24.0,258.371,1.0,0,260.1511,low,1.7800874,1.2199126,260.67035,265.12192,265.12204,267.12366,8.752657,267.12402,267.92926
26,26,4,0,1,1,5.000000e-01,8.075000e-01,1.0,25.0,267.93362,2.0,0,269.91754,low,1.9839085,1.0160915,270.43723,273.18494,273.18503,275.18658,7.25295,275.18698,275.99292
27,27,8,2,2,1,2,4.037500e+00,1.0,26.0,276.1098,2.0,2,277.96756,low,1.8577659,1.1422341,278.48608,282.8606,282.86252,284.86404,8.754255,284.86444,288.89862
28,28,0,4,2,1,5.000000e-01,7.267500e+00,1.0,27.0,289.01614,1.0,0,290.88412,low,1.8679854,1.1320146,291.40372,294.26572,294.26584,296.26794,7.251796,296.2683,303.5336
29,29,8,2,3,0,5.000000e-01,2.422500e+00,1.0,28.0,303.5459,1.0,8,305.63376,high,2.0878701,0.9121298,306.15463,308.7966,308.79877,310.80096,7.255058,310.80133,313.21893
30,30,8,2,1,1,3.500000e+00,8.075000e-01,1.0,29.0,313.22186,2.0,2,315.26733,low,2.045468,0.954532,315.78702,321.4728,321.47482,323.47705,10.255173,323.47742,324.27954
31,31,2,0,2,1,5.000000e-01,2.422500e+00,1.0,30.0,324.3972,1.0,2,326.7509,high,2.3536892,0.6463107,327.27115,329.64795,329.6498,331.65195,7.254755,331.6523,334.07095
32,32,2,4,3,0,5.000000e-01,7.267500e+00,1.0,31.0,334.08212,2.0,4,336.08423,high,2.0020874,0.9979127,336.60394,339.33298,339.33475,341.33694,7.2547965,341.3373,348.59988
33,33,2,4,1,0,5.000000e-01,8.075000e-01,1.0,32.0,348.6029,1.0,2,350.56677,low,1.9638675,1.0361325,351.08737,353.85397,353.8559,355.85788,7.2549834,355.85825,356.66092
34,34,4,8,2,0,5.000000e-01,2.422500e+00,1.0,33.0,356.77594,1.0,4,358.7339,low,1.95797,1.04203,359.25327,362.02744,362.0291,364.03094,7.2550116,364.0313,366.4486
35,35,2,4,1,1,5.000000e-01,2.422500e+00,1.0,34.0,366.45383,1.0,2,368.93402,low,2.4801922,0.5198078,369.45398,371.70502,371.70697,373.7087,7.254879,373.70908,376.12637
36,36,0,8,2,0,3.500000e+00,2.422500e+00,1.0,35.0,376.24582,1.0,0,378.1336,low,1.8877962,1.1122038,378.6539,384.49686,384.49698,386.49893,10.253128,386.4993,388.9188
37,37,4,8,3,1,2,8.075000e-01,1.0,36.0,388.93024,2.0,8,391.00095,high,2.0706937,0.9293063,391.52008,395.68082,395.68256,397.68503,8.754794,397.68542,398.48795
38,38,4,8,1,1,2,8.075000e-01,1.0,37.0,398.49106,1.0,4,400.2173,low,1.7262094,1.2737906,400.73602,405.2407,405.24265,407.24414,8.753066,407.2445,408.04895
39,39,8,2,1,1,2,8.075000e-01,1.0,38.0,408.05325,2.0,2,410.31677,low,2.2635214,0.7364785,410.8364,414.8041,414.80453,416.80698,8.7537,416.80734,417.61148
40,40,2,4,3,1,5.000000e-01,8.075000e-01,1.0,39.0,417.62372,2.0,4,419.5507,high,1.9269544,1.0730456,420.06918,422.87357,422.87527,424.87704,7.253335,424.8774,425.6819
41,41,8,2,3,0,2,8.075000e-01,1.0,40.0,425.69333,1.0,8,427.4502,high,1.7568893,1.2431107,427.97003,432.4444,432.44614,434.44797,8.754644,434.44833,435.25073
42,42,8,0,2,1,5.000000e-01,8.075000e-01,1.0,41.0,435.37305,999.0,999,438.38376,999,0.0,0.0,438.3869,440.62384,999.0,999.0,563.62695,442.6289,443.43213
