onset	duration	trial_type	response_time	Endowment	Endowment_pmod	Decision	Decision_pmod	Offer_pmod
4.555163	2	cue_social	n/a	32	7	n/a	n/a	n/a
4.555163	2	cue_social_high	n/a	32	13	n/a	n/a	n/a
11.348709	2	cue_nonsocial	n/a	16	-3	n/a	n/a	n/a
11.348709	2	cue_nonsocial_low	n/a	16	-9	n/a	n/a	n/a
18.182426	2	cue_nonsocial	n/a	16	-3	n/a	n/a	n/a
18.182426	2	cue_nonsocial_low	n/a	16	-9	n/a	n/a	n/a
25.872623	2	cue_social	n/a	16	-9	n/a	n/a	n/a
25.872623	2	cue_social_low	n/a	16	-3	n/a	n/a	n/a
32.710014	2	cue_social	n/a	16	-9	n/a	n/a	n/a
32.710014	2	cue_social_low	n/a	16	-3	n/a	n/a	n/a
41.915325	2	cue_nonsocial	n/a	32	13	n/a	n/a	n/a
41.915325	2	cue_nonsocial_high	n/a	32	7	n/a	n/a	n/a
49.550587	2	cue_nonsocial	n/a	16	-3	n/a	n/a	n/a
49.550587	2	cue_nonsocial_low	n/a	16	-9	n/a	n/a	n/a
56.457220	2	cue_social	n/a	16	-9	n/a	n/a	n/a
56.457220	2	cue_social_low	n/a	16	-3	n/a	n/a	n/a
63.215220	2	cue_nonsocial	n/a	16	-3	n/a	n/a	n/a
63.215220	2	cue_nonsocial_low	n/a	16	-9	n/a	n/a	n/a
70.104230	2	cue_social	n/a	16	-9	n/a	n/a	n/a
70.104230	2	cue_social_low	n/a	16	-3	n/a	n/a	n/a
76.937390	2	cue_social	n/a	32	7	n/a	n/a	n/a
76.937390	2	cue_social_high	n/a	32	13	n/a	n/a	n/a
83.804504	2	cue_social	n/a	16	-9	n/a	n/a	n/a
83.804504	2	cue_social_low	n/a	16	-3	n/a	n/a	n/a
94.581830	2	cue_nonsocial	n/a	16	-3	n/a	n/a	n/a
94.581830	2	cue_nonsocial_low	n/a	16	-9	n/a	n/a	n/a
102.231804	2	cue_nonsocial	n/a	16	-3	n/a	n/a	n/a
102.231804	2	cue_nonsocial_low	n/a	16	-9	n/a	n/a	n/a
109.933120	2	cue_social	n/a	32	7	n/a	n/a	n/a
109.933120	2	cue_social_high	n/a	32	13	n/a	n/a	n/a
116.775610	2	cue_social	n/a	32	7	n/a	n/a	n/a
116.775610	2	cue_social_high	n/a	32	13	n/a	n/a	n/a
124.436250	2	cue_social	n/a	32	7	n/a	n/a	n/a
124.436250	2	cue_social_high	n/a	32	13	n/a	n/a	n/a
131.199020	2	cue_nonsocial	n/a	16	-3	n/a	n/a	n/a
131.199020	2	cue_nonsocial_low	n/a	16	-9	n/a	n/a	n/a
138.032120	2	cue_nonsocial	n/a	32	13	n/a	n/a	n/a
138.032120	2	cue_nonsocial_high	n/a	32	7	n/a	n/a	n/a
150.514970	2	cue_nonsocial	n/a	16	-3	n/a	n/a	n/a
150.514970	2	cue_nonsocial_low	n/a	16	-9	n/a	n/a	n/a
157.407230	2	cue_social	n/a	16	-9	n/a	n/a	n/a
157.407230	2	cue_social_low	n/a	16	-3	n/a	n/a	n/a
164.181700	2	cue_nonsocial	n/a	16	-3	n/a	n/a	n/a
164.181700	2	cue_nonsocial_low	n/a	16	-9	n/a	n/a	n/a
173.431560	2	cue_nonsocial	n/a	16	-3	n/a	n/a	n/a
173.431560	2	cue_nonsocial_low	n/a	16	-9	n/a	n/a	n/a
180.329650	2	cue_social	n/a	32	7	n/a	n/a	n/a
180.329650	2	cue_social_high	n/a	32	13	n/a	n/a	n/a
187.098270	2	cue_nonsocial	n/a	16	-3	n/a	n/a	n/a
187.098270	2	cue_nonsocial_low	n/a	16	-9	n/a	n/a	n/a
193.931340	2	cue_nonsocial	n/a	32	13	n/a	n/a	n/a
193.931340	2	cue_nonsocial_high	n/a	32	7	n/a	n/a	n/a
203.198170	2	cue_nonsocial	n/a	16	-3	n/a	n/a	n/a
203.198170	2	cue_nonsocial_low	n/a	16	-9	n/a	n/a	n/a
212.448350	2	cue_nonsocial	n/a	32	13	n/a	n/a	n/a
212.448350	2	cue_nonsocial_high	n/a	32	7	n/a	n/a	n/a
219.281560	2	cue_nonsocial	n/a	16	-3	n/a	n/a	n/a
219.281560	2	cue_nonsocial_low	n/a	16	-9	n/a	n/a	n/a
226.993930	2	cue_social	n/a	16	-9	n/a	n/a	n/a
226.993930	2	cue_social_low	n/a	16	-3	n/a	n/a	n/a
233.764820	2	cue_nonsocial	n/a	16	-3	n/a	n/a	n/a
233.764820	2	cue_nonsocial_low	n/a	16	-9	n/a	n/a	n/a
241.491780	2	cue_social	n/a	32	7	n/a	n/a	n/a
241.491780	2	cue_social_high	n/a	32	13	n/a	n/a	n/a
248.310150	2	cue_social	n/a	32	7	n/a	n/a	n/a
248.310150	2	cue_social_high	n/a	32	13	n/a	n/a	n/a
255.081300	2	cue_nonsocial	n/a	16	-3	n/a	n/a	n/a
255.081300	2	cue_nonsocial_low	n/a	16	-9	n/a	n/a	n/a
264.331600	2	cue_nonsocial	n/a	16	-3	n/a	n/a	n/a
264.331600	2	cue_nonsocial_low	n/a	16	-9	n/a	n/a	n/a
272.033200	2	cue_social	n/a	32	7	n/a	n/a	n/a
272.033200	2	cue_social_high	n/a	32	13	n/a	n/a	n/a
278.870060	2	cue_social	n/a	32	7	n/a	n/a	n/a
278.870060	2	cue_social_high	n/a	32	13	n/a	n/a	n/a
288.127000	2	cue_social	n/a	32	7	n/a	n/a	n/a
288.127000	2	cue_social_high	n/a	32	13	n/a	n/a	n/a
295.791900	2	cue_social	n/a	16	-9	n/a	n/a	n/a
295.791900	2	cue_social_low	n/a	16	-3	n/a	n/a	n/a
303.455300	2	cue_social	n/a	16	-9	n/a	n/a	n/a
303.455300	2	cue_social_low	n/a	16	-3	n/a	n/a	n/a
310.981300	2	cue_nonsocial	n/a	32	13	n/a	n/a	n/a
310.981300	2	cue_nonsocial_high	n/a	32	7	n/a	n/a	n/a
317.883060	2	cue_social	n/a	32	7	n/a	n/a	n/a
317.883060	2	cue_social_high	n/a	32	13	n/a	n/a	n/a
328.681200	2	cue_nonsocial	n/a	16	-3	n/a	n/a	n/a
328.681200	2	cue_nonsocial_low	n/a	16	-9	n/a	n/a	n/a
339.658500	2	cue_social	n/a	32	7	n/a	n/a	n/a
339.658500	2	cue_social_high	n/a	32	13	n/a	n/a	n/a
348.863560	2	cue_social	n/a	32	7	n/a	n/a	n/a
348.863560	2	cue_social_high	n/a	32	13	n/a	n/a	n/a
356.448180	2	cue_nonsocial	n/a	16	-3	n/a	n/a	n/a
356.448180	2	cue_nonsocial_low	n/a	16	-9	n/a	n/a	n/a
364.097780	2	cue_nonsocial	n/a	16	-3	n/a	n/a	n/a
364.097780	2	cue_nonsocial_low	n/a	16	-9	n/a	n/a	n/a
371.046020	2	cue_social	n/a	16	-9	n/a	n/a	n/a
371.046020	2	cue_social_low	n/a	16	-3	n/a	n/a	n/a
6.523087	1.248800	dec_social_choice	1.248800	32.000000	n/a	16	2.682292e-01	2.682292e-01
6.523087	1.248800	dec_choice	1.248800	32.000000	n/a	16	2.682292e-01	2.682292e-01
6.523087	1.248800	dec_social_accept	1.248800	32.000000	n/a	16	1.221591e-01	1.221591e-01
6.523087	1.248800	dec_accept	1.248800	32.000000	n/a	16	1.306818e-01	1.306818e-01
6.523087	1.248800	dec_social_high	1.248800	32.000000	n/a	16	2.682292e-01	2.682292e-01
6.523087	1.248800	dec_social_accept_high	1.248800	32.000000	n/a	16	2.682292e-01	2.682292e-01
13.356181	1.582313	dec_nonsocial_choice	1.582313	16.000000	n/a	4	1.822917e-02	1.822917e-02
13.356181	1.582313	dec_choice	1.582313	16.000000	n/a	4	1.822917e-02	1.822917e-02
13.356181	1.582313	dec_nonsocial_accept	1.582313	16.000000	n/a	4	-1.278409e-01	-1.278409e-01
13.356181	1.582313	dec_accept	1.582313	16.000000	n/a	4	-1.363636e-01	-1.363636e-01
13.356181	1.582313	dec_nonsocial_high	1.582313	16.000000	n/a	4	1.822917e-02	1.822917e-02
13.356181	1.582313	dec_nonsocial_accept_high	1.582313	16.000000	n/a	4	-1.363636e-01	-1.363636e-01
20.188646	1.333219	dec_nonsocial_choice	1.333219	16.000000	n/a	0	0	-2.317708e-01
20.188646	1.333219	dec_choice	1.333219	16.000000	n/a	0	0	-2.317708e-01
20.188646	1.333219	dec_nonsocial_reject	1.333219	16.000000	n/a	0	0	1.682692e-02
20.188646	1.333219	dec_reject	1.333219	16.000000	n/a	0	0	2.403846e-02
20.188646	1.333219	dec_nonsocial_reject_low	1.333219	16.000000	n/a	2	9.615385e-03	-1.153846e-01
27.837889	0.984031	dec_social_choice	0.984031	16.000000	n/a	0	0	-2.317708e-01
27.837889	0.984031	dec_choice	0.984031	16.000000	n/a	0	0	-2.317708e-01
27.837889	0.984031	dec_social_reject	0.984031	16.000000	n/a	0	0	1.682692e-02
27.837889	0.984031	dec_reject	0.984031	16.000000	n/a	0	0	9.615385e-03
27.837889	0.984031	dec_social_low	0.984031	16.000000	n/a	0	-2.317708e-01	-2.317708e-01
27.837889	0.984031	dec_social_reject_low	0.984031	16.000000	n/a	2	-1.067708e-01	-2.317708e-01
34.672040	0.849393	dec_social_choice	0.849393	16.000000	n/a	0	0	-2.317708e-01
34.672040	0.849393	dec_choice	0.849393	16.000000	n/a	0	0	-2.317708e-01
34.672040	0.849393	dec_social_reject	0.849393	16.000000	n/a	0	0	1.682692e-02
34.672040	0.849393	dec_reject	0.849393	16.000000	n/a	0	0	9.615385e-03
34.672040	0.849393	dec_social_low	0.849393	16.000000	n/a	0	-2.317708e-01	-2.317708e-01
34.672040	0.849393	dec_social_reject_low	0.849393	16.000000	n/a	2	-1.067708e-01	-2.317708e-01
43.921097	0.917025	dec_nonsocial_choice	0.917025	32.000000	n/a	0	0	-2.317708e-01
43.921097	0.917025	dec_choice	0.917025	32.000000	n/a	0	0	-2.317708e-01
43.921097	0.917025	dec_nonsocial_reject	0.917025	32.000000	n/a	0	0	-1.442308e-02
43.921097	0.917025	dec_reject	0.917025	32.000000	n/a	0	0	-7.211538e-03
43.921097	0.917025	dec_nonsocial_low	0.917025	32.000000	n/a	0	-2.317708e-01	-2.317708e-01
43.921097	0.917025	dec_nonsocial_reject_low	0.917025	32.000000	n/a	3	-7.211538e-03	-1.009615e-01
51.554863	0.783872	dec_nonsocial_choice	0.783872	16.000000	n/a	8	2.682292e-01	2.682292e-01
51.554863	0.783872	dec_choice	0.783872	16.000000	n/a	8	2.682292e-01	2.682292e-01
51.554863	0.783872	dec_nonsocial_accept	0.783872	16.000000	n/a	8	1.221591e-01	1.221591e-01
51.554863	0.783872	dec_accept	0.783872	16.000000	n/a	8	1.136364e-01	1.136364e-01
51.554863	0.783872	dec_nonsocial_accept_high	0.783872	16.000000	n/a	8	1.306818e-01	1.306818e-01
58.388317	1.250287	dec_social_choice	1.250287	16.000000	n/a	4	1.822917e-02	1.822917e-02
58.388317	1.250287	dec_choice	1.250287	16.000000	n/a	4	1.822917e-02	1.822917e-02
58.388317	1.250287	dec_social_accept	1.250287	16.000000	n/a	4	-1.278409e-01	-1.278409e-01
58.388317	1.250287	dec_accept	1.250287	16.000000	n/a	4	-1.193182e-01	-1.193182e-01
58.388317	1.250287	dec_social_accept_high	1.250287	16.000000	n/a	4	1.822917e-02	1.822917e-02
65.221340	0.633899	dec_nonsocial_choice	0.633899	16.000000	n/a	0	0	-2.317708e-01
65.221340	0.633899	dec_choice	0.633899	16.000000	n/a	0	0	-2.317708e-01
65.221340	0.633899	dec_nonsocial_reject	0.633899	16.000000	n/a	0	0	1.682692e-02
65.221340	0.633899	dec_reject	0.633899	16.000000	n/a	0	0	2.403846e-02
65.221340	0.633899	dec_nonsocial_low	0.633899	16.000000	n/a	0	-2.317708e-01	-2.317708e-01
65.221340	0.633899	dec_nonsocial_reject_low	0.633899	16.000000	n/a	2	2.403846e-02	-1.009615e-01
72.056210	1.482281	dec_social_choice	1.482281	16.000000	n/a	0	0	-2.317708e-01
72.056210	1.482281	dec_choice	1.482281	16.000000	n/a	0	0	-2.317708e-01
72.056210	1.482281	dec_social_reject	1.482281	16.000000	n/a	0	0	-4.567308e-02
72.056210	1.482281	dec_reject	1.482281	16.000000	n/a	0	0	-5.288462e-02
72.056210	1.482281	dec_social_reject_low	1.482281	16.000000	n/a	1	-1.692708e-01	-2.317708e-01
78.889260	2.165402	dec_social_choice	2.165402	32.000000	n/a	8	1.822917e-02	1.822917e-02
78.889260	2.165402	dec_choice	2.165402	32.000000	n/a	8	1.822917e-02	1.822917e-02
78.889260	2.165402	dec_social_accept	2.165402	32.000000	n/a	8	-1.278409e-01	-1.278409e-01
78.889260	2.165402	dec_accept	2.165402	32.000000	n/a	8	-1.193182e-01	-1.193182e-01
78.889260	2.165402	dec_social_high	2.165402	32.000000	n/a	8	1.822917e-02	1.822917e-02
78.889260	2.165402	dec_social_accept_high	2.165402	32.000000	n/a	8	1.822917e-02	1.822917e-02
85.721210	0.883930	dec_social_choice	0.883930	16.000000	n/a	1	-1.692708e-01	-1.692708e-01
85.721210	0.883930	dec_choice	0.883930	16.000000	n/a	1	-1.692708e-01	-1.692708e-01
85.721210	0.883930	dec_social_accept	0.883930	16.000000	n/a	1	-3.153409e-01	-3.153409e-01
85.721210	0.883930	dec_accept	0.883930	16.000000	n/a	1	-3.068182e-01	-3.068182e-01
85.721210	0.883930	dec_social_accept_low	0.883930	16.000000	n/a	1	-1.692708e-01	-1.692708e-01
96.589040	1.415619	dec_nonsocial_choice	1.415619	16.000000	n/a	4	1.822917e-02	1.822917e-02
96.589040	1.415619	dec_choice	1.415619	16.000000	n/a	4	1.822917e-02	1.822917e-02
96.589040	1.415619	dec_nonsocial_accept	1.415619	16.000000	n/a	4	-1.278409e-01	-1.278409e-01
96.589040	1.415619	dec_accept	1.415619	16.000000	n/a	4	-1.363636e-01	-1.363636e-01
96.589040	1.415619	dec_nonsocial_accept_high	1.415619	16.000000	n/a	4	-1.193182e-01	-1.193182e-01
104.237720	1.150965	dec_nonsocial_choice	1.150965	16.000000	n/a	4	1.822917e-02	1.822917e-02
104.237720	1.150965	dec_choice	1.150965	16.000000	n/a	4	1.822917e-02	1.822917e-02
104.237720	1.150965	dec_nonsocial_accept	1.150965	16.000000	n/a	4	-1.278409e-01	-1.278409e-01
104.237720	1.150965	dec_accept	1.150965	16.000000	n/a	4	-1.363636e-01	-1.363636e-01
104.237720	1.150965	dec_nonsocial_high	1.150965	16.000000	n/a	4	1.822917e-02	1.822917e-02
104.237720	1.150965	dec_nonsocial_accept_high	1.150965	16.000000	n/a	4	-1.363636e-01	-1.363636e-01
111.888176	1.433990	dec_social_choice	1.433990	32.000000	n/a	0	0	-2.317708e-01
111.888176	1.433990	dec_choice	1.433990	32.000000	n/a	0	0	-2.317708e-01
111.888176	1.433990	dec_social_reject	1.433990	32.000000	n/a	0	0	1.418269e-01
111.888176	1.433990	dec_reject	1.433990	32.000000	n/a	0	0	1.346154e-01
111.888176	1.433990	dec_social_low	1.433990	32.000000	n/a	0	-2.317708e-01	-2.317708e-01
111.888176	1.433990	dec_social_reject_low	1.433990	32.000000	n/a	8	1.822917e-02	-2.317708e-01
118.722210	1.315804	dec_social_choice	1.315804	32.000000	n/a	0	0	-2.317708e-01
118.722210	1.315804	dec_choice	1.315804	32.000000	n/a	0	0	-2.317708e-01
118.722210	1.315804	dec_social_reject	1.315804	32.000000	n/a	0	0	1.418269e-01
118.722210	1.315804	dec_reject	1.315804	32.000000	n/a	0	0	1.346154e-01
118.722210	1.315804	dec_social_low	1.315804	32.000000	n/a	0	-2.317708e-01	-2.317708e-01
118.722210	1.315804	dec_social_reject_low	1.315804	32.000000	n/a	8	1.822917e-02	-2.317708e-01
126.371506	0.966829	dec_social_choice	0.966829	32.000000	n/a	16	2.682292e-01	2.682292e-01
126.371506	0.966829	dec_choice	0.966829	32.000000	n/a	16	2.682292e-01	2.682292e-01
126.371506	0.966829	dec_social_accept	0.966829	32.000000	n/a	16	1.221591e-01	1.221591e-01
126.371506	0.966829	dec_accept	0.966829	32.000000	n/a	16	1.306818e-01	1.306818e-01
126.371506	0.966829	dec_social_high	0.966829	32.000000	n/a	16	2.682292e-01	2.682292e-01
126.371506	0.966829	dec_social_accept_high	0.966829	32.000000	n/a	16	2.682292e-01	2.682292e-01
133.205280	1.015841	dec_nonsocial_choice	1.015841	16.000000	n/a	4	1.822917e-02	1.822917e-02
133.205280	1.015841	dec_choice	1.015841	16.000000	n/a	4	1.822917e-02	1.822917e-02
133.205280	1.015841	dec_nonsocial_accept	1.015841	16.000000	n/a	4	-1.278409e-01	-1.278409e-01
133.205280	1.015841	dec_accept	1.015841	16.000000	n/a	4	-1.363636e-01	-1.363636e-01
133.205280	1.015841	dec_nonsocial_high	1.015841	16.000000	n/a	4	1.822917e-02	1.822917e-02
133.205280	1.015841	dec_nonsocial_accept_high	1.015841	16.000000	n/a	4	-1.363636e-01	-1.363636e-01
140.039170	1.599239	dec_nonsocial_choice	1.599239	32.000000	n/a	0	0	-2.317708e-01
140.039170	1.599239	dec_choice	1.599239	32.000000	n/a	0	0	-2.317708e-01
140.039170	1.599239	dec_nonsocial_reject	1.599239	32.000000	n/a	0	0	-1.442308e-02
140.039170	1.599239	dec_reject	1.599239	32.000000	n/a	0	0	-7.211538e-03
140.039170	1.599239	dec_nonsocial_low	1.599239	32.000000	n/a	0	-2.317708e-01	-2.317708e-01
140.039170	1.599239	dec_nonsocial_reject_low	1.599239	32.000000	n/a	3	-7.211538e-03	-1.009615e-01
152.521410	1.050425	dec_nonsocial_choice	1.050425	16.000000	n/a	0	0	-2.317708e-01
152.521410	1.050425	dec_choice	1.050425	16.000000	n/a	0	0	-2.317708e-01
152.521410	1.050425	dec_nonsocial_reject	1.050425	16.000000	n/a	0	0	-4.567308e-02
152.521410	1.050425	dec_reject	1.050425	16.000000	n/a	0	0	-3.846154e-02
152.521410	1.050425	dec_nonsocial_low	1.050425	16.000000	n/a	0	-2.317708e-01	-2.317708e-01
152.521410	1.050425	dec_nonsocial_reject_low	1.050425	16.000000	n/a	1	-3.846154e-02	-1.009615e-01
159.354260	1.817345	dec_social_choice	1.817345	16.000000	n/a	0	0	-2.317708e-01
159.354260	1.817345	dec_choice	1.817345	16.000000	n/a	0	0	-2.317708e-01
159.354260	1.817345	dec_social_reject	1.817345	16.000000	n/a	0	0	1.682692e-02
159.354260	1.817345	dec_reject	1.817345	16.000000	n/a	0	0	9.615385e-03
159.354260	1.817345	dec_social_reject_low	1.817345	16.000000	n/a	2	-1.067708e-01	-2.317708e-01
166.188310	2.299877	dec_nonsocial_choice	2.299877	16.000000	n/a	8	2.682292e-01	2.682292e-01
166.188310	2.299877	dec_choice	2.299877	16.000000	n/a	8	2.682292e-01	2.682292e-01
166.188310	2.299877	dec_nonsocial_accept	2.299877	16.000000	n/a	8	1.221591e-01	1.221591e-01
166.188310	2.299877	dec_accept	2.299877	16.000000	n/a	8	1.136364e-01	1.136364e-01
166.188310	2.299877	dec_nonsocial_high	2.299877	16.000000	n/a	8	2.682292e-01	2.682292e-01
166.188310	2.299877	dec_nonsocial_accept_high	2.299877	16.000000	n/a	8	1.136364e-01	1.136364e-01
175.438810	1.516273	dec_nonsocial_choice	1.516273	16.000000	n/a	4	1.822917e-02	1.822917e-02
175.438810	1.516273	dec_choice	1.516273	16.000000	n/a	4	1.822917e-02	1.822917e-02
175.438810	1.516273	dec_nonsocial_accept	1.516273	16.000000	n/a	4	-1.278409e-01	-1.278409e-01
175.438810	1.516273	dec_accept	1.516273	16.000000	n/a	4	-1.363636e-01	-1.363636e-01
175.438810	1.516273	dec_nonsocial_high	1.516273	16.000000	n/a	4	1.822917e-02	1.822917e-02
175.438810	1.516273	dec_nonsocial_accept_high	1.516273	16.000000	n/a	4	-1.363636e-01	-1.363636e-01
182.271820	0.949910	dec_social_choice	0.949910	32.000000	n/a	16	2.682292e-01	2.682292e-01
182.271820	0.949910	dec_choice	0.949910	32.000000	n/a	16	2.682292e-01	2.682292e-01
182.271820	0.949910	dec_social_accept	0.949910	32.000000	n/a	16	1.221591e-01	1.221591e-01
182.271820	0.949910	dec_accept	0.949910	32.000000	n/a	16	1.306818e-01	1.306818e-01
182.271820	0.949910	dec_social_accept_high	0.949910	32.000000	n/a	16	2.682292e-01	2.682292e-01
189.105510	1.215660	dec_nonsocial_choice	1.215660	16.000000	n/a	8	2.682292e-01	2.682292e-01
189.105510	1.215660	dec_choice	1.215660	16.000000	n/a	8	2.682292e-01	2.682292e-01
189.105510	1.215660	dec_nonsocial_accept	1.215660	16.000000	n/a	8	1.221591e-01	1.221591e-01
189.105510	1.215660	dec_accept	1.215660	16.000000	n/a	8	1.136364e-01	1.136364e-01
189.105510	1.215660	dec_nonsocial_high	1.215660	16.000000	n/a	8	2.682292e-01	2.682292e-01
189.105510	1.215660	dec_nonsocial_accept_high	1.215660	16.000000	n/a	8	1.136364e-01	1.136364e-01
195.938190	1.333339	dec_nonsocial_choice	1.333339	32.000000	n/a	16	2.682292e-01	2.682292e-01
195.938190	1.333339	dec_choice	1.333339	32.000000	n/a	16	2.682292e-01	2.682292e-01
195.938190	1.333339	dec_nonsocial_accept	1.333339	32.000000	n/a	16	1.221591e-01	1.221591e-01
195.938190	1.333339	dec_accept	1.333339	32.000000	n/a	16	1.136364e-01	1.136364e-01
195.938190	1.333339	dec_nonsocial_accept_high	1.333339	32.000000	n/a	16	1.306818e-01	1.306818e-01
205.204100	1.067024	dec_nonsocial_choice	1.067024	16.000000	n/a	0	0	-2.317708e-01
205.204100	1.067024	dec_choice	1.067024	16.000000	n/a	0	0	-2.317708e-01
205.204100	1.067024	dec_nonsocial_reject	1.067024	16.000000	n/a	0	0	-4.567308e-02
205.204100	1.067024	dec_reject	1.067024	16.000000	n/a	0	0	-3.846154e-02
205.204100	1.067024	dec_nonsocial_low	1.067024	16.000000	n/a	0	-2.317708e-01	-2.317708e-01
205.204100	1.067024	dec_nonsocial_reject_low	1.067024	16.000000	n/a	1	-3.846154e-02	-1.009615e-01
214.455120	0.966000	dec_nonsocial_choice	0.966000	32.000000	n/a	0	0	-2.317708e-01
214.455120	0.966000	dec_choice	0.966000	32.000000	n/a	0	0	-2.317708e-01
214.455120	0.966000	dec_nonsocial_reject	0.966000	32.000000	n/a	0	0	-4.567308e-02
214.455120	0.966000	dec_reject	0.966000	32.000000	n/a	0	0	-3.846154e-02
214.455120	0.966000	dec_nonsocial_reject_low	0.966000	32.000000	n/a	2	-5.288462e-02	-1.153846e-01
221.288150	0.866287	dec_nonsocial_choice	0.866287	16.000000	n/a	0	0	-2.317708e-01
221.288150	0.866287	dec_choice	0.866287	16.000000	n/a	0	0	-2.317708e-01
221.288150	0.866287	dec_nonsocial_reject	0.866287	16.000000	n/a	0	0	-4.567308e-02
221.288150	0.866287	dec_reject	0.866287	16.000000	n/a	0	0	-3.846154e-02
221.288150	0.866287	dec_nonsocial_reject_low	0.866287	16.000000	n/a	1	-5.288462e-02	-1.153846e-01
228.939150	0.915244	dec_social_choice	0.915244	16.000000	n/a	8	2.682292e-01	2.682292e-01
228.939150	0.915244	dec_choice	0.915244	16.000000	n/a	8	2.682292e-01	2.682292e-01
228.939150	0.915244	dec_social_accept	0.915244	16.000000	n/a	8	1.221591e-01	1.221591e-01
228.939150	0.915244	dec_accept	0.915244	16.000000	n/a	8	1.306818e-01	1.306818e-01
228.939150	0.915244	dec_social_high	0.915244	16.000000	n/a	8	2.682292e-01	2.682292e-01
228.939150	0.915244	dec_social_accept_high	0.915244	16.000000	n/a	8	2.682292e-01	2.682292e-01
235.771940	0.916110	dec_nonsocial_choice	0.916110	16.000000	n/a	0	0	-2.317708e-01
235.771940	0.916110	dec_choice	0.916110	16.000000	n/a	0	0	-2.317708e-01
235.771940	0.916110	dec_nonsocial_reject	0.916110	16.000000	n/a	0	0	-4.567308e-02
235.771940	0.916110	dec_reject	0.916110	16.000000	n/a	0	0	-3.846154e-02
235.771940	0.916110	dec_nonsocial_low	0.916110	16.000000	n/a	0	-2.317708e-01	-2.317708e-01
235.771940	0.916110	dec_nonsocial_reject_low	0.916110	16.000000	n/a	1	-3.846154e-02	-1.009615e-01
243.421140	1.116906	dec_social_choice	1.116906	32.000000	n/a	0	0	-2.317708e-01
243.421140	1.116906	dec_choice	1.116906	32.000000	n/a	0	0	-2.317708e-01
243.421140	1.116906	dec_social_reject	1.116906	32.000000	n/a	0	0	-4.567308e-02
243.421140	1.116906	dec_reject	1.116906	32.000000	n/a	0	0	-5.288462e-02
243.421140	1.116906	dec_social_low	1.116906	32.000000	n/a	0	-2.317708e-01	-2.317708e-01
243.421140	1.116906	dec_social_reject_low	1.116906	32.000000	n/a	2	-1.692708e-01	-2.317708e-01
250.254300	0.816270	dec_social_choice	0.816270	32.000000	n/a	16	2.682292e-01	2.682292e-01
250.254300	0.816270	dec_choice	0.816270	32.000000	n/a	16	2.682292e-01	2.682292e-01
250.254300	0.816270	dec_social_accept	0.816270	32.000000	n/a	16	1.221591e-01	1.221591e-01
250.254300	0.816270	dec_accept	0.816270	32.000000	n/a	16	1.306818e-01	1.306818e-01
250.254300	0.816270	dec_social_high	0.816270	32.000000	n/a	16	2.682292e-01	2.682292e-01
250.254300	0.816270	dec_social_accept_high	0.816270	32.000000	n/a	16	2.682292e-01	2.682292e-01
257.088130	1.049991	dec_nonsocial_choice	1.049991	16.000000	n/a	0	0	-2.317708e-01
257.088130	1.049991	dec_choice	1.049991	16.000000	n/a	0	0	-2.317708e-01
257.088130	1.049991	dec_nonsocial_reject	1.049991	16.000000	n/a	0	0	1.418269e-01
257.088130	1.049991	dec_reject	1.049991	16.000000	n/a	0	0	1.490385e-01
257.088130	1.049991	dec_nonsocial_reject_low	1.049991	16.000000	n/a	4	1.346154e-01	-1.153846e-01
266.337800	0.933369	dec_nonsocial_choice	0.933369	16.000000	n/a	0	0	-2.317708e-01
266.337800	0.933369	dec_choice	0.933369	16.000000	n/a	0	0	-2.317708e-01
266.337800	0.933369	dec_nonsocial_reject	0.933369	16.000000	n/a	0	0	1.682692e-02
266.337800	0.933369	dec_reject	0.933369	16.000000	n/a	0	0	2.403846e-02
266.337800	0.933369	dec_nonsocial_low	0.933369	16.000000	n/a	0	-2.317708e-01	-2.317708e-01
266.337800	0.933369	dec_nonsocial_reject_low	0.933369	16.000000	n/a	2	2.403846e-02	-1.009615e-01
273.989170	0.881918	dec_social_choice	0.881918	32.000000	n/a	16	2.682292e-01	2.682292e-01
273.989170	0.881918	dec_choice	0.881918	32.000000	n/a	16	2.682292e-01	2.682292e-01
273.989170	0.881918	dec_social_accept	0.881918	32.000000	n/a	16	1.221591e-01	1.221591e-01
273.989170	0.881918	dec_accept	0.881918	32.000000	n/a	16	1.306818e-01	1.306818e-01
273.989170	0.881918	dec_social_accept_high	0.881918	32.000000	n/a	16	2.682292e-01	2.682292e-01
280.822140	0.799172	dec_social_choice	0.799172	32.000000	n/a	0	0	-2.317708e-01
280.822140	0.799172	dec_choice	0.799172	32.000000	n/a	0	0	-2.317708e-01
280.822140	0.799172	dec_social_reject	0.799172	32.000000	n/a	0	0	-1.442308e-02
280.822140	0.799172	dec_reject	0.799172	32.000000	n/a	0	0	-2.163462e-02
280.822140	0.799172	dec_social_low	0.799172	32.000000	n/a	0	-2.317708e-01	-2.317708e-01
280.822140	0.799172	dec_social_reject_low	0.799172	32.000000	n/a	3	-1.380208e-01	-2.317708e-01
290.072140	0.915309	dec_social_choice	0.915309	32.000000	n/a	0	0	-2.317708e-01
290.072140	0.915309	dec_choice	0.915309	32.000000	n/a	0	0	-2.317708e-01
290.072140	0.915309	dec_social_reject	0.915309	32.000000	n/a	0	0	-4.567308e-02
290.072140	0.915309	dec_reject	0.915309	32.000000	n/a	0	0	-5.288462e-02
290.072140	0.915309	dec_social_reject_low	0.915309	32.000000	n/a	2	-1.692708e-01	-2.317708e-01
297.721130	1.217336	dec_social_choice	1.217336	16.000000	n/a	0	0	-2.317708e-01
297.721130	1.217336	dec_choice	1.217336	16.000000	n/a	0	0	-2.317708e-01
297.721130	1.217336	dec_social_reject	1.217336	16.000000	n/a	0	0	-4.567308e-02
297.721130	1.217336	dec_reject	1.217336	16.000000	n/a	0	0	-5.288462e-02
297.721130	1.217336	dec_social_low	1.217336	16.000000	n/a	0	-2.317708e-01	-2.317708e-01
297.721130	1.217336	dec_social_reject_low	1.217336	16.000000	n/a	1	-1.692708e-01	-2.317708e-01
305.354060	0.833954	dec_social_choice	0.833954	16.000000	n/a	0	0	-2.317708e-01
305.354060	0.833954	dec_choice	0.833954	16.000000	n/a	0	0	-2.317708e-01
305.354060	0.833954	dec_social_reject	0.833954	16.000000	n/a	0	0	-4.567308e-02
305.354060	0.833954	dec_reject	0.833954	16.000000	n/a	0	0	-5.288462e-02
305.354060	0.833954	dec_social_reject_low	0.833954	16.000000	n/a	1	-1.692708e-01	-2.317708e-01
312.987180	0.917129	dec_nonsocial_choice	0.917129	32.000000	n/a	16	2.682292e-01	2.682292e-01
312.987180	0.917129	dec_choice	0.917129	32.000000	n/a	16	2.682292e-01	2.682292e-01
312.987180	0.917129	dec_nonsocial_accept	0.917129	32.000000	n/a	16	1.221591e-01	1.221591e-01
312.987180	0.917129	dec_accept	0.917129	32.000000	n/a	16	1.136364e-01	1.136364e-01
312.987180	0.917129	dec_nonsocial_accept_high	0.917129	32.000000	n/a	16	1.306818e-01	1.306818e-01
319.820430	1.034148	dec_social_choice	1.034148	32.000000	n/a	0	0	-2.317708e-01
319.820430	1.034148	dec_choice	1.034148	32.000000	n/a	0	0	-2.317708e-01
319.820430	1.034148	dec_social_reject	1.034148	32.000000	n/a	0	0	-1.442308e-02
319.820430	1.034148	dec_reject	1.034148	32.000000	n/a	0	0	-2.163462e-02
319.820430	1.034148	dec_social_reject_low	1.034148	32.000000	n/a	3	-1.380208e-01	-2.317708e-01
330.688100	1.516030	dec_nonsocial_choice	1.516030	16.000000	n/a	8	2.682292e-01	2.682292e-01
330.688100	1.516030	dec_choice	1.516030	16.000000	n/a	8	2.682292e-01	2.682292e-01
330.688100	1.516030	dec_nonsocial_accept	1.516030	16.000000	n/a	8	1.221591e-01	1.221591e-01
330.688100	1.516030	dec_accept	1.516030	16.000000	n/a	8	1.136364e-01	1.136364e-01
330.688100	1.516030	dec_nonsocial_accept_high	1.516030	16.000000	n/a	8	1.306818e-01	1.306818e-01
341.555100	1.499565	dec_social_choice	1.499565	32.000000	n/a	8	1.822917e-02	1.822917e-02
341.555100	1.499565	dec_choice	1.499565	32.000000	n/a	8	1.822917e-02	1.822917e-02
341.555100	1.499565	dec_social_accept	1.499565	32.000000	n/a	8	-1.278409e-01	-1.278409e-01
341.555100	1.499565	dec_accept	1.499565	32.000000	n/a	8	-1.193182e-01	-1.193182e-01
341.555100	1.499565	dec_social_high	1.499565	32.000000	n/a	8	1.822917e-02	1.822917e-02
341.555100	1.499565	dec_social_accept_high	1.499565	32.000000	n/a	8	1.822917e-02	1.822917e-02
350.804750	1.799739	dec_social_choice	1.799739	32.000000	n/a	8	1.822917e-02	1.822917e-02
350.804750	1.799739	dec_choice	1.799739	32.000000	n/a	8	1.822917e-02	1.822917e-02
350.804750	1.799739	dec_social_accept	1.799739	32.000000	n/a	8	-1.278409e-01	-1.278409e-01
350.804750	1.799739	dec_accept	1.799739	32.000000	n/a	8	-1.193182e-01	-1.193182e-01
350.804750	1.799739	dec_social_high	1.799739	32.000000	n/a	8	1.822917e-02	1.822917e-02
350.804750	1.799739	dec_social_accept_high	1.799739	32.000000	n/a	8	1.822917e-02	1.822917e-02
358.454930	1.199881	dec_nonsocial_choice	1.199881	16.000000	n/a	0	0	-2.317708e-01
358.454930	1.199881	dec_choice	1.199881	16.000000	n/a	0	0	-2.317708e-01
358.454930	1.199881	dec_nonsocial_reject	1.199881	16.000000	n/a	0	0	1.682692e-02
358.454930	1.199881	dec_reject	1.199881	16.000000	n/a	0	0	2.403846e-02
358.454930	1.199881	dec_nonsocial_low	1.199881	16.000000	n/a	0	-2.317708e-01	-2.317708e-01
358.454930	1.199881	dec_nonsocial_reject_low	1.199881	16.000000	n/a	2	2.403846e-02	-1.009615e-01
366.104130	0.766136	dec_nonsocial_choice	0.766136	16.000000	n/a	0	0	-2.317708e-01
366.104130	0.766136	dec_choice	0.766136	16.000000	n/a	0	0	-2.317708e-01
366.104130	0.766136	dec_nonsocial_reject	0.766136	16.000000	n/a	0	0	-4.567308e-02
366.104130	0.766136	dec_reject	0.766136	16.000000	n/a	0	0	-3.846154e-02
366.104130	0.766136	dec_nonsocial_reject_low	0.766136	16.000000	n/a	1	-5.288462e-02	-1.153846e-01
372.937800	1.483104	dec_social_choice	1.483104	16.000000	n/a	0	0	-2.317708e-01
372.937800	1.483104	dec_choice	1.483104	16.000000	n/a	0	0	-2.317708e-01
372.937800	1.483104	dec_social_reject	1.483104	16.000000	n/a	0	0	1.682692e-02
372.937800	1.483104	dec_reject	1.483104	16.000000	n/a	0	0	9.615385e-03
372.937800	1.483104	dec_social_reject_low	1.483104	16.000000	n/a	2	-1.067708e-01	-2.317708e-01
