onset	duration	trial_type	response_time	Endowment	Decision	Offer
4.517566	2	cue_nonsocial	n/a	32	n/a	n/a
4.517566	2	cue_nonsocial_high	n/a	32	n/a	n/a
6.524684	1.899837	dec_nonsocial_high	1.899837	32	n/a	3
6.524684	1.899837	dec_nonsocial_high_accept	1.899837	32	accept	3
11.351243	2	cue_nonsocial	n/a	32	n/a	n/a
11.351243	2	cue_nonsocial_high	n/a	32	n/a	n/a
13.357141	1.517416	dec_nonsocial_high	1.517416	32	n/a	16
13.357141	1.517416	dec_nonsocial_high_accept	1.517416	32	accept	16
18.257590	2	cue_social	n/a	32	n/a	n/a
18.257590	2	cue_social_high	n/a	32	n/a	n/a
20.190294	1.450611	dec_social_high	1.450611	32	n/a	16
20.190294	1.450611	dec_social_high_accept	1.450611	32	accept	16
25.908684	2	cue_social	n/a	16	n/a	n/a
25.908684	2	cue_social_low	n/a	16	n/a	n/a
27.840204	1.083708	dec_social_low	1.083708	16	n/a	1
27.840204	1.083708	dec_social_low_reject	1.083708	16	reject	1
32.741460	2	cue_social	n/a	32	n/a	n/a
32.741460	2	cue_social_high	n/a	32	n/a	n/a
34.673874	1.100780	dec_social_high	1.100780	32	n/a	16
34.673874	1.100780	dec_social_high_accept	1.100780	32	accept	16
39.500565	2	cue_nonsocial	n/a	32	n/a	n/a
39.500565	2	cue_nonsocial_high	n/a	32	n/a	n/a
41.507385	1.800254	dec_nonsocial_high	1.800254	32	n/a	2
41.507385	1.800254	dec_nonsocial_high_accept	1.800254	32	accept	2
47.151054	2	cue_nonsocial	n/a	16	n/a	n/a
47.151054	2	cue_nonsocial_low	n/a	16	n/a	n/a
49.158474	1.415127	dec_nonsocial_low	1.415127	16	n/a	8
49.158474	1.415127	dec_nonsocial_low_accept	1.415127	16	accept	8
54.098835	2	cue_social	n/a	16	n/a	n/a
54.098835	2	cue_social_low	n/a	16	n/a	n/a
55.991210	1.099725	dec_social_low	1.099725	16	n/a	8
55.991210	1.099725	dec_social_low_accept	1.099725	16	accept	8
60.888630	2	cue_social	n/a	16	n/a	n/a
60.888630	2	cue_social_low	n/a	16	n/a	n/a
62.825180	1.165675	dec_social_low	1.165675	16	n/a	4
62.825180	1.165675	dec_social_low_reject	1.165675	16	reject	4
67.722725	2	cue_social	n/a	16	n/a	n/a
67.722725	2	cue_social_low	n/a	16	n/a	n/a
69.657190	0.800323	dec_social_low	0.800323	16	n/a	2
69.657190	0.800323	dec_social_low_reject	0.800323	16	reject	2
76.901020	2	cue_nonsocial	n/a	16	n/a	n/a
76.901020	2	cue_nonsocial_low	n/a	16	n/a	n/a
78.908180	1.249360	dec_nonsocial_low	1.249360	16	n/a	2
78.908180	1.249360	dec_nonsocial_low_reject	1.249360	16	reject	2
83.734170	2	cue_nonsocial	n/a	32	n/a	n/a
83.734170	2	cue_nonsocial_high	n/a	32	n/a	n/a
85.740750	1.250139	dec_nonsocial_high	1.250139	32	n/a	8
85.740750	1.250139	dec_nonsocial_high_accept	1.250139	32	accept	8
93.029106	2	cue_social	n/a	32	n/a	n/a
93.029106	2	cue_social_high	n/a	32	n/a	n/a
94.990080	0.967061	dec_social_high	0.967061	32	n/a	16
94.990080	0.967061	dec_social_high_accept	0.967061	32	accept	16
102.234240	2	cue_nonsocial	n/a	16	n/a	n/a
102.234240	2	cue_nonsocial_low	n/a	16	n/a	n/a
104.240310	0.733653	dec_nonsocial_low	0.733653	16	n/a	8
104.240310	0.733653	dec_nonsocial_low_accept	0.733653	16	accept	8
109.067600	2	cue_nonsocial	n/a	32	n/a	n/a
109.067600	2	cue_nonsocial_high	n/a	32	n/a	n/a
111.074165	0.799880	dec_nonsocial_high	0.799880	32	n/a	2
111.074165	0.799880	dec_nonsocial_high_accept	0.799880	32	accept	2
118.317520	2	cue_nonsocial	n/a	16	n/a	n/a
118.317520	2	cue_nonsocial_low	n/a	16	n/a	n/a
120.324800	1.099384	dec_nonsocial_low	1.099384	16	n/a	4
120.324800	1.099384	dec_nonsocial_low_reject	1.099384	16	reject	4
125.150790	2	cue_nonsocial	n/a	16	n/a	n/a
125.150790	2	cue_nonsocial_low	n/a	16	n/a	n/a
127.157190	1.883605	dec_nonsocial_low	1.883605	16	n/a	1
127.157190	1.883605	dec_nonsocial_low_reject	1.883605	16	reject	1
137.721620	2	cue_social	n/a	32	n/a	n/a
137.721620	2	cue_social_high	n/a	32	n/a	n/a
139.640050	0.983487	dec_social_high	0.983487	32	n/a	3
139.640050	0.983487	dec_social_high_reject	0.983487	32	reject	3
144.542240	2	cue_social	n/a	32	n/a	n/a
144.542240	2	cue_social_high	n/a	32	n/a	n/a
146.473360	1.068080	dec_social_high	1.068080	32	n/a	16
146.473360	1.068080	dec_social_high_accept	1.068080	32	accept	16
151.300740	2	cue_nonsocial	n/a	16	n/a	n/a
151.300740	2	cue_nonsocial_low	n/a	16	n/a	n/a
153.307280	0.633320	dec_nonsocial_low	0.633320	16	n/a	1
153.307280	0.633320	dec_nonsocial_low_accept	0.633320	16	accept	1
158.214000	2	cue_social	n/a	32	n/a	n/a
158.214000	2	cue_social_high	n/a	32	n/a	n/a
160.140180	1.367159	dec_social_high	1.367159	32	n/a	8
160.140180	1.367159	dec_social_high_reject	1.367159	32	reject	8
169.090410	2	cue_social	n/a	16	n/a	n/a
169.090410	2	cue_social_low	n/a	16	n/a	n/a
171.007160	1.583933	dec_social_low	1.583933	16	n/a	4
171.007160	1.583933	dec_social_low_reject	1.583933	16	reject	4
175.834000	2	cue_nonsocial	n/a	16	n/a	n/a
175.834000	2	cue_nonsocial_low	n/a	16	n/a	n/a
177.841140	1.533130	dec_nonsocial_low	1.533130	16	n/a	2
177.841140	1.533130	dec_nonsocial_low_accept	1.533130	16	accept	2
182.667180	2	cue_nonsocial	n/a	16	n/a	n/a
182.667180	2	cue_nonsocial_low	n/a	16	n/a	n/a
184.673840	0.949847	dec_nonsocial_low	0.949847	16	n/a	4
184.673840	0.949847	dec_nonsocial_low_reject	0.949847	16	reject	4
193.533940	2	cue_nonsocial	n/a	32	n/a	n/a
193.533940	2	cue_nonsocial_high	n/a	32	n/a	n/a
195.541020	0.949848	dec_nonsocial_high	0.949848	32	n/a	2
195.541020	0.949848	dec_nonsocial_high_reject	0.949848	32	reject	2
201.184040	2	cue_nonsocial	n/a	16	n/a	n/a
201.184040	2	cue_nonsocial_low	n/a	16	n/a	n/a
203.190200	1.550440	dec_nonsocial_low	1.550440	16	n/a	4
203.190200	1.550440	dec_nonsocial_low_reject	1.550440	16	reject	4
210.433910	2	cue_nonsocial	n/a	16	n/a	n/a
210.433910	2	cue_nonsocial_low	n/a	16	n/a	n/a
212.440630	1.283759	dec_nonsocial_low	1.283759	16	n/a	8
212.440630	1.283759	dec_nonsocial_low_accept	1.283759	16	accept	8
221.300750	2	cue_nonsocial	n/a	16	n/a	n/a
221.300750	2	cue_nonsocial_low	n/a	16	n/a	n/a
223.307130	1.083338	dec_nonsocial_low	1.083338	16	n/a	2
223.307130	1.083338	dec_nonsocial_low_reject	1.083338	16	reject	2
228.950240	2	cue_nonsocial	n/a	32	n/a	n/a
228.950240	2	cue_nonsocial_high	n/a	32	n/a	n/a
230.958360	1.698505	dec_nonsocial_high	1.698505	32	n/a	16
230.958360	1.698505	dec_nonsocial_high_accept	1.698505	32	accept	16
236.659060	2	cue_social	n/a	16	n/a	n/a
236.659060	2	cue_social_low	n/a	16	n/a	n/a
238.606490	0.966640	dec_social_low	0.966640	16	n/a	1
238.606490	0.966640	dec_social_low_reject	0.966640	16	reject	1
245.867160	2	cue_nonsocial	n/a	32	n/a	n/a
245.867160	2	cue_nonsocial_high	n/a	32	n/a	n/a
247.874130	1.483151	dec_nonsocial_high	1.483151	32	n/a	3
247.874130	1.483151	dec_nonsocial_high_reject	1.483151	32	reject	3
255.192540	2	cue_social	n/a	16	n/a	n/a
255.192540	2	cue_social_low	n/a	16	n/a	n/a
257.124150	0.849503	dec_social_low	0.849503	16	n/a	1
257.124150	0.849503	dec_social_low_reject	0.849503	16	reject	1
262.814760	2	cue_social	n/a	16	n/a	n/a
262.814760	2	cue_social_low	n/a	16	n/a	n/a
264.774170	0.983105	dec_social_low	0.983105	16	n/a	1
264.774170	0.983105	dec_social_low_reject	0.983105	16	reject	1
270.454500	2	cue_social	n/a	32	n/a	n/a
270.454500	2	cue_social_high	n/a	32	n/a	n/a
272.422900	0.833665	dec_social_high	0.833665	32	n/a	16
272.422900	0.833665	dec_social_high_accept	0.833665	32	accept	16
277.250460	2	cue_nonsocial	n/a	16	n/a	n/a
277.250460	2	cue_nonsocial_low	n/a	16	n/a	n/a
279.257140	1.133054	dec_nonsocial_low	1.133054	16	n/a	4
279.257140	1.133054	dec_nonsocial_low_reject	1.133054	16	reject	4
284.083650	2	cue_nonsocial	n/a	16	n/a	n/a
284.083650	2	cue_nonsocial_low	n/a	16	n/a	n/a
286.089660	1.400647	dec_nonsocial_low	1.400647	16	n/a	8
286.089660	1.400647	dec_nonsocial_low_accept	1.400647	16	accept	8
291.784880	2	cue_social	n/a	16	n/a	n/a
291.784880	2	cue_social_low	n/a	16	n/a	n/a
293.724120	0.865791	dec_social_low	0.865791	16	n/a	4
293.724120	0.865791	dec_social_low_reject	0.865791	16	reject	4
298.598940	2	cue_social	n/a	32	n/a	n/a
298.598940	2	cue_social_high	n/a	32	n/a	n/a
300.557130	0.849803	dec_social_high	0.849803	32	n/a	3
300.557130	0.849803	dec_social_high_reject	0.849803	32	reject	3
306.200380	2	cue_nonsocial	n/a	32	n/a	n/a
306.200380	2	cue_nonsocial_high	n/a	32	n/a	n/a
308.206050	0.934058	dec_nonsocial_high	0.934058	32	n/a	3
308.206050	0.934058	dec_nonsocial_high_reject	0.934058	32	reject	3
313.088070	2	cue_social	n/a	16	n/a	n/a
313.088070	2	cue_social_low	n/a	16	n/a	n/a
315.040130	0.983510	dec_social_low	0.983510	16	n/a	1
315.040130	0.983510	dec_social_low_reject	0.983510	16	reject	1
319.920600	2	cue_social	n/a	16	n/a	n/a
319.920600	2	cue_social_low	n/a	16	n/a	n/a
321.873100	1.734292	dec_social_low	1.734292	16	n/a	4
321.873100	1.734292	dec_social_low_accept	1.734292	16	accept	4
327.604830	2	cue_social	n/a	16	n/a	n/a
327.604830	2	cue_social_low	n/a	16	n/a	n/a
329.507100	1.199977	dec_social_low	1.199977	16	n/a	2
329.507100	1.199977	dec_social_low_reject	1.199977	16	reject	2
334.333620	2	cue_nonsocial	n/a	16	n/a	n/a
334.333620	2	cue_nonsocial_low	n/a	16	n/a	n/a
336.340000	1.083626	dec_nonsocial_low	1.083626	16	n/a	1
336.340000	1.083626	dec_nonsocial_low_reject	1.083626	16	reject	1
341.243560	2	cue_social	n/a	32	n/a	n/a
341.243560	2	cue_social_high	n/a	32	n/a	n/a
343.172850	0.950787	dec_social_high	0.950787	32	n/a	3
343.172850	0.950787	dec_social_high_reject	0.950787	32	reject	3
348.062040	2	cue_social	n/a	32	n/a	n/a
348.062040	2	cue_social_high	n/a	32	n/a	n/a
350.007140	1.249726	dec_social_high	1.249726	32	n/a	3
350.007140	1.249726	dec_social_high_reject	1.249726	32	reject	3
355.649900	2	cue_nonsocial	n/a	16	n/a	n/a
355.649900	2	cue_nonsocial_low	n/a	16	n/a	n/a
357.656220	1.267020	dec_nonsocial_low	1.267020	16	n/a	4
357.656220	1.267020	dec_nonsocial_low_accept	1.267020	16	accept	4
362.531620	2	cue_social	n/a	16	n/a	n/a
362.531620	2	cue_social_low	n/a	16	n/a	n/a
364.489350	0.867096	dec_social_low	0.867096	16	n/a	1
364.489350	0.867096	dec_social_low_reject	0.867096	16	reject	1
370.174220	2	cue_social	n/a	16	n/a	n/a
370.174220	2	cue_social_low	n/a	16	n/a	n/a
372.140100	1.133369	dec_social_low	1.133369	16	n/a	4
372.140100	1.133369	dec_social_low_accept	1.133369	16	accept	4
