onset	duration	trial_type	response_time	Endowment	Endowment_pmod	Decision	Decision_pmod	Offer_pmod
4.517566	2	cue_nonsocial	n/a	32	10	n/a	n/a	n/a
4.517566	2	cue_nonsocial_high	n/a	32	9	n/a	n/a	n/a
11.351243	2	cue_nonsocial	n/a	32	10	n/a	n/a	n/a
11.351243	2	cue_nonsocial_high	n/a	32	9	n/a	n/a	n/a
18.257590	2	cue_social	n/a	32	9	n/a	n/a	n/a
18.257590	2	cue_social_high	n/a	32	10	n/a	n/a	n/a
25.908684	2	cue_social	n/a	16	-7	n/a	n/a	n/a
25.908684	2	cue_social_low	n/a	16	-6	n/a	n/a	n/a
32.741460	2	cue_social	n/a	32	9	n/a	n/a	n/a
32.741460	2	cue_social_high	n/a	32	10	n/a	n/a	n/a
39.500565	2	cue_nonsocial	n/a	32	10	n/a	n/a	n/a
39.500565	2	cue_nonsocial_high	n/a	32	9	n/a	n/a	n/a
47.151054	2	cue_nonsocial	n/a	16	-6	n/a	n/a	n/a
47.151054	2	cue_nonsocial_low	n/a	16	-7	n/a	n/a	n/a
54.098835	2	cue_social	n/a	16	-7	n/a	n/a	n/a
54.098835	2	cue_social_low	n/a	16	-6	n/a	n/a	n/a
60.888630	2	cue_social	n/a	16	-7	n/a	n/a	n/a
60.888630	2	cue_social_low	n/a	16	-6	n/a	n/a	n/a
67.722725	2	cue_social	n/a	16	-7	n/a	n/a	n/a
67.722725	2	cue_social_low	n/a	16	-6	n/a	n/a	n/a
76.901020	2	cue_nonsocial	n/a	16	-6	n/a	n/a	n/a
76.901020	2	cue_nonsocial_low	n/a	16	-7	n/a	n/a	n/a
83.734170	2	cue_nonsocial	n/a	32	10	n/a	n/a	n/a
83.734170	2	cue_nonsocial_high	n/a	32	9	n/a	n/a	n/a
93.029106	2	cue_social	n/a	32	9	n/a	n/a	n/a
93.029106	2	cue_social_high	n/a	32	10	n/a	n/a	n/a
102.234240	2	cue_nonsocial	n/a	16	-6	n/a	n/a	n/a
102.234240	2	cue_nonsocial_low	n/a	16	-7	n/a	n/a	n/a
109.067600	2	cue_nonsocial	n/a	32	10	n/a	n/a	n/a
109.067600	2	cue_nonsocial_high	n/a	32	9	n/a	n/a	n/a
118.317520	2	cue_nonsocial	n/a	16	-6	n/a	n/a	n/a
118.317520	2	cue_nonsocial_low	n/a	16	-7	n/a	n/a	n/a
125.150790	2	cue_nonsocial	n/a	16	-6	n/a	n/a	n/a
125.150790	2	cue_nonsocial_low	n/a	16	-7	n/a	n/a	n/a
137.721620	2	cue_social	n/a	32	9	n/a	n/a	n/a
137.721620	2	cue_social_high	n/a	32	10	n/a	n/a	n/a
144.542240	2	cue_social	n/a	32	9	n/a	n/a	n/a
144.542240	2	cue_social_high	n/a	32	10	n/a	n/a	n/a
151.300740	2	cue_nonsocial	n/a	16	-6	n/a	n/a	n/a
151.300740	2	cue_nonsocial_low	n/a	16	-7	n/a	n/a	n/a
158.214000	2	cue_social	n/a	32	9	n/a	n/a	n/a
158.214000	2	cue_social_high	n/a	32	10	n/a	n/a	n/a
169.090410	2	cue_social	n/a	16	-7	n/a	n/a	n/a
169.090410	2	cue_social_low	n/a	16	-6	n/a	n/a	n/a
175.834000	2	cue_nonsocial	n/a	16	-6	n/a	n/a	n/a
175.834000	2	cue_nonsocial_low	n/a	16	-7	n/a	n/a	n/a
182.667180	2	cue_nonsocial	n/a	16	-6	n/a	n/a	n/a
182.667180	2	cue_nonsocial_low	n/a	16	-7	n/a	n/a	n/a
193.533940	2	cue_nonsocial	n/a	32	10	n/a	n/a	n/a
193.533940	2	cue_nonsocial_high	n/a	32	9	n/a	n/a	n/a
201.184040	2	cue_nonsocial	n/a	16	-6	n/a	n/a	n/a
201.184040	2	cue_nonsocial_low	n/a	16	-7	n/a	n/a	n/a
210.433910	2	cue_nonsocial	n/a	16	-6	n/a	n/a	n/a
210.433910	2	cue_nonsocial_low	n/a	16	-7	n/a	n/a	n/a
221.300750	2	cue_nonsocial	n/a	16	-6	n/a	n/a	n/a
221.300750	2	cue_nonsocial_low	n/a	16	-7	n/a	n/a	n/a
228.950240	2	cue_nonsocial	n/a	32	10	n/a	n/a	n/a
228.950240	2	cue_nonsocial_high	n/a	32	9	n/a	n/a	n/a
236.659060	2	cue_social	n/a	16	-7	n/a	n/a	n/a
236.659060	2	cue_social_low	n/a	16	-6	n/a	n/a	n/a
245.867160	2	cue_nonsocial	n/a	32	10	n/a	n/a	n/a
245.867160	2	cue_nonsocial_high	n/a	32	9	n/a	n/a	n/a
255.192540	2	cue_social	n/a	16	-7	n/a	n/a	n/a
255.192540	2	cue_social_low	n/a	16	-6	n/a	n/a	n/a
262.814760	2	cue_social	n/a	16	-7	n/a	n/a	n/a
262.814760	2	cue_social_low	n/a	16	-6	n/a	n/a	n/a
270.454500	2	cue_social	n/a	32	9	n/a	n/a	n/a
270.454500	2	cue_social_high	n/a	32	10	n/a	n/a	n/a
277.250460	2	cue_nonsocial	n/a	16	-6	n/a	n/a	n/a
277.250460	2	cue_nonsocial_low	n/a	16	-7	n/a	n/a	n/a
284.083650	2	cue_nonsocial	n/a	16	-6	n/a	n/a	n/a
284.083650	2	cue_nonsocial_low	n/a	16	-7	n/a	n/a	n/a
291.784880	2	cue_social	n/a	16	-7	n/a	n/a	n/a
291.784880	2	cue_social_low	n/a	16	-6	n/a	n/a	n/a
298.598940	2	cue_social	n/a	32	9	n/a	n/a	n/a
298.598940	2	cue_social_high	n/a	32	10	n/a	n/a	n/a
306.200380	2	cue_nonsocial	n/a	32	10	n/a	n/a	n/a
306.200380	2	cue_nonsocial_high	n/a	32	9	n/a	n/a	n/a
313.088070	2	cue_social	n/a	16	-7	n/a	n/a	n/a
313.088070	2	cue_social_low	n/a	16	-6	n/a	n/a	n/a
319.920600	2	cue_social	n/a	16	-7	n/a	n/a	n/a
319.920600	2	cue_social_low	n/a	16	-6	n/a	n/a	n/a
327.604830	2	cue_social	n/a	16	-7	n/a	n/a	n/a
327.604830	2	cue_social_low	n/a	16	-6	n/a	n/a	n/a
334.333620	2	cue_nonsocial	n/a	16	-6	n/a	n/a	n/a
334.333620	2	cue_nonsocial_low	n/a	16	-7	n/a	n/a	n/a
341.243560	2	cue_social	n/a	32	9	n/a	n/a	n/a
341.243560	2	cue_social_high	n/a	32	10	n/a	n/a	n/a
348.062040	2	cue_social	n/a	32	9	n/a	n/a	n/a
348.062040	2	cue_social_high	n/a	32	10	n/a	n/a	n/a
355.649900	2	cue_nonsocial	n/a	16	-6	n/a	n/a	n/a
355.649900	2	cue_nonsocial_low	n/a	16	-7	n/a	n/a	n/a
362.531620	2	cue_social	n/a	16	-7	n/a	n/a	n/a
362.531620	2	cue_social_low	n/a	16	-6	n/a	n/a	n/a
370.174220	2	cue_social	n/a	16	-7	n/a	n/a	n/a
370.174220	2	cue_social_low	n/a	16	-6	n/a	n/a	n/a
6.524684	1.899837	dec_nonsocial_choice	1.899837	32.000000	n/a	3	-1.360677e-01	-1.360677e-01
6.524684	1.899837	dec_choice	1.899837	32.000000	n/a	3	-1.367188e-01	-1.367188e-01
6.524684	1.899837	dec_nonsocial_accept	1.899837	32.000000	n/a	3	-2.589286e-01	-2.589286e-01
6.524684	1.899837	dec_accept	1.899837	32.000000	n/a	3	-2.067308e-01	-2.067308e-01
6.524684	1.899837	dec_nonsocial_accept_low	1.899837	32.000000	n/a	3	-3.437500e-01	-3.437500e-01
13.357141	1.517416	dec_nonsocial_choice	1.517416	32.000000	n/a	16	2.701823e-01	2.701823e-01
13.357141	1.517416	dec_choice	1.517416	32.000000	n/a	16	2.695312e-01	2.695312e-01
13.357141	1.517416	dec_nonsocial_accept	1.517416	32.000000	n/a	16	1.473214e-01	1.473214e-01
13.357141	1.517416	dec_accept	1.517416	32.000000	n/a	16	1.995192e-01	1.995192e-01
13.357141	1.517416	dec_nonsocial_high	1.517416	32.000000	n/a	16	2.695312e-01	2.695312e-01
13.357141	1.517416	dec_nonsocial_accept_high	1.517416	32.000000	n/a	16	1.995192e-01	1.995192e-01
20.190294	1.450611	dec_social_choice	1.450611	32.000000	n/a	16	2.701823e-01	2.701823e-01
20.190294	1.450611	dec_choice	1.450611	32.000000	n/a	16	2.708333e-01	2.708333e-01
20.190294	1.450611	dec_social_accept	1.450611	32.000000	n/a	16	1.473214e-01	1.473214e-01
20.190294	1.450611	dec_accept	1.450611	32.000000	n/a	16	6.250000e-02	6.250000e-02
20.190294	1.450611	dec_social_high	1.450611	32.000000	n/a	16	2.708333e-01	2.708333e-01
20.190294	1.450611	dec_social_accept_high	1.450611	32.000000	n/a	16	2.708333e-01	2.708333e-01
27.840204	1.083708	dec_social_choice	1.083708	16.000000	n/a	0	0	-2.298177e-01
27.840204	1.083708	dec_choice	1.083708	16.000000	n/a	0	0	-2.291667e-01
27.840204	1.083708	dec_social_reject	1.083708	16.000000	n/a	0	0	-7.175926e-02
27.840204	1.083708	dec_reject	1.083708	16.000000	n/a	0	0	-6.250000e-02
27.840204	1.083708	dec_social_reject_low	1.083708	16.000000	n/a	1	-1.666667e-01	-2.291667e-01
34.673874	1.100780	dec_social_choice	1.100780	32.000000	n/a	16	2.701823e-01	2.701823e-01
34.673874	1.100780	dec_choice	1.100780	32.000000	n/a	16	2.708333e-01	2.708333e-01
34.673874	1.100780	dec_social_accept	1.100780	32.000000	n/a	16	1.473214e-01	1.473214e-01
34.673874	1.100780	dec_accept	1.100780	32.000000	n/a	16	6.250000e-02	6.250000e-02
34.673874	1.100780	dec_social_high	1.100780	32.000000	n/a	16	2.708333e-01	2.708333e-01
34.673874	1.100780	dec_social_accept_high	1.100780	32.000000	n/a	16	2.708333e-01	2.708333e-01
41.507385	1.800254	dec_nonsocial_choice	1.800254	32.000000	n/a	2	-1.673177e-01	-1.673177e-01
41.507385	1.800254	dec_choice	1.800254	32.000000	n/a	2	-1.679688e-01	-1.679688e-01
41.507385	1.800254	dec_nonsocial_accept	1.800254	32.000000	n/a	2	-2.901786e-01	-2.901786e-01
41.507385	1.800254	dec_accept	1.800254	32.000000	n/a	2	-2.379808e-01	-2.379808e-01
41.507385	1.800254	dec_nonsocial_low	1.800254	32.000000	n/a	2	-1.679688e-01	-1.679688e-01
41.507385	1.800254	dec_nonsocial_accept_low	1.800254	32.000000	n/a	2	-2.379808e-01	-2.379808e-01
49.158474	1.415127	dec_nonsocial_choice	1.415127	16.000000	n/a	8	2.701823e-01	2.701823e-01
49.158474	1.415127	dec_choice	1.415127	16.000000	n/a	8	2.695312e-01	2.695312e-01
49.158474	1.415127	dec_nonsocial_accept	1.415127	16.000000	n/a	8	1.473214e-01	1.473214e-01
49.158474	1.415127	dec_accept	1.415127	16.000000	n/a	8	1.995192e-01	1.995192e-01
49.158474	1.415127	dec_nonsocial_high	1.415127	16.000000	n/a	8	2.695312e-01	2.695312e-01
49.158474	1.415127	dec_nonsocial_accept_high	1.415127	16.000000	n/a	8	1.995192e-01	1.995192e-01
55.991210	1.099725	dec_social_choice	1.099725	16.000000	n/a	8	2.701823e-01	2.701823e-01
55.991210	1.099725	dec_choice	1.099725	16.000000	n/a	8	2.708333e-01	2.708333e-01
55.991210	1.099725	dec_social_accept	1.099725	16.000000	n/a	8	1.473214e-01	1.473214e-01
55.991210	1.099725	dec_accept	1.099725	16.000000	n/a	8	6.250000e-02	6.250000e-02
55.991210	1.099725	dec_social_high	1.099725	16.000000	n/a	8	2.708333e-01	2.708333e-01
55.991210	1.099725	dec_social_accept_high	1.099725	16.000000	n/a	8	2.708333e-01	2.708333e-01
62.825180	1.165675	dec_social_choice	1.165675	16.000000	n/a	0	0	-2.298177e-01
62.825180	1.165675	dec_choice	1.165675	16.000000	n/a	0	0	-2.291667e-01
62.825180	1.165675	dec_social_reject	1.165675	16.000000	n/a	0	0	1.157407e-01
62.825180	1.165675	dec_reject	1.165675	16.000000	n/a	0	0	1.250000e-01
62.825180	1.165675	dec_social_reject_low	1.165675	16.000000	n/a	4	2.083333e-02	-2.291667e-01
69.657190	0.800323	dec_social_choice	0.800323	16.000000	n/a	0	0	-2.298177e-01
69.657190	0.800323	dec_choice	0.800323	16.000000	n/a	0	0	-2.291667e-01
69.657190	0.800323	dec_social_reject	0.800323	16.000000	n/a	0	0	-9.259259e-03
69.657190	0.800323	dec_reject	0.800323	16.000000	n/a	0	0	0
69.657190	0.800323	dec_social_reject_low	0.800323	16.000000	n/a	2	-1.041667e-01	-2.291667e-01
78.908180	1.249360	dec_nonsocial_choice	1.249360	16.000000	n/a	0	0	-2.298177e-01
78.908180	1.249360	dec_choice	1.249360	16.000000	n/a	0	0	-2.304688e-01
78.908180	1.249360	dec_nonsocial_reject	1.249360	16.000000	n/a	0	0	-9.259259e-03
78.908180	1.249360	dec_reject	1.249360	16.000000	n/a	0	0	-2.272727e-02
78.908180	1.249360	dec_nonsocial_low	1.249360	16.000000	n/a	0	-2.304688e-01	-2.304688e-01
78.908180	1.249360	dec_nonsocial_reject_low	1.249360	16.000000	n/a	2	-2.272727e-02	-1.477273e-01
85.740750	1.250139	dec_nonsocial_choice	1.250139	32.000000	n/a	8	2.018229e-02	2.018229e-02
85.740750	1.250139	dec_choice	1.250139	32.000000	n/a	8	1.953125e-02	1.953125e-02
85.740750	1.250139	dec_nonsocial_accept	1.250139	32.000000	n/a	8	-1.026786e-01	-1.026786e-01
85.740750	1.250139	dec_accept	1.250139	32.000000	n/a	8	-5.048077e-02	-5.048077e-02
85.740750	1.250139	dec_nonsocial_high	1.250139	32.000000	n/a	8	1.953125e-02	1.953125e-02
85.740750	1.250139	dec_nonsocial_accept_high	1.250139	32.000000	n/a	8	-5.048077e-02	-5.048077e-02
94.990080	0.967061	dec_social_choice	0.967061	32.000000	n/a	16	2.701823e-01	2.701823e-01
94.990080	0.967061	dec_choice	0.967061	32.000000	n/a	16	2.708333e-01	2.708333e-01
94.990080	0.967061	dec_social_accept	0.967061	32.000000	n/a	16	1.473214e-01	1.473214e-01
94.990080	0.967061	dec_accept	0.967061	32.000000	n/a	16	6.250000e-02	6.250000e-02
94.990080	0.967061	dec_social_high	0.967061	32.000000	n/a	16	2.708333e-01	2.708333e-01
94.990080	0.967061	dec_social_accept_high	0.967061	32.000000	n/a	16	2.708333e-01	2.708333e-01
104.240310	0.733653	dec_nonsocial_choice	0.733653	16.000000	n/a	8	2.701823e-01	2.701823e-01
104.240310	0.733653	dec_choice	0.733653	16.000000	n/a	8	2.695312e-01	2.695312e-01
104.240310	0.733653	dec_nonsocial_accept	0.733653	16.000000	n/a	8	1.473214e-01	1.473214e-01
104.240310	0.733653	dec_accept	0.733653	16.000000	n/a	8	1.995192e-01	1.995192e-01
104.240310	0.733653	dec_nonsocial_high	0.733653	16.000000	n/a	8	2.695312e-01	2.695312e-01
104.240310	0.733653	dec_nonsocial_accept_high	0.733653	16.000000	n/a	8	1.995192e-01	1.995192e-01
111.074165	0.799880	dec_nonsocial_choice	0.799880	32.000000	n/a	2	-1.673177e-01	-1.673177e-01
111.074165	0.799880	dec_choice	0.799880	32.000000	n/a	2	-1.679688e-01	-1.679688e-01
111.074165	0.799880	dec_nonsocial_accept	0.799880	32.000000	n/a	2	-2.901786e-01	-2.901786e-01
111.074165	0.799880	dec_accept	0.799880	32.000000	n/a	2	-2.379808e-01	-2.379808e-01
111.074165	0.799880	dec_nonsocial_accept_low	0.799880	32.000000	n/a	2	-3.750000e-01	-3.750000e-01
120.324800	1.099384	dec_nonsocial_choice	1.099384	16.000000	n/a	0	0	-2.298177e-01
120.324800	1.099384	dec_choice	1.099384	16.000000	n/a	0	0	-2.304688e-01
120.324800	1.099384	dec_nonsocial_reject	1.099384	16.000000	n/a	0	0	1.157407e-01
120.324800	1.099384	dec_reject	1.099384	16.000000	n/a	0	0	1.022727e-01
120.324800	1.099384	dec_nonsocial_low	1.099384	16.000000	n/a	0	-2.304688e-01	-2.304688e-01
120.324800	1.099384	dec_nonsocial_reject_low	1.099384	16.000000	n/a	4	1.022727e-01	-1.477273e-01
127.157190	1.883605	dec_nonsocial_choice	1.883605	16.000000	n/a	0	0	-2.298177e-01
127.157190	1.883605	dec_choice	1.883605	16.000000	n/a	0	0	-2.304688e-01
127.157190	1.883605	dec_nonsocial_reject	1.883605	16.000000	n/a	0	0	-7.175926e-02
127.157190	1.883605	dec_reject	1.883605	16.000000	n/a	0	0	-8.522727e-02
127.157190	1.883605	dec_nonsocial_low	1.883605	16.000000	n/a	0	-2.304688e-01	-2.304688e-01
127.157190	1.883605	dec_nonsocial_reject_low	1.883605	16.000000	n/a	1	-8.522727e-02	-1.477273e-01
139.640050	0.983487	dec_social_choice	0.983487	32.000000	n/a	0	0	-2.298177e-01
139.640050	0.983487	dec_choice	0.983487	32.000000	n/a	0	0	-2.291667e-01
139.640050	0.983487	dec_social_reject	0.983487	32.000000	n/a	0	0	-4.050926e-02
139.640050	0.983487	dec_reject	0.983487	32.000000	n/a	0	0	-3.125000e-02
139.640050	0.983487	dec_social_low	0.983487	32.000000	n/a	0	-2.291667e-01	-2.291667e-01
139.640050	0.983487	dec_social_reject_low	0.983487	32.000000	n/a	3	-1.354167e-01	-2.291667e-01
146.473360	1.068080	dec_social_choice	1.068080	32.000000	n/a	16	2.701823e-01	2.701823e-01
146.473360	1.068080	dec_choice	1.068080	32.000000	n/a	16	2.708333e-01	2.708333e-01
146.473360	1.068080	dec_social_accept	1.068080	32.000000	n/a	16	1.473214e-01	1.473214e-01
146.473360	1.068080	dec_accept	1.068080	32.000000	n/a	16	6.250000e-02	6.250000e-02
146.473360	1.068080	dec_social_high	1.068080	32.000000	n/a	16	2.708333e-01	2.708333e-01
146.473360	1.068080	dec_social_accept_high	1.068080	32.000000	n/a	16	2.708333e-01	2.708333e-01
153.307280	0.633320	dec_nonsocial_choice	0.633320	16.000000	n/a	1	-1.673177e-01	-1.673177e-01
153.307280	0.633320	dec_choice	0.633320	16.000000	n/a	1	-1.679688e-01	-1.679688e-01
153.307280	0.633320	dec_nonsocial_accept	0.633320	16.000000	n/a	1	-2.901786e-01	-2.901786e-01
153.307280	0.633320	dec_accept	0.633320	16.000000	n/a	1	-2.379808e-01	-2.379808e-01
153.307280	0.633320	dec_nonsocial_accept_low	0.633320	16.000000	n/a	1	-3.750000e-01	-3.750000e-01
160.140180	1.367159	dec_social_choice	1.367159	32.000000	n/a	0	0	-2.298177e-01
160.140180	1.367159	dec_choice	1.367159	32.000000	n/a	0	0	-2.291667e-01
160.140180	1.367159	dec_social_reject	1.367159	32.000000	n/a	0	0	1.157407e-01
160.140180	1.367159	dec_reject	1.367159	32.000000	n/a	0	0	1.250000e-01
160.140180	1.367159	dec_social_low	1.367159	32.000000	n/a	0	-2.291667e-01	-2.291667e-01
160.140180	1.367159	dec_social_reject_low	1.367159	32.000000	n/a	8	2.083333e-02	-2.291667e-01
171.007160	1.583933	dec_social_choice	1.583933	16.000000	n/a	0	0	-2.298177e-01
171.007160	1.583933	dec_choice	1.583933	16.000000	n/a	0	0	-2.291667e-01
171.007160	1.583933	dec_social_reject	1.583933	16.000000	n/a	0	0	1.157407e-01
171.007160	1.583933	dec_reject	1.583933	16.000000	n/a	0	0	1.250000e-01
171.007160	1.583933	dec_social_low	1.583933	16.000000	n/a	0	-2.291667e-01	-2.291667e-01
171.007160	1.583933	dec_social_reject_low	1.583933	16.000000	n/a	4	2.083333e-02	-2.291667e-01
177.841140	1.533130	dec_nonsocial_choice	1.533130	16.000000	n/a	2	-1.048177e-01	-1.048177e-01
177.841140	1.533130	dec_choice	1.533130	16.000000	n/a	2	-1.054688e-01	-1.054688e-01
177.841140	1.533130	dec_nonsocial_accept	1.533130	16.000000	n/a	2	-2.276786e-01	-2.276786e-01
177.841140	1.533130	dec_accept	1.533130	16.000000	n/a	2	-1.754808e-01	-1.754808e-01
177.841140	1.533130	dec_nonsocial_low	1.533130	16.000000	n/a	2	-1.054688e-01	-1.054688e-01
177.841140	1.533130	dec_nonsocial_accept_low	1.533130	16.000000	n/a	2	-1.754808e-01	-1.754808e-01
184.673840	0.949847	dec_nonsocial_choice	0.949847	16.000000	n/a	0	0	-2.298177e-01
184.673840	0.949847	dec_choice	0.949847	16.000000	n/a	0	0	-2.304688e-01
184.673840	0.949847	dec_nonsocial_reject	0.949847	16.000000	n/a	0	0	1.157407e-01
184.673840	0.949847	dec_reject	0.949847	16.000000	n/a	0	0	1.022727e-01
184.673840	0.949847	dec_nonsocial_low	0.949847	16.000000	n/a	0	-2.304688e-01	-2.304688e-01
184.673840	0.949847	dec_nonsocial_reject_low	0.949847	16.000000	n/a	4	1.022727e-01	-1.477273e-01
195.541020	0.949848	dec_nonsocial_choice	0.949848	32.000000	n/a	0	0	-2.298177e-01
195.541020	0.949848	dec_choice	0.949848	32.000000	n/a	0	0	-2.304688e-01
195.541020	0.949848	dec_nonsocial_reject	0.949848	32.000000	n/a	0	0	-7.175926e-02
195.541020	0.949848	dec_reject	0.949848	32.000000	n/a	0	0	-8.522727e-02
195.541020	0.949848	dec_nonsocial_low	0.949848	32.000000	n/a	0	-2.304688e-01	-2.304688e-01
195.541020	0.949848	dec_nonsocial_reject_low	0.949848	32.000000	n/a	2	-8.522727e-02	-1.477273e-01
203.190200	1.550440	dec_nonsocial_choice	1.550440	16.000000	n/a	0	0	-2.298177e-01
203.190200	1.550440	dec_choice	1.550440	16.000000	n/a	0	0	-2.304688e-01
203.190200	1.550440	dec_nonsocial_reject	1.550440	16.000000	n/a	0	0	1.157407e-01
203.190200	1.550440	dec_reject	1.550440	16.000000	n/a	0	0	1.022727e-01
203.190200	1.550440	dec_nonsocial_reject_low	1.550440	16.000000	n/a	4	1.250000e-01	-1.250000e-01
212.440630	1.283759	dec_nonsocial_choice	1.283759	16.000000	n/a	8	2.701823e-01	2.701823e-01
212.440630	1.283759	dec_choice	1.283759	16.000000	n/a	8	2.695312e-01	2.695312e-01
212.440630	1.283759	dec_nonsocial_accept	1.283759	16.000000	n/a	8	1.473214e-01	1.473214e-01
212.440630	1.283759	dec_accept	1.283759	16.000000	n/a	8	1.995192e-01	1.995192e-01
212.440630	1.283759	dec_nonsocial_accept_high	1.283759	16.000000	n/a	8	6.250000e-02	6.250000e-02
223.307130	1.083338	dec_nonsocial_choice	1.083338	16.000000	n/a	0	0	-2.298177e-01
223.307130	1.083338	dec_choice	1.083338	16.000000	n/a	0	0	-2.304688e-01
223.307130	1.083338	dec_nonsocial_reject	1.083338	16.000000	n/a	0	0	-9.259259e-03
223.307130	1.083338	dec_reject	1.083338	16.000000	n/a	0	0	-2.272727e-02
223.307130	1.083338	dec_nonsocial_reject_low	1.083338	16.000000	n/a	2	0	-1.250000e-01
230.958360	1.698505	dec_nonsocial_choice	1.698505	32.000000	n/a	16	2.701823e-01	2.701823e-01
230.958360	1.698505	dec_choice	1.698505	32.000000	n/a	16	2.695312e-01	2.695312e-01
230.958360	1.698505	dec_nonsocial_accept	1.698505	32.000000	n/a	16	1.473214e-01	1.473214e-01
230.958360	1.698505	dec_accept	1.698505	32.000000	n/a	16	1.995192e-01	1.995192e-01
230.958360	1.698505	dec_nonsocial_accept_high	1.698505	32.000000	n/a	16	6.250000e-02	6.250000e-02
238.606490	0.966640	dec_social_choice	0.966640	16.000000	n/a	0	0	-2.298177e-01
238.606490	0.966640	dec_choice	0.966640	16.000000	n/a	0	0	-2.291667e-01
238.606490	0.966640	dec_social_reject	0.966640	16.000000	n/a	0	0	-7.175926e-02
238.606490	0.966640	dec_reject	0.966640	16.000000	n/a	0	0	-6.250000e-02
238.606490	0.966640	dec_social_reject_low	0.966640	16.000000	n/a	1	-1.666667e-01	-2.291667e-01
247.874130	1.483151	dec_nonsocial_choice	1.483151	32.000000	n/a	0	0	-2.298177e-01
247.874130	1.483151	dec_choice	1.483151	32.000000	n/a	0	0	-2.304688e-01
247.874130	1.483151	dec_nonsocial_reject	1.483151	32.000000	n/a	0	0	-4.050926e-02
247.874130	1.483151	dec_reject	1.483151	32.000000	n/a	0	0	-5.397727e-02
247.874130	1.483151	dec_nonsocial_low	1.483151	32.000000	n/a	0	-2.304688e-01	-2.304688e-01
247.874130	1.483151	dec_nonsocial_reject_low	1.483151	32.000000	n/a	3	-5.397727e-02	-1.477273e-01
257.124150	0.849503	dec_social_choice	0.849503	16.000000	n/a	0	0	-2.298177e-01
257.124150	0.849503	dec_choice	0.849503	16.000000	n/a	0	0	-2.291667e-01
257.124150	0.849503	dec_social_reject	0.849503	16.000000	n/a	0	0	-7.175926e-02
257.124150	0.849503	dec_reject	0.849503	16.000000	n/a	0	0	-6.250000e-02
257.124150	0.849503	dec_social_low	0.849503	16.000000	n/a	0	-2.291667e-01	-2.291667e-01
257.124150	0.849503	dec_social_reject_low	0.849503	16.000000	n/a	1	-1.666667e-01	-2.291667e-01
264.774170	0.983105	dec_social_choice	0.983105	16.000000	n/a	0	0	-2.298177e-01
264.774170	0.983105	dec_choice	0.983105	16.000000	n/a	0	0	-2.291667e-01
264.774170	0.983105	dec_social_reject	0.983105	16.000000	n/a	0	0	-7.175926e-02
264.774170	0.983105	dec_reject	0.983105	16.000000	n/a	0	0	-6.250000e-02
264.774170	0.983105	dec_social_reject_low	0.983105	16.000000	n/a	1	-1.666667e-01	-2.291667e-01
272.422900	0.833665	dec_social_choice	0.833665	32.000000	n/a	16	2.701823e-01	2.701823e-01
272.422900	0.833665	dec_choice	0.833665	32.000000	n/a	16	2.708333e-01	2.708333e-01
272.422900	0.833665	dec_social_accept	0.833665	32.000000	n/a	16	1.473214e-01	1.473214e-01
272.422900	0.833665	dec_accept	0.833665	32.000000	n/a	16	6.250000e-02	6.250000e-02
272.422900	0.833665	dec_social_accept_high	0.833665	32.000000	n/a	16	2.708333e-01	2.708333e-01
279.257140	1.133054	dec_nonsocial_choice	1.133054	16.000000	n/a	0	0	-2.298177e-01
279.257140	1.133054	dec_choice	1.133054	16.000000	n/a	0	0	-2.304688e-01
279.257140	1.133054	dec_nonsocial_reject	1.133054	16.000000	n/a	0	0	1.157407e-01
279.257140	1.133054	dec_reject	1.133054	16.000000	n/a	0	0	1.022727e-01
279.257140	1.133054	dec_nonsocial_reject_low	1.133054	16.000000	n/a	4	1.250000e-01	-1.250000e-01
286.089660	1.400647	dec_nonsocial_choice	1.400647	16.000000	n/a	8	2.701823e-01	2.701823e-01
286.089660	1.400647	dec_choice	1.400647	16.000000	n/a	8	2.695312e-01	2.695312e-01
286.089660	1.400647	dec_nonsocial_accept	1.400647	16.000000	n/a	8	1.473214e-01	1.473214e-01
286.089660	1.400647	dec_accept	1.400647	16.000000	n/a	8	1.995192e-01	1.995192e-01
286.089660	1.400647	dec_nonsocial_high	1.400647	16.000000	n/a	8	2.695312e-01	2.695312e-01
286.089660	1.400647	dec_nonsocial_accept_high	1.400647	16.000000	n/a	8	1.995192e-01	1.995192e-01
293.724120	0.865791	dec_social_choice	0.865791	16.000000	n/a	0	0	-2.298177e-01
293.724120	0.865791	dec_choice	0.865791	16.000000	n/a	0	0	-2.291667e-01
293.724120	0.865791	dec_social_reject	0.865791	16.000000	n/a	0	0	1.157407e-01
293.724120	0.865791	dec_reject	0.865791	16.000000	n/a	0	0	1.250000e-01
293.724120	0.865791	dec_social_reject_low	0.865791	16.000000	n/a	4	2.083333e-02	-2.291667e-01
300.557130	0.849803	dec_social_choice	0.849803	32.000000	n/a	0	0	-2.298177e-01
300.557130	0.849803	dec_choice	0.849803	32.000000	n/a	0	0	-2.291667e-01
300.557130	0.849803	dec_social_reject	0.849803	32.000000	n/a	0	0	-4.050926e-02
300.557130	0.849803	dec_reject	0.849803	32.000000	n/a	0	0	-3.125000e-02
300.557130	0.849803	dec_social_low	0.849803	32.000000	n/a	0	-2.291667e-01	-2.291667e-01
300.557130	0.849803	dec_social_reject_low	0.849803	32.000000	n/a	3	-1.354167e-01	-2.291667e-01
308.206050	0.934058	dec_nonsocial_choice	0.934058	32.000000	n/a	0	0	-2.298177e-01
308.206050	0.934058	dec_choice	0.934058	32.000000	n/a	0	0	-2.304688e-01
308.206050	0.934058	dec_nonsocial_reject	0.934058	32.000000	n/a	0	0	-4.050926e-02
308.206050	0.934058	dec_reject	0.934058	32.000000	n/a	0	0	-5.397727e-02
308.206050	0.934058	dec_nonsocial_reject_low	0.934058	32.000000	n/a	3	-3.125000e-02	-1.250000e-01
315.040130	0.983510	dec_social_choice	0.983510	16.000000	n/a	0	0	-2.298177e-01
315.040130	0.983510	dec_choice	0.983510	16.000000	n/a	0	0	-2.291667e-01
315.040130	0.983510	dec_social_reject	0.983510	16.000000	n/a	0	0	-7.175926e-02
315.040130	0.983510	dec_reject	0.983510	16.000000	n/a	0	0	-6.250000e-02
315.040130	0.983510	dec_social_reject_low	0.983510	16.000000	n/a	1	-1.666667e-01	-2.291667e-01
321.873100	1.734292	dec_social_choice	1.734292	16.000000	n/a	4	2.018229e-02	2.018229e-02
321.873100	1.734292	dec_choice	1.734292	16.000000	n/a	4	2.083333e-02	2.083333e-02
321.873100	1.734292	dec_social_accept	1.734292	16.000000	n/a	4	-1.026786e-01	-1.026786e-01
321.873100	1.734292	dec_accept	1.734292	16.000000	n/a	4	-1.875000e-01	-1.875000e-01
321.873100	1.734292	dec_social_high	1.734292	16.000000	n/a	4	2.083333e-02	2.083333e-02
321.873100	1.734292	dec_social_accept_high	1.734292	16.000000	n/a	4	2.083333e-02	2.083333e-02
329.507100	1.199977	dec_social_choice	1.199977	16.000000	n/a	0	0	-2.298177e-01
329.507100	1.199977	dec_choice	1.199977	16.000000	n/a	0	0	-2.291667e-01
329.507100	1.199977	dec_social_reject	1.199977	16.000000	n/a	0	0	-9.259259e-03
329.507100	1.199977	dec_reject	1.199977	16.000000	n/a	0	0	0
329.507100	1.199977	dec_social_low	1.199977	16.000000	n/a	0	-2.291667e-01	-2.291667e-01
329.507100	1.199977	dec_social_reject_low	1.199977	16.000000	n/a	2	-1.041667e-01	-2.291667e-01
336.340000	1.083626	dec_nonsocial_choice	1.083626	16.000000	n/a	0	0	-2.298177e-01
336.340000	1.083626	dec_choice	1.083626	16.000000	n/a	0	0	-2.304688e-01
336.340000	1.083626	dec_nonsocial_reject	1.083626	16.000000	n/a	0	0	-7.175926e-02
336.340000	1.083626	dec_reject	1.083626	16.000000	n/a	0	0	-8.522727e-02
336.340000	1.083626	dec_nonsocial_low	1.083626	16.000000	n/a	0	-2.304688e-01	-2.304688e-01
336.340000	1.083626	dec_nonsocial_reject_low	1.083626	16.000000	n/a	1	-8.522727e-02	-1.477273e-01
343.172850	0.950787	dec_social_choice	0.950787	32.000000	n/a	0	0	-2.298177e-01
343.172850	0.950787	dec_choice	0.950787	32.000000	n/a	0	0	-2.291667e-01
343.172850	0.950787	dec_social_reject	0.950787	32.000000	n/a	0	0	-4.050926e-02
343.172850	0.950787	dec_reject	0.950787	32.000000	n/a	0	0	-3.125000e-02
343.172850	0.950787	dec_social_low	0.950787	32.000000	n/a	0	-2.291667e-01	-2.291667e-01
343.172850	0.950787	dec_social_reject_low	0.950787	32.000000	n/a	3	-1.354167e-01	-2.291667e-01
350.007140	1.249726	dec_social_choice	1.249726	32.000000	n/a	0	0	-2.298177e-01
350.007140	1.249726	dec_choice	1.249726	32.000000	n/a	0	0	-2.291667e-01
350.007140	1.249726	dec_social_reject	1.249726	32.000000	n/a	0	0	-4.050926e-02
350.007140	1.249726	dec_reject	1.249726	32.000000	n/a	0	0	-3.125000e-02
350.007140	1.249726	dec_social_low	1.249726	32.000000	n/a	0	-2.291667e-01	-2.291667e-01
350.007140	1.249726	dec_social_reject_low	1.249726	32.000000	n/a	3	-1.354167e-01	-2.291667e-01
357.656220	1.267020	dec_nonsocial_choice	1.267020	16.000000	n/a	4	2.018229e-02	2.018229e-02
357.656220	1.267020	dec_choice	1.267020	16.000000	n/a	4	1.953125e-02	1.953125e-02
357.656220	1.267020	dec_nonsocial_accept	1.267020	16.000000	n/a	4	-1.026786e-01	-1.026786e-01
357.656220	1.267020	dec_accept	1.267020	16.000000	n/a	4	-5.048077e-02	-5.048077e-02
357.656220	1.267020	dec_nonsocial_accept_high	1.267020	16.000000	n/a	4	-1.875000e-01	-1.875000e-01
364.489350	0.867096	dec_social_choice	0.867096	16.000000	n/a	0	0	-2.298177e-01
364.489350	0.867096	dec_choice	0.867096	16.000000	n/a	0	0	-2.291667e-01
364.489350	0.867096	dec_social_reject	0.867096	16.000000	n/a	0	0	-7.175926e-02
364.489350	0.867096	dec_reject	0.867096	16.000000	n/a	0	0	-6.250000e-02
364.489350	0.867096	dec_social_low	0.867096	16.000000	n/a	0	-2.291667e-01	-2.291667e-01
364.489350	0.867096	dec_social_reject_low	0.867096	16.000000	n/a	1	-1.666667e-01	-2.291667e-01
372.140100	1.133369	dec_social_choice	1.133369	16.000000	n/a	4	2.018229e-02	2.018229e-02
372.140100	1.133369	dec_choice	1.133369	16.000000	n/a	4	2.083333e-02	2.083333e-02
372.140100	1.133369	dec_social_accept	1.133369	16.000000	n/a	4	-1.026786e-01	-1.026786e-01
372.140100	1.133369	dec_accept	1.133369	16.000000	n/a	4	-1.875000e-01	-1.875000e-01
372.140100	1.133369	dec_social_accept_high	1.133369	16.000000	n/a	4	2.083333e-02	2.083333e-02
