onset	duration	trial_type	response_time	Endowment	Endowment_pmod	Decision	Decision_pmod	Offer_pmod
4.510816	2	cue_nonsocial	n/a	16	-8	n/a	n/a	n/a
4.510816	2	cue_nonsocial_low	n/a	16	-11	n/a	n/a	n/a
17.062080	2	cue_social	n/a	32	5	n/a	n/a	n/a
17.062080	2	cue_social_high	n/a	32	8	n/a	n/a	n/a
23.827654	2	cue_nonsocial	n/a	32	8	n/a	n/a	n/a
23.827654	2	cue_nonsocial_high	n/a	32	5	n/a	n/a	n/a
31.477364	2	cue_nonsocial	n/a	16	-8	n/a	n/a	n/a
31.477364	2	cue_nonsocial_low	n/a	16	-11	n/a	n/a	n/a
39.179740	2	cue_social	n/a	32	5	n/a	n/a	n/a
39.179740	2	cue_social_high	n/a	32	8	n/a	n/a	n/a
46.777405	2	cue_nonsocial	n/a	32	8	n/a	n/a	n/a
46.777405	2	cue_nonsocial_high	n/a	32	5	n/a	n/a	n/a
54.427380	2	cue_nonsocial	n/a	16	-8	n/a	n/a	n/a
54.427380	2	cue_nonsocial_low	n/a	16	-11	n/a	n/a	n/a
61.322290	2	cue_social	n/a	32	5	n/a	n/a	n/a
61.322290	2	cue_social_high	n/a	32	8	n/a	n/a	n/a
68.910730	2	cue_nonsocial	n/a	16	-8	n/a	n/a	n/a
68.910730	2	cue_nonsocial_low	n/a	16	-11	n/a	n/a	n/a
75.813255	2	cue_social	n/a	32	5	n/a	n/a	n/a
75.813255	2	cue_social_high	n/a	32	8	n/a	n/a	n/a
82.689674	2	cue_social	n/a	16	-11	n/a	n/a	n/a
82.689674	2	cue_social_low	n/a	16	-8	n/a	n/a	n/a
89.472690	2	cue_social	n/a	32	5	n/a	n/a	n/a
89.472690	2	cue_social_high	n/a	32	8	n/a	n/a	n/a
96.351580	2	cue_social	n/a	16	-11	n/a	n/a	n/a
96.351580	2	cue_social_low	n/a	16	-8	n/a	n/a	n/a
103.077480	2	cue_nonsocial	n/a	16	-8	n/a	n/a	n/a
103.077480	2	cue_nonsocial_low	n/a	16	-11	n/a	n/a	n/a
110.727684	2	cue_nonsocial	n/a	32	8	n/a	n/a	n/a
110.727684	2	cue_nonsocial_high	n/a	32	5	n/a	n/a	n/a
118.430000	2	cue_social	n/a	16	-11	n/a	n/a	n/a
118.430000	2	cue_social_low	n/a	16	-8	n/a	n/a	n/a
127.714740	2	cue_social	n/a	16	-11	n/a	n/a	n/a
127.714740	2	cue_social_low	n/a	16	-8	n/a	n/a	n/a
135.294100	2	cue_nonsocial	n/a	16	-8	n/a	n/a	n/a
135.294100	2	cue_nonsocial_low	n/a	16	-11	n/a	n/a	n/a
142.244080	2	cue_social	n/a	16	-11	n/a	n/a	n/a
142.244080	2	cue_social_low	n/a	16	-8	n/a	n/a	n/a
151.377060	2	cue_nonsocial	n/a	16	-8	n/a	n/a	n/a
151.377060	2	cue_nonsocial_low	n/a	16	-11	n/a	n/a	n/a
158.210850	2	cue_nonsocial	n/a	32	8	n/a	n/a	n/a
158.210850	2	cue_nonsocial_high	n/a	32	5	n/a	n/a	n/a
165.043550	2	cue_nonsocial	n/a	16	-8	n/a	n/a	n/a
165.043550	2	cue_nonsocial_low	n/a	16	-11	n/a	n/a	n/a
174.294000	2	cue_nonsocial	n/a	32	8	n/a	n/a	n/a
174.294000	2	cue_nonsocial_high	n/a	32	5	n/a	n/a	n/a
181.192660	2	cue_social	n/a	32	5	n/a	n/a	n/a
181.192660	2	cue_social_high	n/a	32	8	n/a	n/a	n/a
190.377520	2	cue_nonsocial	n/a	32	8	n/a	n/a	n/a
190.377520	2	cue_nonsocial_high	n/a	32	5	n/a	n/a	n/a
197.210700	2	cue_nonsocial	n/a	32	8	n/a	n/a	n/a
197.210700	2	cue_nonsocial_high	n/a	32	5	n/a	n/a	n/a
204.113660	2	cue_social	n/a	32	5	n/a	n/a	n/a
204.113660	2	cue_social_high	n/a	32	8	n/a	n/a	n/a
210.935500	2	cue_social	n/a	32	5	n/a	n/a	n/a
210.935500	2	cue_social_high	n/a	32	8	n/a	n/a	n/a
220.198430	2	cue_social	n/a	32	5	n/a	n/a	n/a
220.198430	2	cue_social_high	n/a	32	8	n/a	n/a	n/a
227.847320	2	cue_social	n/a	32	5	n/a	n/a	n/a
227.847320	2	cue_social_high	n/a	32	8	n/a	n/a	n/a
235.528960	2	cue_social	n/a	16	-11	n/a	n/a	n/a
235.528960	2	cue_social_low	n/a	16	-8	n/a	n/a	n/a
246.366760	2	cue_social	n/a	32	5	n/a	n/a	n/a
246.366760	2	cue_social_high	n/a	32	8	n/a	n/a	n/a
257.246980	2	cue_social	n/a	16	-11	n/a	n/a	n/a
257.246980	2	cue_social_low	n/a	16	-8	n/a	n/a	n/a
264.010470	2	cue_nonsocial	n/a	32	8	n/a	n/a	n/a
264.010470	2	cue_nonsocial_high	n/a	32	5	n/a	n/a	n/a
270.844060	2	cue_nonsocial	n/a	16	-8	n/a	n/a	n/a
270.844060	2	cue_nonsocial_low	n/a	16	-11	n/a	n/a	n/a
277.677000	2	cue_nonsocial	n/a	32	8	n/a	n/a	n/a
277.677000	2	cue_nonsocial_high	n/a	32	5	n/a	n/a	n/a
285.358900	2	cue_social	n/a	32	5	n/a	n/a	n/a
285.358900	2	cue_social_high	n/a	32	8	n/a	n/a	n/a
294.576660	2	cue_nonsocial	n/a	32	8	n/a	n/a	n/a
294.576660	2	cue_nonsocial_high	n/a	32	5	n/a	n/a	n/a
302.227230	2	cue_nonsocial	n/a	32	8	n/a	n/a	n/a
302.227230	2	cue_nonsocial_high	n/a	32	5	n/a	n/a	n/a
309.119320	2	cue_social	n/a	32	5	n/a	n/a	n/a
309.119320	2	cue_social_high	n/a	32	8	n/a	n/a	n/a
320.029700	2	cue_social	n/a	32	5	n/a	n/a	n/a
320.029700	2	cue_social_high	n/a	32	8	n/a	n/a	n/a
329.246920	2	cue_social	n/a	16	-11	n/a	n/a	n/a
329.246920	2	cue_social_low	n/a	16	-8	n/a	n/a	n/a
336.027280	2	cue_nonsocial	n/a	16	-8	n/a	n/a	n/a
336.027280	2	cue_nonsocial_low	n/a	16	-11	n/a	n/a	n/a
342.875030	2	cue_social	n/a	32	5	n/a	n/a	n/a
342.875030	2	cue_social_high	n/a	32	8	n/a	n/a	n/a
349.693660	2	cue_nonsocial	n/a	32	8	n/a	n/a	n/a
349.693660	2	cue_nonsocial_high	n/a	32	5	n/a	n/a	n/a
356.526730	2	cue_nonsocial	n/a	16	-8	n/a	n/a	n/a
356.526730	2	cue_nonsocial_low	n/a	16	-11	n/a	n/a	n/a
363.418200	2	cue_social	n/a	32	5	n/a	n/a	n/a
363.418200	2	cue_social_high	n/a	32	8	n/a	n/a	n/a
371.010070	2	cue_nonsocial	n/a	16	-8	n/a	n/a	n/a
371.010070	2	cue_nonsocial_low	n/a	16	-11	n/a	n/a	n/a
6.519040	3.082132	dec_nonsocial_choice	3.082132	16.000000	n/a	0	0	-2.317708e-01
6.519040	3.082132	dec_choice	3.082132	16.000000	n/a	0	0	-2.330729e-01
6.519040	3.082132	dec_nonsocial_reject	3.082132	16.000000	n/a	0	0	4.276316e-02
6.519040	3.082132	dec_reject	3.082132	16.000000	n/a	0	0	4.062500e-02
6.519040	3.082132	dec_nonsocial_low	3.082132	16.000000	n/a	0	-2.330729e-01	-2.330729e-01
6.519040	3.082132	dec_nonsocial_reject_low	3.082132	16.000000	n/a	2	4.062500e-02	-8.437500e-02
19.001022	2.800124	dec_social_choice	2.800124	32.000000	n/a	8	1.822917e-02	1.822917e-02
19.001022	2.800124	dec_choice	2.800124	32.000000	n/a	8	1.953125e-02	1.953125e-02
19.001022	2.800124	dec_social_accept	2.800124	32.000000	n/a	8	-7.974138e-02	-7.974138e-02
19.001022	2.800124	dec_accept	2.800124	32.000000	n/a	8	-7.083333e-02	-7.083333e-02
19.001022	2.800124	dec_social_high	2.800124	32.000000	n/a	8	1.953125e-02	1.953125e-02
19.001022	2.800124	dec_social_accept_high	2.800124	32.000000	n/a	8	1.953125e-02	1.953125e-02
25.834680	2.299742	dec_nonsocial_choice	2.299742	32.000000	n/a	0	0	-2.317708e-01
25.834680	2.299742	dec_choice	2.299742	32.000000	n/a	0	0	-2.330729e-01
25.834680	2.299742	dec_nonsocial_reject	2.299742	32.000000	n/a	0	0	1.151316e-02
25.834680	2.299742	dec_reject	2.299742	32.000000	n/a	0	0	9.375000e-03
25.834680	2.299742	dec_nonsocial_low	2.299742	32.000000	n/a	0	-2.330729e-01	-2.330729e-01
25.834680	2.299742	dec_nonsocial_reject_low	2.299742	32.000000	n/a	3	9.375000e-03	-8.437500e-02
33.484680	2.050095	dec_nonsocial_choice	2.050095	16.000000	n/a	2	-1.067708e-01	-1.067708e-01
33.484680	2.050095	dec_choice	2.050095	16.000000	n/a	2	-1.080729e-01	-1.080729e-01
33.484680	2.050095	dec_nonsocial_accept	2.050095	16.000000	n/a	2	-2.047414e-01	-2.047414e-01
33.484680	2.050095	dec_accept	2.050095	16.000000	n/a	2	-2.142857e-01	-2.142857e-01
33.484680	2.050095	dec_nonsocial_accept_low	2.050095	16.000000	n/a	2	-1.958333e-01	-1.958333e-01
41.135017	1.732979	dec_social_choice	1.732979	32.000000	n/a	0	0	-2.317708e-01
41.135017	1.732979	dec_choice	1.732979	32.000000	n/a	0	0	-2.304688e-01
41.135017	1.732979	dec_social_reject	1.732979	32.000000	n/a	0	0	-1.973684e-02
41.135017	1.732979	dec_reject	1.732979	32.000000	n/a	0	0	-1.736111e-02
41.135017	1.732979	dec_social_low	1.732979	32.000000	n/a	0	-2.304688e-01	-2.304688e-01
41.135017	1.732979	dec_social_reject_low	1.732979	32.000000	n/a	2	-1.679688e-01	-2.304688e-01
48.783980	1.700657	dec_nonsocial_choice	1.700657	32.000000	n/a	0	0	-2.317708e-01
48.783980	1.700657	dec_choice	1.700657	32.000000	n/a	0	0	-2.330729e-01
48.783980	1.700657	dec_nonsocial_reject	1.700657	32.000000	n/a	0	0	-1.973684e-02
48.783980	1.700657	dec_reject	1.700657	32.000000	n/a	0	0	-2.187500e-02
48.783980	1.700657	dec_nonsocial_low	1.700657	32.000000	n/a	0	-2.330729e-01	-2.330729e-01
48.783980	1.700657	dec_nonsocial_reject_low	1.700657	32.000000	n/a	2	-2.187500e-02	-8.437500e-02
56.434100	1.183849	dec_nonsocial_choice	1.183849	16.000000	n/a	8	2.682292e-01	2.682292e-01
56.434100	1.183849	dec_choice	1.183849	16.000000	n/a	8	2.669271e-01	2.669271e-01
56.434100	1.183849	dec_nonsocial_accept	1.183849	16.000000	n/a	8	1.702586e-01	1.702586e-01
56.434100	1.183849	dec_accept	1.183849	16.000000	n/a	8	1.607143e-01	1.607143e-01
56.434100	1.183849	dec_nonsocial_high	1.183849	16.000000	n/a	8	2.669271e-01	2.669271e-01
56.434100	1.183849	dec_nonsocial_accept_high	1.183849	16.000000	n/a	8	1.607143e-01	1.607143e-01
63.268097	1.932918	dec_social_choice	1.932918	32.000000	n/a	0	0	-2.317708e-01
63.268097	1.932918	dec_choice	1.932918	32.000000	n/a	0	0	-2.304688e-01
63.268097	1.932918	dec_social_reject	1.932918	32.000000	n/a	0	0	1.151316e-02
63.268097	1.932918	dec_reject	1.932918	32.000000	n/a	0	0	1.388889e-02
63.268097	1.932918	dec_social_low	1.932918	32.000000	n/a	0	-2.304688e-01	-2.304688e-01
63.268097	1.932918	dec_social_reject_low	1.932918	32.000000	n/a	3	-1.367188e-01	-2.304688e-01
70.917465	1.900451	dec_nonsocial_choice	1.900451	16.000000	n/a	0	0	-2.317708e-01
70.917465	1.900451	dec_choice	1.900451	16.000000	n/a	0	0	-2.330729e-01
70.917465	1.900451	dec_nonsocial_reject	1.900451	16.000000	n/a	0	0	-1.973684e-02
70.917465	1.900451	dec_reject	1.900451	16.000000	n/a	0	0	-2.187500e-02
70.917465	1.900451	dec_nonsocial_reject_low	1.900451	16.000000	n/a	1	-1.736111e-02	-7.986111e-02
77.750490	1.683957	dec_social_choice	1.683957	32.000000	n/a	8	1.822917e-02	1.822917e-02
77.750490	1.683957	dec_choice	1.683957	32.000000	n/a	8	1.953125e-02	1.953125e-02
77.750490	1.683957	dec_social_accept	1.683957	32.000000	n/a	8	-7.974138e-02	-7.974138e-02
77.750490	1.683957	dec_accept	1.683957	32.000000	n/a	8	-7.083333e-02	-7.083333e-02
77.750490	1.683957	dec_social_high	1.683957	32.000000	n/a	8	1.953125e-02	1.953125e-02
77.750490	1.683957	dec_social_accept_high	1.683957	32.000000	n/a	8	1.953125e-02	1.953125e-02
84.584140	2.566649	dec_social_choice	2.566649	16.000000	n/a	0	0	-2.317708e-01
84.584140	2.566649	dec_choice	2.566649	16.000000	n/a	0	0	-2.304688e-01
84.584140	2.566649	dec_social_reject	2.566649	16.000000	n/a	0	0	4.276316e-02
84.584140	2.566649	dec_reject	2.566649	16.000000	n/a	0	0	4.513889e-02
84.584140	2.566649	dec_social_low	2.566649	16.000000	n/a	0	-2.304688e-01	-2.304688e-01
84.584140	2.566649	dec_social_reject_low	2.566649	16.000000	n/a	2	-1.054688e-01	-2.304688e-01
91.418030	0.999847	dec_social_choice	0.999847	32.000000	n/a	8	1.822917e-02	1.822917e-02
91.418030	0.999847	dec_choice	0.999847	32.000000	n/a	8	1.953125e-02	1.953125e-02
91.418030	0.999847	dec_social_accept	0.999847	32.000000	n/a	8	-7.974138e-02	-7.974138e-02
91.418030	0.999847	dec_accept	0.999847	32.000000	n/a	8	-7.083333e-02	-7.083333e-02
91.418030	0.999847	dec_social_accept_high	0.999847	32.000000	n/a	8	1.953125e-02	1.953125e-02
98.251190	1.233208	dec_social_choice	1.233208	16.000000	n/a	8	2.682292e-01	2.682292e-01
98.251190	1.233208	dec_choice	1.233208	16.000000	n/a	8	2.695312e-01	2.695312e-01
98.251190	1.233208	dec_social_accept	1.233208	16.000000	n/a	8	1.702586e-01	1.702586e-01
98.251190	1.233208	dec_accept	1.233208	16.000000	n/a	8	1.791667e-01	1.791667e-01
98.251190	1.233208	dec_social_high	1.233208	16.000000	n/a	8	2.695312e-01	2.695312e-01
98.251190	1.233208	dec_social_accept_high	1.233208	16.000000	n/a	8	2.695312e-01	2.695312e-01
105.085106	1.465637	dec_nonsocial_choice	1.465637	16.000000	n/a	0	0	-2.317708e-01
105.085106	1.465637	dec_choice	1.465637	16.000000	n/a	0	0	-2.330729e-01
105.085106	1.465637	dec_nonsocial_reject	1.465637	16.000000	n/a	0	0	-1.973684e-02
105.085106	1.465637	dec_reject	1.465637	16.000000	n/a	0	0	-2.187500e-02
105.085106	1.465637	dec_nonsocial_reject_low	1.465637	16.000000	n/a	1	-1.736111e-02	-7.986111e-02
112.734116	1.399789	dec_nonsocial_choice	1.399789	32.000000	n/a	8	1.822917e-02	1.822917e-02
112.734116	1.399789	dec_choice	1.399789	32.000000	n/a	8	1.692708e-02	1.692708e-02
112.734116	1.399789	dec_nonsocial_accept	1.399789	32.000000	n/a	8	-7.974138e-02	-7.974138e-02
112.734116	1.399789	dec_accept	1.399789	32.000000	n/a	8	-8.928571e-02	-8.928571e-02
112.734116	1.399789	dec_nonsocial_high	1.399789	32.000000	n/a	8	1.692708e-02	1.692708e-02
112.734116	1.399789	dec_nonsocial_accept_high	1.399789	32.000000	n/a	8	-8.928571e-02	-8.928571e-02
120.385110	1.182648	dec_social_choice	1.182648	16.000000	n/a	2	-1.067708e-01	-1.067708e-01
120.385110	1.182648	dec_choice	1.182648	16.000000	n/a	2	-1.054688e-01	-1.054688e-01
120.385110	1.182648	dec_social_accept	1.182648	16.000000	n/a	2	-2.047414e-01	-2.047414e-01
120.385110	1.182648	dec_accept	1.182648	16.000000	n/a	2	-1.958333e-01	-1.958333e-01
120.385110	1.182648	dec_social_accept_low	1.182648	16.000000	n/a	2	-1.054688e-01	-1.054688e-01
129.651120	1.166232	dec_social_choice	1.166232	16.000000	n/a	8	2.682292e-01	2.682292e-01
129.651120	1.166232	dec_choice	1.166232	16.000000	n/a	8	2.695312e-01	2.695312e-01
129.651120	1.166232	dec_social_accept	1.166232	16.000000	n/a	8	1.702586e-01	1.702586e-01
129.651120	1.166232	dec_accept	1.166232	16.000000	n/a	8	1.791667e-01	1.791667e-01
129.651120	1.166232	dec_social_high	1.166232	16.000000	n/a	8	2.695312e-01	2.695312e-01
129.651120	1.166232	dec_social_accept_high	1.166232	16.000000	n/a	8	2.695312e-01	2.695312e-01
137.301300	2.132980	dec_nonsocial_choice	2.132980	16.000000	n/a	0	0	-2.317708e-01
137.301300	2.132980	dec_choice	2.132980	16.000000	n/a	0	0	-2.330729e-01
137.301300	2.132980	dec_nonsocial_reject	2.132980	16.000000	n/a	0	0	4.276316e-02
137.301300	2.132980	dec_reject	2.132980	16.000000	n/a	0	0	4.062500e-02
137.301300	2.132980	dec_nonsocial_low	2.132980	16.000000	n/a	0	-2.330729e-01	-2.330729e-01
137.301300	2.132980	dec_nonsocial_reject_low	2.132980	16.000000	n/a	2	4.062500e-02	-8.437500e-02
144.134260	2.366233	dec_social_choice	2.366233	16.000000	n/a	2	-1.067708e-01	-1.067708e-01
144.134260	2.366233	dec_choice	2.366233	16.000000	n/a	2	-1.054688e-01	-1.054688e-01
144.134260	2.366233	dec_social_accept	2.366233	16.000000	n/a	2	-2.047414e-01	-2.047414e-01
144.134260	2.366233	dec_accept	2.366233	16.000000	n/a	2	-1.958333e-01	-1.958333e-01
144.134260	2.366233	dec_social_accept_low	2.366233	16.000000	n/a	2	-1.054688e-01	-1.054688e-01
153.384890	1.082720	dec_nonsocial_choice	1.082720	16.000000	n/a	4	1.822917e-02	1.822917e-02
153.384890	1.082720	dec_choice	1.082720	16.000000	n/a	4	1.692708e-02	1.692708e-02
153.384890	1.082720	dec_nonsocial_accept	1.082720	16.000000	n/a	4	-7.974138e-02	-7.974138e-02
153.384890	1.082720	dec_accept	1.082720	16.000000	n/a	4	-8.928571e-02	-8.928571e-02
153.384890	1.082720	dec_nonsocial_accept_high	1.082720	16.000000	n/a	4	-7.083333e-02	-7.083333e-02
160.218120	1.132806	dec_nonsocial_choice	1.132806	32.000000	n/a	16	2.682292e-01	2.682292e-01
160.218120	1.132806	dec_choice	1.132806	32.000000	n/a	16	2.669271e-01	2.669271e-01
160.218120	1.132806	dec_nonsocial_accept	1.132806	32.000000	n/a	16	1.702586e-01	1.702586e-01
160.218120	1.132806	dec_accept	1.132806	32.000000	n/a	16	1.607143e-01	1.607143e-01
160.218120	1.132806	dec_nonsocial_accept_high	1.132806	32.000000	n/a	16	1.791667e-01	1.791667e-01
167.051150	1.533187	dec_nonsocial_choice	1.533187	16.000000	n/a	0	0	-2.317708e-01
167.051150	1.533187	dec_choice	1.533187	16.000000	n/a	0	0	-2.330729e-01
167.051150	1.533187	dec_nonsocial_reject	1.533187	16.000000	n/a	0	0	4.276316e-02
167.051150	1.533187	dec_reject	1.533187	16.000000	n/a	0	0	4.062500e-02
167.051150	1.533187	dec_nonsocial_low	1.533187	16.000000	n/a	0	-2.330729e-01	-2.330729e-01
167.051150	1.533187	dec_nonsocial_reject_low	1.533187	16.000000	n/a	2	4.062500e-02	-8.437500e-02
176.301150	1.482914	dec_nonsocial_choice	1.482914	32.000000	n/a	16	2.682292e-01	2.682292e-01
176.301150	1.482914	dec_choice	1.482914	32.000000	n/a	16	2.669271e-01	2.669271e-01
176.301150	1.482914	dec_nonsocial_accept	1.482914	32.000000	n/a	16	1.702586e-01	1.702586e-01
176.301150	1.482914	dec_accept	1.482914	32.000000	n/a	16	1.607143e-01	1.607143e-01
176.301150	1.482914	dec_nonsocial_accept_high	1.482914	32.000000	n/a	16	1.791667e-01	1.791667e-01
183.134160	1.433610	dec_social_choice	1.433610	32.000000	n/a	8	1.822917e-02	1.822917e-02
183.134160	1.433610	dec_choice	1.433610	32.000000	n/a	8	1.953125e-02	1.953125e-02
183.134160	1.433610	dec_social_accept	1.433610	32.000000	n/a	8	-7.974138e-02	-7.974138e-02
183.134160	1.433610	dec_accept	1.433610	32.000000	n/a	8	-7.083333e-02	-7.083333e-02
183.134160	1.433610	dec_social_accept_high	1.433610	32.000000	n/a	8	1.953125e-02	1.953125e-02
192.385160	1.149463	dec_nonsocial_choice	1.149463	32.000000	n/a	8	1.822917e-02	1.822917e-02
192.385160	1.149463	dec_choice	1.149463	32.000000	n/a	8	1.692708e-02	1.692708e-02
192.385160	1.149463	dec_nonsocial_accept	1.149463	32.000000	n/a	8	-7.974138e-02	-7.974138e-02
192.385160	1.149463	dec_accept	1.149463	32.000000	n/a	8	-8.928571e-02	-8.928571e-02
192.385160	1.149463	dec_nonsocial_high	1.149463	32.000000	n/a	8	1.692708e-02	1.692708e-02
192.385160	1.149463	dec_nonsocial_accept_high	1.149463	32.000000	n/a	8	-8.928571e-02	-8.928571e-02
199.217330	2.400207	dec_nonsocial_choice	2.400207	32.000000	n/a	16	2.682292e-01	2.682292e-01
199.217330	2.400207	dec_choice	2.400207	32.000000	n/a	16	2.669271e-01	2.669271e-01
199.217330	2.400207	dec_nonsocial_accept	2.400207	32.000000	n/a	16	1.702586e-01	1.702586e-01
199.217330	2.400207	dec_accept	2.400207	32.000000	n/a	16	1.607143e-01	1.607143e-01
199.217330	2.400207	dec_nonsocial_accept_high	2.400207	32.000000	n/a	16	1.791667e-01	1.791667e-01
206.051540	1.482612	dec_social_choice	1.482612	32.000000	n/a	16	2.682292e-01	2.682292e-01
206.051540	1.482612	dec_choice	1.482612	32.000000	n/a	16	2.695312e-01	2.695312e-01
206.051540	1.482612	dec_social_accept	1.482612	32.000000	n/a	16	1.702586e-01	1.702586e-01
206.051540	1.482612	dec_accept	1.482612	32.000000	n/a	16	1.791667e-01	1.791667e-01
206.051540	1.482612	dec_social_accept_high	1.482612	32.000000	n/a	16	2.695312e-01	2.695312e-01
212.885200	2.198816	dec_social_choice	2.198816	32.000000	n/a	8	1.822917e-02	1.822917e-02
212.885200	2.198816	dec_choice	2.198816	32.000000	n/a	8	1.953125e-02	1.953125e-02
212.885200	2.198816	dec_social_accept	2.198816	32.000000	n/a	8	-7.974138e-02	-7.974138e-02
212.885200	2.198816	dec_accept	2.198816	32.000000	n/a	8	-7.083333e-02	-7.083333e-02
212.885200	2.198816	dec_social_high	2.198816	32.000000	n/a	8	1.953125e-02	1.953125e-02
212.885200	2.198816	dec_social_accept_high	2.198816	32.000000	n/a	8	1.953125e-02	1.953125e-02
222.152070	1.465145	dec_social_choice	1.465145	32.000000	n/a	0	0	-2.317708e-01
222.152070	1.465145	dec_choice	1.465145	32.000000	n/a	0	0	-2.304688e-01
222.152070	1.465145	dec_social_reject	1.465145	32.000000	n/a	0	0	1.151316e-02
222.152070	1.465145	dec_reject	1.465145	32.000000	n/a	0	0	1.388889e-02
222.152070	1.465145	dec_social_low	1.465145	32.000000	n/a	0	-2.304688e-01	-2.304688e-01
222.152070	1.465145	dec_social_reject_low	1.465145	32.000000	n/a	3	-1.367188e-01	-2.304688e-01
229.800280	1.516676	dec_social_choice	1.516676	32.000000	n/a	0	0	-2.317708e-01
229.800280	1.516676	dec_choice	1.516676	32.000000	n/a	0	0	-2.304688e-01
229.800280	1.516676	dec_social_reject	1.516676	32.000000	n/a	0	0	1.151316e-02
229.800280	1.516676	dec_reject	1.516676	32.000000	n/a	0	0	1.388889e-02
229.800280	1.516676	dec_social_low	1.516676	32.000000	n/a	0	-2.304688e-01	-2.304688e-01
229.800280	1.516676	dec_social_reject_low	1.516676	32.000000	n/a	3	-1.367188e-01	-2.304688e-01
237.450230	1.250807	dec_social_choice	1.250807	16.000000	n/a	4	1.822917e-02	1.822917e-02
237.450230	1.250807	dec_choice	1.250807	16.000000	n/a	4	1.953125e-02	1.953125e-02
237.450230	1.250807	dec_social_accept	1.250807	16.000000	n/a	4	-7.974138e-02	-7.974138e-02
237.450230	1.250807	dec_accept	1.250807	16.000000	n/a	4	-7.083333e-02	-7.083333e-02
237.450230	1.250807	dec_social_accept_high	1.250807	16.000000	n/a	4	1.953125e-02	1.953125e-02
248.318100	1.982747	dec_social_choice	1.982747	32.000000	n/a	16	2.682292e-01	2.682292e-01
248.318100	1.982747	dec_choice	1.982747	32.000000	n/a	16	2.695312e-01	2.695312e-01
248.318100	1.982747	dec_social_accept	1.982747	32.000000	n/a	16	1.702586e-01	1.702586e-01
248.318100	1.982747	dec_accept	1.982747	32.000000	n/a	16	1.791667e-01	1.791667e-01
248.318100	1.982747	dec_social_accept_high	1.982747	32.000000	n/a	16	2.695312e-01	2.695312e-01
259.184200	0.850108	dec_social_choice	0.850108	16.000000	n/a	8	2.682292e-01	2.682292e-01
259.184200	0.850108	dec_choice	0.850108	16.000000	n/a	8	2.695312e-01	2.695312e-01
259.184200	0.850108	dec_social_accept	0.850108	16.000000	n/a	8	1.702586e-01	1.702586e-01
259.184200	0.850108	dec_accept	0.850108	16.000000	n/a	8	1.791667e-01	1.791667e-01
259.184200	0.850108	dec_social_accept_high	0.850108	16.000000	n/a	8	2.695312e-01	2.695312e-01
266.018220	0.832637	dec_nonsocial_choice	0.832637	32.000000	n/a	16	2.682292e-01	2.682292e-01
266.018220	0.832637	dec_choice	0.832637	32.000000	n/a	16	2.669271e-01	2.669271e-01
266.018220	0.832637	dec_nonsocial_accept	0.832637	32.000000	n/a	16	1.702586e-01	1.702586e-01
266.018220	0.832637	dec_accept	0.832637	32.000000	n/a	16	1.607143e-01	1.607143e-01
266.018220	0.832637	dec_nonsocial_accept_high	0.832637	32.000000	n/a	16	1.791667e-01	1.791667e-01
272.851260	1.533137	dec_nonsocial_choice	1.533137	16.000000	n/a	0	0	-2.317708e-01
272.851260	1.533137	dec_choice	1.533137	16.000000	n/a	0	0	-2.330729e-01
272.851260	1.533137	dec_nonsocial_reject	1.533137	16.000000	n/a	0	0	-1.973684e-02
272.851260	1.533137	dec_reject	1.533137	16.000000	n/a	0	0	-2.187500e-02
272.851260	1.533137	dec_nonsocial_low	1.533137	16.000000	n/a	0	-2.330729e-01	-2.330729e-01
272.851260	1.533137	dec_nonsocial_reject_low	1.533137	16.000000	n/a	1	-2.187500e-02	-8.437500e-02
279.684270	1.483013	dec_nonsocial_choice	1.483013	32.000000	n/a	0	0	-2.317708e-01
279.684270	1.483013	dec_choice	1.483013	32.000000	n/a	0	0	-2.330729e-01
279.684270	1.483013	dec_nonsocial_reject	1.483013	32.000000	n/a	0	0	-1.973684e-02
279.684270	1.483013	dec_reject	1.483013	32.000000	n/a	0	0	-2.187500e-02
279.684270	1.483013	dec_nonsocial_reject_low	1.483013	32.000000	n/a	2	-1.736111e-02	-7.986111e-02
287.333130	1.351083	dec_social_choice	1.351083	32.000000	n/a	2	-1.692708e-01	-1.692708e-01
287.333130	1.351083	dec_choice	1.351083	32.000000	n/a	2	-1.679688e-01	-1.679688e-01
287.333130	1.351083	dec_social_accept	1.351083	32.000000	n/a	2	-2.672414e-01	-2.672414e-01
287.333130	1.351083	dec_accept	1.351083	32.000000	n/a	2	-2.583333e-01	-2.583333e-01
287.333130	1.351083	dec_social_low	1.351083	32.000000	n/a	2	-1.679688e-01	-1.679688e-01
287.333130	1.351083	dec_social_accept_low	1.351083	32.000000	n/a	2	-1.679688e-01	-1.679688e-01
296.584300	1.199916	dec_nonsocial_choice	1.199916	32.000000	n/a	16	2.682292e-01	2.682292e-01
296.584300	1.199916	dec_choice	1.199916	32.000000	n/a	16	2.669271e-01	2.669271e-01
296.584300	1.199916	dec_nonsocial_accept	1.199916	32.000000	n/a	16	1.702586e-01	1.702586e-01
296.584300	1.199916	dec_accept	1.199916	32.000000	n/a	16	1.607143e-01	1.607143e-01
296.584300	1.199916	dec_nonsocial_accept_high	1.199916	32.000000	n/a	16	1.791667e-01	1.791667e-01
304.234280	1.199880	dec_nonsocial_choice	1.199880	32.000000	n/a	8	1.822917e-02	1.822917e-02
304.234280	1.199880	dec_choice	1.199880	32.000000	n/a	8	1.692708e-02	1.692708e-02
304.234280	1.199880	dec_nonsocial_accept	1.199880	32.000000	n/a	8	-7.974138e-02	-7.974138e-02
304.234280	1.199880	dec_accept	1.199880	32.000000	n/a	8	-8.928571e-02	-8.928571e-02
304.234280	1.199880	dec_nonsocial_accept_high	1.199880	32.000000	n/a	8	-7.083333e-02	-7.083333e-02
311.067400	1.265868	dec_social_choice	1.265868	32.000000	n/a	0	0	-2.317708e-01
311.067400	1.265868	dec_choice	1.265868	32.000000	n/a	0	0	-2.304688e-01
311.067400	1.265868	dec_social_reject	1.265868	32.000000	n/a	0	0	-1.973684e-02
311.067400	1.265868	dec_reject	1.265868	32.000000	n/a	0	0	-1.736111e-02
311.067400	1.265868	dec_social_reject_low	1.265868	32.000000	n/a	2	-1.679688e-01	-2.304688e-01
321.934840	1.365715	dec_social_choice	1.365715	32.000000	n/a	0	0	-2.317708e-01
321.934840	1.365715	dec_choice	1.365715	32.000000	n/a	0	0	-2.304688e-01
321.934840	1.365715	dec_social_reject	1.365715	32.000000	n/a	0	0	-1.973684e-02
321.934840	1.365715	dec_reject	1.365715	32.000000	n/a	0	0	-1.736111e-02
321.934840	1.365715	dec_social_low	1.365715	32.000000	n/a	0	-2.304688e-01	-2.304688e-01
321.934840	1.365715	dec_social_reject_low	1.365715	32.000000	n/a	2	-1.679688e-01	-2.304688e-01
331.201300	1.199367	dec_social_choice	1.199367	16.000000	n/a	0	0	-2.317708e-01
331.201300	1.199367	dec_choice	1.199367	16.000000	n/a	0	0	-2.304688e-01
331.201300	1.199367	dec_social_reject	1.199367	16.000000	n/a	0	0	-1.973684e-02
331.201300	1.199367	dec_reject	1.199367	16.000000	n/a	0	0	-1.736111e-02
331.201300	1.199367	dec_social_reject_low	1.199367	16.000000	n/a	1	-1.679688e-01	-2.304688e-01
338.034300	2.233071	dec_nonsocial_choice	2.233071	16.000000	n/a	2	-1.067708e-01	-1.067708e-01
338.034300	2.233071	dec_choice	2.233071	16.000000	n/a	2	-1.080729e-01	-1.080729e-01
338.034300	2.233071	dec_nonsocial_accept	2.233071	16.000000	n/a	2	-2.047414e-01	-2.047414e-01
338.034300	2.233071	dec_accept	2.233071	16.000000	n/a	2	-2.142857e-01	-2.142857e-01
338.034300	2.233071	dec_nonsocial_low	2.233071	16.000000	n/a	2	-1.080729e-01	-1.080729e-01
338.034300	2.233071	dec_nonsocial_accept_low	2.233071	16.000000	n/a	2	-2.142857e-01	-2.142857e-01
344.868300	1.348715	dec_social_choice	1.348715	32.000000	n/a	16	2.682292e-01	2.682292e-01
344.868300	1.348715	dec_choice	1.348715	32.000000	n/a	16	2.695312e-01	2.695312e-01
344.868300	1.348715	dec_social_accept	1.348715	32.000000	n/a	16	1.702586e-01	1.702586e-01
344.868300	1.348715	dec_accept	1.348715	32.000000	n/a	16	1.791667e-01	1.791667e-01
344.868300	1.348715	dec_social_high	1.348715	32.000000	n/a	16	2.695312e-01	2.695312e-01
344.868300	1.348715	dec_social_accept_high	1.348715	32.000000	n/a	16	2.695312e-01	2.695312e-01
351.700300	1.500017	dec_nonsocial_choice	1.500017	32.000000	n/a	8	1.822917e-02	1.822917e-02
351.700300	1.500017	dec_choice	1.500017	32.000000	n/a	8	1.692708e-02	1.692708e-02
351.700300	1.500017	dec_nonsocial_accept	1.500017	32.000000	n/a	8	-7.974138e-02	-7.974138e-02
351.700300	1.500017	dec_accept	1.500017	32.000000	n/a	8	-8.928571e-02	-8.928571e-02
351.700300	1.500017	dec_nonsocial_high	1.500017	32.000000	n/a	8	1.692708e-02	1.692708e-02
351.700300	1.500017	dec_nonsocial_accept_high	1.500017	32.000000	n/a	8	-8.928571e-02	-8.928571e-02
358.534240	1.449680	dec_nonsocial_choice	1.449680	16.000000	n/a	0	0	-2.317708e-01
358.534240	1.449680	dec_choice	1.449680	16.000000	n/a	0	0	-2.330729e-01
358.534240	1.449680	dec_nonsocial_reject	1.449680	16.000000	n/a	0	0	-1.973684e-02
358.534240	1.449680	dec_reject	1.449680	16.000000	n/a	0	0	-2.187500e-02
358.534240	1.449680	dec_nonsocial_low	1.449680	16.000000	n/a	0	-2.330729e-01	-2.330729e-01
358.534240	1.449680	dec_nonsocial_reject_low	1.449680	16.000000	n/a	1	-2.187500e-02	-8.437500e-02
365.368230	1.264874	dec_social_choice	1.264874	32.000000	n/a	0	0	-2.317708e-01
365.368230	1.264874	dec_choice	1.264874	32.000000	n/a	0	0	-2.304688e-01
365.368230	1.264874	dec_social_reject	1.264874	32.000000	n/a	0	0	-1.973684e-02
365.368230	1.264874	dec_reject	1.264874	32.000000	n/a	0	0	-1.736111e-02
365.368230	1.264874	dec_social_reject_low	1.264874	32.000000	n/a	2	-1.679688e-01	-2.304688e-01
373.017520	1.333044	dec_nonsocial_choice	1.333044	16.000000	n/a	4	1.822917e-02	1.822917e-02
373.017520	1.333044	dec_choice	1.333044	16.000000	n/a	4	1.692708e-02	1.692708e-02
373.017520	1.333044	dec_nonsocial_accept	1.333044	16.000000	n/a	4	-7.974138e-02	-7.974138e-02
373.017520	1.333044	dec_accept	1.333044	16.000000	n/a	4	-8.928571e-02	-8.928571e-02
373.017520	1.333044	dec_nonsocial_accept_high	1.333044	16.000000	n/a	4	-7.083333e-02	-7.083333e-02
