TrialNumber,nTrial,Block,Endowment,ITI,ISI,L_Option,R_Option,ran,order,cue_Onset,endowment_onset,endowment_offset,ISI_onset,ISI_offset,decision_onset,resp,rt,resp_onset,decision_offset,trialDuration,ITIonset,ITIoffset
1,1,3,16,2.98,1,8,0,1.0,0.0,4.6033854,5.510713,5.5273795,5.5274687,6.5278773,6.528038,1.0,0.8161305,7.344168,10.294117,3.766602,10.294751,13.291016
2,2,3,32,0.5575,1,2,0,1.0,1.0,13.886174,14.777351,14.794024,14.7940855,15.793802,15.793942,1.0,0.7002951,16.494238,19.560625,3.7671487,19.561186,20.135006
3,3,2,16,0.5575,1,1,0,1.0,2.0,20.638092,21.627333,21.644005,21.644066,22.643682,22.643818,1.0,0.8670696,23.510887,26.40993,3.7665732,26.410486,26.985605
4,4,2,32,0.5575,1,2,0,1.0,3.0,27.487993,28.477314,28.493992,28.494053,29.494087,29.494234,1.0,0.8666372,30.360872,33.261036,3.7672644,33.261597,33.83499
5,5,2,16,1.365,1,4,0,1.0,4.0,34.338116,35.3273,35.34398,35.344036,36.344917,36.34506,1.0,0.7490347,37.094093,40.112488,3.7679005,40.11306,41.491898
6,6,2,16,0.5575,1,0,8,1.0,5.0,41.98797,42.977283,42.99396,42.994022,43.993866,43.994003,2.0,0.5834697,44.577473,47.76078,3.76724,47.76134,48.335896
7,7,3,32,4.595,1,3,0,1.0,6.0,48.91715,49.82728,49.84394,49.844006,50.8441,50.844242,1.0,0.6832901,51.52753,54.610764,3.7669795,54.611317,59.22291
8,8,3,32,0.5575,1,16,0,1.0,7.0,59.804367,60.71058,60.727226,60.72729,61.727898,61.728035,1.0,0.9160372,62.644073,65.49394,3.7663846,65.494514,66.068886
9,9,2,32,4.595,1,0,3,1.0,8.0,66.57164,67.560524,67.5772,67.577286,68.57705,68.57719,2.0,0.8336057,69.41079,72.344864,3.7681422,72.34542,76.95597
10,10,2,32,0.5575,1,0,3,1.0,9.0,77.45475,78.44386,78.46054,78.4606,79.46088,79.46101,2.0,0.5829924,80.04401,83.228874,3.7683182,83.22943,83.801865
11,11,3,16,0.5575,1,0,1,1.0,10.0,84.38441,85.29385,85.310524,85.310585,86.31055,86.310684,2.0,0.6667586,86.97744,90.077835,3.7676127,90.07839,90.65149
12,12,2,16,6.21,1,4,0,1.0,11.0,91.15468,92.14382,92.1605,92.16056,93.16116,93.16131,1.0,0.7658689,93.92718,96.92884,3.767994,96.929405,103.15351
13,13,3,16,1.365,1,4,0,1.0,12.0,103.68607,104.6438,104.66047,104.66053,105.65994,105.66008,1.0,0.9007134,106.56079,109.42788,3.7682526,109.42843,110.80884
14,14,2,16,2.98,1,8,0,1.0,13.0,111.304634,112.29378,112.310455,112.310524,113.310326,113.31046,1.0,0.6502022,113.96066,117.07772,3.7677202,117.07828,120.07382
15,15,3,32,1.365,1,8,0,1.0,14.0,120.66267,121.56042,121.57709,121.57715,122.57727,122.57741,1.0,0.7830864,123.3605,126.34365,3.7667332,126.34425,127.72596
16,16,2,32,0.5575,1,0,8,1.0,15.0,128.22108,129.21039,129.22707,129.22713,130.22682,130.22696,2.0,0.6004082,130.82738,133.99466,3.7681472,133.99521,134.56859
17,17,2,32,0.5575,1,0,16,1.0,16.0,135.07115,136.06038,136.07706,136.07712,137.0767,137.07684,2.0,1.0504307,138.12727,140.84377,3.767396,140.84433,141.41884
18,18,3,16,0.5575,1,0,8,1.0,17.0,141.98322,142.91037,142.92703,142.9271,143.92648,143.92662,2.0,0.650659,144.57729,147.6934,3.7672544,147.69397,148.26881
19,19,3,32,1.365,1,8,0,1.0,18.0,148.87416,149.76031,149.777,149.77707,150.7772,150.77734,1.0,0.6997418,151.47708,154.54443,3.7676024,154.54504,155.9248
20,20,2,16,0.5575,1,0,2,1.0,19.0,156.42136,157.41116,157.42699,157.42705,158.42805,158.42818,2.0,0.6823163,159.1105,162.19524,3.767518,162.1958,162.7678
21,21,2,16,2.98,1,8,0,1.0,20.0,163.27092,164.26027,164.27695,164.27701,165.27644,165.27658,1.0,0.7341557,166.01074,169.0432,3.767088,169.04378,172.0397
22,22,2,32,1.365,1,16,0,1.0,21.0,172.53792,173.52693,173.54362,173.54369,174.54376,174.5439,1.0,0.6666093,175.21051,178.31076,3.7673333,178.31133,179.69147
23,23,3,32,1.365,1,0,8,1.0,22.0,180.26569,181.1769,181.19356,181.19362,182.19383,182.19397,2.0,0.6665083,182.86047,185.9608,3.7672942,185.96136,187.34142
24,24,3,32,0.5575,1,16,0,1.0,23.0,187.91669,188.8269,188.84357,188.84363,189.84471,189.84485,1.0,1.1322225,190.97707,193.61177,3.7673886,193.61234,194.18443
25,25,3,32,1.365,1,2,0,1.0,24.0,194.76901,195.67688,195.69354,195.6936,196.69418,196.69432,1.0,0.7828156,197.47714,200.46187,3.7679996,200.46242,201.84175
26,26,3,16,2.98,1,8,0,1.0,25.0,202.44054,203.32684,203.34352,203.34358,204.34378,204.34392,1.0,0.6498259,204.99374,208.11076,3.7673123,208.11133,211.10687
27,27,2,16,1.365,1,4,0,1.0,26.0,211.60419,212.59349,212.61017,212.61023,213.60976,213.60988,1.0,0.6504623,214.26035,217.3767,3.767267,217.37724,218.75818
28,28,2,16,1.365,1,1,0,1.0,27.0,219.25449,220.24348,220.26015,220.26021,221.25974,221.25987,1.0,0.7338429,221.99371,225.02719,3.7677867,225.02776,226.40869
29,29,3,16,0.5575,1,1,0,1.0,28.0,226.98378,227.89346,227.91011,227.91017,228.9107,228.91086,1.0,0.7494198,229.66028,232.6779,3.7675104,232.67845,233.25168
30,30,3,16,0.5575,1,2,0,1.0,29.0,233.8436,234.7434,234.76007,234.76013,235.76065,235.7608,1.0,0.7661822,236.52698,239.52835,3.768013,239.5289,240.10173
31,31,2,32,2.98,1,16,0,1.0,30.0,240.60448,241.59337,241.61005,241.6101,242.61066,242.6108,1.0,0.9995016,243.61029,246.37738,3.7670527,246.37794,249.37273
32,32,2,16,0.5575,1,2,0,1.0,31.0,249.87067,250.86005,250.8767,250.87675,251.87674,251.87688,1.0,0.6166832,252.49356,255.64369,3.7672746,255.64426,256.2172
33,33,3,16,0.5575,1,2,0,1.0,32.0,256.79892,257.71002,257.7267,257.72678,258.7269,258.72702,1.0,0.7333229,259.46036,262.49347,3.7668827,262.49402,263.06787
34,34,2,16,0.5575,1,0,4,1.0,33.0,263.5714,264.56,264.5767,264.57675,265.57678,265.5769,2.0,0.6166273,266.19354,269.3446,3.768147,269.34515,269.91812
35,35,3,32,2.98,1,0,2,1.0,34.0,270.50357,271.40997,271.42667,271.42673,272.4266,272.42673,2.0,0.8169715,273.2437,276.19464,3.7683501,276.1952,279.1907
36,36,2,32,2.98,1,0,2,1.0,35.0,279.68726,280.6766,280.6933,280.69336,281.6936,281.69373,2.0,0.6164471,282.31018,285.46066,3.767395,285.46124,288.4567
37,37,3,32,1.365,1,3,0,1.0,36.0,289.03183,289.94327,289.95993,289.96,290.95975,290.95987,1.0,0.566795,291.52667,294.72675,3.7673488,294.72733,296.10867
38,38,3,16,0.5575,1,4,0,1.0,37.0,296.6811,297.59326,297.6099,297.61,298.6097,298.60986,1.0,0.7335954,299.34344,302.3767,3.7673116,302.37726,302.95163
39,39,2,16,0.5575,1,2,0,1.0,38.0,303.4541,304.4432,304.4599,304.45996,305.46057,305.4607,1.0,0.766264,306.22696,309.2277,3.7674606,309.22824,309.80167
40,40,2,16,1.365,1,0,1,1.0,39.0,310.30405,311.29318,311.30984,311.3099,312.30933,312.30945,2.0,0.6339321,312.9434,316.0761,3.7671092,316.07666,317.45767
41,41,3,32,0.5575,1,2,0,1.0,40.0,318.04547,318.94315,318.95984,318.95993,319.95947,319.95963,1.0,0.8004513,320.76007,323.72577,3.7666361,323.72635,324.30157
42,42,3,32,0.5575,1,0,3,1.0,41.0,324.88388,325.79315,325.8098,325.80988,326.81064,326.8108,2.0,0.6494462,327.46024,330.5781,3.7677712,330.57864,331.15167
43,43,3,16,0.5575,1,0,4,1.0,42.0,331.73322,332.64313,332.6598,332.65985,333.65958,333.65976,2.0,0.6169475,334.2767,337.4267,3.7674055,337.42725,338.0013
44,44,3,16,0.5575,1,0,8,1.0,43.0,338.5822,339.49335,339.5098,339.5099,340.50964,340.50977,2.0,0.5835452,341.09332,344.2766,3.767353,344.27722,344.85165
45,45,2,16,4.595,1,0,1,1.0,44.0,345.3542,346.34308,346.35995,346.36002,347.36078,347.3609,2.0,0.8157212,348.17664,351.12762,3.767181,351.12817,355.73828
46,46,2,16,1.365,1,0,2,1.0,45.0,356.2371,357.22638,357.24304,357.2431,358.24365,358.24377,2.0,0.599451,358.84323,362.01062,3.767332,362.0112,363.39127
47,47,2,16,0.5575,1,4,0,1.0,46.0,363.88724,364.87634,364.89304,364.8931,365.8926,365.89276,1.0,0.7671185,366.65988,369.65863,3.7663167,369.65918,370.23428
48,48,3,16,1.365,1,2,0,1.0,47.0,370.83923,371.7263,371.74298,371.74304,372.74362,372.74377,1.0,0.7494255,373.4932,376.51025,3.766932,376.5108,377.8916
