onset	duration	trial_type	rt	resp	gender	image_left	image_right
0.62828330002958	3.00155280000763	decision	1.78222920000553	right	F	FF017.jpg	FF018.jpg
4.1781230000197	1.01662299997406	loss	NaN	n/a	n/a	FF017.jpg	FF018.jpg
11.1613849999849	3.00153130001854	decision	2.28248500003247	right	F	FF035.jpg	FF036.jpg
14.7113365000114	1.01639449998038	win	NaN	n/a	n/a	FF035.jpg	FF036.jpg
21.67808350001	3.00088489998598	decision	1.53241109999362	right	F	FF021.jpg	FF022.jpg
25.2279025000171	1.01689909998095	loss	NaN	n/a	n/a	FF021.jpg	FF022.jpg
32.1949238000088	3.00060740002664	decision	1.78212689998327	right	M	MF025.jpg	MF026.jpg
35.7444818000076	1.0003392000217	loss	NaN	n/a	n/a	MF025.jpg	MF026.jpg
38.4945177999907	3.00151339999866	decision	2.03242060000775	right	M	MF027.jpg	MF028.jpg
42.0444773000199	1.01662189996568	loss	NaN	n/a	n/a	MF027.jpg	MF028.jpg
44.8112200000323	3.00163219997194	decision	1.53271579998545	right	M	MF023.jpg	MF024.jpg
48.3610237999819	1.00020660000155	win	NaN	n/a	n/a	MF023.jpg	MF024.jpg
51.111539000005	3.00112000002991	decision	1.53240000002552	right	F	FF037.jpg	FF038.jpg
54.6615406000055	1.0163483999786	win	NaN	n/a	n/a	FF037.jpg	FF038.jpg
59.527911400015	3.00207639997825	decision	1.53296769998269	right	M	MF011.jpg	MF012.jpg
63.0779261999996	1.01664250000613	loss	NaN	n/a	n/a	MF011.jpg	MF012.jpg
67.9448335000197	3.00086430000374	decision	2.03244069998618	right	F	FF009.jpg	FF010.jpg
71.4944447000162	1.00002269999823	win	NaN	n/a	n/a	FF009.jpg	FF010.jpg
74.24486169999	3.0012582000345	decision	1.78269650001312	right	F	FF027.jpg	FF028.jpg
77.7947594000143	1.01666969998041	win	NaN	n/a	n/a	FF027.jpg	FF028.jpg
82.6614591000252	3.00028400000883	decision	1.28212849999545	right	F	FF015.jpg	FF016.jpg
86.2113812000025	1.00000380002894	loss	NaN	n/a	n/a	FF015.jpg	FF016.jpg
93.1611887000035	3.00173830002313	decision	1.53261180000845	right	M	MF029.jpg	MF030.jpg
96.711872600019	1.01567419996718	loss	NaN	n/a	n/a	MF029.jpg	MF030.jpg
101.577924699988	3.00098020001315	decision	2.28247850004118	left	M	MF015.jpg	MF016.jpg
105.127886300033	1.01682520000031	win	NaN	n/a	n/a	MF015.jpg	MF016.jpg
112.094642199983	3.00137200002791	decision	2.0321954000392	right	M	MF007.jpg	MF008.jpg
115.644871100027	1.01645840000128	win	NaN	n/a	n/a	MF007.jpg	MF008.jpg
120.511412599997	3.00151030003326	decision	1.53213040000992	right	M	MF017.jpg	MF018.jpg
124.061387400026	1.0164329999825	win	NaN	n/a	n/a	MF017.jpg	MF018.jpg
126.827934800007	3.00157490000129	decision	1.7828677999787	right	F	FF033.jpg	FF034.jpg
130.377905100002	1.00001880002674	win	NaN	n/a	n/a	FF033.jpg	FF034.jpg
133.127845100011	3.00108140002703	decision	1.78310519998195	left	F	FF007.jpg	FF008.jpg
136.677724400011	1.00011199997971	loss	NaN	n/a	n/a	FF007.jpg	FF008.jpg
139.427885400015	3.0019155999762	decision	1.78238119999878	left	F	FF023.jpg	FF024.jpg
142.977851700038	1.01660549995722	loss	NaN	n/a	n/a	FF023.jpg	FF024.jpg
156.244768800039	3.00209319998976	decision	1.78281259996584	left	M	MF009.jpg	MF010.jpg
159.7946428	1.01664580003126	loss	NaN	n/a	n/a	MF009.jpg	MF010.jpg
164.661191300023	3.00181360001443	decision	1.78289079997921	right	F	FF001.jpg	FF002.jpg
168.211329700018	1.01682269998128	win	NaN	n/a	n/a	FF001.jpg	FF002.jpg
170.977692899993	3.00125329999719	decision	1.78258170001209	left	M	MF019.jpg	MF020.jpg
174.527973400021	1.00001550000161	loss	NaN	n/a	n/a	MF019.jpg	MF020.jpg
181.477739900001	3.00122059998102	decision	2.28258200001437	left	F	FF031.jpg	FF032.jpg
185.027589600009	1.00027880002744	loss	NaN	n/a	n/a	FF031.jpg	FF032.jpg
189.87766150001	3.00097310001729	decision	2.53242489998229	right	M	MF005.jpg	MF006.jpg
193.428290100012	1.01617229997646	win	NaN	n/a	n/a	MF005.jpg	MF006.jpg
196.194521500031	3.00051729998086	decision	2.30003129999386	right	F	FF019.jpg	FF020.jpg
199.744575600023	1.01639279996743	win	NaN	n/a	n/a	FF019.jpg	FF020.jpg
206.711089999997	3.00181700004032	decision	2.28288170002634	right	M	MF013.jpg	MF014.jpg
210.261210400029	1.01650269998936	loss	NaN	n/a	n/a	MF013.jpg	MF014.jpg
217.228033400024	3.00157029996626	decision	2.28283479996026	right	M	MF031.jpg	MF032.jpg
220.777841000003	1.0000735000358	loss	NaN	n/a	n/a	MF031.jpg	MF032.jpg
225.62792410003	3.00101670000004	decision	2.03207719995407	right	F	FF039.jpg	FF040.jpg
229.177720799984	1.01671490003355	loss	NaN	n/a	n/a	FF039.jpg	FF040.jpg
231.94463350001	3.00137940002605	decision	1.78233409998938	right	F	FF005.jpg	FF006.jpg
235.494180999987	1.00032760004979	loss	NaN	n/a	n/a	FF005.jpg	FF006.jpg
242.444626900018	3.00126819999423	decision	1.53229070000816	right	M	MF037.jpg	MF038.jpg
245.994033400028	1.00002759997733	loss	NaN	n/a	n/a	MF037.jpg	MF038.jpg
248.744448299985	3.00184959999751	decision	2.2825972000137	left	M	MF039.jpg	MF040.jpg
252.294510000036	1.00006319995737	win	NaN	n/a	n/a	MF039.jpg	MF040.jpg
255.044294700027	3.00070719997166	decision	1.78238099999726	right	M	MF033.jpg	MF034.jpg
258.59446350002	1.01641019998351	loss	NaN	n/a	n/a	MF033.jpg	MF034.jpg
261.361371400009	3.00064220000058	decision	1.53206830000272	right	F	FF013.jpg	FF014.jpg
264.910691500001	1.00049140001647	win	NaN	n/a	n/a	FF013.jpg	FF014.jpg
269.761080700031	3.00109330000123	decision	2.03338599996641	left	M	MF001.jpg	MF002.jpg
273.310922300036	1.00006880000001	win	NaN	n/a	n/a	MF001.jpg	MF002.jpg
276.060767600022	3.00116619997425	decision	1.78318199998466	left	F	FF003.jpg	FF004.jpg
279.611083400028	1.01669719995698	win	NaN	n/a	n/a	FF003.jpg	FF004.jpg
284.477876499994	3.00117450003745	decision	2.28273490001447	right	M	MF003.jpg	MF004.jpg
288.027426799992	1.00016970001161	win	NaN	n/a	n/a	MF003.jpg	MF004.jpg
294.977464099997	3.00093989999732	decision	2.53342069999781	left	F	FF025.jpg	FF026.jpg
298.527778299991	1.01659810001729	win	NaN	n/a	n/a	FF025.jpg	FF026.jpg
305.494203100039	3.00150509999366	decision	2.78383359999862	left	M	MF035.jpg	MF036.jpg
309.044420299993	1.01646770001389	win	NaN	n/a	n/a	MF035.jpg	MF036.jpg
311.81097510003	3.00216360000195	decision	2.28294589999132	left	F	FF011.jpg	FF012.jpg
315.361002699996	1.01662800001213	loss	NaN	n/a	n/a	FF011.jpg	FF012.jpg
318.127883600013	3.00208060001023	decision	2.54958970000735	right	M	MF021.jpg	MF022.jpg
321.677660099987	1.00003370002378	win	NaN	n/a	n/a	MF021.jpg	MF022.jpg
326.527770199988	3.00096830003895	decision	1.78227210004115	right	F	FF029.jpg	FF030.jpg
330.077536500001	1.000133500027	loss	NaN	n/a	n/a	FF029.jpg	FF030.jpg
