onset	duration	trial_type	response_time	Endowment	Endowment_pmod	Decision	Decision_pmod	Offer_pmod
4.610861	2	cue_social	n/a	32	11	n/a	n/a	n/a
4.610861	2	cue_social_high	n/a	32	9	n/a	n/a	n/a
11.392605	2	cue_social	n/a	16	-5	n/a	n/a	n/a
11.392605	2	cue_social_low	n/a	16	-7	n/a	n/a	n/a
19.038298	2	cue_social	n/a	16	-5	n/a	n/a	n/a
19.038298	2	cue_social_low	n/a	16	-7	n/a	n/a	n/a
25.828611	2	cue_nonsocial	n/a	32	9	n/a	n/a	n/a
25.828611	2	cue_nonsocial_high	n/a	32	11	n/a	n/a	n/a
35.128975	2	cue_social	n/a	16	-5	n/a	n/a	n/a
35.128975	2	cue_social_low	n/a	16	-7	n/a	n/a	n/a
41.986584	2	cue_social	n/a	16	-5	n/a	n/a	n/a
41.986584	2	cue_social_low	n/a	16	-7	n/a	n/a	n/a
48.761906	2	cue_nonsocial	n/a	32	9	n/a	n/a	n/a
48.761906	2	cue_nonsocial_high	n/a	32	11	n/a	n/a	n/a
56.411620	2	cue_nonsocial	n/a	16	-7	n/a	n/a	n/a
56.411620	2	cue_nonsocial_low	n/a	16	-5	n/a	n/a	n/a
65.662220	2	cue_nonsocial	n/a	16	-7	n/a	n/a	n/a
65.662220	2	cue_nonsocial_low	n/a	16	-5	n/a	n/a	n/a
78.213980	2	cue_social	n/a	16	-5	n/a	n/a	n/a
78.213980	2	cue_social_low	n/a	16	-7	n/a	n/a	n/a
84.978830	2	cue_nonsocial	n/a	32	9	n/a	n/a	n/a
84.978830	2	cue_nonsocial_high	n/a	32	11	n/a	n/a	n/a
91.887390	2	cue_social	n/a	32	11	n/a	n/a	n/a
91.887390	2	cue_social_high	n/a	32	9	n/a	n/a	n/a
98.645050	2	cue_nonsocial	n/a	32	9	n/a	n/a	n/a
98.645050	2	cue_nonsocial_high	n/a	32	11	n/a	n/a	n/a
106.295340	2	cue_nonsocial	n/a	16	-7	n/a	n/a	n/a
106.295340	2	cue_nonsocial_low	n/a	16	-5	n/a	n/a	n/a
115.561630	2	cue_nonsocial	n/a	32	9	n/a	n/a	n/a
115.561630	2	cue_nonsocial_high	n/a	32	11	n/a	n/a	n/a
122.395065	2	cue_nonsocial	n/a	16	-7	n/a	n/a	n/a
122.395065	2	cue_nonsocial_low	n/a	16	-5	n/a	n/a	n/a
130.044880	2	cue_nonsocial	n/a	16	-7	n/a	n/a	n/a
130.044880	2	cue_nonsocial_low	n/a	16	-5	n/a	n/a	n/a
137.747940	2	cue_social	n/a	32	11	n/a	n/a	n/a
137.747940	2	cue_social_high	n/a	32	9	n/a	n/a	n/a
146.972180	2	cue_social	n/a	16	-5	n/a	n/a	n/a
146.972180	2	cue_social_low	n/a	16	-7	n/a	n/a	n/a
153.857910	2	cue_social	n/a	16	-5	n/a	n/a	n/a
153.857910	2	cue_social_low	n/a	16	-7	n/a	n/a	n/a
160.611710	2	cue_nonsocial	n/a	16	-7	n/a	n/a	n/a
160.611710	2	cue_nonsocial_low	n/a	16	-5	n/a	n/a	n/a
171.478470	2	cue_nonsocial	n/a	16	-7	n/a	n/a	n/a
171.478470	2	cue_nonsocial_low	n/a	16	-5	n/a	n/a	n/a
179.162250	2	cue_social	n/a	16	-5	n/a	n/a	n/a
179.162250	2	cue_social_low	n/a	16	-7	n/a	n/a	n/a
189.995320	2	cue_nonsocial	n/a	16	-7	n/a	n/a	n/a
189.995320	2	cue_nonsocial_low	n/a	16	-5	n/a	n/a	n/a
196.902590	2	cue_social	n/a	16	-5	n/a	n/a	n/a
196.902590	2	cue_social_low	n/a	16	-7	n/a	n/a	n/a
203.661800	2	cue_nonsocial	n/a	32	9	n/a	n/a	n/a
203.661800	2	cue_nonsocial_high	n/a	32	11	n/a	n/a	n/a
210.557080	2	cue_social	n/a	32	11	n/a	n/a	n/a
210.557080	2	cue_social_high	n/a	32	9	n/a	n/a	n/a
217.377530	2	cue_social	n/a	16	-5	n/a	n/a	n/a
217.377530	2	cue_social_low	n/a	16	-7	n/a	n/a	n/a
224.161320	2	cue_nonsocial	n/a	16	-7	n/a	n/a	n/a
224.161320	2	cue_nonsocial_low	n/a	16	-5	n/a	n/a	n/a
235.098430	2	cue_social	n/a	32	11	n/a	n/a	n/a
235.098430	2	cue_social_high	n/a	32	9	n/a	n/a	n/a
242.738000	2	cue_social	n/a	32	11	n/a	n/a	n/a
242.738000	2	cue_social_high	n/a	32	9	n/a	n/a	n/a
250.344940	2	cue_nonsocial	n/a	16	-7	n/a	n/a	n/a
250.344940	2	cue_nonsocial_low	n/a	16	-5	n/a	n/a	n/a
257.995120	2	cue_nonsocial	n/a	32	9	n/a	n/a	n/a
257.995120	2	cue_nonsocial_high	n/a	32	11	n/a	n/a	n/a
265.712900	2	cue_social	n/a	32	11	n/a	n/a	n/a
265.712900	2	cue_social_high	n/a	32	9	n/a	n/a	n/a
272.495030	2	cue_nonsocial	n/a	16	-7	n/a	n/a	n/a
272.495030	2	cue_nonsocial_low	n/a	16	-5	n/a	n/a	n/a
279.328200	2	cue_nonsocial	n/a	32	9	n/a	n/a	n/a
279.328200	2	cue_nonsocial_high	n/a	32	11	n/a	n/a	n/a
286.161500	2	cue_nonsocial	n/a	16	-7	n/a	n/a	n/a
286.161500	2	cue_nonsocial_low	n/a	16	-5	n/a	n/a	n/a
292.995120	2	cue_nonsocial	n/a	32	9	n/a	n/a	n/a
292.995120	2	cue_nonsocial_high	n/a	32	11	n/a	n/a	n/a
302.305700	2	cue_social	n/a	32	11	n/a	n/a	n/a
302.305700	2	cue_social_high	n/a	32	9	n/a	n/a	n/a
309.152830	2	cue_social	n/a	16	-5	n/a	n/a	n/a
309.152830	2	cue_social_low	n/a	16	-7	n/a	n/a	n/a
315.911350	2	cue_nonsocial	n/a	32	9	n/a	n/a	n/a
315.911350	2	cue_nonsocial_high	n/a	32	11	n/a	n/a	n/a
322.806150	2	cue_social	n/a	16	-5	n/a	n/a	n/a
322.806150	2	cue_social_low	n/a	16	-7	n/a	n/a	n/a
330.441280	2	cue_social	n/a	16	-5	n/a	n/a	n/a
330.441280	2	cue_social_low	n/a	16	-7	n/a	n/a	n/a
338.028140	2	cue_nonsocial	n/a	16	-7	n/a	n/a	n/a
338.028140	2	cue_nonsocial_low	n/a	16	-5	n/a	n/a	n/a
347.329930	2	cue_social	n/a	16	-5	n/a	n/a	n/a
347.329930	2	cue_social_low	n/a	16	-7	n/a	n/a	n/a
354.183720	2	cue_social	n/a	16	-5	n/a	n/a	n/a
354.183720	2	cue_social_low	n/a	16	-7	n/a	n/a	n/a
361.763370	2	cue_nonsocial	n/a	32	9	n/a	n/a	n/a
361.763370	2	cue_nonsocial_high	n/a	32	11	n/a	n/a	n/a
371.069520	2	cue_social	n/a	16	-5	n/a	n/a	n/a
371.069520	2	cue_social_low	n/a	16	-7	n/a	n/a	n/a
6.519074	1.199528	dec_social_choice	1.199528	32.000000	n/a	16	2.746011e-01	2.746011e-01
6.519074	1.199528	dec_choice	1.199528	32.000000	n/a	16	2.798913e-01	2.798913e-01
6.519074	1.199528	dec_social_accept	1.199528	32.000000	n/a	16	2.467105e-01	2.467105e-01
6.519074	1.199528	dec_accept	1.199528	32.000000	n/a	16	2.324219e-01	2.324219e-01
6.519074	1.199528	dec_social_high	1.199528	32.000000	n/a	16	2.798913e-01	2.798913e-01
6.519074	1.199528	dec_social_accept_high	1.199528	32.000000	n/a	16	2.798913e-01	2.798913e-01
13.352035	1.184074	dec_social_choice	1.184074	16.000000	n/a	8	2.746011e-01	2.746011e-01
13.352035	1.184074	dec_choice	1.184074	16.000000	n/a	8	2.798913e-01	2.798913e-01
13.352035	1.184074	dec_social_accept	1.184074	16.000000	n/a	8	2.467105e-01	2.467105e-01
13.352035	1.184074	dec_accept	1.184074	16.000000	n/a	8	2.324219e-01	2.324219e-01
13.352035	1.184074	dec_social_high	1.184074	16.000000	n/a	8	2.798913e-01	2.798913e-01
13.352035	1.184074	dec_social_accept_high	1.184074	16.000000	n/a	8	2.798913e-01	2.798913e-01
21.002266	1.449873	dec_social_choice	1.449873	16.000000	n/a	4	2.460106e-02	2.460106e-02
21.002266	1.449873	dec_choice	1.449873	16.000000	n/a	4	2.989130e-02	2.989130e-02
21.002266	1.449873	dec_social_accept	1.449873	16.000000	n/a	4	-3.289474e-03	-3.289474e-03
21.002266	1.449873	dec_accept	1.449873	16.000000	n/a	4	-1.757812e-02	-1.757812e-02
21.002266	1.449873	dec_social_accept_high	1.449873	16.000000	n/a	4	2.989130e-02	2.989130e-02
27.835388	1.283510	dec_nonsocial_choice	1.283510	32.000000	n/a	0	0	-2.253989e-01
27.835388	1.283510	dec_choice	1.283510	32.000000	n/a	0	0	-2.304688e-01
27.835388	1.283510	dec_nonsocial_reject	1.283510	32.000000	n/a	0	0	-4.513889e-02
27.835388	1.283510	dec_reject	1.283510	32.000000	n/a	0	0	-3.125000e-02
27.835388	1.283510	dec_nonsocial_reject_low	1.283510	32.000000	n/a	2	-4.910714e-02	-1.116071e-01
37.102210	1.866550	dec_social_choice	1.866550	16.000000	n/a	0	0	-2.253989e-01
37.102210	1.866550	dec_choice	1.866550	16.000000	n/a	0	0	-2.201087e-01
37.102210	1.866550	dec_social_reject	1.866550	16.000000	n/a	0	0	1.736111e-02
37.102210	1.866550	dec_reject	1.866550	16.000000	n/a	0	0	1.339286e-02
37.102210	1.866550	dec_social_low	1.866550	16.000000	n/a	0	-2.201087e-01	-2.201087e-01
37.102210	1.866550	dec_social_reject_low	1.866550	16.000000	n/a	2	-9.510870e-02	-2.201087e-01
43.935140	1.183751	dec_social_choice	1.183751	16.000000	n/a	8	2.746011e-01	2.746011e-01
43.935140	1.183751	dec_choice	1.183751	16.000000	n/a	8	2.798913e-01	2.798913e-01
43.935140	1.183751	dec_social_accept	1.183751	16.000000	n/a	8	2.467105e-01	2.467105e-01
43.935140	1.183751	dec_accept	1.183751	16.000000	n/a	8	2.324219e-01	2.324219e-01
43.935140	1.183751	dec_social_high	1.183751	16.000000	n/a	8	2.798913e-01	2.798913e-01
43.935140	1.183751	dec_social_accept_high	1.183751	16.000000	n/a	8	2.798913e-01	2.798913e-01
50.769050	1.215835	dec_nonsocial_choice	1.215835	32.000000	n/a	8	2.460106e-02	2.460106e-02
50.769050	1.215835	dec_choice	1.215835	32.000000	n/a	8	1.953125e-02	1.953125e-02
50.769050	1.215835	dec_nonsocial_accept	1.215835	32.000000	n/a	8	-3.289474e-03	-3.289474e-03
50.769050	1.215835	dec_accept	1.215835	32.000000	n/a	8	7.102273e-03	7.102273e-03
50.769050	1.215835	dec_nonsocial_high	1.215835	32.000000	n/a	8	1.953125e-02	1.953125e-02
50.769050	1.215835	dec_nonsocial_accept_high	1.215835	32.000000	n/a	8	7.102273e-03	7.102273e-03
58.419590	0.949305	dec_nonsocial_choice	0.949305	16.000000	n/a	4	2.460106e-02	2.460106e-02
58.419590	0.949305	dec_choice	0.949305	16.000000	n/a	4	1.953125e-02	1.953125e-02
58.419590	0.949305	dec_nonsocial_accept	0.949305	16.000000	n/a	4	-3.289474e-03	-3.289474e-03
58.419590	0.949305	dec_accept	0.949305	16.000000	n/a	4	7.102273e-03	7.102273e-03
58.419590	0.949305	dec_nonsocial_accept_high	0.949305	16.000000	n/a	4	-1.757812e-02	-1.757812e-02
67.669050	1.933169	dec_nonsocial_choice	1.933169	16.000000	n/a	0	0	-2.253989e-01
67.669050	1.933169	dec_choice	1.933169	16.000000	n/a	0	0	-2.304688e-01
67.669050	1.933169	dec_nonsocial_reject	1.933169	16.000000	n/a	0	0	1.736111e-02
67.669050	1.933169	dec_reject	1.933169	16.000000	n/a	0	0	3.125000e-02
67.669050	1.933169	dec_nonsocial_low	1.933169	16.000000	n/a	0	-2.304688e-01	-2.304688e-01
67.669050	1.933169	dec_nonsocial_reject_low	1.933169	16.000000	n/a	2	3.125000e-02	-9.375000e-02
80.152115	0.899944	dec_social_choice	0.899944	16.000000	n/a	4	2.460106e-02	2.460106e-02
80.152115	0.899944	dec_choice	0.899944	16.000000	n/a	4	2.989130e-02	2.989130e-02
80.152115	0.899944	dec_social_accept	0.899944	16.000000	n/a	4	-3.289474e-03	-3.289474e-03
80.152115	0.899944	dec_accept	0.899944	16.000000	n/a	4	-1.757812e-02	-1.757812e-02
80.152115	0.899944	dec_social_high	0.899944	16.000000	n/a	4	2.989130e-02	2.989130e-02
80.152115	0.899944	dec_social_accept_high	0.899944	16.000000	n/a	4	2.989130e-02	2.989130e-02
86.985070	1.683766	dec_nonsocial_choice	1.683766	32.000000	n/a	8	2.460106e-02	2.460106e-02
86.985070	1.683766	dec_choice	1.683766	32.000000	n/a	8	1.953125e-02	1.953125e-02
86.985070	1.683766	dec_nonsocial_accept	1.683766	32.000000	n/a	8	-3.289474e-03	-3.289474e-03
86.985070	1.683766	dec_accept	1.683766	32.000000	n/a	8	7.102273e-03	7.102273e-03
86.985070	1.683766	dec_nonsocial_accept_high	1.683766	32.000000	n/a	8	-1.757812e-02	-1.757812e-02
93.818070	1.217213	dec_social_choice	1.217213	32.000000	n/a	8	2.460106e-02	2.460106e-02
93.818070	1.217213	dec_choice	1.217213	32.000000	n/a	8	2.989130e-02	2.989130e-02
93.818070	1.217213	dec_social_accept	1.217213	32.000000	n/a	8	-3.289474e-03	-3.289474e-03
93.818070	1.217213	dec_accept	1.217213	32.000000	n/a	8	-1.757812e-02	-1.757812e-02
93.818070	1.217213	dec_social_high	1.217213	32.000000	n/a	8	2.989130e-02	2.989130e-02
93.818070	1.217213	dec_social_accept_high	1.217213	32.000000	n/a	8	2.989130e-02	2.989130e-02
100.652080	0.650096	dec_nonsocial_choice	0.650096	32.000000	n/a	3	-1.316489e-01	-1.316489e-01
100.652080	0.650096	dec_choice	0.650096	32.000000	n/a	3	-1.367188e-01	-1.367188e-01
100.652080	0.650096	dec_nonsocial_accept	0.650096	32.000000	n/a	3	-1.595395e-01	-1.595395e-01
100.652080	0.650096	dec_accept	0.650096	32.000000	n/a	3	-1.491477e-01	-1.491477e-01
100.652080	0.650096	dec_nonsocial_low	0.650096	32.000000	n/a	3	-1.367188e-01	-1.367188e-01
100.652080	0.650096	dec_nonsocial_accept_low	0.650096	32.000000	n/a	3	-1.491477e-01	-1.491477e-01
108.302100	1.133095	dec_nonsocial_choice	1.133095	16.000000	n/a	8	2.746011e-01	2.746011e-01
108.302100	1.133095	dec_choice	1.133095	16.000000	n/a	8	2.695312e-01	2.695312e-01
108.302100	1.133095	dec_nonsocial_accept	1.133095	16.000000	n/a	8	2.467105e-01	2.467105e-01
108.302100	1.133095	dec_accept	1.133095	16.000000	n/a	8	2.571023e-01	2.571023e-01
108.302100	1.133095	dec_nonsocial_high	1.133095	16.000000	n/a	8	2.695312e-01	2.695312e-01
108.302100	1.133095	dec_nonsocial_accept_high	1.133095	16.000000	n/a	8	2.571023e-01	2.571023e-01
117.568596	0.916442	dec_nonsocial_choice	0.916442	32.000000	n/a	8	2.460106e-02	2.460106e-02
117.568596	0.916442	dec_choice	0.916442	32.000000	n/a	8	1.953125e-02	1.953125e-02
117.568596	0.916442	dec_nonsocial_accept	0.916442	32.000000	n/a	8	-3.289474e-03	-3.289474e-03
117.568596	0.916442	dec_accept	0.916442	32.000000	n/a	8	7.102273e-03	7.102273e-03
117.568596	0.916442	dec_nonsocial_high	0.916442	32.000000	n/a	8	1.953125e-02	1.953125e-02
117.568596	0.916442	dec_nonsocial_accept_high	0.916442	32.000000	n/a	8	7.102273e-03	7.102273e-03
124.402110	1.249956	dec_nonsocial_choice	1.249956	16.000000	n/a	2	-1.003989e-01	-1.003989e-01
124.402110	1.249956	dec_choice	1.249956	16.000000	n/a	2	-1.054688e-01	-1.054688e-01
124.402110	1.249956	dec_nonsocial_accept	1.249956	16.000000	n/a	2	-1.282895e-01	-1.282895e-01
124.402110	1.249956	dec_accept	1.249956	16.000000	n/a	2	-1.178977e-01	-1.178977e-01
124.402110	1.249956	dec_nonsocial_accept_low	1.249956	16.000000	n/a	2	-1.425781e-01	-1.425781e-01
132.051990	0.916241	dec_nonsocial_choice	0.916241	16.000000	n/a	4	2.460106e-02	2.460106e-02
132.051990	0.916241	dec_choice	0.916241	16.000000	n/a	4	1.953125e-02	1.953125e-02
132.051990	0.916241	dec_nonsocial_accept	0.916241	16.000000	n/a	4	-3.289474e-03	-3.289474e-03
132.051990	0.916241	dec_accept	0.916241	16.000000	n/a	4	7.102273e-03	7.102273e-03
132.051990	0.916241	dec_nonsocial_high	0.916241	16.000000	n/a	4	1.953125e-02	1.953125e-02
132.051990	0.916241	dec_nonsocial_accept_high	0.916241	16.000000	n/a	4	7.102273e-03	7.102273e-03
139.702010	1.066245	dec_social_choice	1.066245	32.000000	n/a	0	0	-2.253989e-01
139.702010	1.066245	dec_choice	1.066245	32.000000	n/a	0	0	-2.201087e-01
139.702010	1.066245	dec_social_reject	1.066245	32.000000	n/a	0	0	-1.388889e-02
139.702010	1.066245	dec_reject	1.066245	32.000000	n/a	0	0	-1.785714e-02
139.702010	1.066245	dec_social_low	1.066245	32.000000	n/a	0	-2.201087e-01	-2.201087e-01
139.702010	1.066245	dec_social_reject_low	1.066245	32.000000	n/a	3	-1.263587e-01	-2.201087e-01
148.951520	1.317252	dec_social_choice	1.317252	16.000000	n/a	0	0	-2.253989e-01
148.951520	1.317252	dec_choice	1.317252	16.000000	n/a	0	0	-2.201087e-01
148.951520	1.317252	dec_social_reject	1.317252	16.000000	n/a	0	0	1.423611e-01
148.951520	1.317252	dec_reject	1.317252	16.000000	n/a	0	0	1.383929e-01
148.951520	1.317252	dec_social_low	1.317252	16.000000	n/a	0	-2.201087e-01	-2.201087e-01
148.951520	1.317252	dec_social_reject_low	1.317252	16.000000	n/a	4	2.989130e-02	-2.201087e-01
155.784180	1.284093	dec_social_choice	1.284093	16.000000	n/a	0	0	-2.253989e-01
155.784180	1.284093	dec_choice	1.284093	16.000000	n/a	0	0	-2.201087e-01
155.784180	1.284093	dec_social_reject	1.284093	16.000000	n/a	0	0	1.736111e-02
155.784180	1.284093	dec_reject	1.284093	16.000000	n/a	0	0	1.339286e-02
155.784180	1.284093	dec_social_reject_low	1.284093	16.000000	n/a	2	-9.510870e-02	-2.201087e-01
162.618130	1.100182	dec_nonsocial_choice	1.100182	16.000000	n/a	8	2.746011e-01	2.746011e-01
162.618130	1.100182	dec_choice	1.100182	16.000000	n/a	8	2.695312e-01	2.695312e-01
162.618130	1.100182	dec_nonsocial_accept	1.100182	16.000000	n/a	8	2.467105e-01	2.467105e-01
162.618130	1.100182	dec_accept	1.100182	16.000000	n/a	8	2.571023e-01	2.571023e-01
162.618130	1.100182	dec_nonsocial_accept_high	1.100182	16.000000	n/a	8	2.324219e-01	2.324219e-01
173.485120	1.700188	dec_nonsocial_choice	1.700188	16.000000	n/a	1	-1.628989e-01	-1.628989e-01
173.485120	1.700188	dec_choice	1.700188	16.000000	n/a	1	-1.679688e-01	-1.679688e-01
173.485120	1.700188	dec_nonsocial_accept	1.700188	16.000000	n/a	1	-1.907895e-01	-1.907895e-01
173.485120	1.700188	dec_accept	1.700188	16.000000	n/a	1	-1.803977e-01	-1.803977e-01
173.485120	1.700188	dec_nonsocial_accept_low	1.700188	16.000000	n/a	1	-2.050781e-01	-2.050781e-01
181.134900	1.167121	dec_social_choice	1.167121	16.000000	n/a	8	2.746011e-01	2.746011e-01
181.134900	1.167121	dec_choice	1.167121	16.000000	n/a	8	2.798913e-01	2.798913e-01
181.134900	1.167121	dec_social_accept	1.167121	16.000000	n/a	8	2.467105e-01	2.467105e-01
181.134900	1.167121	dec_accept	1.167121	16.000000	n/a	8	2.324219e-01	2.324219e-01
181.134900	1.167121	dec_social_accept_high	1.167121	16.000000	n/a	8	2.798913e-01	2.798913e-01
192.002640	0.982516	dec_nonsocial_choice	0.982516	16.000000	n/a	2	-1.003989e-01	-1.003989e-01
192.002640	0.982516	dec_choice	0.982516	16.000000	n/a	2	-1.054688e-01	-1.054688e-01
192.002640	0.982516	dec_nonsocial_accept	0.982516	16.000000	n/a	2	-1.282895e-01	-1.282895e-01
192.002640	0.982516	dec_accept	0.982516	16.000000	n/a	2	-1.178977e-01	-1.178977e-01
192.002640	0.982516	dec_nonsocial_low	0.982516	16.000000	n/a	2	-1.054688e-01	-1.054688e-01
192.002640	0.982516	dec_nonsocial_accept_low	0.982516	16.000000	n/a	2	-1.178977e-01	-1.178977e-01
198.834930	1.033114	dec_social_choice	1.033114	16.000000	n/a	4	2.460106e-02	2.460106e-02
198.834930	1.033114	dec_choice	1.033114	16.000000	n/a	4	2.989130e-02	2.989130e-02
198.834930	1.033114	dec_social_accept	1.033114	16.000000	n/a	4	-3.289474e-03	-3.289474e-03
198.834930	1.033114	dec_accept	1.033114	16.000000	n/a	4	-1.757812e-02	-1.757812e-02
198.834930	1.033114	dec_social_accept_high	1.033114	16.000000	n/a	4	2.989130e-02	2.989130e-02
205.669070	0.582963	dec_nonsocial_choice	0.582963	32.000000	n/a	3	-1.316489e-01	-1.316489e-01
205.669070	0.582963	dec_choice	0.582963	32.000000	n/a	3	-1.367188e-01	-1.367188e-01
205.669070	0.582963	dec_nonsocial_accept	0.582963	32.000000	n/a	3	-1.595395e-01	-1.595395e-01
205.669070	0.582963	dec_accept	0.582963	32.000000	n/a	3	-1.491477e-01	-1.491477e-01
205.669070	0.582963	dec_nonsocial_accept_low	0.582963	32.000000	n/a	3	-1.738281e-01	-1.738281e-01
212.502150	1.099801	dec_social_choice	1.099801	32.000000	n/a	2	-1.628989e-01	-1.628989e-01
212.502150	1.099801	dec_choice	1.099801	32.000000	n/a	2	-1.576087e-01	-1.576087e-01
212.502150	1.099801	dec_social_accept	1.099801	32.000000	n/a	2	-1.907895e-01	-1.907895e-01
212.502150	1.099801	dec_accept	1.099801	32.000000	n/a	2	-2.050781e-01	-2.050781e-01
212.502150	1.099801	dec_social_low	1.099801	32.000000	n/a	2	-1.576087e-01	-1.576087e-01
212.502150	1.099801	dec_social_accept_low	1.099801	32.000000	n/a	2	-1.576087e-01	-1.576087e-01
219.336170	1.048895	dec_social_choice	1.048895	16.000000	n/a	1	-1.628989e-01	-1.628989e-01
219.336170	1.048895	dec_choice	1.048895	16.000000	n/a	1	-1.576087e-01	-1.576087e-01
219.336170	1.048895	dec_social_accept	1.048895	16.000000	n/a	1	-1.907895e-01	-1.907895e-01
219.336170	1.048895	dec_accept	1.048895	16.000000	n/a	1	-2.050781e-01	-2.050781e-01
219.336170	1.048895	dec_social_accept_low	1.048895	16.000000	n/a	1	-1.576087e-01	-1.576087e-01
226.169130	0.632820	dec_nonsocial_choice	0.632820	16.000000	n/a	1	-1.628989e-01	-1.628989e-01
226.169130	0.632820	dec_choice	0.632820	16.000000	n/a	1	-1.679688e-01	-1.679688e-01
226.169130	0.632820	dec_nonsocial_accept	0.632820	16.000000	n/a	1	-1.907895e-01	-1.907895e-01
226.169130	0.632820	dec_accept	0.632820	16.000000	n/a	1	-1.803977e-01	-1.803977e-01
226.169130	0.632820	dec_nonsocial_accept_low	0.632820	16.000000	n/a	1	-2.050781e-01	-2.050781e-01
237.052830	0.898942	dec_social_choice	0.898942	32.000000	n/a	3	-1.316489e-01	-1.316489e-01
237.052830	0.898942	dec_choice	0.898942	32.000000	n/a	3	-1.263587e-01	-1.263587e-01
237.052830	0.898942	dec_social_accept	0.898942	32.000000	n/a	3	-1.595395e-01	-1.595395e-01
237.052830	0.898942	dec_accept	0.898942	32.000000	n/a	3	-1.738281e-01	-1.738281e-01
237.052830	0.898942	dec_social_accept_low	0.898942	32.000000	n/a	3	-1.263587e-01	-1.263587e-01
244.702180	1.549680	dec_social_choice	1.549680	32.000000	n/a	16	2.746011e-01	2.746011e-01
244.702180	1.549680	dec_choice	1.549680	32.000000	n/a	16	2.798913e-01	2.798913e-01
244.702180	1.549680	dec_social_accept	1.549680	32.000000	n/a	16	2.467105e-01	2.467105e-01
244.702180	1.549680	dec_accept	1.549680	32.000000	n/a	16	2.324219e-01	2.324219e-01
244.702180	1.549680	dec_social_high	1.549680	32.000000	n/a	16	2.798913e-01	2.798913e-01
244.702180	1.549680	dec_social_accept_high	1.549680	32.000000	n/a	16	2.798913e-01	2.798913e-01
252.352160	1.032950	dec_nonsocial_choice	1.032950	16.000000	n/a	8	2.746011e-01	2.746011e-01
252.352160	1.032950	dec_choice	1.032950	16.000000	n/a	8	2.695312e-01	2.695312e-01
252.352160	1.032950	dec_nonsocial_accept	1.032950	16.000000	n/a	8	2.467105e-01	2.467105e-01
252.352160	1.032950	dec_accept	1.032950	16.000000	n/a	8	2.571023e-01	2.571023e-01
252.352160	1.032950	dec_nonsocial_high	1.032950	16.000000	n/a	8	2.695312e-01	2.695312e-01
252.352160	1.032950	dec_nonsocial_accept_high	1.032950	16.000000	n/a	8	2.571023e-01	2.571023e-01
260.001830	1.133385	dec_nonsocial_choice	1.133385	32.000000	n/a	8	2.460106e-02	2.460106e-02
260.001830	1.133385	dec_choice	1.133385	32.000000	n/a	8	1.953125e-02	1.953125e-02
260.001830	1.133385	dec_nonsocial_accept	1.133385	32.000000	n/a	8	-3.289474e-03	-3.289474e-03
260.001830	1.133385	dec_accept	1.133385	32.000000	n/a	8	7.102273e-03	7.102273e-03
260.001830	1.133385	dec_nonsocial_accept_high	1.133385	32.000000	n/a	8	-1.757812e-02	-1.757812e-02
267.651820	3.766946	missed_trial	3.766946	32.000000	n/a	n/a	n/a	n/a
274.501980	0.433258	dec_nonsocial_choice	0.433258	16.000000	n/a	8	2.746011e-01	2.746011e-01
274.501980	0.433258	dec_choice	0.433258	16.000000	n/a	8	2.695312e-01	2.695312e-01
274.501980	0.433258	dec_nonsocial_accept	0.433258	16.000000	n/a	8	2.467105e-01	2.467105e-01
274.501980	0.433258	dec_accept	0.433258	16.000000	n/a	8	2.571023e-01	2.571023e-01
274.501980	0.433258	dec_nonsocial_high	0.433258	16.000000	n/a	8	2.695312e-01	2.695312e-01
274.501980	0.433258	dec_nonsocial_accept_high	0.433258	16.000000	n/a	8	2.571023e-01	2.571023e-01
281.335170	1.033158	dec_nonsocial_choice	1.033158	32.000000	n/a	3	-1.316489e-01	-1.316489e-01
281.335170	1.033158	dec_choice	1.033158	32.000000	n/a	3	-1.367188e-01	-1.367188e-01
281.335170	1.033158	dec_nonsocial_accept	1.033158	32.000000	n/a	3	-1.595395e-01	-1.595395e-01
281.335170	1.033158	dec_accept	1.033158	32.000000	n/a	3	-1.491477e-01	-1.491477e-01
281.335170	1.033158	dec_nonsocial_accept_low	1.033158	32.000000	n/a	3	-1.738281e-01	-1.738281e-01
288.168200	1.600160	dec_nonsocial_choice	1.600160	16.000000	n/a	8	2.746011e-01	2.746011e-01
288.168200	1.600160	dec_choice	1.600160	16.000000	n/a	8	2.695312e-01	2.695312e-01
288.168200	1.600160	dec_nonsocial_accept	1.600160	16.000000	n/a	8	2.467105e-01	2.467105e-01
288.168200	1.600160	dec_accept	1.600160	16.000000	n/a	8	2.571023e-01	2.571023e-01
288.168200	1.600160	dec_nonsocial_accept_high	1.600160	16.000000	n/a	8	2.324219e-01	2.324219e-01
295.001560	0.550443	dec_nonsocial_choice	0.550443	32.000000	n/a	2	-1.628989e-01	-1.628989e-01
295.001560	0.550443	dec_choice	0.550443	32.000000	n/a	2	-1.679688e-01	-1.679688e-01
295.001560	0.550443	dec_nonsocial_accept	0.550443	32.000000	n/a	2	-1.907895e-01	-1.907895e-01
295.001560	0.550443	dec_accept	0.550443	32.000000	n/a	2	-1.803977e-01	-1.803977e-01
295.001560	0.550443	dec_nonsocial_accept_low	0.550443	32.000000	n/a	2	-2.050781e-01	-2.050781e-01
304.251160	1.500441	dec_social_choice	1.500441	32.000000	n/a	0	0	-2.253989e-01
304.251160	1.500441	dec_choice	1.500441	32.000000	n/a	0	0	-2.201087e-01
304.251160	1.500441	dec_social_reject	1.500441	32.000000	n/a	0	0	-4.513889e-02
304.251160	1.500441	dec_reject	1.500441	32.000000	n/a	0	0	-4.910714e-02
304.251160	1.500441	dec_social_low	1.500441	32.000000	n/a	0	-2.201087e-01	-2.201087e-01
304.251160	1.500441	dec_social_reject_low	1.500441	32.000000	n/a	2	-1.576087e-01	-2.201087e-01
311.085200	1.199915	dec_social_choice	1.199915	16.000000	n/a	0	0	-2.253989e-01
311.085200	1.199915	dec_choice	1.199915	16.000000	n/a	0	0	-2.201087e-01
311.085200	1.199915	dec_social_reject	1.199915	16.000000	n/a	0	0	-4.513889e-02
311.085200	1.199915	dec_reject	1.199915	16.000000	n/a	0	0	-4.910714e-02
311.085200	1.199915	dec_social_low	1.199915	16.000000	n/a	0	-2.201087e-01	-2.201087e-01
311.085200	1.199915	dec_social_reject_low	1.199915	16.000000	n/a	1	-1.576087e-01	-2.201087e-01
317.918240	1.083364	dec_nonsocial_choice	1.083364	32.000000	n/a	16	2.746011e-01	2.746011e-01
317.918240	1.083364	dec_choice	1.083364	32.000000	n/a	16	2.695312e-01	2.695312e-01
317.918240	1.083364	dec_nonsocial_accept	1.083364	32.000000	n/a	16	2.467105e-01	2.467105e-01
317.918240	1.083364	dec_accept	1.083364	32.000000	n/a	16	2.571023e-01	2.571023e-01
317.918240	1.083364	dec_nonsocial_high	1.083364	32.000000	n/a	16	2.695312e-01	2.695312e-01
317.918240	1.083364	dec_nonsocial_accept_high	1.083364	32.000000	n/a	16	2.571023e-01	2.571023e-01
324.750400	1.001131	dec_social_choice	1.001131	16.000000	n/a	2	-1.003989e-01	-1.003989e-01
324.750400	1.001131	dec_choice	1.001131	16.000000	n/a	2	-9.510870e-02	-9.510870e-02
324.750400	1.001131	dec_social_accept	1.001131	16.000000	n/a	2	-1.282895e-01	-1.282895e-01
324.750400	1.001131	dec_accept	1.001131	16.000000	n/a	2	-1.425781e-01	-1.425781e-01
324.750400	1.001131	dec_social_accept_low	1.001131	16.000000	n/a	2	-9.510870e-02	-9.510870e-02
332.384980	1.200133	dec_social_choice	1.200133	16.000000	n/a	0	0	-2.253989e-01
332.384980	1.200133	dec_choice	1.200133	16.000000	n/a	0	0	-2.201087e-01
332.384980	1.200133	dec_social_reject	1.200133	16.000000	n/a	0	0	-4.513889e-02
332.384980	1.200133	dec_reject	1.200133	16.000000	n/a	0	0	-4.910714e-02
332.384980	1.200133	dec_social_low	1.200133	16.000000	n/a	0	-2.201087e-01	-2.201087e-01
332.384980	1.200133	dec_social_reject_low	1.200133	16.000000	n/a	1	-1.576087e-01	-2.201087e-01
340.035770	1.249299	dec_nonsocial_choice	1.249299	16.000000	n/a	1	-1.628989e-01	-1.628989e-01
340.035770	1.249299	dec_choice	1.249299	16.000000	n/a	1	-1.679688e-01	-1.679688e-01
340.035770	1.249299	dec_nonsocial_accept	1.249299	16.000000	n/a	1	-1.907895e-01	-1.907895e-01
340.035770	1.249299	dec_accept	1.249299	16.000000	n/a	1	-1.803977e-01	-1.803977e-01
340.035770	1.249299	dec_nonsocial_accept_low	1.249299	16.000000	n/a	1	-2.050781e-01	-2.050781e-01
349.286220	1.032154	dec_social_choice	1.032154	16.000000	n/a	1	-1.628989e-01	-1.628989e-01
349.286220	1.032154	dec_choice	1.032154	16.000000	n/a	1	-1.576087e-01	-1.576087e-01
349.286220	1.032154	dec_social_accept	1.032154	16.000000	n/a	1	-1.907895e-01	-1.907895e-01
349.286220	1.032154	dec_accept	1.032154	16.000000	n/a	1	-2.050781e-01	-2.050781e-01
349.286220	1.032154	dec_social_low	1.032154	16.000000	n/a	1	-1.576087e-01	-1.576087e-01
349.286220	1.032154	dec_social_accept_low	1.032154	16.000000	n/a	1	-1.576087e-01	-1.576087e-01
356.117340	1.100604	dec_social_choice	1.100604	16.000000	n/a	4	2.460106e-02	2.460106e-02
356.117340	1.100604	dec_choice	1.100604	16.000000	n/a	4	2.989130e-02	2.989130e-02
356.117340	1.100604	dec_social_accept	1.100604	16.000000	n/a	4	-3.289474e-03	-3.289474e-03
356.117340	1.100604	dec_accept	1.100604	16.000000	n/a	4	-1.757812e-02	-1.757812e-02
356.117340	1.100604	dec_social_accept_high	1.100604	16.000000	n/a	4	2.989130e-02	2.989130e-02
363.768400	1.715843	dec_nonsocial_choice	1.715843	32.000000	n/a	2	-1.628989e-01	-1.628989e-01
363.768400	1.715843	dec_choice	1.715843	32.000000	n/a	2	-1.679688e-01	-1.679688e-01
363.768400	1.715843	dec_nonsocial_accept	1.715843	32.000000	n/a	2	-1.907895e-01	-1.907895e-01
363.768400	1.715843	dec_accept	1.715843	32.000000	n/a	2	-1.803977e-01	-1.803977e-01
363.768400	1.715843	dec_nonsocial_accept_low	1.715843	32.000000	n/a	2	-2.050781e-01	-2.050781e-01
373.034420	1.050380	dec_social_choice	1.050380	16.000000	n/a	2	-1.003989e-01	-1.003989e-01
373.034420	1.050380	dec_choice	1.050380	16.000000	n/a	2	-9.510870e-02	-9.510870e-02
373.034420	1.050380	dec_social_accept	1.050380	16.000000	n/a	2	-1.282895e-01	-1.282895e-01
373.034420	1.050380	dec_accept	1.050380	16.000000	n/a	2	-1.425781e-01	-1.425781e-01
373.034420	1.050380	dec_social_accept_low	1.050380	16.000000	n/a	2	-9.510870e-02	-9.510870e-02
