onset	duration	trial_type	response_time	Endowment	Endowment_pmod	Decision	Decision_pmod	Offer_pmod
4.569757	2	cue_social	n/a	32	8	n/a	n/a	n/a
4.569757	2	cue_social_high	n/a	32	7	n/a	n/a	n/a
13.829204	2	cue_social	n/a	32	8	n/a	n/a	n/a
13.829204	2	cue_social_high	n/a	32	7	n/a	n/a	n/a
20.607697	2	cue_nonsocial	n/a	16	-9	n/a	n/a	n/a
20.607697	2	cue_nonsocial_low	n/a	16	-8	n/a	n/a	n/a
27.529257	2	cue_social	n/a	16	-8	n/a	n/a	n/a
27.529257	2	cue_social_low	n/a	16	-9	n/a	n/a	n/a
34.343834	2	cue_social	n/a	32	8	n/a	n/a	n/a
34.343834	2	cue_social_high	n/a	32	7	n/a	n/a	n/a
41.923775	2	cue_nonsocial	n/a	32	7	n/a	n/a	n/a
41.923775	2	cue_nonsocial_high	n/a	32	8	n/a	n/a	n/a
52.849514	2	cue_social	n/a	32	8	n/a	n/a	n/a
52.849514	2	cue_social_high	n/a	32	7	n/a	n/a	n/a
59.623787	2	cue_nonsocial	n/a	16	-9	n/a	n/a	n/a
59.623787	2	cue_nonsocial_low	n/a	16	-8	n/a	n/a	n/a
68.890430	2	cue_nonsocial	n/a	32	7	n/a	n/a	n/a
68.890430	2	cue_nonsocial_high	n/a	32	8	n/a	n/a	n/a
75.811325	2	cue_social	n/a	32	8	n/a	n/a	n/a
75.811325	2	cue_social_high	n/a	32	7	n/a	n/a	n/a
84.973760	2	cue_nonsocial	n/a	16	-9	n/a	n/a	n/a
84.973760	2	cue_nonsocial_low	n/a	16	-8	n/a	n/a	n/a
91.806786	2	cue_nonsocial	n/a	16	-9	n/a	n/a	n/a
91.806786	2	cue_nonsocial_low	n/a	16	-8	n/a	n/a	n/a
98.684310	2	cue_social	n/a	32	8	n/a	n/a	n/a
98.684310	2	cue_social_high	n/a	32	7	n/a	n/a	n/a
107.890465	2	cue_nonsocial	n/a	32	7	n/a	n/a	n/a
107.890465	2	cue_nonsocial_high	n/a	32	8	n/a	n/a	n/a
115.540280	2	cue_nonsocial	n/a	32	7	n/a	n/a	n/a
115.540280	2	cue_nonsocial_high	n/a	32	8	n/a	n/a	n/a
122.442910	2	cue_social	n/a	32	8	n/a	n/a	n/a
122.442910	2	cue_social_high	n/a	32	7	n/a	n/a	n/a
130.080920	2	cue_social	n/a	16	-8	n/a	n/a	n/a
130.080920	2	cue_social_low	n/a	16	-9	n/a	n/a	n/a
137.711990	2	cue_social	n/a	32	8	n/a	n/a	n/a
137.711990	2	cue_social_high	n/a	32	7	n/a	n/a	n/a
144.506450	2	cue_nonsocial	n/a	32	7	n/a	n/a	n/a
144.506450	2	cue_nonsocial_high	n/a	32	8	n/a	n/a	n/a
151.340100	2	cue_nonsocial	n/a	32	7	n/a	n/a	n/a
151.340100	2	cue_nonsocial_high	n/a	32	8	n/a	n/a	n/a
158.173750	2	cue_nonsocial	n/a	32	7	n/a	n/a	n/a
158.173750	2	cue_nonsocial_high	n/a	32	8	n/a	n/a	n/a
169.107280	2	cue_social	n/a	16	-8	n/a	n/a	n/a
169.107280	2	cue_social_low	n/a	16	-9	n/a	n/a	n/a
176.733110	2	cue_social	n/a	16	-8	n/a	n/a	n/a
176.733110	2	cue_social_low	n/a	16	-9	n/a	n/a	n/a
183.573760	2	cue_social	n/a	32	8	n/a	n/a	n/a
183.573760	2	cue_social_high	n/a	32	7	n/a	n/a	n/a
191.173700	2	cue_nonsocial	n/a	16	-9	n/a	n/a	n/a
191.173700	2	cue_nonsocial_low	n/a	16	-8	n/a	n/a	n/a
198.078870	2	cue_social	n/a	16	-8	n/a	n/a	n/a
198.078870	2	cue_social_low	n/a	16	-9	n/a	n/a	n/a
205.656970	2	cue_nonsocial	n/a	32	7	n/a	n/a	n/a
205.656970	2	cue_nonsocial_high	n/a	32	8	n/a	n/a	n/a
212.545940	2	cue_social	n/a	16	-8	n/a	n/a	n/a
212.545940	2	cue_social_low	n/a	16	-9	n/a	n/a	n/a
219.323300	2	cue_nonsocial	n/a	16	-9	n/a	n/a	n/a
219.323300	2	cue_nonsocial_low	n/a	16	-8	n/a	n/a	n/a
231.806730	2	cue_nonsocial	n/a	16	-9	n/a	n/a	n/a
231.806730	2	cue_nonsocial_low	n/a	16	-8	n/a	n/a	n/a
241.073300	2	cue_nonsocial	n/a	32	7	n/a	n/a	n/a
241.073300	2	cue_nonsocial_high	n/a	32	8	n/a	n/a	n/a
248.723160	2	cue_nonsocial	n/a	16	-9	n/a	n/a	n/a
248.723160	2	cue_nonsocial_low	n/a	16	-8	n/a	n/a	n/a
255.556840	2	cue_nonsocial	n/a	32	7	n/a	n/a	n/a
255.556840	2	cue_nonsocial_high	n/a	32	8	n/a	n/a	n/a
262.389950	2	cue_nonsocial	n/a	32	7	n/a	n/a	n/a
262.389950	2	cue_nonsocial_high	n/a	32	8	n/a	n/a	n/a
270.079960	2	cue_social	n/a	32	8	n/a	n/a	n/a
270.079960	2	cue_social_high	n/a	32	7	n/a	n/a	n/a
276.873200	2	cue_nonsocial	n/a	16	-9	n/a	n/a	n/a
276.873200	2	cue_nonsocial_low	n/a	16	-8	n/a	n/a	n/a
283.807900	2	cue_social	n/a	16	-8	n/a	n/a	n/a
283.807900	2	cue_social_low	n/a	16	-9	n/a	n/a	n/a
293.027440	2	cue_social	n/a	16	-8	n/a	n/a	n/a
293.027440	2	cue_social_low	n/a	16	-9	n/a	n/a	n/a
299.789700	2	cue_nonsocial	n/a	16	-9	n/a	n/a	n/a
299.789700	2	cue_nonsocial_low	n/a	16	-8	n/a	n/a	n/a
310.711900	2	cue_social	n/a	16	-8	n/a	n/a	n/a
310.711900	2	cue_social_low	n/a	16	-9	n/a	n/a	n/a
317.489900	2	cue_nonsocial	n/a	32	7	n/a	n/a	n/a
317.489900	2	cue_nonsocial_high	n/a	32	8	n/a	n/a	n/a
326.791750	2	cue_social	n/a	32	8	n/a	n/a	n/a
326.791750	2	cue_social_high	n/a	32	7	n/a	n/a	n/a
334.373170	2	cue_nonsocial	n/a	32	7	n/a	n/a	n/a
334.373170	2	cue_nonsocial_high	n/a	32	8	n/a	n/a	n/a
342.068080	2	cue_social	n/a	32	8	n/a	n/a	n/a
342.068080	2	cue_social_high	n/a	32	7	n/a	n/a	n/a
348.903960	2	cue_social	n/a	16	-8	n/a	n/a	n/a
348.903960	2	cue_social_low	n/a	16	-9	n/a	n/a	n/a
355.689820	2	cue_nonsocial	n/a	32	7	n/a	n/a	n/a
355.689820	2	cue_nonsocial_high	n/a	32	8	n/a	n/a	n/a
363.413450	2	cue_social	n/a	16	-8	n/a	n/a	n/a
363.413450	2	cue_social_low	n/a	16	-9	n/a	n/a	n/a
370.216220	2	cue_social	n/a	16	-8	n/a	n/a	n/a
370.216220	2	cue_social_low	n/a	16	-9	n/a	n/a	n/a
6.514144	1.965875	dec_social_choice	1.965875	32.000000	n/a	16	2.682292e-01	2.682292e-01
6.514144	1.965875	dec_choice	1.965875	32.000000	n/a	16	2.682292e-01	2.682292e-01
6.514144	1.965875	dec_social_accept	1.965875	32.000000	n/a	16	2.682292e-01	2.682292e-01
6.514144	1.965875	dec_accept	1.965875	32.000000	n/a	16	2.682292e-01	2.682292e-01
6.514144	1.965875	dec_social_high	1.965875	32.000000	n/a	16	2.682292e-01	2.682292e-01
6.514144	1.965875	dec_social_accept_high	1.965875	32.000000	n/a	16	2.682292e-01	2.682292e-01
15.781116	2.315407	dec_social_choice	2.315407	32.000000	n/a	3	-1.380208e-01	-1.380208e-01
15.781116	2.315407	dec_choice	2.315407	32.000000	n/a	3	-1.380208e-01	-1.380208e-01
15.781116	2.315407	dec_social_accept	2.315407	32.000000	n/a	3	-1.380208e-01	-1.380208e-01
15.781116	2.315407	dec_accept	2.315407	32.000000	n/a	3	-1.380208e-01	-1.380208e-01
15.781116	2.315407	dec_social_low	2.315407	32.000000	n/a	3	-1.380208e-01	-1.380208e-01
15.781116	2.315407	dec_social_accept_low	2.315407	32.000000	n/a	3	-1.380208e-01	-1.380208e-01
22.613195	2.883976	dec_nonsocial_choice	2.883976	16.000000	n/a	8	2.682292e-01	2.682292e-01
22.613195	2.883976	dec_choice	2.883976	16.000000	n/a	8	2.682292e-01	2.682292e-01
22.613195	2.883976	dec_nonsocial_accept	2.883976	16.000000	n/a	8	2.682292e-01	2.682292e-01
22.613195	2.883976	dec_accept	2.883976	16.000000	n/a	8	2.682292e-01	2.682292e-01
22.613195	2.883976	dec_nonsocial_high	2.883976	16.000000	n/a	8	2.682292e-01	2.682292e-01
22.613195	2.883976	dec_nonsocial_accept_high	2.883976	16.000000	n/a	8	2.682292e-01	2.682292e-01
29.447094	2.949660	dec_social_choice	2.949660	16.000000	n/a	2	-1.067708e-01	-1.067708e-01
29.447094	2.949660	dec_choice	2.949660	16.000000	n/a	2	-1.067708e-01	-1.067708e-01
29.447094	2.949660	dec_social_accept	2.949660	16.000000	n/a	2	-1.067708e-01	-1.067708e-01
29.447094	2.949660	dec_accept	2.949660	16.000000	n/a	2	-1.067708e-01	-1.067708e-01
29.447094	2.949660	dec_social_low	2.949660	16.000000	n/a	2	-1.067708e-01	-1.067708e-01
29.447094	2.949660	dec_social_accept_low	2.949660	16.000000	n/a	2	-1.067708e-01	-1.067708e-01
36.280067	1.966480	dec_social_choice	1.966480	32.000000	n/a	16	2.682292e-01	2.682292e-01
36.280067	1.966480	dec_choice	1.966480	32.000000	n/a	16	2.682292e-01	2.682292e-01
36.280067	1.966480	dec_social_accept	1.966480	32.000000	n/a	16	2.682292e-01	2.682292e-01
36.280067	1.966480	dec_accept	1.966480	32.000000	n/a	16	2.682292e-01	2.682292e-01
36.280067	1.966480	dec_social_high	1.966480	32.000000	n/a	16	2.682292e-01	2.682292e-01
36.280067	1.966480	dec_social_accept_high	1.966480	32.000000	n/a	16	2.682292e-01	2.682292e-01
43.930090	1.766442	dec_nonsocial_choice	1.766442	32.000000	n/a	8	1.822917e-02	1.822917e-02
43.930090	1.766442	dec_choice	1.766442	32.000000	n/a	8	1.822917e-02	1.822917e-02
43.930090	1.766442	dec_nonsocial_accept	1.766442	32.000000	n/a	8	1.822917e-02	1.822917e-02
43.930090	1.766442	dec_accept	1.766442	32.000000	n/a	8	1.822917e-02	1.822917e-02
43.930090	1.766442	dec_nonsocial_high	1.766442	32.000000	n/a	8	1.822917e-02	1.822917e-02
43.930090	1.766442	dec_nonsocial_accept_high	1.766442	32.000000	n/a	8	1.822917e-02	1.822917e-02
54.796204	1.667055	dec_social_choice	1.667055	32.000000	n/a	16	2.682292e-01	2.682292e-01
54.796204	1.667055	dec_choice	1.667055	32.000000	n/a	16	2.682292e-01	2.682292e-01
54.796204	1.667055	dec_social_accept	1.667055	32.000000	n/a	16	2.682292e-01	2.682292e-01
54.796204	1.667055	dec_accept	1.667055	32.000000	n/a	16	2.682292e-01	2.682292e-01
54.796204	1.667055	dec_social_high	1.667055	32.000000	n/a	16	2.682292e-01	2.682292e-01
54.796204	1.667055	dec_social_accept_high	1.667055	32.000000	n/a	16	2.682292e-01	2.682292e-01
61.630066	2.566276	dec_nonsocial_choice	2.566276	16.000000	n/a	2	-1.067708e-01	-1.067708e-01
61.630066	2.566276	dec_choice	2.566276	16.000000	n/a	2	-1.067708e-01	-1.067708e-01
61.630066	2.566276	dec_nonsocial_accept	2.566276	16.000000	n/a	2	-1.067708e-01	-1.067708e-01
61.630066	2.566276	dec_accept	2.566276	16.000000	n/a	2	-1.067708e-01	-1.067708e-01
61.630066	2.566276	dec_nonsocial_low	2.566276	16.000000	n/a	2	-1.067708e-01	-1.067708e-01
61.630066	2.566276	dec_nonsocial_accept_low	2.566276	16.000000	n/a	2	-1.067708e-01	-1.067708e-01
70.897100	2.299770	dec_nonsocial_choice	2.299770	32.000000	n/a	2	-1.692708e-01	-1.692708e-01
70.897100	2.299770	dec_choice	2.299770	32.000000	n/a	2	-1.692708e-01	-1.692708e-01
70.897100	2.299770	dec_nonsocial_accept	2.299770	32.000000	n/a	2	-1.692708e-01	-1.692708e-01
70.897100	2.299770	dec_accept	2.299770	32.000000	n/a	2	-1.692708e-01	-1.692708e-01
70.897100	2.299770	dec_nonsocial_low	2.299770	32.000000	n/a	2	-1.692708e-01	-1.692708e-01
70.897100	2.299770	dec_nonsocial_accept_low	2.299770	32.000000	n/a	2	-1.692708e-01	-1.692708e-01
77.730110	2.333049	dec_social_choice	2.333049	32.000000	n/a	3	-1.380208e-01	-1.380208e-01
77.730110	2.333049	dec_choice	2.333049	32.000000	n/a	3	-1.380208e-01	-1.380208e-01
77.730110	2.333049	dec_social_accept	2.333049	32.000000	n/a	3	-1.380208e-01	-1.380208e-01
77.730110	2.333049	dec_accept	2.333049	32.000000	n/a	3	-1.380208e-01	-1.380208e-01
77.730110	2.333049	dec_social_accept_low	2.333049	32.000000	n/a	3	-1.380208e-01	-1.380208e-01
86.980080	1.983538	dec_nonsocial_choice	1.983538	16.000000	n/a	2	-1.067708e-01	-1.067708e-01
86.980080	1.983538	dec_choice	1.983538	16.000000	n/a	2	-1.067708e-01	-1.067708e-01
86.980080	1.983538	dec_nonsocial_accept	1.983538	16.000000	n/a	2	-1.067708e-01	-1.067708e-01
86.980080	1.983538	dec_accept	1.983538	16.000000	n/a	2	-1.067708e-01	-1.067708e-01
86.980080	1.983538	dec_nonsocial_accept_low	1.983538	16.000000	n/a	2	-1.067708e-01	-1.067708e-01
93.813930	1.983014	dec_nonsocial_choice	1.983014	16.000000	n/a	8	2.682292e-01	2.682292e-01
93.813930	1.983014	dec_choice	1.983014	16.000000	n/a	8	2.682292e-01	2.682292e-01
93.813930	1.983014	dec_nonsocial_accept	1.983014	16.000000	n/a	8	2.682292e-01	2.682292e-01
93.813930	1.983014	dec_accept	1.983014	16.000000	n/a	8	2.682292e-01	2.682292e-01
93.813930	1.983014	dec_nonsocial_accept_high	1.983014	16.000000	n/a	8	2.682292e-01	2.682292e-01
100.647080	1.816101	dec_social_choice	1.816101	32.000000	n/a	2	-1.692708e-01	-1.692708e-01
100.647080	1.816101	dec_choice	1.816101	32.000000	n/a	2	-1.692708e-01	-1.692708e-01
100.647080	1.816101	dec_social_accept	1.816101	32.000000	n/a	2	-1.692708e-01	-1.692708e-01
100.647080	1.816101	dec_accept	1.816101	32.000000	n/a	2	-1.692708e-01	-1.692708e-01
100.647080	1.816101	dec_social_accept_low	1.816101	32.000000	n/a	2	-1.692708e-01	-1.692708e-01
109.897070	1.716098	dec_nonsocial_choice	1.716098	32.000000	n/a	2	-1.692708e-01	-1.692708e-01
109.897070	1.716098	dec_choice	1.716098	32.000000	n/a	2	-1.692708e-01	-1.692708e-01
109.897070	1.716098	dec_nonsocial_accept	1.716098	32.000000	n/a	2	-1.692708e-01	-1.692708e-01
109.897070	1.716098	dec_accept	1.716098	32.000000	n/a	2	-1.692708e-01	-1.692708e-01
109.897070	1.716098	dec_nonsocial_low	1.716098	32.000000	n/a	2	-1.692708e-01	-1.692708e-01
109.897070	1.716098	dec_nonsocial_accept_low	1.716098	32.000000	n/a	2	-1.692708e-01	-1.692708e-01
117.547110	1.816024	dec_nonsocial_choice	1.816024	32.000000	n/a	16	2.682292e-01	2.682292e-01
117.547110	1.816024	dec_choice	1.816024	32.000000	n/a	16	2.682292e-01	2.682292e-01
117.547110	1.816024	dec_nonsocial_accept	1.816024	32.000000	n/a	16	2.682292e-01	2.682292e-01
117.547110	1.816024	dec_accept	1.816024	32.000000	n/a	16	2.682292e-01	2.682292e-01
117.547110	1.816024	dec_nonsocial_high	1.816024	32.000000	n/a	16	2.682292e-01	2.682292e-01
117.547110	1.816024	dec_nonsocial_accept_high	1.816024	32.000000	n/a	16	2.682292e-01	2.682292e-01
124.380140	1.799968	dec_social_choice	1.799968	32.000000	n/a	8	1.822917e-02	1.822917e-02
124.380140	1.799968	dec_choice	1.799968	32.000000	n/a	8	1.822917e-02	1.822917e-02
124.380140	1.799968	dec_social_accept	1.799968	32.000000	n/a	8	1.822917e-02	1.822917e-02
124.380140	1.799968	dec_accept	1.799968	32.000000	n/a	8	1.822917e-02	1.822917e-02
124.380140	1.799968	dec_social_accept_high	1.799968	32.000000	n/a	8	1.822917e-02	1.822917e-02
132.029980	1.483290	dec_social_choice	1.483290	16.000000	n/a	4	1.822917e-02	1.822917e-02
132.029980	1.483290	dec_choice	1.483290	16.000000	n/a	4	1.822917e-02	1.822917e-02
132.029980	1.483290	dec_social_accept	1.483290	16.000000	n/a	4	1.822917e-02	1.822917e-02
132.029980	1.483290	dec_accept	1.483290	16.000000	n/a	4	1.822917e-02	1.822917e-02
132.029980	1.483290	dec_social_high	1.483290	16.000000	n/a	4	1.822917e-02	1.822917e-02
132.029980	1.483290	dec_social_accept_high	1.483290	16.000000	n/a	4	1.822917e-02	1.822917e-02
139.680100	1.499935	dec_social_choice	1.499935	32.000000	n/a	16	2.682292e-01	2.682292e-01
139.680100	1.499935	dec_choice	1.499935	32.000000	n/a	16	2.682292e-01	2.682292e-01
139.680100	1.499935	dec_social_accept	1.499935	32.000000	n/a	16	2.682292e-01	2.682292e-01
139.680100	1.499935	dec_accept	1.499935	32.000000	n/a	16	2.682292e-01	2.682292e-01
139.680100	1.499935	dec_social_high	1.499935	32.000000	n/a	16	2.682292e-01	2.682292e-01
139.680100	1.499935	dec_social_accept_high	1.499935	32.000000	n/a	16	2.682292e-01	2.682292e-01
146.514020	1.599307	dec_nonsocial_choice	1.599307	32.000000	n/a	2	-1.692708e-01	-1.692708e-01
146.514020	1.599307	dec_choice	1.599307	32.000000	n/a	2	-1.692708e-01	-1.692708e-01
146.514020	1.599307	dec_nonsocial_accept	1.599307	32.000000	n/a	2	-1.692708e-01	-1.692708e-01
146.514020	1.599307	dec_accept	1.599307	32.000000	n/a	2	-1.692708e-01	-1.692708e-01
146.514020	1.599307	dec_nonsocial_accept_low	1.599307	32.000000	n/a	2	-1.692708e-01	-1.692708e-01
153.346220	1.383845	dec_nonsocial_choice	1.383845	32.000000	n/a	8	1.822917e-02	1.822917e-02
153.346220	1.383845	dec_choice	1.383845	32.000000	n/a	8	1.822917e-02	1.822917e-02
153.346220	1.383845	dec_nonsocial_accept	1.383845	32.000000	n/a	8	1.822917e-02	1.822917e-02
153.346220	1.383845	dec_accept	1.383845	32.000000	n/a	8	1.822917e-02	1.822917e-02
153.346220	1.383845	dec_nonsocial_high	1.383845	32.000000	n/a	8	1.822917e-02	1.822917e-02
153.346220	1.383845	dec_nonsocial_accept_high	1.383845	32.000000	n/a	8	1.822917e-02	1.822917e-02
160.179240	1.700901	dec_nonsocial_choice	1.700901	32.000000	n/a	3	-1.380208e-01	-1.380208e-01
160.179240	1.700901	dec_choice	1.700901	32.000000	n/a	3	-1.380208e-01	-1.380208e-01
160.179240	1.700901	dec_nonsocial_accept	1.700901	32.000000	n/a	3	-1.380208e-01	-1.380208e-01
160.179240	1.700901	dec_accept	1.700901	32.000000	n/a	3	-1.380208e-01	-1.380208e-01
160.179240	1.700901	dec_nonsocial_accept_low	1.700901	32.000000	n/a	3	-1.380208e-01	-1.380208e-01
171.045930	1.584120	dec_social_choice	1.584120	16.000000	n/a	2	-1.067708e-01	-1.067708e-01
171.045930	1.584120	dec_choice	1.584120	16.000000	n/a	2	-1.067708e-01	-1.067708e-01
171.045930	1.584120	dec_social_accept	1.584120	16.000000	n/a	2	-1.067708e-01	-1.067708e-01
171.045930	1.584120	dec_accept	1.584120	16.000000	n/a	2	-1.067708e-01	-1.067708e-01
171.045930	1.584120	dec_social_low	1.584120	16.000000	n/a	2	-1.067708e-01	-1.067708e-01
171.045930	1.584120	dec_social_accept_low	1.584120	16.000000	n/a	2	-1.067708e-01	-1.067708e-01
178.697100	1.415712	dec_social_choice	1.415712	16.000000	n/a	8	2.682292e-01	2.682292e-01
178.697100	1.415712	dec_choice	1.415712	16.000000	n/a	8	2.682292e-01	2.682292e-01
178.697100	1.415712	dec_social_accept	1.415712	16.000000	n/a	8	2.682292e-01	2.682292e-01
178.697100	1.415712	dec_accept	1.415712	16.000000	n/a	8	2.682292e-01	2.682292e-01
178.697100	1.415712	dec_social_accept_high	1.415712	16.000000	n/a	8	2.682292e-01	2.682292e-01
185.530230	1.399733	dec_social_choice	1.399733	32.000000	n/a	2	-1.692708e-01	-1.692708e-01
185.530230	1.399733	dec_choice	1.399733	32.000000	n/a	2	-1.692708e-01	-1.692708e-01
185.530230	1.399733	dec_social_accept	1.399733	32.000000	n/a	2	-1.692708e-01	-1.692708e-01
185.530230	1.399733	dec_accept	1.399733	32.000000	n/a	2	-1.692708e-01	-1.692708e-01
185.530230	1.399733	dec_social_low	1.399733	32.000000	n/a	2	-1.692708e-01	-1.692708e-01
185.530230	1.399733	dec_social_accept_low	1.399733	32.000000	n/a	2	-1.692708e-01	-1.692708e-01
193.180000	1.183406	dec_nonsocial_choice	1.183406	16.000000	n/a	4	1.822917e-02	1.822917e-02
193.180000	1.183406	dec_choice	1.183406	16.000000	n/a	4	1.822917e-02	1.822917e-02
193.180000	1.183406	dec_nonsocial_accept	1.183406	16.000000	n/a	4	1.822917e-02	1.822917e-02
193.180000	1.183406	dec_accept	1.183406	16.000000	n/a	4	1.822917e-02	1.822917e-02
193.180000	1.183406	dec_nonsocial_accept_high	1.183406	16.000000	n/a	4	1.822917e-02	1.822917e-02
200.013300	1.400060	dec_social_choice	1.400060	16.000000	n/a	1	-1.692708e-01	-1.692708e-01
200.013300	1.400060	dec_choice	1.400060	16.000000	n/a	1	-1.692708e-01	-1.692708e-01
200.013300	1.400060	dec_social_accept	1.400060	16.000000	n/a	1	-1.692708e-01	-1.692708e-01
200.013300	1.400060	dec_accept	1.400060	16.000000	n/a	1	-1.692708e-01	-1.692708e-01
200.013300	1.400060	dec_social_low	1.400060	16.000000	n/a	1	-1.692708e-01	-1.692708e-01
200.013300	1.400060	dec_social_accept_low	1.400060	16.000000	n/a	1	-1.692708e-01	-1.692708e-01
207.663060	1.400271	dec_nonsocial_choice	1.400271	32.000000	n/a	16	2.682292e-01	2.682292e-01
207.663060	1.400271	dec_choice	1.400271	32.000000	n/a	16	2.682292e-01	2.682292e-01
207.663060	1.400271	dec_nonsocial_accept	1.400271	32.000000	n/a	16	2.682292e-01	2.682292e-01
207.663060	1.400271	dec_accept	1.400271	32.000000	n/a	16	2.682292e-01	2.682292e-01
207.663060	1.400271	dec_nonsocial_high	1.400271	32.000000	n/a	16	2.682292e-01	2.682292e-01
207.663060	1.400271	dec_nonsocial_accept_high	1.400271	32.000000	n/a	16	2.682292e-01	2.682292e-01
214.497130	1.515789	dec_social_choice	1.515789	16.000000	n/a	2	-1.067708e-01	-1.067708e-01
214.497130	1.515789	dec_choice	1.515789	16.000000	n/a	2	-1.067708e-01	-1.067708e-01
214.497130	1.515789	dec_social_accept	1.515789	16.000000	n/a	2	-1.067708e-01	-1.067708e-01
214.497130	1.515789	dec_accept	1.515789	16.000000	n/a	2	-1.067708e-01	-1.067708e-01
214.497130	1.515789	dec_social_accept_low	1.515789	16.000000	n/a	2	-1.067708e-01	-1.067708e-01
221.331100	1.298800	dec_nonsocial_choice	1.298800	16.000000	n/a	2	-1.067708e-01	-1.067708e-01
221.331100	1.298800	dec_choice	1.298800	16.000000	n/a	2	-1.067708e-01	-1.067708e-01
221.331100	1.298800	dec_nonsocial_accept	1.298800	16.000000	n/a	2	-1.067708e-01	-1.067708e-01
221.331100	1.298800	dec_accept	1.298800	16.000000	n/a	2	-1.067708e-01	-1.067708e-01
221.331100	1.298800	dec_nonsocial_low	1.298800	16.000000	n/a	2	-1.067708e-01	-1.067708e-01
221.331100	1.298800	dec_nonsocial_accept_low	1.298800	16.000000	n/a	2	-1.067708e-01	-1.067708e-01
233.813960	1.515487	dec_nonsocial_choice	1.515487	16.000000	n/a	1	-1.692708e-01	-1.692708e-01
233.813960	1.515487	dec_choice	1.515487	16.000000	n/a	1	-1.692708e-01	-1.692708e-01
233.813960	1.515487	dec_nonsocial_accept	1.515487	16.000000	n/a	1	-1.692708e-01	-1.692708e-01
233.813960	1.515487	dec_accept	1.515487	16.000000	n/a	1	-1.692708e-01	-1.692708e-01
233.813960	1.515487	dec_nonsocial_accept_low	1.515487	16.000000	n/a	1	-1.692708e-01	-1.692708e-01
243.079060	1.300546	dec_nonsocial_choice	1.300546	32.000000	n/a	2	-1.692708e-01	-1.692708e-01
243.079060	1.300546	dec_choice	1.300546	32.000000	n/a	2	-1.692708e-01	-1.692708e-01
243.079060	1.300546	dec_nonsocial_accept	1.300546	32.000000	n/a	2	-1.692708e-01	-1.692708e-01
243.079060	1.300546	dec_accept	1.300546	32.000000	n/a	2	-1.692708e-01	-1.692708e-01
243.079060	1.300546	dec_nonsocial_accept_low	1.300546	32.000000	n/a	2	-1.692708e-01	-1.692708e-01
250.729110	1.217257	dec_nonsocial_choice	1.217257	16.000000	n/a	2	-1.067708e-01	-1.067708e-01
250.729110	1.217257	dec_choice	1.217257	16.000000	n/a	2	-1.067708e-01	-1.067708e-01
250.729110	1.217257	dec_nonsocial_accept	1.217257	16.000000	n/a	2	-1.067708e-01	-1.067708e-01
250.729110	1.217257	dec_accept	1.217257	16.000000	n/a	2	-1.067708e-01	-1.067708e-01
250.729110	1.217257	dec_nonsocial_accept_low	1.217257	16.000000	n/a	2	-1.067708e-01	-1.067708e-01
257.563140	1.783438	dec_nonsocial_choice	1.783438	32.000000	n/a	3	-1.380208e-01	-1.380208e-01
257.563140	1.783438	dec_choice	1.783438	32.000000	n/a	3	-1.380208e-01	-1.380208e-01
257.563140	1.783438	dec_nonsocial_accept	1.783438	32.000000	n/a	3	-1.380208e-01	-1.380208e-01
257.563140	1.783438	dec_accept	1.783438	32.000000	n/a	3	-1.380208e-01	-1.380208e-01
257.563140	1.783438	dec_nonsocial_low	1.783438	32.000000	n/a	3	-1.380208e-01	-1.380208e-01
257.563140	1.783438	dec_nonsocial_accept_low	1.783438	32.000000	n/a	3	-1.380208e-01	-1.380208e-01
264.397100	1.665750	dec_nonsocial_choice	1.665750	32.000000	n/a	2	-1.692708e-01	-1.692708e-01
264.397100	1.665750	dec_choice	1.665750	32.000000	n/a	2	-1.692708e-01	-1.692708e-01
264.397100	1.665750	dec_nonsocial_accept	1.665750	32.000000	n/a	2	-1.692708e-01	-1.692708e-01
264.397100	1.665750	dec_accept	1.665750	32.000000	n/a	2	-1.692708e-01	-1.692708e-01
264.397100	1.665750	dec_nonsocial_accept_low	1.665750	32.000000	n/a	2	-1.692708e-01	-1.692708e-01
272.046420	1.733363	dec_social_choice	1.733363	32.000000	n/a	2	-1.692708e-01	-1.692708e-01
272.046420	1.733363	dec_choice	1.733363	32.000000	n/a	2	-1.692708e-01	-1.692708e-01
272.046420	1.733363	dec_social_accept	1.733363	32.000000	n/a	2	-1.692708e-01	-1.692708e-01
272.046420	1.733363	dec_accept	1.733363	32.000000	n/a	2	-1.692708e-01	-1.692708e-01
272.046420	1.733363	dec_social_low	1.733363	32.000000	n/a	2	-1.692708e-01	-1.692708e-01
272.046420	1.733363	dec_social_accept_low	1.733363	32.000000	n/a	2	-1.692708e-01	-1.692708e-01
278.880070	1.499490	dec_nonsocial_choice	1.499490	16.000000	n/a	4	1.822917e-02	1.822917e-02
278.880070	1.499490	dec_choice	1.499490	16.000000	n/a	4	1.822917e-02	1.822917e-02
278.880070	1.499490	dec_nonsocial_accept	1.499490	16.000000	n/a	4	1.822917e-02	1.822917e-02
278.880070	1.499490	dec_accept	1.499490	16.000000	n/a	4	1.822917e-02	1.822917e-02
278.880070	1.499490	dec_nonsocial_accept_high	1.499490	16.000000	n/a	4	1.822917e-02	1.822917e-02
285.712500	1.750622	dec_social_choice	1.750622	16.000000	n/a	4	1.822917e-02	1.822917e-02
285.712500	1.750622	dec_choice	1.750622	16.000000	n/a	4	1.822917e-02	1.822917e-02
285.712500	1.750622	dec_social_accept	1.750622	16.000000	n/a	4	1.822917e-02	1.822917e-02
285.712500	1.750622	dec_accept	1.750622	16.000000	n/a	4	1.822917e-02	1.822917e-02
285.712500	1.750622	dec_social_accept_high	1.750622	16.000000	n/a	4	1.822917e-02	1.822917e-02
294.964000	1.532502	dec_social_choice	1.532502	16.000000	n/a	4	1.822917e-02	1.822917e-02
294.964000	1.532502	dec_choice	1.532502	16.000000	n/a	4	1.822917e-02	1.822917e-02
294.964000	1.532502	dec_social_accept	1.532502	16.000000	n/a	4	1.822917e-02	1.822917e-02
294.964000	1.532502	dec_accept	1.532502	16.000000	n/a	4	1.822917e-02	1.822917e-02
294.964000	1.532502	dec_social_accept_high	1.532502	16.000000	n/a	4	1.822917e-02	1.822917e-02
301.796200	1.366619	dec_nonsocial_choice	1.366619	16.000000	n/a	4	1.822917e-02	1.822917e-02
301.796200	1.366619	dec_choice	1.366619	16.000000	n/a	4	1.822917e-02	1.822917e-02
301.796200	1.366619	dec_nonsocial_accept	1.366619	16.000000	n/a	4	1.822917e-02	1.822917e-02
301.796200	1.366619	dec_accept	1.366619	16.000000	n/a	4	1.822917e-02	1.822917e-02
301.796200	1.366619	dec_nonsocial_high	1.366619	16.000000	n/a	4	1.822917e-02	1.822917e-02
301.796200	1.366619	dec_nonsocial_accept_high	1.366619	16.000000	n/a	4	1.822917e-02	1.822917e-02
312.663270	1.299862	dec_social_choice	1.299862	16.000000	n/a	1	-1.692708e-01	-1.692708e-01
312.663270	1.299862	dec_choice	1.299862	16.000000	n/a	1	-1.692708e-01	-1.692708e-01
312.663270	1.299862	dec_social_accept	1.299862	16.000000	n/a	1	-1.692708e-01	-1.692708e-01
312.663270	1.299862	dec_accept	1.299862	16.000000	n/a	1	-1.692708e-01	-1.692708e-01
312.663270	1.299862	dec_social_accept_low	1.299862	16.000000	n/a	1	-1.692708e-01	-1.692708e-01
319.496770	1.649576	dec_nonsocial_choice	1.649576	32.000000	n/a	8	1.822917e-02	1.822917e-02
319.496770	1.649576	dec_choice	1.649576	32.000000	n/a	8	1.822917e-02	1.822917e-02
319.496770	1.649576	dec_nonsocial_accept	1.649576	32.000000	n/a	8	1.822917e-02	1.822917e-02
319.496770	1.649576	dec_accept	1.649576	32.000000	n/a	8	1.822917e-02	1.822917e-02
319.496770	1.649576	dec_nonsocial_accept_high	1.649576	32.000000	n/a	8	1.822917e-02	1.822917e-02
328.746220	1.733489	dec_social_choice	1.733489	32.000000	n/a	8	1.822917e-02	1.822917e-02
328.746220	1.733489	dec_choice	1.733489	32.000000	n/a	8	1.822917e-02	1.822917e-02
328.746220	1.733489	dec_social_accept	1.733489	32.000000	n/a	8	1.822917e-02	1.822917e-02
328.746220	1.733489	dec_accept	1.733489	32.000000	n/a	8	1.822917e-02	1.822917e-02
328.746220	1.733489	dec_social_accept_high	1.733489	32.000000	n/a	8	1.822917e-02	1.822917e-02
336.379300	1.583410	dec_nonsocial_choice	1.583410	32.000000	n/a	16	2.682292e-01	2.682292e-01
336.379300	1.583410	dec_choice	1.583410	32.000000	n/a	16	2.682292e-01	2.682292e-01
336.379300	1.583410	dec_nonsocial_accept	1.583410	32.000000	n/a	16	2.682292e-01	2.682292e-01
336.379300	1.583410	dec_accept	1.583410	32.000000	n/a	16	2.682292e-01	2.682292e-01
336.379300	1.583410	dec_nonsocial_accept_high	1.583410	32.000000	n/a	16	2.682292e-01	2.682292e-01
344.030150	1.749372	dec_social_choice	1.749372	32.000000	n/a	2	-1.692708e-01	-1.692708e-01
344.030150	1.749372	dec_choice	1.749372	32.000000	n/a	2	-1.692708e-01	-1.692708e-01
344.030150	1.749372	dec_social_accept	1.749372	32.000000	n/a	2	-1.692708e-01	-1.692708e-01
344.030150	1.749372	dec_accept	1.749372	32.000000	n/a	2	-1.692708e-01	-1.692708e-01
344.030150	1.749372	dec_social_accept_low	1.749372	32.000000	n/a	2	-1.692708e-01	-1.692708e-01
350.864070	1.932295	dec_social_choice	1.932295	16.000000	n/a	4	1.822917e-02	1.822917e-02
350.864070	1.932295	dec_choice	1.932295	16.000000	n/a	4	1.822917e-02	1.822917e-02
350.864070	1.932295	dec_social_accept	1.932295	16.000000	n/a	4	1.822917e-02	1.822917e-02
350.864070	1.932295	dec_accept	1.932295	16.000000	n/a	4	1.822917e-02	1.822917e-02
350.864070	1.932295	dec_social_high	1.932295	16.000000	n/a	4	1.822917e-02	1.822917e-02
350.864070	1.932295	dec_social_accept_high	1.932295	16.000000	n/a	4	1.822917e-02	1.822917e-02
357.696170	1.616435	dec_nonsocial_choice	1.616435	32.000000	n/a	16	2.682292e-01	2.682292e-01
357.696170	1.616435	dec_choice	1.616435	32.000000	n/a	16	2.682292e-01	2.682292e-01
357.696170	1.616435	dec_nonsocial_accept	1.616435	32.000000	n/a	16	2.682292e-01	2.682292e-01
357.696170	1.616435	dec_accept	1.616435	32.000000	n/a	16	2.682292e-01	2.682292e-01
357.696170	1.616435	dec_nonsocial_high	1.616435	32.000000	n/a	16	2.682292e-01	2.682292e-01
357.696170	1.616435	dec_nonsocial_accept_high	1.616435	32.000000	n/a	16	2.682292e-01	2.682292e-01
365.346530	1.632715	dec_social_choice	1.632715	16.000000	n/a	2	-1.067708e-01	-1.067708e-01
365.346530	1.632715	dec_choice	1.632715	16.000000	n/a	2	-1.067708e-01	-1.067708e-01
365.346530	1.632715	dec_social_accept	1.632715	16.000000	n/a	2	-1.067708e-01	-1.067708e-01
365.346530	1.632715	dec_accept	1.632715	16.000000	n/a	2	-1.067708e-01	-1.067708e-01
365.346530	1.632715	dec_social_accept_low	1.632715	16.000000	n/a	2	-1.067708e-01	-1.067708e-01
372.180050	1.832818	dec_social_choice	1.832818	16.000000	n/a	8	2.682292e-01	2.682292e-01
372.180050	1.832818	dec_choice	1.832818	16.000000	n/a	8	2.682292e-01	2.682292e-01
372.180050	1.832818	dec_social_accept	1.832818	16.000000	n/a	8	2.682292e-01	2.682292e-01
372.180050	1.832818	dec_accept	1.832818	16.000000	n/a	8	2.682292e-01	2.682292e-01
372.180050	1.832818	dec_social_accept_high	1.832818	16.000000	n/a	8	2.682292e-01	2.682292e-01
