onset	duration	trial_type	response_time	Endowment	Endowment_pmod	Decision	Decision_pmod	Offer_pmod
4.508765	2	cue_nonsocial	n/a	32	6	n/a	n/a	n/a
4.508765	2	cue_nonsocial_high	n/a	32	9	n/a	n/a	n/a
11.341829	2	cue_nonsocial	n/a	32	6	n/a	n/a	n/a
11.341829	2	cue_nonsocial_high	n/a	32	9	n/a	n/a	n/a
18.992180	2	cue_nonsocial	n/a	16	-10	n/a	n/a	n/a
18.992180	2	cue_nonsocial_low	n/a	16	-7	n/a	n/a	n/a
25.881552	2	cue_social	n/a	16	-7	n/a	n/a	n/a
25.881552	2	cue_social_low	n/a	16	-10	n/a	n/a	n/a
32.727420	2	cue_social	n/a	16	-7	n/a	n/a	n/a
32.727420	2	cue_social_low	n/a	16	-10	n/a	n/a	n/a
41.925470	2	cue_nonsocial	n/a	32	6	n/a	n/a	n/a
41.925470	2	cue_nonsocial_high	n/a	32	9	n/a	n/a	n/a
49.575134	2	cue_nonsocial	n/a	32	6	n/a	n/a	n/a
49.575134	2	cue_nonsocial_high	n/a	32	9	n/a	n/a	n/a
56.408634	2	cue_nonsocial	n/a	16	-10	n/a	n/a	n/a
56.408634	2	cue_nonsocial_low	n/a	16	-7	n/a	n/a	n/a
65.735176	2	cue_social	n/a	16	-7	n/a	n/a	n/a
65.735176	2	cue_social_low	n/a	16	-10	n/a	n/a	n/a
73.360510	2	cue_social	n/a	32	9	n/a	n/a	n/a
73.360510	2	cue_social_high	n/a	32	6	n/a	n/a	n/a
82.599020	2	cue_social	n/a	16	-7	n/a	n/a	n/a
82.599020	2	cue_social_low	n/a	16	-10	n/a	n/a	n/a
89.375260	2	cue_nonsocial	n/a	32	6	n/a	n/a	n/a
89.375260	2	cue_nonsocial_high	n/a	32	9	n/a	n/a	n/a
96.208640	2	cue_nonsocial	n/a	32	6	n/a	n/a	n/a
96.208640	2	cue_nonsocial_high	n/a	32	9	n/a	n/a	n/a
105.474785	2	cue_nonsocial	n/a	32	6	n/a	n/a	n/a
105.474785	2	cue_nonsocial_high	n/a	32	9	n/a	n/a	n/a
112.308400	2	cue_nonsocial	n/a	32	6	n/a	n/a	n/a
112.308400	2	cue_nonsocial_high	n/a	32	9	n/a	n/a	n/a
121.606210	2	cue_social	n/a	16	-7	n/a	n/a	n/a
121.606210	2	cue_social_low	n/a	16	-10	n/a	n/a	n/a
128.408580	2	cue_nonsocial	n/a	16	-10	n/a	n/a	n/a
128.408580	2	cue_nonsocial_low	n/a	16	-7	n/a	n/a	n/a
139.309130	2	cue_social	n/a	16	-7	n/a	n/a	n/a
139.309130	2	cue_social_low	n/a	16	-10	n/a	n/a	n/a
146.145340	2	cue_social	n/a	32	9	n/a	n/a	n/a
146.145340	2	cue_social_high	n/a	32	6	n/a	n/a	n/a
152.942150	2	cue_nonsocial	n/a	32	6	n/a	n/a	n/a
152.942150	2	cue_nonsocial_high	n/a	32	9	n/a	n/a	n/a
160.613530	2	cue_social	n/a	16	-7	n/a	n/a	n/a
160.613530	2	cue_social_low	n/a	16	-10	n/a	n/a	n/a
168.224990	2	cue_nonsocial	n/a	16	-10	n/a	n/a	n/a
168.224990	2	cue_nonsocial_low	n/a	16	-7	n/a	n/a	n/a
175.145950	2	cue_social	n/a	32	9	n/a	n/a	n/a
175.145950	2	cue_social_high	n/a	32	6	n/a	n/a	n/a
181.948100	2	cue_social	n/a	32	9	n/a	n/a	n/a
181.948100	2	cue_social_high	n/a	32	6	n/a	n/a	n/a
188.745540	2	cue_social	n/a	32	9	n/a	n/a	n/a
188.745540	2	cue_social_high	n/a	32	6	n/a	n/a	n/a
199.591350	2	cue_nonsocial	n/a	32	6	n/a	n/a	n/a
199.591350	2	cue_nonsocial_high	n/a	32	9	n/a	n/a	n/a
207.269910	2	cue_social	n/a	32	9	n/a	n/a	n/a
207.269910	2	cue_social_high	n/a	32	6	n/a	n/a	n/a
214.891590	2	cue_nonsocial	n/a	32	6	n/a	n/a	n/a
214.891590	2	cue_nonsocial_high	n/a	32	9	n/a	n/a	n/a
221.752470	2	cue_social	n/a	16	-7	n/a	n/a	n/a
221.752470	2	cue_social_low	n/a	16	-10	n/a	n/a	n/a
228.600080	2	cue_social	n/a	16	-7	n/a	n/a	n/a
228.600080	2	cue_social_low	n/a	16	-10	n/a	n/a	n/a
235.391950	2	cue_nonsocial	n/a	16	-10	n/a	n/a	n/a
235.391950	2	cue_nonsocial_low	n/a	16	-7	n/a	n/a	n/a
242.282520	2	cue_social	n/a	32	9	n/a	n/a	n/a
242.282520	2	cue_social_high	n/a	32	6	n/a	n/a	n/a
249.913450	2	cue_social	n/a	32	9	n/a	n/a	n/a
249.913450	2	cue_social_high	n/a	32	6	n/a	n/a	n/a
256.744960	2	cue_social	n/a	32	9	n/a	n/a	n/a
256.744960	2	cue_social_high	n/a	32	6	n/a	n/a	n/a
263.541660	2	cue_nonsocial	n/a	32	6	n/a	n/a	n/a
263.541660	2	cue_nonsocial_high	n/a	32	9	n/a	n/a	n/a
272.842000	2	cue_social	n/a	16	-7	n/a	n/a	n/a
272.842000	2	cue_social_low	n/a	16	-10	n/a	n/a	n/a
279.625150	2	cue_nonsocial	n/a	16	-10	n/a	n/a	n/a
279.625150	2	cue_nonsocial_low	n/a	16	-7	n/a	n/a	n/a
286.557430	2	cue_social	n/a	32	9	n/a	n/a	n/a
286.557430	2	cue_social_high	n/a	32	6	n/a	n/a	n/a
294.172030	2	cue_social	n/a	32	9	n/a	n/a	n/a
294.172030	2	cue_social_high	n/a	32	6	n/a	n/a	n/a
306.591550	2	cue_nonsocial	n/a	16	-10	n/a	n/a	n/a
306.591550	2	cue_nonsocial_low	n/a	16	-7	n/a	n/a	n/a
313.424800	2	cue_nonsocial	n/a	16	-10	n/a	n/a	n/a
313.424800	2	cue_nonsocial_low	n/a	16	-7	n/a	n/a	n/a
320.307920	2	cue_social	n/a	16	-7	n/a	n/a	n/a
320.307920	2	cue_social_low	n/a	16	-10	n/a	n/a	n/a
327.908020	2	cue_nonsocial	n/a	16	-10	n/a	n/a	n/a
327.908020	2	cue_nonsocial_low	n/a	16	-7	n/a	n/a	n/a
334.741400	2	cue_nonsocial	n/a	32	6	n/a	n/a	n/a
334.741400	2	cue_nonsocial_high	n/a	32	9	n/a	n/a	n/a
344.008000	2	cue_nonsocial	n/a	32	6	n/a	n/a	n/a
344.008000	2	cue_nonsocial_high	n/a	32	9	n/a	n/a	n/a
354.874600	2	cue_nonsocial	n/a	32	6	n/a	n/a	n/a
354.874600	2	cue_nonsocial_high	n/a	32	9	n/a	n/a	n/a
362.558230	2	cue_social	n/a	16	-7	n/a	n/a	n/a
362.558230	2	cue_social_low	n/a	16	-10	n/a	n/a	n/a
370.243230	2	cue_social	n/a	16	-7	n/a	n/a	n/a
370.243230	2	cue_social_low	n/a	16	-10	n/a	n/a	n/a
6.515910	1.265554	dec_nonsocial_choice	1.265554	32.000000	n/a	16	2.682292e-01	2.682292e-01
6.515910	1.265554	dec_choice	1.265554	32.000000	n/a	16	2.682292e-01	2.682292e-01
6.515910	1.265554	dec_nonsocial_accept	1.265554	32.000000	n/a	16	2.682292e-01	2.682292e-01
6.515910	1.265554	dec_accept	1.265554	32.000000	n/a	16	2.682292e-01	2.682292e-01
6.515910	1.265554	dec_nonsocial_high	1.265554	32.000000	n/a	16	2.682292e-01	2.682292e-01
6.515910	1.265554	dec_nonsocial_accept_high	1.265554	32.000000	n/a	16	2.682292e-01	2.682292e-01
13.348794	1.583048	dec_nonsocial_choice	1.583048	32.000000	n/a	8	1.822917e-02	1.822917e-02
13.348794	1.583048	dec_choice	1.583048	32.000000	n/a	8	1.822917e-02	1.822917e-02
13.348794	1.583048	dec_nonsocial_accept	1.583048	32.000000	n/a	8	1.822917e-02	1.822917e-02
13.348794	1.583048	dec_accept	1.583048	32.000000	n/a	8	1.822917e-02	1.822917e-02
13.348794	1.583048	dec_nonsocial_accept_high	1.583048	32.000000	n/a	8	1.822917e-02	1.822917e-02
20.998165	1.416485	dec_nonsocial_choice	1.416485	16.000000	n/a	2	-1.067708e-01	-1.067708e-01
20.998165	1.416485	dec_choice	1.416485	16.000000	n/a	2	-1.067708e-01	-1.067708e-01
20.998165	1.416485	dec_nonsocial_accept	1.416485	16.000000	n/a	2	-1.067708e-01	-1.067708e-01
20.998165	1.416485	dec_accept	1.416485	16.000000	n/a	2	-1.067708e-01	-1.067708e-01
20.998165	1.416485	dec_nonsocial_low	1.416485	16.000000	n/a	2	-1.067708e-01	-1.067708e-01
20.998165	1.416485	dec_nonsocial_accept_low	1.416485	16.000000	n/a	2	-1.067708e-01	-1.067708e-01
27.831015	1.767051	dec_social_choice	1.767051	16.000000	n/a	8	2.682292e-01	2.682292e-01
27.831015	1.767051	dec_choice	1.767051	16.000000	n/a	8	2.682292e-01	2.682292e-01
27.831015	1.767051	dec_social_accept	1.767051	16.000000	n/a	8	2.682292e-01	2.682292e-01
27.831015	1.767051	dec_accept	1.767051	16.000000	n/a	8	2.682292e-01	2.682292e-01
27.831015	1.767051	dec_social_accept_high	1.767051	16.000000	n/a	8	2.682292e-01	2.682292e-01
34.665894	1.532557	dec_social_choice	1.532557	16.000000	n/a	8	2.682292e-01	2.682292e-01
34.665894	1.532557	dec_choice	1.532557	16.000000	n/a	8	2.682292e-01	2.682292e-01
34.665894	1.532557	dec_social_accept	1.532557	16.000000	n/a	8	2.682292e-01	2.682292e-01
34.665894	1.532557	dec_accept	1.532557	16.000000	n/a	8	2.682292e-01	2.682292e-01
34.665894	1.532557	dec_social_high	1.532557	16.000000	n/a	8	2.682292e-01	2.682292e-01
34.665894	1.532557	dec_social_accept_high	1.532557	16.000000	n/a	8	2.682292e-01	2.682292e-01
43.931957	1.333238	dec_nonsocial_choice	1.333238	32.000000	n/a	8	1.822917e-02	1.822917e-02
43.931957	1.333238	dec_choice	1.333238	32.000000	n/a	8	1.822917e-02	1.822917e-02
43.931957	1.333238	dec_nonsocial_accept	1.333238	32.000000	n/a	8	1.822917e-02	1.822917e-02
43.931957	1.333238	dec_accept	1.333238	32.000000	n/a	8	1.822917e-02	1.822917e-02
43.931957	1.333238	dec_nonsocial_high	1.333238	32.000000	n/a	8	1.822917e-02	1.822917e-02
43.931957	1.333238	dec_nonsocial_accept_high	1.333238	32.000000	n/a	8	1.822917e-02	1.822917e-02
51.582985	1.198769	dec_nonsocial_choice	1.198769	32.000000	n/a	16	2.682292e-01	2.682292e-01
51.582985	1.198769	dec_choice	1.198769	32.000000	n/a	16	2.682292e-01	2.682292e-01
51.582985	1.198769	dec_nonsocial_accept	1.198769	32.000000	n/a	16	2.682292e-01	2.682292e-01
51.582985	1.198769	dec_accept	1.198769	32.000000	n/a	16	2.682292e-01	2.682292e-01
51.582985	1.198769	dec_nonsocial_high	1.198769	32.000000	n/a	16	2.682292e-01	2.682292e-01
51.582985	1.198769	dec_nonsocial_accept_high	1.198769	32.000000	n/a	16	2.682292e-01	2.682292e-01
58.415375	1.399687	dec_nonsocial_choice	1.399687	16.000000	n/a	2	-1.067708e-01	-1.067708e-01
58.415375	1.399687	dec_choice	1.399687	16.000000	n/a	2	-1.067708e-01	-1.067708e-01
58.415375	1.399687	dec_nonsocial_accept	1.399687	16.000000	n/a	2	-1.067708e-01	-1.067708e-01
58.415375	1.399687	dec_accept	1.399687	16.000000	n/a	2	-1.067708e-01	-1.067708e-01
58.415375	1.399687	dec_nonsocial_low	1.399687	16.000000	n/a	2	-1.067708e-01	-1.067708e-01
58.415375	1.399687	dec_nonsocial_accept_low	1.399687	16.000000	n/a	2	-1.067708e-01	-1.067708e-01
67.665070	1.466938	dec_social_choice	1.466938	16.000000	n/a	2	-1.067708e-01	-1.067708e-01
67.665070	1.466938	dec_choice	1.466938	16.000000	n/a	2	-1.067708e-01	-1.067708e-01
67.665070	1.466938	dec_social_accept	1.466938	16.000000	n/a	2	-1.067708e-01	-1.067708e-01
67.665070	1.466938	dec_accept	1.466938	16.000000	n/a	2	-1.067708e-01	-1.067708e-01
67.665070	1.466938	dec_social_low	1.466938	16.000000	n/a	2	-1.067708e-01	-1.067708e-01
67.665070	1.466938	dec_social_accept_low	1.466938	16.000000	n/a	2	-1.067708e-01	-1.067708e-01
75.298880	1.465767	dec_social_choice	1.465767	32.000000	n/a	8	1.822917e-02	1.822917e-02
75.298880	1.465767	dec_choice	1.465767	32.000000	n/a	8	1.822917e-02	1.822917e-02
75.298880	1.465767	dec_social_accept	1.465767	32.000000	n/a	8	1.822917e-02	1.822917e-02
75.298880	1.465767	dec_accept	1.465767	32.000000	n/a	8	1.822917e-02	1.822917e-02
75.298880	1.465767	dec_social_accept_high	1.465767	32.000000	n/a	8	1.822917e-02	1.822917e-02
84.547760	1.667329	dec_social_choice	1.667329	16.000000	n/a	2	-1.067708e-01	-1.067708e-01
84.547760	1.667329	dec_choice	1.667329	16.000000	n/a	2	-1.067708e-01	-1.067708e-01
84.547760	1.667329	dec_social_accept	1.667329	16.000000	n/a	2	-1.067708e-01	-1.067708e-01
84.547760	1.667329	dec_accept	1.667329	16.000000	n/a	2	-1.067708e-01	-1.067708e-01
84.547760	1.667329	dec_social_accept_low	1.667329	16.000000	n/a	2	-1.067708e-01	-1.067708e-01
91.381030	1.867414	dec_nonsocial_choice	1.867414	32.000000	n/a	8	1.822917e-02	1.822917e-02
91.381030	1.867414	dec_choice	1.867414	32.000000	n/a	8	1.822917e-02	1.822917e-02
91.381030	1.867414	dec_nonsocial_accept	1.867414	32.000000	n/a	8	1.822917e-02	1.822917e-02
91.381030	1.867414	dec_accept	1.867414	32.000000	n/a	8	1.822917e-02	1.822917e-02
91.381030	1.867414	dec_nonsocial_accept_high	1.867414	32.000000	n/a	8	1.822917e-02	1.822917e-02
98.215480	1.532920	dec_nonsocial_choice	1.532920	32.000000	n/a	3	-1.380208e-01	-1.380208e-01
98.215480	1.532920	dec_choice	1.532920	32.000000	n/a	3	-1.380208e-01	-1.380208e-01
98.215480	1.532920	dec_nonsocial_accept	1.532920	32.000000	n/a	3	-1.380208e-01	-1.380208e-01
98.215480	1.532920	dec_accept	1.532920	32.000000	n/a	3	-1.380208e-01	-1.380208e-01
98.215480	1.532920	dec_nonsocial_low	1.532920	32.000000	n/a	3	-1.380208e-01	-1.380208e-01
98.215480	1.532920	dec_nonsocial_accept_low	1.532920	32.000000	n/a	3	-1.380208e-01	-1.380208e-01
107.482086	1.665917	dec_nonsocial_choice	1.665917	32.000000	n/a	8	1.822917e-02	1.822917e-02
107.482086	1.665917	dec_choice	1.665917	32.000000	n/a	8	1.822917e-02	1.822917e-02
107.482086	1.665917	dec_nonsocial_accept	1.665917	32.000000	n/a	8	1.822917e-02	1.822917e-02
107.482086	1.665917	dec_accept	1.665917	32.000000	n/a	8	1.822917e-02	1.822917e-02
107.482086	1.665917	dec_nonsocial_accept_high	1.665917	32.000000	n/a	8	1.822917e-02	1.822917e-02
114.315200	1.765855	dec_nonsocial_choice	1.765855	32.000000	n/a	2	-1.692708e-01	-1.692708e-01
114.315200	1.765855	dec_choice	1.765855	32.000000	n/a	2	-1.692708e-01	-1.692708e-01
114.315200	1.765855	dec_nonsocial_accept	1.765855	32.000000	n/a	2	-1.692708e-01	-1.692708e-01
114.315200	1.765855	dec_accept	1.765855	32.000000	n/a	2	-1.692708e-01	-1.692708e-01
114.315200	1.765855	dec_nonsocial_accept_low	1.765855	32.000000	n/a	2	-1.692708e-01	-1.692708e-01
123.581080	1.600586	dec_social_choice	1.600586	16.000000	n/a	8	2.682292e-01	2.682292e-01
123.581080	1.600586	dec_choice	1.600586	16.000000	n/a	8	2.682292e-01	2.682292e-01
123.581080	1.600586	dec_social_accept	1.600586	16.000000	n/a	8	2.682292e-01	2.682292e-01
123.581080	1.600586	dec_accept	1.600586	16.000000	n/a	8	2.682292e-01	2.682292e-01
123.581080	1.600586	dec_social_accept_high	1.600586	16.000000	n/a	8	2.682292e-01	2.682292e-01
130.415100	1.700081	dec_nonsocial_choice	1.700081	16.000000	n/a	8	2.682292e-01	2.682292e-01
130.415100	1.700081	dec_choice	1.700081	16.000000	n/a	8	2.682292e-01	2.682292e-01
130.415100	1.700081	dec_nonsocial_accept	1.700081	16.000000	n/a	8	2.682292e-01	2.682292e-01
130.415100	1.700081	dec_accept	1.700081	16.000000	n/a	8	2.682292e-01	2.682292e-01
130.415100	1.700081	dec_nonsocial_accept_high	1.700081	16.000000	n/a	8	2.682292e-01	2.682292e-01
141.281080	1.250583	dec_social_choice	1.250583	16.000000	n/a	2	-1.067708e-01	-1.067708e-01
141.281080	1.250583	dec_choice	1.250583	16.000000	n/a	2	-1.067708e-01	-1.067708e-01
141.281080	1.250583	dec_social_accept	1.250583	16.000000	n/a	2	-1.067708e-01	-1.067708e-01
141.281080	1.250583	dec_accept	1.250583	16.000000	n/a	2	-1.067708e-01	-1.067708e-01
141.281080	1.250583	dec_social_low	1.250583	16.000000	n/a	2	-1.067708e-01	-1.067708e-01
141.281080	1.250583	dec_social_accept_low	1.250583	16.000000	n/a	2	-1.067708e-01	-1.067708e-01
148.115100	1.250142	dec_social_choice	1.250142	32.000000	n/a	8	1.822917e-02	1.822917e-02
148.115100	1.250142	dec_choice	1.250142	32.000000	n/a	8	1.822917e-02	1.822917e-02
148.115100	1.250142	dec_social_accept	1.250142	32.000000	n/a	8	1.822917e-02	1.822917e-02
148.115100	1.250142	dec_accept	1.250142	32.000000	n/a	8	1.822917e-02	1.822917e-02
148.115100	1.250142	dec_social_high	1.250142	32.000000	n/a	8	1.822917e-02	1.822917e-02
148.115100	1.250142	dec_social_accept_high	1.250142	32.000000	n/a	8	1.822917e-02	1.822917e-02
154.947890	1.650468	dec_nonsocial_choice	1.650468	32.000000	n/a	8	1.822917e-02	1.822917e-02
154.947890	1.650468	dec_choice	1.650468	32.000000	n/a	8	1.822917e-02	1.822917e-02
154.947890	1.650468	dec_nonsocial_accept	1.650468	32.000000	n/a	8	1.822917e-02	1.822917e-02
154.947890	1.650468	dec_accept	1.650468	32.000000	n/a	8	1.822917e-02	1.822917e-02
154.947890	1.650468	dec_nonsocial_accept_high	1.650468	32.000000	n/a	8	1.822917e-02	1.822917e-02
162.581920	1.165866	dec_social_choice	1.165866	16.000000	n/a	1	-1.692708e-01	-1.692708e-01
162.581920	1.165866	dec_choice	1.165866	16.000000	n/a	1	-1.692708e-01	-1.692708e-01
162.581920	1.165866	dec_social_accept	1.165866	16.000000	n/a	1	-1.692708e-01	-1.692708e-01
162.581920	1.165866	dec_accept	1.165866	16.000000	n/a	1	-1.692708e-01	-1.692708e-01
162.581920	1.165866	dec_social_low	1.165866	16.000000	n/a	1	-1.692708e-01	-1.692708e-01
162.581920	1.165866	dec_social_accept_low	1.165866	16.000000	n/a	1	-1.692708e-01	-1.692708e-01
170.232180	1.382661	dec_nonsocial_choice	1.382661	16.000000	n/a	2	-1.067708e-01	-1.067708e-01
170.232180	1.382661	dec_choice	1.382661	16.000000	n/a	2	-1.067708e-01	-1.067708e-01
170.232180	1.382661	dec_nonsocial_accept	1.382661	16.000000	n/a	2	-1.067708e-01	-1.067708e-01
170.232180	1.382661	dec_accept	1.382661	16.000000	n/a	2	-1.067708e-01	-1.067708e-01
170.232180	1.382661	dec_nonsocial_low	1.382661	16.000000	n/a	2	-1.067708e-01	-1.067708e-01
170.232180	1.382661	dec_nonsocial_accept_low	1.382661	16.000000	n/a	2	-1.067708e-01	-1.067708e-01
177.064700	1.750116	dec_social_choice	1.750116	32.000000	n/a	2	-1.692708e-01	-1.692708e-01
177.064700	1.750116	dec_choice	1.750116	32.000000	n/a	2	-1.692708e-01	-1.692708e-01
177.064700	1.750116	dec_social_accept	1.750116	32.000000	n/a	2	-1.692708e-01	-1.692708e-01
177.064700	1.750116	dec_accept	1.750116	32.000000	n/a	2	-1.692708e-01	-1.692708e-01
177.064700	1.750116	dec_social_accept_low	1.750116	32.000000	n/a	2	-1.692708e-01	-1.692708e-01
183.897570	1.584324	dec_social_choice	1.584324	32.000000	n/a	2	-1.692708e-01	-1.692708e-01
183.897570	1.584324	dec_choice	1.584324	32.000000	n/a	2	-1.692708e-01	-1.692708e-01
183.897570	1.584324	dec_social_accept	1.584324	32.000000	n/a	2	-1.692708e-01	-1.692708e-01
183.897570	1.584324	dec_accept	1.584324	32.000000	n/a	2	-1.692708e-01	-1.692708e-01
183.897570	1.584324	dec_social_accept_low	1.584324	32.000000	n/a	2	-1.692708e-01	-1.692708e-01
190.731930	1.465982	dec_social_choice	1.465982	32.000000	n/a	16	2.682292e-01	2.682292e-01
190.731930	1.465982	dec_choice	1.465982	32.000000	n/a	16	2.682292e-01	2.682292e-01
190.731930	1.465982	dec_social_accept	1.465982	32.000000	n/a	16	2.682292e-01	2.682292e-01
190.731930	1.465982	dec_accept	1.465982	32.000000	n/a	16	2.682292e-01	2.682292e-01
190.731930	1.465982	dec_social_high	1.465982	32.000000	n/a	16	2.682292e-01	2.682292e-01
190.731930	1.465982	dec_social_accept_high	1.465982	32.000000	n/a	16	2.682292e-01	2.682292e-01
201.597870	1.733415	dec_nonsocial_choice	1.733415	32.000000	n/a	16	2.682292e-01	2.682292e-01
201.597870	1.733415	dec_choice	1.733415	32.000000	n/a	16	2.682292e-01	2.682292e-01
201.597870	1.733415	dec_nonsocial_accept	1.733415	32.000000	n/a	16	2.682292e-01	2.682292e-01
201.597870	1.733415	dec_accept	1.733415	32.000000	n/a	16	2.682292e-01	2.682292e-01
201.597870	1.733415	dec_nonsocial_high	1.733415	32.000000	n/a	16	2.682292e-01	2.682292e-01
201.597870	1.733415	dec_nonsocial_accept_high	1.733415	32.000000	n/a	16	2.682292e-01	2.682292e-01
209.247940	1.683123	dec_social_choice	1.683123	32.000000	n/a	3	-1.380208e-01	-1.380208e-01
209.247940	1.683123	dec_choice	1.683123	32.000000	n/a	3	-1.380208e-01	-1.380208e-01
209.247940	1.683123	dec_social_accept	1.683123	32.000000	n/a	3	-1.380208e-01	-1.380208e-01
209.247940	1.683123	dec_accept	1.683123	32.000000	n/a	3	-1.380208e-01	-1.380208e-01
209.247940	1.683123	dec_social_low	1.683123	32.000000	n/a	3	-1.380208e-01	-1.380208e-01
209.247940	1.683123	dec_social_accept_low	1.683123	32.000000	n/a	3	-1.380208e-01	-1.380208e-01
216.898830	1.515668	dec_nonsocial_choice	1.515668	32.000000	n/a	2	-1.692708e-01	-1.692708e-01
216.898830	1.515668	dec_choice	1.515668	32.000000	n/a	2	-1.692708e-01	-1.692708e-01
216.898830	1.515668	dec_nonsocial_accept	1.515668	32.000000	n/a	2	-1.692708e-01	-1.692708e-01
216.898830	1.515668	dec_accept	1.515668	32.000000	n/a	2	-1.692708e-01	-1.692708e-01
216.898830	1.515668	dec_nonsocial_low	1.515668	32.000000	n/a	2	-1.692708e-01	-1.692708e-01
216.898830	1.515668	dec_nonsocial_accept_low	1.515668	32.000000	n/a	2	-1.692708e-01	-1.692708e-01
223.731320	1.766793	dec_social_choice	1.766793	16.000000	n/a	2	-1.067708e-01	-1.067708e-01
223.731320	1.766793	dec_choice	1.766793	16.000000	n/a	2	-1.067708e-01	-1.067708e-01
223.731320	1.766793	dec_social_accept	1.766793	16.000000	n/a	2	-1.067708e-01	-1.067708e-01
223.731320	1.766793	dec_accept	1.766793	16.000000	n/a	2	-1.067708e-01	-1.067708e-01
223.731320	1.766793	dec_social_accept_low	1.766793	16.000000	n/a	2	-1.067708e-01	-1.067708e-01
230.564040	1.533999	dec_social_choice	1.533999	16.000000	n/a	8	2.682292e-01	2.682292e-01
230.564040	1.533999	dec_choice	1.533999	16.000000	n/a	8	2.682292e-01	2.682292e-01
230.564040	1.533999	dec_social_accept	1.533999	16.000000	n/a	8	2.682292e-01	2.682292e-01
230.564040	1.533999	dec_accept	1.533999	16.000000	n/a	8	2.682292e-01	2.682292e-01
230.564040	1.533999	dec_social_high	1.533999	16.000000	n/a	8	2.682292e-01	2.682292e-01
230.564040	1.533999	dec_social_accept_high	1.533999	16.000000	n/a	8	2.682292e-01	2.682292e-01
237.398330	1.515748	dec_nonsocial_choice	1.515748	16.000000	n/a	4	1.822917e-02	1.822917e-02
237.398330	1.515748	dec_choice	1.515748	16.000000	n/a	4	1.822917e-02	1.822917e-02
237.398330	1.515748	dec_nonsocial_accept	1.515748	16.000000	n/a	4	1.822917e-02	1.822917e-02
237.398330	1.515748	dec_accept	1.515748	16.000000	n/a	4	1.822917e-02	1.822917e-02
237.398330	1.515748	dec_nonsocial_accept_high	1.515748	16.000000	n/a	4	1.822917e-02	1.822917e-02
244.230620	1.550795	dec_social_choice	1.550795	32.000000	n/a	8	1.822917e-02	1.822917e-02
244.230620	1.550795	dec_choice	1.550795	32.000000	n/a	8	1.822917e-02	1.822917e-02
244.230620	1.550795	dec_social_accept	1.550795	32.000000	n/a	8	1.822917e-02	1.822917e-02
244.230620	1.550795	dec_accept	1.550795	32.000000	n/a	8	1.822917e-02	1.822917e-02
244.230620	1.550795	dec_social_accept_high	1.550795	32.000000	n/a	8	1.822917e-02	1.822917e-02
251.881040	1.533790	dec_social_choice	1.533790	32.000000	n/a	2	-1.692708e-01	-1.692708e-01
251.881040	1.533790	dec_choice	1.533790	32.000000	n/a	2	-1.692708e-01	-1.692708e-01
251.881040	1.533790	dec_social_accept	1.533790	32.000000	n/a	2	-1.692708e-01	-1.692708e-01
251.881040	1.533790	dec_accept	1.533790	32.000000	n/a	2	-1.692708e-01	-1.692708e-01
251.881040	1.533790	dec_social_low	1.533790	32.000000	n/a	2	-1.692708e-01	-1.692708e-01
251.881040	1.533790	dec_social_accept_low	1.533790	32.000000	n/a	2	-1.692708e-01	-1.692708e-01
258.714900	1.599806	dec_social_choice	1.599806	32.000000	n/a	8	1.822917e-02	1.822917e-02
258.714900	1.599806	dec_choice	1.599806	32.000000	n/a	8	1.822917e-02	1.822917e-02
258.714900	1.599806	dec_social_accept	1.599806	32.000000	n/a	8	1.822917e-02	1.822917e-02
258.714900	1.599806	dec_accept	1.599806	32.000000	n/a	8	1.822917e-02	1.822917e-02
258.714900	1.599806	dec_social_accept_high	1.599806	32.000000	n/a	8	1.822917e-02	1.822917e-02
265.548200	1.733101	dec_nonsocial_choice	1.733101	32.000000	n/a	2	-1.692708e-01	-1.692708e-01
265.548200	1.733101	dec_choice	1.733101	32.000000	n/a	2	-1.692708e-01	-1.692708e-01
265.548200	1.733101	dec_nonsocial_accept	1.733101	32.000000	n/a	2	-1.692708e-01	-1.692708e-01
265.548200	1.733101	dec_accept	1.733101	32.000000	n/a	2	-1.692708e-01	-1.692708e-01
265.548200	1.733101	dec_nonsocial_low	1.733101	32.000000	n/a	2	-1.692708e-01	-1.692708e-01
265.548200	1.733101	dec_nonsocial_accept_low	1.733101	32.000000	n/a	2	-1.692708e-01	-1.692708e-01
274.797940	1.100045	dec_social_choice	1.100045	16.000000	n/a	4	1.822917e-02	1.822917e-02
274.797940	1.100045	dec_choice	1.100045	16.000000	n/a	4	1.822917e-02	1.822917e-02
274.797940	1.100045	dec_social_accept	1.100045	16.000000	n/a	4	1.822917e-02	1.822917e-02
274.797940	1.100045	dec_accept	1.100045	16.000000	n/a	4	1.822917e-02	1.822917e-02
274.797940	1.100045	dec_social_high	1.100045	16.000000	n/a	4	1.822917e-02	1.822917e-02
274.797940	1.100045	dec_social_accept_high	1.100045	16.000000	n/a	4	1.822917e-02	1.822917e-02
281.631870	1.165787	dec_nonsocial_choice	1.165787	16.000000	n/a	8	2.682292e-01	2.682292e-01
281.631870	1.165787	dec_choice	1.165787	16.000000	n/a	8	2.682292e-01	2.682292e-01
281.631870	1.165787	dec_nonsocial_accept	1.165787	16.000000	n/a	8	2.682292e-01	2.682292e-01
281.631870	1.165787	dec_accept	1.165787	16.000000	n/a	8	2.682292e-01	2.682292e-01
281.631870	1.165787	dec_nonsocial_high	1.165787	16.000000	n/a	8	2.682292e-01	2.682292e-01
281.631870	1.165787	dec_nonsocial_accept_high	1.165787	16.000000	n/a	8	2.682292e-01	2.682292e-01
288.464840	1.466099	dec_social_choice	1.466099	32.000000	n/a	2	-1.692708e-01	-1.692708e-01
288.464840	1.466099	dec_choice	1.466099	32.000000	n/a	2	-1.692708e-01	-1.692708e-01
288.464840	1.466099	dec_social_accept	1.466099	32.000000	n/a	2	-1.692708e-01	-1.692708e-01
288.464840	1.466099	dec_accept	1.466099	32.000000	n/a	2	-1.692708e-01	-1.692708e-01
288.464840	1.466099	dec_social_accept_low	1.466099	32.000000	n/a	2	-1.692708e-01	-1.692708e-01
296.113920	1.266947	dec_social_choice	1.266947	32.000000	n/a	3	-1.380208e-01	-1.380208e-01
296.113920	1.266947	dec_choice	1.266947	32.000000	n/a	3	-1.380208e-01	-1.380208e-01
296.113920	1.266947	dec_social_accept	1.266947	32.000000	n/a	3	-1.380208e-01	-1.380208e-01
296.113920	1.266947	dec_accept	1.266947	32.000000	n/a	3	-1.380208e-01	-1.380208e-01
296.113920	1.266947	dec_social_accept_low	1.266947	32.000000	n/a	3	-1.380208e-01	-1.380208e-01
308.597050	1.700795	dec_nonsocial_choice	1.700795	16.000000	n/a	8	2.682292e-01	2.682292e-01
308.597050	1.700795	dec_choice	1.700795	16.000000	n/a	8	2.682292e-01	2.682292e-01
308.597050	1.700795	dec_nonsocial_accept	1.700795	16.000000	n/a	8	2.682292e-01	2.682292e-01
308.597050	1.700795	dec_accept	1.700795	16.000000	n/a	8	2.682292e-01	2.682292e-01
308.597050	1.700795	dec_nonsocial_high	1.700795	16.000000	n/a	8	2.682292e-01	2.682292e-01
308.597050	1.700795	dec_nonsocial_accept_high	1.700795	16.000000	n/a	8	2.682292e-01	2.682292e-01
315.430570	1.416740	dec_nonsocial_choice	1.416740	16.000000	n/a	2	-1.067708e-01	-1.067708e-01
315.430570	1.416740	dec_choice	1.416740	16.000000	n/a	2	-1.067708e-01	-1.067708e-01
315.430570	1.416740	dec_nonsocial_accept	1.416740	16.000000	n/a	2	-1.067708e-01	-1.067708e-01
315.430570	1.416740	dec_accept	1.416740	16.000000	n/a	2	-1.067708e-01	-1.067708e-01
315.430570	1.416740	dec_nonsocial_low	1.416740	16.000000	n/a	2	-1.067708e-01	-1.067708e-01
315.430570	1.416740	dec_nonsocial_accept_low	1.416740	16.000000	n/a	2	-1.067708e-01	-1.067708e-01
322.264860	2.250210	dec_social_choice	2.250210	16.000000	n/a	8	2.682292e-01	2.682292e-01
322.264860	2.250210	dec_choice	2.250210	16.000000	n/a	8	2.682292e-01	2.682292e-01
322.264860	2.250210	dec_social_accept	2.250210	16.000000	n/a	8	2.682292e-01	2.682292e-01
322.264860	2.250210	dec_accept	2.250210	16.000000	n/a	8	2.682292e-01	2.682292e-01
322.264860	2.250210	dec_social_high	2.250210	16.000000	n/a	8	2.682292e-01	2.682292e-01
322.264860	2.250210	dec_social_accept_high	2.250210	16.000000	n/a	8	2.682292e-01	2.682292e-01
329.915000	1.515795	dec_nonsocial_choice	1.515795	16.000000	n/a	1	-1.692708e-01	-1.692708e-01
329.915000	1.515795	dec_choice	1.515795	16.000000	n/a	1	-1.692708e-01	-1.692708e-01
329.915000	1.515795	dec_nonsocial_accept	1.515795	16.000000	n/a	1	-1.692708e-01	-1.692708e-01
329.915000	1.515795	dec_accept	1.515795	16.000000	n/a	1	-1.692708e-01	-1.692708e-01
329.915000	1.515795	dec_nonsocial_accept_low	1.515795	16.000000	n/a	1	-1.692708e-01	-1.692708e-01
336.748470	1.365665	dec_nonsocial_choice	1.365665	32.000000	n/a	2	-1.692708e-01	-1.692708e-01
336.748470	1.365665	dec_choice	1.365665	32.000000	n/a	2	-1.692708e-01	-1.692708e-01
336.748470	1.365665	dec_nonsocial_accept	1.365665	32.000000	n/a	2	-1.692708e-01	-1.692708e-01
336.748470	1.365665	dec_accept	1.365665	32.000000	n/a	2	-1.692708e-01	-1.692708e-01
336.748470	1.365665	dec_nonsocial_accept_low	1.365665	32.000000	n/a	2	-1.692708e-01	-1.692708e-01
346.013800	1.466902	dec_nonsocial_choice	1.466902	32.000000	n/a	3	-1.380208e-01	-1.380208e-01
346.013800	1.466902	dec_choice	1.466902	32.000000	n/a	3	-1.380208e-01	-1.380208e-01
346.013800	1.466902	dec_nonsocial_accept	1.466902	32.000000	n/a	3	-1.380208e-01	-1.380208e-01
346.013800	1.466902	dec_accept	1.466902	32.000000	n/a	3	-1.380208e-01	-1.380208e-01
346.013800	1.466902	dec_nonsocial_accept_low	1.466902	32.000000	n/a	3	-1.380208e-01	-1.380208e-01
356.881130	1.516183	dec_nonsocial_choice	1.516183	32.000000	n/a	2	-1.692708e-01	-1.692708e-01
356.881130	1.516183	dec_choice	1.516183	32.000000	n/a	2	-1.692708e-01	-1.692708e-01
356.881130	1.516183	dec_nonsocial_accept	1.516183	32.000000	n/a	2	-1.692708e-01	-1.692708e-01
356.881130	1.516183	dec_accept	1.516183	32.000000	n/a	2	-1.692708e-01	-1.692708e-01
356.881130	1.516183	dec_nonsocial_accept_low	1.516183	32.000000	n/a	2	-1.692708e-01	-1.692708e-01
364.514100	1.500351	dec_social_choice	1.500351	16.000000	n/a	4	1.822917e-02	1.822917e-02
364.514100	1.500351	dec_choice	1.500351	16.000000	n/a	4	1.822917e-02	1.822917e-02
364.514100	1.500351	dec_social_accept	1.500351	16.000000	n/a	4	1.822917e-02	1.822917e-02
364.514100	1.500351	dec_accept	1.500351	16.000000	n/a	4	1.822917e-02	1.822917e-02
364.514100	1.500351	dec_social_high	1.500351	16.000000	n/a	4	1.822917e-02	1.822917e-02
364.514100	1.500351	dec_social_accept_high	1.500351	16.000000	n/a	4	1.822917e-02	1.822917e-02
372.163850	1.317203	dec_social_choice	1.317203	16.000000	n/a	1	-1.692708e-01	-1.692708e-01
372.163850	1.317203	dec_choice	1.317203	16.000000	n/a	1	-1.692708e-01	-1.692708e-01
372.163850	1.317203	dec_social_accept	1.317203	16.000000	n/a	1	-1.692708e-01	-1.692708e-01
372.163850	1.317203	dec_accept	1.317203	16.000000	n/a	1	-1.692708e-01	-1.692708e-01
372.163850	1.317203	dec_social_accept_low	1.317203	16.000000	n/a	1	-1.692708e-01	-1.692708e-01
