onset	duration	trial_type	rt	resp	gender	image_left	image_right
0.6006730999797583	3.0009994999854825	decision	1.7822748000035062	right	D	DD017.jpg	DD018.jpg
4.150474799971562	1.0001121000386775	loss	n/a	n/a	n/a	DD017.jpg	DD018.jpg
11.100606699998025	3.0012198999756947	decision	2.033032200008165	left	D	DD035.jpg	DD036.jpg
14.651503000000957	1.015324399981182	win	n/a	n/a	n/a	DD035.jpg	DD036.jpg
21.600331099994946	3.0014995000092313	decision	1.7826007999829017	right	D	DD021.jpg	DD022.jpg
25.15053009998519	1.0164565999875776	loss	n/a	n/a	n/a	DD021.jpg	DD022.jpg
32.08388809999451	3.0009225999820046	decision	1.7832657999824733	left	S	SD025.jpg	SD026.jpg
35.63341449998552	1.016602799994871	loss	n/a	n/a	n/a	SD025.jpg	SD026.jpg
38.383564799965825	3.000890100025572	decision	1.5332265000324696	left	S	SD027.jpg	SD028.jpg
41.93350529996678	1.0165950000518933	loss	n/a	n/a	n/a	SD027.jpg	SD028.jpg
44.6668376000016	3.0019498000037856	decision	2.2839804000104778	left	S	SD023.jpg	SD024.jpg
48.216802300012205	1.0168793000048026	win	n/a	n/a	n/a	SD023.jpg	SD024.jpg
50.95053550001467	3.0012663999805227	decision	1.532261699961964	right	D	DD037.jpg	DD038.jpg
54.50039309996646	1.0163996000192128	win	n/a	n/a	n/a	DD037.jpg	DD038.jpg
59.35045009996975	3.001709700038191	decision	1.532294400036335	left	S	SD011.jpg	SD012.jpg
62.90038609999465	1.0164506000000983	loss	n/a	n/a	n/a	SD011.jpg	SD012.jpg
67.73341380001511	3.0010959999635816	decision	2.2823924999684095	left	D	DD009.jpg	DD010.jpg
71.28374149999581	1.000063700019382	win	n/a	n/a	n/a	DD009.jpg	DD010.jpg
74.00020379998023	3.0015597000019625	decision	2.2825945999938995	right	D	DD027.jpg	DD028.jpg
77.55016509996494	1.01645140000619	win	n/a	n/a	n/a	DD027.jpg	DD028.jpg
82.40012040000875	3.001643099996727	decision	1.7824991999659687	right	D	DD015.jpg	DD016.jpg
85.95035020000068	1.0162808999884874	loss	n/a	n/a	n/a	DD015.jpg	DD016.jpg
92.90027250000276	3.0014531000051647	decision	2.5335284000029787	right	S	SD029.jpg	SD030.jpg
96.45016389997909	1.000129799998831	loss	n/a	n/a	n/a	SD029.jpg	SD030.jpg
101.26682509999955	3.001896800007671	decision	1.7825332999927923	left	S	SD015.jpg	SD016.jpg
104.81654279999202	1.0001723999739625	win	n/a	n/a	n/a	SD015.jpg	SD016.jpg
111.73348340002121	3.0011118999682367	decision	1.532227799994871	right	S	SD007.jpg	SD008.jpg
115.28394649998518	1.0158708000089973	win	n/a	n/a	n/a	SD007.jpg	SD008.jpg
120.11697889998322	3.0020294000278227	decision	1.5326286000199616	right	S	SD017.jpg	SD018.jpg
123.66647549998015	1.0168350000167266	win	n/a	n/a	n/a	SD017.jpg	SD018.jpg
126.41675849998137	2.999918700021226	decision	1.783008800004609	left	D	DD033.jpg	DD034.jpg
129.96664589998545	1.016562100034207	win	n/a	n/a	n/a	DD033.jpg	DD034.jpg
132.7164793999982	3.0012096000136808	decision	1.5336304000229575	left	D	DD007.jpg	DD008.jpg
136.2665122000035	1.0167992999777198	loss	n/a	n/a	n/a	DD007.jpg	DD008.jpg
139.00023599999258	3.001428199990187	decision	1.282622100028675	left	D	DD023.jpg	DD024.jpg
142.54977729998063	1.0000581000349484	loss	n/a	n/a	n/a	DD023.jpg	DD024.jpg
155.7834791999776	3.0012456999975257	decision	1.533189800044056	left	S	SD009.jpg	SD010.jpg
159.33320100000128	1.0166753999656066	loss	n/a	n/a	n/a	SD009.jpg	SD010.jpg
164.16647260001628	3.001137799990829	decision	1.2833116999827325	left	D	DD001.jpg	DD002.jpg
167.71665000001667	1.0000046999775805	win	n/a	n/a	n/a	DD001.jpg	DD002.jpg
170.46645619999617	3.0021953000104986	decision	1.532956400013063	right	S	SD019.jpg	SD020.jpg
174.01647119998233	1.016664499999024	loss	n/a	n/a	n/a	SD019.jpg	SD020.jpg
180.96644539997214	3.0010543999960646	decision	1.7832628000178374	left	D	DD031.jpg	DD032.jpg
184.51638109999476	1.0166390999802388	loss	n/a	n/a	n/a	DD031.jpg	DD032.jpg
189.34976259997347	3.001199499994982	decision	1.5330425000283867	right	S	SD005.jpg	SD006.jpg
192.8999844000209	1.0162304999539629	win	n/a	n/a	n/a	SD005.jpg	SD006.jpg
195.66628609999316	3.0010534999892116	decision	2.0323311000247486	right	D	DD019.jpg	DD020.jpg
199.21631529997103	1.0002784000243992	win	n/a	n/a	n/a	DD019.jpg	DD020.jpg
206.13332570000784	3.001704399997834	decision	1.7826666999608278	right	S	SD013.jpg	SD014.jpg
209.68328240001574	1.000086099957116	loss	n/a	n/a	n/a	SD013.jpg	SD014.jpg
216.60081109998282	3.0018024999881163	decision	1.7817624000017531	left	S	SD031.jpg	SD032.jpg
220.14989479997894	1.0163541000219993	loss	n/a	n/a	n/a	SD031.jpg	SD032.jpg
224.98293419997208	3.0016267000464723	decision	2.5344141999958083	left	D	DD039.jpg	DD040.jpg
228.5332073000027	1.0000363999861293	loss	n/a	n/a	n/a	DD039.jpg	DD040.jpg
231.26637409999967	3.000932199996896	decision	1.7822626999695785	left	D	DD005.jpg	DD006.jpg
234.81618359999266	1.0001305000041611	loss	n/a	n/a	n/a	DD005.jpg	DD006.jpg
241.74945210001897	3.001455099962186	decision	1.5331064999918453	right	S	SD037.jpg	SD038.jpg
245.29949030000716	1.000071999966167	loss	n/a	n/a	n/a	SD037.jpg	SD038.jpg
248.01624209998408	3.0013906999956816	decision	1.7823287000064738	right	S	SD039.jpg	SD040.jpg
251.5665316999657	1.0165513000101782	win	n/a	n/a	n/a	SD039.jpg	SD040.jpg
254.29960019997088	3.0019344000029378	decision	2.7999643000075594	right	S	SD033.jpg	SD034.jpg
257.849444499996	1.0167785999947228	loss	n/a	n/a	n/a	SD033.jpg	SD034.jpg
260.5993934000144	3.0008083999855444	decision	1.7831119999755174	left	D	DD013.jpg	DD014.jpg
264.1493241999997	1.0003774000215344	win	n/a	n/a	n/a	DD013.jpg	DD014.jpg
268.9661447000108	3.000980199954938	decision	1.2833632999681868	left	S	SD001.jpg	SD002.jpg
272.51632629998494	1.016370800032746	win	n/a	n/a	n/a	SD001.jpg	SD002.jpg
275.2661086000153	3.0015572999836877	decision	1.5331549999536946	right	D	DD003.jpg	DD004.jpg
278.8160192000214	1.0000753999920562	win	n/a	n/a	n/a	DD003.jpg	DD004.jpg
283.63267129997257	3.000818000000436	decision	1.5332902999944054	right	S	SD003.jpg	SD004.jpg
287.1826883999747	1.0002752000000328	win	n/a	n/a	n/a	SD003.jpg	SD004.jpg
294.0994782000198	3.001890099956654	decision	2.5499262999510393	left	D	DD025.jpg	DD026.jpg
297.6490640999982	1.0170279999729246	win	n/a	n/a	n/a	DD025.jpg	DD026.jpg
304.5995607000077	3.0013471000129357	decision	2.7998989999759942	right	S	SD035.jpg	SD036.jpg
308.14949659997365	1.016715900041163	win	n/a	n/a	n/a	SD035.jpg	SD036.jpg
310.899576900003	3.001667800010182	decision	2.5322793999803253	left	D	DD011.jpg	DD012.jpg
314.4497896999819	1.0162150000105612	loss	n/a	n/a	n/a	DD011.jpg	DD012.jpg
317.1998585999827	3.0016626000287943	decision	1.5318825999856927	right	S	SD021.jpg	SD022.jpg
320.74905759998364	1.0000976999872364	win	n/a	n/a	n/a	SD021.jpg	SD022.jpg
325.56621899997117	3.0020007000421174	decision	1.5328559000045061	right	D	DD029.jpg	DD030.jpg
329.11613999999827	1.0000545000075363	loss	n/a	n/a	n/a	DD029.jpg	DD030.jpg
