onset	duration	trial_type	response_time	Endowment	Endowment_pmod	Decision	Decision_pmod	Offer_pmod
4.510929	2	cue_social	n/a	32	8	n/a	n/a	n/a
4.510929	2	cue_social_high	n/a	32	7	n/a	n/a	n/a
11.343065	2	cue_nonsocial	n/a	32	7	n/a	n/a	n/a
11.343065	2	cue_nonsocial_high	n/a	32	8	n/a	n/a	n/a
20.592394	2	cue_nonsocial	n/a	32	7	n/a	n/a	n/a
20.592394	2	cue_nonsocial_high	n/a	32	8	n/a	n/a	n/a
27.543760	2	cue_social	n/a	32	8	n/a	n/a	n/a
27.543760	2	cue_social_high	n/a	32	7	n/a	n/a	n/a
34.257236	2	cue_social	n/a	32	8	n/a	n/a	n/a
34.257236	2	cue_social_high	n/a	32	7	n/a	n/a	n/a
41.128307	2	cue_social	n/a	16	-8	n/a	n/a	n/a
41.128307	2	cue_social_low	n/a	16	-9	n/a	n/a	n/a
47.925777	2	cue_nonsocial	n/a	32	7	n/a	n/a	n/a
47.925777	2	cue_nonsocial_high	n/a	32	8	n/a	n/a	n/a
55.575203	2	cue_nonsocial	n/a	16	-9	n/a	n/a	n/a
55.575203	2	cue_nonsocial_low	n/a	16	-8	n/a	n/a	n/a
62.408794	2	cue_nonsocial	n/a	16	-9	n/a	n/a	n/a
62.408794	2	cue_nonsocial_low	n/a	16	-8	n/a	n/a	n/a
70.148120	2	cue_social	n/a	16	-8	n/a	n/a	n/a
70.148120	2	cue_social_low	n/a	16	-9	n/a	n/a	n/a
77.708770	2	cue_nonsocial	n/a	32	7	n/a	n/a	n/a
77.708770	2	cue_nonsocial_high	n/a	32	8	n/a	n/a	n/a
85.470210	2	cue_social	n/a	16	-8	n/a	n/a	n/a
85.470210	2	cue_social_low	n/a	16	-9	n/a	n/a	n/a
94.608870	2	cue_nonsocial	n/a	32	7	n/a	n/a	n/a
94.608870	2	cue_nonsocial_high	n/a	32	8	n/a	n/a	n/a
101.537470	2	cue_social	n/a	32	8	n/a	n/a	n/a
101.537470	2	cue_social_high	n/a	32	7	n/a	n/a	n/a
108.366120	2	cue_social	n/a	16	-8	n/a	n/a	n/a
108.366120	2	cue_social_low	n/a	16	-9	n/a	n/a	n/a
117.624640	2	cue_social	n/a	16	-8	n/a	n/a	n/a
117.624640	2	cue_social_low	n/a	16	-9	n/a	n/a	n/a
125.177020	2	cue_nonsocial	n/a	16	-9	n/a	n/a	n/a
125.177020	2	cue_nonsocial_low	n/a	16	-8	n/a	n/a	n/a
132.825580	2	cue_nonsocial	n/a	32	7	n/a	n/a	n/a
132.825580	2	cue_nonsocial_high	n/a	32	8	n/a	n/a	n/a
139.658740	2	cue_nonsocial	n/a	16	-9	n/a	n/a	n/a
139.658740	2	cue_nonsocial_low	n/a	16	-8	n/a	n/a	n/a
146.613110	2	cue_social	n/a	16	-8	n/a	n/a	n/a
146.613110	2	cue_social_low	n/a	16	-9	n/a	n/a	n/a
153.438190	2	cue_social	n/a	32	8	n/a	n/a	n/a
153.438190	2	cue_social_high	n/a	32	7	n/a	n/a	n/a
160.158700	2	cue_nonsocial	n/a	32	7	n/a	n/a	n/a
160.158700	2	cue_nonsocial_high	n/a	32	8	n/a	n/a	n/a
167.075130	2	cue_social	n/a	32	8	n/a	n/a	n/a
167.075130	2	cue_social_high	n/a	32	7	n/a	n/a	n/a
174.745540	2	cue_social	n/a	16	-8	n/a	n/a	n/a
174.745540	2	cue_social_low	n/a	16	-9	n/a	n/a	n/a
181.554870	2	cue_social	n/a	16	-8	n/a	n/a	n/a
181.554870	2	cue_social_low	n/a	16	-9	n/a	n/a	n/a
194.058550	2	cue_social	n/a	32	8	n/a	n/a	n/a
194.058550	2	cue_social_high	n/a	32	7	n/a	n/a	n/a
201.613420	2	cue_social	n/a	32	8	n/a	n/a	n/a
201.613420	2	cue_social_high	n/a	32	7	n/a	n/a	n/a
209.257950	2	cue_nonsocial	n/a	16	-9	n/a	n/a	n/a
209.257950	2	cue_nonsocial_low	n/a	16	-8	n/a	n/a	n/a
216.182720	2	cue_social	n/a	16	-8	n/a	n/a	n/a
216.182720	2	cue_social_low	n/a	16	-9	n/a	n/a	n/a
222.929240	2	cue_social	n/a	16	-8	n/a	n/a	n/a
222.929240	2	cue_social_low	n/a	16	-9	n/a	n/a	n/a
229.758100	2	cue_nonsocial	n/a	16	-9	n/a	n/a	n/a
229.758100	2	cue_nonsocial_low	n/a	16	-8	n/a	n/a	n/a
236.591490	2	cue_nonsocial	n/a	32	7	n/a	n/a	n/a
236.591490	2	cue_nonsocial_high	n/a	32	8	n/a	n/a	n/a
244.310870	2	cue_social	n/a	32	8	n/a	n/a	n/a
244.310870	2	cue_social_high	n/a	32	7	n/a	n/a	n/a
255.108520	2	cue_nonsocial	n/a	32	7	n/a	n/a	n/a
255.108520	2	cue_nonsocial_high	n/a	32	8	n/a	n/a	n/a
264.357880	2	cue_nonsocial	n/a	32	7	n/a	n/a	n/a
264.357880	2	cue_nonsocial_high	n/a	32	8	n/a	n/a	n/a
273.696960	2	cue_social	n/a	32	8	n/a	n/a	n/a
273.696960	2	cue_social_high	n/a	32	7	n/a	n/a	n/a
284.475040	2	cue_nonsocial	n/a	32	7	n/a	n/a	n/a
284.475040	2	cue_nonsocial_high	n/a	32	8	n/a	n/a	n/a
291.307900	2	cue_nonsocial	n/a	16	-9	n/a	n/a	n/a
291.307900	2	cue_nonsocial_low	n/a	16	-8	n/a	n/a	n/a
298.230960	2	cue_social	n/a	32	8	n/a	n/a	n/a
298.230960	2	cue_social_high	n/a	32	7	n/a	n/a	n/a
305.069640	2	cue_social	n/a	32	8	n/a	n/a	n/a
305.069640	2	cue_social_high	n/a	32	7	n/a	n/a	n/a
311.808350	2	cue_nonsocial	n/a	16	-9	n/a	n/a	n/a
311.808350	2	cue_nonsocial_low	n/a	16	-8	n/a	n/a	n/a
318.642820	2	cue_nonsocial	n/a	16	-9	n/a	n/a	n/a
318.642820	2	cue_nonsocial_low	n/a	16	-8	n/a	n/a	n/a
327.908050	2	cue_nonsocial	n/a	16	-9	n/a	n/a	n/a
327.908050	2	cue_nonsocial_low	n/a	16	-8	n/a	n/a	n/a
337.158420	2	cue_nonsocial	n/a	16	-9	n/a	n/a	n/a
337.158420	2	cue_nonsocial_low	n/a	16	-8	n/a	n/a	n/a
344.097870	2	cue_social	n/a	16	-8	n/a	n/a	n/a
344.097870	2	cue_social_low	n/a	16	-9	n/a	n/a	n/a
351.641360	2	cue_nonsocial	n/a	32	7	n/a	n/a	n/a
351.641360	2	cue_nonsocial_high	n/a	32	8	n/a	n/a	n/a
362.508240	2	cue_nonsocial	n/a	32	7	n/a	n/a	n/a
362.508240	2	cue_nonsocial_high	n/a	32	8	n/a	n/a	n/a
370.254400	2	cue_social	n/a	16	-8	n/a	n/a	n/a
370.254400	2	cue_social_low	n/a	16	-9	n/a	n/a	n/a
6.514200	0.951042	dec_social_choice	0.951042	32.000000	n/a	8	2.148438e-02	2.148438e-02
6.514200	0.951042	dec_choice	0.951042	32.000000	n/a	8	1.953125e-02	1.953125e-02
6.514200	0.951042	dec_social_accept	0.951042	32.000000	n/a	8	-1.250000e-01	-1.250000e-01
6.514200	0.951042	dec_accept	0.951042	32.000000	n/a	8	-1.250000e-01	-1.250000e-01
6.514200	0.951042	dec_social_high	0.951042	32.000000	n/a	8	1.953125e-02	1.953125e-02
6.514200	0.951042	dec_social_accept_high	0.951042	32.000000	n/a	8	1.953125e-02	1.953125e-02
13.348306	1.116154	dec_nonsocial_choice	1.116154	32.000000	n/a	0	0	-2.285156e-01
13.348306	1.116154	dec_choice	1.116154	32.000000	n/a	0	0	-2.265625e-01
13.348306	1.116154	dec_nonsocial_reject	1.116154	32.000000	n/a	0	0	1.171875e-02
13.348306	1.116154	dec_reject	1.116154	32.000000	n/a	0	0	1.562500e-02
13.348306	1.116154	dec_nonsocial_low	1.116154	32.000000	n/a	0	-2.265625e-01	-2.265625e-01
13.348306	1.116154	dec_nonsocial_reject_low	1.116154	32.000000	n/a	3	1.562500e-02	-7.812500e-02
22.598501	1.115791	dec_nonsocial_choice	1.115791	32.000000	n/a	16	2.714844e-01	2.714844e-01
22.598501	1.115791	dec_choice	1.115791	32.000000	n/a	16	2.734375e-01	2.734375e-01
22.598501	1.115791	dec_nonsocial_accept	1.115791	32.000000	n/a	16	1.250000e-01	1.250000e-01
22.598501	1.115791	dec_accept	1.115791	32.000000	n/a	16	1.250000e-01	1.250000e-01
22.598501	1.115791	dec_nonsocial_high	1.115791	32.000000	n/a	16	2.734375e-01	2.734375e-01
22.598501	1.115791	dec_nonsocial_accept_high	1.115791	32.000000	n/a	16	1.250000e-01	1.250000e-01
29.430859	0.800175	dec_social_choice	0.800175	32.000000	n/a	0	0	-2.285156e-01
29.430859	0.800175	dec_choice	0.800175	32.000000	n/a	0	0	-2.304688e-01
29.430859	0.800175	dec_social_reject	0.800175	32.000000	n/a	0	0	1.171875e-02
29.430859	0.800175	dec_reject	0.800175	32.000000	n/a	0	0	7.812500e-03
29.430859	0.800175	dec_social_reject_low	0.800175	32.000000	n/a	3	-1.367188e-01	-2.304688e-01
36.264923	1.433121	dec_social_choice	1.433121	32.000000	n/a	8	2.148438e-02	2.148438e-02
36.264923	1.433121	dec_choice	1.433121	32.000000	n/a	8	1.953125e-02	1.953125e-02
36.264923	1.433121	dec_social_accept	1.433121	32.000000	n/a	8	-1.250000e-01	-1.250000e-01
36.264923	1.433121	dec_accept	1.433121	32.000000	n/a	8	-1.250000e-01	-1.250000e-01
36.264923	1.433121	dec_social_accept_high	1.433121	32.000000	n/a	8	1.953125e-02	1.953125e-02
43.096780	1.083711	dec_social_choice	1.083711	16.000000	n/a	0	0	-2.285156e-01
43.096780	1.083711	dec_choice	1.083711	16.000000	n/a	0	0	-2.304688e-01
43.096780	1.083711	dec_social_reject	1.083711	16.000000	n/a	0	0	-1.953125e-02
43.096780	1.083711	dec_reject	1.083711	16.000000	n/a	0	0	-2.343750e-02
43.096780	1.083711	dec_social_low	1.083711	16.000000	n/a	0	-2.304688e-01	-2.304688e-01
43.096780	1.083711	dec_social_reject_low	1.083711	16.000000	n/a	1	-1.679688e-01	-2.304688e-01
49.931400	1.132982	dec_nonsocial_choice	1.132982	32.000000	n/a	8	2.148438e-02	2.148438e-02
49.931400	1.132982	dec_choice	1.132982	32.000000	n/a	8	2.343750e-02	2.343750e-02
49.931400	1.132982	dec_nonsocial_accept	1.132982	32.000000	n/a	8	-1.250000e-01	-1.250000e-01
49.931400	1.132982	dec_accept	1.132982	32.000000	n/a	8	-1.250000e-01	-1.250000e-01
49.931400	1.132982	dec_nonsocial_high	1.132982	32.000000	n/a	8	2.343750e-02	2.343750e-02
49.931400	1.132982	dec_nonsocial_accept_high	1.132982	32.000000	n/a	8	-1.250000e-01	-1.250000e-01
57.581005	1.216400	dec_nonsocial_choice	1.216400	16.000000	n/a	8	2.714844e-01	2.714844e-01
57.581005	1.216400	dec_choice	1.216400	16.000000	n/a	8	2.734375e-01	2.734375e-01
57.581005	1.216400	dec_nonsocial_accept	1.216400	16.000000	n/a	8	1.250000e-01	1.250000e-01
57.581005	1.216400	dec_accept	1.216400	16.000000	n/a	8	1.250000e-01	1.250000e-01
57.581005	1.216400	dec_nonsocial_high	1.216400	16.000000	n/a	8	2.734375e-01	2.734375e-01
57.581005	1.216400	dec_nonsocial_accept_high	1.216400	16.000000	n/a	8	1.250000e-01	1.250000e-01
64.415245	1.015197	dec_nonsocial_choice	1.015197	16.000000	n/a	0	0	-2.285156e-01
64.415245	1.015197	dec_choice	1.015197	16.000000	n/a	0	0	-2.265625e-01
64.415245	1.015197	dec_nonsocial_reject	1.015197	16.000000	n/a	0	0	-1.953125e-02
64.415245	1.015197	dec_reject	1.015197	16.000000	n/a	0	0	-1.562500e-02
64.415245	1.015197	dec_nonsocial_low	1.015197	16.000000	n/a	0	-2.265625e-01	-2.265625e-01
64.415245	1.015197	dec_nonsocial_reject_low	1.015197	16.000000	n/a	1	-1.562500e-02	-7.812500e-02
72.065090	0.915329	dec_social_choice	0.915329	16.000000	n/a	0	0	-2.285156e-01
72.065090	0.915329	dec_choice	0.915329	16.000000	n/a	0	0	-2.304688e-01
72.065090	0.915329	dec_social_reject	0.915329	16.000000	n/a	0	0	-1.953125e-02
72.065090	0.915329	dec_reject	0.915329	16.000000	n/a	0	0	-2.343750e-02
72.065090	0.915329	dec_social_low	0.915329	16.000000	n/a	0	-2.304688e-01	-2.304688e-01
72.065090	0.915329	dec_social_reject_low	0.915329	16.000000	n/a	1	-1.679688e-01	-2.304688e-01
79.714960	1.049192	dec_nonsocial_choice	1.049192	32.000000	n/a	8	2.148438e-02	2.148438e-02
79.714960	1.049192	dec_choice	1.049192	32.000000	n/a	8	2.343750e-02	2.343750e-02
79.714960	1.049192	dec_nonsocial_accept	1.049192	32.000000	n/a	8	-1.250000e-01	-1.250000e-01
79.714960	1.049192	dec_accept	1.049192	32.000000	n/a	8	-1.250000e-01	-1.250000e-01
79.714960	1.049192	dec_nonsocial_accept_high	1.049192	32.000000	n/a	8	-1.250000e-01	-1.250000e-01
87.363980	1.283086	dec_social_choice	1.283086	16.000000	n/a	4	2.148438e-02	2.148438e-02
87.363980	1.283086	dec_choice	1.283086	16.000000	n/a	4	1.953125e-02	1.953125e-02
87.363980	1.283086	dec_social_accept	1.283086	16.000000	n/a	4	-1.250000e-01	-1.250000e-01
87.363980	1.283086	dec_accept	1.283086	16.000000	n/a	4	-1.250000e-01	-1.250000e-01
87.363980	1.283086	dec_social_accept_high	1.283086	16.000000	n/a	4	1.953125e-02	1.953125e-02
96.614120	1.150075	dec_nonsocial_choice	1.150075	32.000000	n/a	0	0	-2.285156e-01
96.614120	1.150075	dec_choice	1.150075	32.000000	n/a	0	0	-2.265625e-01
96.614120	1.150075	dec_nonsocial_reject	1.150075	32.000000	n/a	0	0	1.171875e-02
96.614120	1.150075	dec_reject	1.150075	32.000000	n/a	0	0	1.562500e-02
96.614120	1.150075	dec_nonsocial_reject_low	1.150075	32.000000	n/a	3	7.812500e-03	-8.593750e-02
103.448030	0.949721	dec_social_choice	0.949721	32.000000	n/a	16	2.714844e-01	2.714844e-01
103.448030	0.949721	dec_choice	0.949721	32.000000	n/a	16	2.695312e-01	2.695312e-01
103.448030	0.949721	dec_social_accept	0.949721	32.000000	n/a	16	1.250000e-01	1.250000e-01
103.448030	0.949721	dec_accept	0.949721	32.000000	n/a	16	1.250000e-01	1.250000e-01
103.448030	0.949721	dec_social_accept_high	0.949721	32.000000	n/a	16	2.695312e-01	2.695312e-01
110.281235	1.265820	dec_social_choice	1.265820	16.000000	n/a	0	0	-2.285156e-01
110.281235	1.265820	dec_choice	1.265820	16.000000	n/a	0	0	-2.304688e-01
110.281235	1.265820	dec_social_reject	1.265820	16.000000	n/a	0	0	-1.953125e-02
110.281235	1.265820	dec_reject	1.265820	16.000000	n/a	0	0	-2.343750e-02
110.281235	1.265820	dec_social_low	1.265820	16.000000	n/a	0	-2.304688e-01	-2.304688e-01
110.281235	1.265820	dec_social_reject_low	1.265820	16.000000	n/a	1	-1.679688e-01	-2.304688e-01
119.530655	1.316580	dec_social_choice	1.316580	16.000000	n/a	4	2.148438e-02	2.148438e-02
119.530655	1.316580	dec_choice	1.316580	16.000000	n/a	4	1.953125e-02	1.953125e-02
119.530655	1.316580	dec_social_accept	1.316580	16.000000	n/a	4	-1.250000e-01	-1.250000e-01
119.530655	1.316580	dec_accept	1.316580	16.000000	n/a	4	-1.250000e-01	-1.250000e-01
119.530655	1.316580	dec_social_high	1.316580	16.000000	n/a	4	1.953125e-02	1.953125e-02
119.530655	1.316580	dec_social_accept_high	1.316580	16.000000	n/a	4	1.953125e-02	1.953125e-02
127.180680	1.216365	dec_nonsocial_choice	1.216365	16.000000	n/a	0	0	-2.285156e-01
127.180680	1.216365	dec_choice	1.216365	16.000000	n/a	0	0	-2.265625e-01
127.180680	1.216365	dec_nonsocial_reject	1.216365	16.000000	n/a	0	0	-1.953125e-02
127.180680	1.216365	dec_reject	1.216365	16.000000	n/a	0	0	-1.562500e-02
127.180680	1.216365	dec_nonsocial_low	1.216365	16.000000	n/a	0	-2.265625e-01	-2.265625e-01
127.180680	1.216365	dec_nonsocial_reject_low	1.216365	16.000000	n/a	1	-1.562500e-02	-7.812500e-02
134.829990	0.917091	dec_nonsocial_choice	0.917091	32.000000	n/a	0	0	-2.285156e-01
134.829990	0.917091	dec_choice	0.917091	32.000000	n/a	0	0	-2.265625e-01
134.829990	0.917091	dec_nonsocial_reject	0.917091	32.000000	n/a	0	0	-1.953125e-02
134.829990	0.917091	dec_reject	0.917091	32.000000	n/a	0	0	-1.562500e-02
134.829990	0.917091	dec_nonsocial_low	0.917091	32.000000	n/a	0	-2.265625e-01	-2.265625e-01
134.829990	0.917091	dec_nonsocial_reject_low	0.917091	32.000000	n/a	2	-1.562500e-02	-7.812500e-02
141.663960	0.850270	dec_nonsocial_choice	0.850270	16.000000	n/a	8	2.714844e-01	2.714844e-01
141.663960	0.850270	dec_choice	0.850270	16.000000	n/a	8	2.734375e-01	2.734375e-01
141.663960	0.850270	dec_nonsocial_accept	0.850270	16.000000	n/a	8	1.250000e-01	1.250000e-01
141.663960	0.850270	dec_accept	0.850270	16.000000	n/a	8	1.250000e-01	1.250000e-01
141.663960	0.850270	dec_nonsocial_high	0.850270	16.000000	n/a	8	2.734375e-01	2.734375e-01
141.663960	0.850270	dec_nonsocial_accept_high	0.850270	16.000000	n/a	8	1.250000e-01	1.250000e-01
148.497620	1.432660	dec_social_choice	1.432660	16.000000	n/a	0	0	-2.285156e-01
148.497620	1.432660	dec_choice	1.432660	16.000000	n/a	0	0	-2.304688e-01
148.497620	1.432660	dec_social_reject	1.432660	16.000000	n/a	0	0	4.296875e-02
148.497620	1.432660	dec_reject	1.432660	16.000000	n/a	0	0	3.906250e-02
148.497620	1.432660	dec_social_reject_low	1.432660	16.000000	n/a	2	-1.054688e-01	-2.304688e-01
155.329960	0.934091	dec_social_choice	0.934091	32.000000	n/a	8	2.148438e-02	2.148438e-02
155.329960	0.934091	dec_choice	0.934091	32.000000	n/a	8	1.953125e-02	1.953125e-02
155.329960	0.934091	dec_social_accept	0.934091	32.000000	n/a	8	-1.250000e-01	-1.250000e-01
155.329960	0.934091	dec_accept	0.934091	32.000000	n/a	8	-1.250000e-01	-1.250000e-01
155.329960	0.934091	dec_social_accept_high	0.934091	32.000000	n/a	8	1.953125e-02	1.953125e-02
162.163930	0.983502	dec_nonsocial_choice	0.983502	32.000000	n/a	16	2.714844e-01	2.714844e-01
162.163930	0.983502	dec_choice	0.983502	32.000000	n/a	16	2.734375e-01	2.734375e-01
162.163930	0.983502	dec_nonsocial_accept	0.983502	32.000000	n/a	16	1.250000e-01	1.250000e-01
162.163930	0.983502	dec_accept	0.983502	32.000000	n/a	16	1.250000e-01	1.250000e-01
162.163930	0.983502	dec_nonsocial_high	0.983502	32.000000	n/a	16	2.734375e-01	2.734375e-01
162.163930	0.983502	dec_nonsocial_accept_high	0.983502	32.000000	n/a	16	1.250000e-01	1.250000e-01
168.997150	0.900208	dec_social_choice	0.900208	32.000000	n/a	0	0	-2.285156e-01
168.997150	0.900208	dec_choice	0.900208	32.000000	n/a	0	0	-2.304688e-01
168.997150	0.900208	dec_social_reject	0.900208	32.000000	n/a	0	0	1.171875e-02
168.997150	0.900208	dec_reject	0.900208	32.000000	n/a	0	0	7.812500e-03
168.997150	0.900208	dec_social_reject_low	0.900208	32.000000	n/a	3	-1.367188e-01	-2.304688e-01
176.646910	1.135150	dec_social_choice	1.135150	16.000000	n/a	8	2.714844e-01	2.714844e-01
176.646910	1.135150	dec_choice	1.135150	16.000000	n/a	8	2.695312e-01	2.695312e-01
176.646910	1.135150	dec_social_accept	1.135150	16.000000	n/a	8	1.250000e-01	1.250000e-01
176.646910	1.135150	dec_accept	1.135150	16.000000	n/a	8	1.250000e-01	1.250000e-01
176.646910	1.135150	dec_social_accept_high	1.135150	16.000000	n/a	8	2.695312e-01	2.695312e-01
183.479950	1.567332	dec_social_choice	1.567332	16.000000	n/a	0	0	-2.285156e-01
183.479950	1.567332	dec_choice	1.567332	16.000000	n/a	0	0	-2.304688e-01
183.479950	1.567332	dec_social_reject	1.567332	16.000000	n/a	0	0	4.296875e-02
183.479950	1.567332	dec_reject	1.567332	16.000000	n/a	0	0	3.906250e-02
183.479950	1.567332	dec_social_reject_low	1.567332	16.000000	n/a	2	-1.054688e-01	-2.304688e-01
195.964630	1.232877	dec_social_choice	1.232877	32.000000	n/a	0	0	-2.285156e-01
195.964630	1.232877	dec_choice	1.232877	32.000000	n/a	0	0	-2.304688e-01
195.964630	1.232877	dec_social_reject	1.232877	32.000000	n/a	0	0	1.171875e-02
195.964630	1.232877	dec_reject	1.232877	32.000000	n/a	0	0	7.812500e-03
195.964630	1.232877	dec_social_reject_low	1.232877	32.000000	n/a	3	-1.367188e-01	-2.304688e-01
203.613710	1.483388	dec_social_choice	1.483388	32.000000	n/a	0	0	-2.285156e-01
203.613710	1.483388	dec_choice	1.483388	32.000000	n/a	0	0	-2.304688e-01
203.613710	1.483388	dec_social_reject	1.483388	32.000000	n/a	0	0	-1.953125e-02
203.613710	1.483388	dec_reject	1.483388	32.000000	n/a	0	0	-2.343750e-02
203.613710	1.483388	dec_social_low	1.483388	32.000000	n/a	0	-2.304688e-01	-2.304688e-01
203.613710	1.483388	dec_social_reject_low	1.483388	32.000000	n/a	2	-1.679688e-01	-2.304688e-01
211.263210	1.017634	dec_nonsocial_choice	1.017634	16.000000	n/a	4	2.148438e-02	2.148438e-02
211.263210	1.017634	dec_choice	1.017634	16.000000	n/a	4	2.343750e-02	2.343750e-02
211.263210	1.017634	dec_nonsocial_accept	1.017634	16.000000	n/a	4	-1.250000e-01	-1.250000e-01
211.263210	1.017634	dec_accept	1.017634	16.000000	n/a	4	-1.250000e-01	-1.250000e-01
211.263210	1.017634	dec_nonsocial_high	1.017634	16.000000	n/a	4	2.343750e-02	2.343750e-02
211.263210	1.017634	dec_nonsocial_accept_high	1.017634	16.000000	n/a	4	-1.250000e-01	-1.250000e-01
218.097460	0.999543	dec_social_choice	0.999543	16.000000	n/a	0	0	-2.285156e-01
218.097460	0.999543	dec_choice	0.999543	16.000000	n/a	0	0	-2.304688e-01
218.097460	0.999543	dec_social_reject	0.999543	16.000000	n/a	0	0	4.296875e-02
218.097460	0.999543	dec_reject	0.999543	16.000000	n/a	0	0	3.906250e-02
218.097460	0.999543	dec_social_reject_low	0.999543	16.000000	n/a	2	-1.054688e-01	-2.304688e-01
224.931560	1.148485	dec_social_choice	1.148485	16.000000	n/a	8	2.714844e-01	2.714844e-01
224.931560	1.148485	dec_choice	1.148485	16.000000	n/a	8	2.695312e-01	2.695312e-01
224.931560	1.148485	dec_social_accept	1.148485	16.000000	n/a	8	1.250000e-01	1.250000e-01
224.931560	1.148485	dec_accept	1.148485	16.000000	n/a	8	1.250000e-01	1.250000e-01
224.931560	1.148485	dec_social_high	1.148485	16.000000	n/a	8	2.695312e-01	2.695312e-01
224.931560	1.148485	dec_social_accept_high	1.148485	16.000000	n/a	8	2.695312e-01	2.695312e-01
231.763930	0.833246	dec_nonsocial_choice	0.833246	16.000000	n/a	0	0	-2.285156e-01
231.763930	0.833246	dec_choice	0.833246	16.000000	n/a	0	0	-2.265625e-01
231.763930	0.833246	dec_nonsocial_reject	0.833246	16.000000	n/a	0	0	-1.953125e-02
231.763930	0.833246	dec_reject	0.833246	16.000000	n/a	0	0	-1.562500e-02
231.763930	0.833246	dec_nonsocial_reject_low	0.833246	16.000000	n/a	1	-2.343750e-02	-8.593750e-02
238.596450	1.366661	dec_nonsocial_choice	1.366661	32.000000	n/a	0	0	-2.285156e-01
238.596450	1.366661	dec_choice	1.366661	32.000000	n/a	0	0	-2.265625e-01
238.596450	1.366661	dec_nonsocial_reject	1.366661	32.000000	n/a	0	0	1.171875e-02
238.596450	1.366661	dec_reject	1.366661	32.000000	n/a	0	0	1.562500e-02
238.596450	1.366661	dec_nonsocial_low	1.366661	32.000000	n/a	0	-2.265625e-01	-2.265625e-01
238.596450	1.366661	dec_nonsocial_reject_low	1.366661	32.000000	n/a	3	1.562500e-02	-7.812500e-02
246.247680	0.933311	dec_social_choice	0.933311	32.000000	n/a	16	2.714844e-01	2.714844e-01
246.247680	0.933311	dec_choice	0.933311	32.000000	n/a	16	2.695312e-01	2.695312e-01
246.247680	0.933311	dec_social_accept	0.933311	32.000000	n/a	16	1.250000e-01	1.250000e-01
246.247680	0.933311	dec_accept	0.933311	32.000000	n/a	16	1.250000e-01	1.250000e-01
246.247680	0.933311	dec_social_high	0.933311	32.000000	n/a	16	2.695312e-01	2.695312e-01
246.247680	0.933311	dec_social_accept_high	0.933311	32.000000	n/a	16	2.695312e-01	2.695312e-01
257.112950	1.050855	dec_nonsocial_choice	1.050855	32.000000	n/a	8	2.148438e-02	2.148438e-02
257.112950	1.050855	dec_choice	1.050855	32.000000	n/a	8	2.343750e-02	2.343750e-02
257.112950	1.050855	dec_nonsocial_accept	1.050855	32.000000	n/a	8	-1.250000e-01	-1.250000e-01
257.112950	1.050855	dec_accept	1.050855	32.000000	n/a	8	-1.250000e-01	-1.250000e-01
257.112950	1.050855	dec_nonsocial_accept_high	1.050855	32.000000	n/a	8	-1.250000e-01	-1.250000e-01
266.362980	1.251056	dec_nonsocial_choice	1.251056	32.000000	n/a	0	0	-2.285156e-01
266.362980	1.251056	dec_choice	1.251056	32.000000	n/a	0	0	-2.265625e-01
266.362980	1.251056	dec_nonsocial_reject	1.251056	32.000000	n/a	0	0	1.171875e-02
266.362980	1.251056	dec_reject	1.251056	32.000000	n/a	0	0	1.562500e-02
266.362980	1.251056	dec_nonsocial_low	1.251056	32.000000	n/a	0	-2.265625e-01	-2.265625e-01
266.362980	1.251056	dec_nonsocial_reject_low	1.251056	32.000000	n/a	3	1.562500e-02	-7.812500e-02
275.614100	1.182861	dec_social_choice	1.182861	32.000000	n/a	16	2.714844e-01	2.714844e-01
275.614100	1.182861	dec_choice	1.182861	32.000000	n/a	16	2.695312e-01	2.695312e-01
275.614100	1.182861	dec_social_accept	1.182861	32.000000	n/a	16	1.250000e-01	1.250000e-01
275.614100	1.182861	dec_accept	1.182861	32.000000	n/a	16	1.250000e-01	1.250000e-01
275.614100	1.182861	dec_social_accept_high	1.182861	32.000000	n/a	16	2.695312e-01	2.695312e-01
286.479900	1.967109	dec_nonsocial_choice	1.967109	32.000000	n/a	16	2.714844e-01	2.714844e-01
286.479900	1.967109	dec_choice	1.967109	32.000000	n/a	16	2.734375e-01	2.734375e-01
286.479900	1.967109	dec_nonsocial_accept	1.967109	32.000000	n/a	16	1.250000e-01	1.250000e-01
286.479900	1.967109	dec_accept	1.967109	32.000000	n/a	16	1.250000e-01	1.250000e-01
286.479900	1.967109	dec_nonsocial_high	1.967109	32.000000	n/a	16	2.734375e-01	2.734375e-01
286.479900	1.967109	dec_nonsocial_accept_high	1.967109	32.000000	n/a	16	1.250000e-01	1.250000e-01
293.312770	0.867135	dec_nonsocial_choice	0.867135	16.000000	n/a	8	2.714844e-01	2.714844e-01
293.312770	0.867135	dec_choice	0.867135	16.000000	n/a	8	2.734375e-01	2.734375e-01
293.312770	0.867135	dec_nonsocial_accept	0.867135	16.000000	n/a	8	1.250000e-01	1.250000e-01
293.312770	0.867135	dec_accept	0.867135	16.000000	n/a	8	1.250000e-01	1.250000e-01
293.312770	0.867135	dec_nonsocial_high	0.867135	16.000000	n/a	8	2.734375e-01	2.734375e-01
293.312770	0.867135	dec_nonsocial_accept_high	0.867135	16.000000	n/a	8	1.250000e-01	1.250000e-01
300.147860	0.965416	dec_social_choice	0.965416	32.000000	n/a	0	0	-2.285156e-01
300.147860	0.965416	dec_choice	0.965416	32.000000	n/a	0	0	-2.304688e-01
300.147860	0.965416	dec_social_reject	0.965416	32.000000	n/a	0	0	-1.953125e-02
300.147860	0.965416	dec_reject	0.965416	32.000000	n/a	0	0	-2.343750e-02
300.147860	0.965416	dec_social_low	0.965416	32.000000	n/a	0	-2.304688e-01	-2.304688e-01
300.147860	0.965416	dec_social_reject_low	0.965416	32.000000	n/a	2	-1.679688e-01	-2.304688e-01
306.981400	0.865159	dec_social_choice	0.865159	32.000000	n/a	0	0	-2.285156e-01
306.981400	0.865159	dec_choice	0.865159	32.000000	n/a	0	0	-2.304688e-01
306.981400	0.865159	dec_social_reject	0.865159	32.000000	n/a	0	0	-1.953125e-02
306.981400	0.865159	dec_reject	0.865159	32.000000	n/a	0	0	-2.343750e-02
306.981400	0.865159	dec_social_low	0.865159	32.000000	n/a	0	-2.304688e-01	-2.304688e-01
306.981400	0.865159	dec_social_reject_low	0.865159	32.000000	n/a	2	-1.679688e-01	-2.304688e-01
313.813900	1.199701	dec_nonsocial_choice	1.199701	16.000000	n/a	4	2.148438e-02	2.148438e-02
313.813900	1.199701	dec_choice	1.199701	16.000000	n/a	4	2.343750e-02	2.343750e-02
313.813900	1.199701	dec_nonsocial_accept	1.199701	16.000000	n/a	4	-1.250000e-01	-1.250000e-01
313.813900	1.199701	dec_accept	1.199701	16.000000	n/a	4	-1.250000e-01	-1.250000e-01
313.813900	1.199701	dec_nonsocial_high	1.199701	16.000000	n/a	4	2.343750e-02	2.343750e-02
313.813900	1.199701	dec_nonsocial_accept_high	1.199701	16.000000	n/a	4	-1.250000e-01	-1.250000e-01
320.648470	0.898464	dec_nonsocial_choice	0.898464	16.000000	n/a	0	0	-2.285156e-01
320.648470	0.898464	dec_choice	0.898464	16.000000	n/a	0	0	-2.265625e-01
320.648470	0.898464	dec_nonsocial_reject	0.898464	16.000000	n/a	0	0	-1.953125e-02
320.648470	0.898464	dec_reject	0.898464	16.000000	n/a	0	0	-1.562500e-02
320.648470	0.898464	dec_nonsocial_reject_low	0.898464	16.000000	n/a	1	-2.343750e-02	-8.593750e-02
329.912800	1.101319	dec_nonsocial_choice	1.101319	16.000000	n/a	4	2.148438e-02	2.148438e-02
329.912800	1.101319	dec_choice	1.101319	16.000000	n/a	4	2.343750e-02	2.343750e-02
329.912800	1.101319	dec_nonsocial_accept	1.101319	16.000000	n/a	4	-1.250000e-01	-1.250000e-01
329.912800	1.101319	dec_accept	1.101319	16.000000	n/a	4	-1.250000e-01	-1.250000e-01
329.912800	1.101319	dec_nonsocial_accept_high	1.101319	16.000000	n/a	4	-1.250000e-01	-1.250000e-01
339.162750	1.250912	dec_nonsocial_choice	1.250912	16.000000	n/a	0	0	-2.285156e-01
339.162750	1.250912	dec_choice	1.250912	16.000000	n/a	0	0	-2.265625e-01
339.162750	1.250912	dec_nonsocial_reject	1.250912	16.000000	n/a	0	0	-1.953125e-02
339.162750	1.250912	dec_reject	1.250912	16.000000	n/a	0	0	-1.562500e-02
339.162750	1.250912	dec_nonsocial_reject_low	1.250912	16.000000	n/a	1	-2.343750e-02	-8.593750e-02
345.996460	1.400259	dec_social_choice	1.400259	16.000000	n/a	4	2.148438e-02	2.148438e-02
345.996460	1.400259	dec_choice	1.400259	16.000000	n/a	4	1.953125e-02	1.953125e-02
345.996460	1.400259	dec_social_accept	1.400259	16.000000	n/a	4	-1.250000e-01	-1.250000e-01
345.996460	1.400259	dec_accept	1.400259	16.000000	n/a	4	-1.250000e-01	-1.250000e-01
345.996460	1.400259	dec_social_accept_high	1.400259	16.000000	n/a	4	1.953125e-02	1.953125e-02
353.645970	0.967155	dec_nonsocial_choice	0.967155	32.000000	n/a	0	0	-2.285156e-01
353.645970	0.967155	dec_choice	0.967155	32.000000	n/a	0	0	-2.265625e-01
353.645970	0.967155	dec_nonsocial_reject	0.967155	32.000000	n/a	0	0	1.171875e-02
353.645970	0.967155	dec_reject	0.967155	32.000000	n/a	0	0	1.562500e-02
353.645970	0.967155	dec_nonsocial_reject_low	0.967155	32.000000	n/a	3	7.812500e-03	-8.593750e-02
364.512940	1.266854	dec_nonsocial_choice	1.266854	32.000000	n/a	0	0	-2.285156e-01
364.512940	1.266854	dec_choice	1.266854	32.000000	n/a	0	0	-2.265625e-01
364.512940	1.266854	dec_nonsocial_reject	1.266854	32.000000	n/a	0	0	1.171875e-02
364.512940	1.266854	dec_reject	1.266854	32.000000	n/a	0	0	1.562500e-02
364.512940	1.266854	dec_nonsocial_reject_low	1.266854	32.000000	n/a	3	7.812500e-03	-8.593750e-02
372.164280	0.832409	dec_social_choice	0.832409	16.000000	n/a	8	2.714844e-01	2.714844e-01
372.164280	0.832409	dec_choice	0.832409	16.000000	n/a	8	2.695312e-01	2.695312e-01
372.164280	0.832409	dec_social_accept	0.832409	16.000000	n/a	8	1.250000e-01	1.250000e-01
372.164280	0.832409	dec_accept	0.832409	16.000000	n/a	8	1.250000e-01	1.250000e-01
372.164280	0.832409	dec_social_high	0.832409	16.000000	n/a	8	2.695312e-01	2.695312e-01
372.164280	0.832409	dec_social_accept_high	0.832409	16.000000	n/a	8	2.695312e-01	2.695312e-01
