onset	duration	trial_type	response_time	Endowment	Endowment_pmod	Decision	Decision_pmod	Offer_pmod
4.625723	2	cue_social	n/a	32	8	n/a	n/a	n/a
4.625723	2	cue_social_high	n/a	32	7	n/a	n/a	n/a
13.893377	2	cue_social	n/a	32	8	n/a	n/a	n/a
13.893377	2	cue_social_high	n/a	32	7	n/a	n/a	n/a
20.617302	2	cue_nonsocial	n/a	16	-9	n/a	n/a	n/a
20.617302	2	cue_nonsocial_low	n/a	16	-8	n/a	n/a	n/a
27.518179	2	cue_social	n/a	16	-8	n/a	n/a	n/a
27.518179	2	cue_social_low	n/a	16	-9	n/a	n/a	n/a
34.351776	2	cue_social	n/a	32	8	n/a	n/a	n/a
34.351776	2	cue_social_high	n/a	32	7	n/a	n/a	n/a
41.933422	2	cue_nonsocial	n/a	32	7	n/a	n/a	n/a
41.933422	2	cue_nonsocial_high	n/a	32	8	n/a	n/a	n/a
52.867325	2	cue_social	n/a	32	8	n/a	n/a	n/a
52.867325	2	cue_social_high	n/a	32	7	n/a	n/a	n/a
59.632910	2	cue_nonsocial	n/a	16	-9	n/a	n/a	n/a
59.632910	2	cue_nonsocial_low	n/a	16	-8	n/a	n/a	n/a
68.882965	2	cue_nonsocial	n/a	32	7	n/a	n/a	n/a
68.882965	2	cue_nonsocial_high	n/a	32	8	n/a	n/a	n/a
75.765680	2	cue_social	n/a	32	8	n/a	n/a	n/a
75.765680	2	cue_social_high	n/a	32	7	n/a	n/a	n/a
84.983090	2	cue_nonsocial	n/a	16	-9	n/a	n/a	n/a
84.983090	2	cue_nonsocial_low	n/a	16	-8	n/a	n/a	n/a
91.816505	2	cue_nonsocial	n/a	16	-9	n/a	n/a	n/a
91.816505	2	cue_nonsocial_low	n/a	16	-8	n/a	n/a	n/a
98.699905	2	cue_social	n/a	32	8	n/a	n/a	n/a
98.699905	2	cue_social_high	n/a	32	7	n/a	n/a	n/a
107.916115	2	cue_nonsocial	n/a	32	7	n/a	n/a	n/a
107.916115	2	cue_nonsocial_high	n/a	32	8	n/a	n/a	n/a
115.566180	2	cue_nonsocial	n/a	32	7	n/a	n/a	n/a
115.566180	2	cue_nonsocial_high	n/a	32	8	n/a	n/a	n/a
122.457000	2	cue_social	n/a	32	8	n/a	n/a	n/a
122.457000	2	cue_social_high	n/a	32	7	n/a	n/a	n/a
130.103320	2	cue_social	n/a	16	-8	n/a	n/a	n/a
130.103320	2	cue_social_low	n/a	16	-9	n/a	n/a	n/a
137.781510	2	cue_social	n/a	32	8	n/a	n/a	n/a
137.781510	2	cue_social_high	n/a	32	7	n/a	n/a	n/a
144.532670	2	cue_nonsocial	n/a	32	7	n/a	n/a	n/a
144.532670	2	cue_nonsocial_high	n/a	32	8	n/a	n/a	n/a
151.366100	2	cue_nonsocial	n/a	32	7	n/a	n/a	n/a
151.366100	2	cue_nonsocial_high	n/a	32	8	n/a	n/a	n/a
158.199570	2	cue_nonsocial	n/a	32	7	n/a	n/a	n/a
158.199570	2	cue_nonsocial_high	n/a	32	8	n/a	n/a	n/a
169.133270	2	cue_social	n/a	16	-8	n/a	n/a	n/a
169.133270	2	cue_social_low	n/a	16	-9	n/a	n/a	n/a
176.765230	2	cue_social	n/a	16	-8	n/a	n/a	n/a
176.765230	2	cue_social_low	n/a	16	-9	n/a	n/a	n/a
183.616260	2	cue_social	n/a	32	8	n/a	n/a	n/a
183.616260	2	cue_social_high	n/a	32	7	n/a	n/a	n/a
191.200200	2	cue_nonsocial	n/a	16	-9	n/a	n/a	n/a
191.200200	2	cue_nonsocial_low	n/a	16	-8	n/a	n/a	n/a
198.098850	2	cue_social	n/a	16	-8	n/a	n/a	n/a
198.098850	2	cue_social_low	n/a	16	-9	n/a	n/a	n/a
205.683180	2	cue_nonsocial	n/a	32	7	n/a	n/a	n/a
205.683180	2	cue_nonsocial_high	n/a	32	8	n/a	n/a	n/a
212.584640	2	cue_social	n/a	16	-8	n/a	n/a	n/a
212.584640	2	cue_social_low	n/a	16	-9	n/a	n/a	n/a
219.350520	2	cue_nonsocial	n/a	16	-9	n/a	n/a	n/a
219.350520	2	cue_nonsocial_low	n/a	16	-8	n/a	n/a	n/a
231.833050	2	cue_nonsocial	n/a	16	-9	n/a	n/a	n/a
231.833050	2	cue_nonsocial_low	n/a	16	-8	n/a	n/a	n/a
241.099750	2	cue_nonsocial	n/a	32	7	n/a	n/a	n/a
241.099750	2	cue_nonsocial_high	n/a	32	8	n/a	n/a	n/a
248.750350	2	cue_nonsocial	n/a	16	-9	n/a	n/a	n/a
248.750350	2	cue_nonsocial_low	n/a	16	-8	n/a	n/a	n/a
255.583310	2	cue_nonsocial	n/a	32	7	n/a	n/a	n/a
255.583310	2	cue_nonsocial_high	n/a	32	8	n/a	n/a	n/a
262.416320	2	cue_nonsocial	n/a	32	7	n/a	n/a	n/a
262.416320	2	cue_nonsocial_high	n/a	32	8	n/a	n/a	n/a
270.124150	2	cue_social	n/a	32	8	n/a	n/a	n/a
270.124150	2	cue_social_high	n/a	32	7	n/a	n/a	n/a
276.899540	2	cue_nonsocial	n/a	16	-9	n/a	n/a	n/a
276.899540	2	cue_nonsocial_low	n/a	16	-8	n/a	n/a	n/a
283.793180	2	cue_social	n/a	16	-8	n/a	n/a	n/a
283.793180	2	cue_social_low	n/a	16	-9	n/a	n/a	n/a
293.037600	2	cue_social	n/a	16	-8	n/a	n/a	n/a
293.037600	2	cue_social_low	n/a	16	-9	n/a	n/a	n/a
299.816500	2	cue_nonsocial	n/a	16	-9	n/a	n/a	n/a
299.816500	2	cue_nonsocial_low	n/a	16	-8	n/a	n/a	n/a
310.770320	2	cue_social	n/a	16	-8	n/a	n/a	n/a
310.770320	2	cue_social_low	n/a	16	-9	n/a	n/a	n/a
317.516080	2	cue_nonsocial	n/a	32	7	n/a	n/a	n/a
317.516080	2	cue_nonsocial_high	n/a	32	8	n/a	n/a	n/a
326.792270	2	cue_social	n/a	32	8	n/a	n/a	n/a
326.792270	2	cue_social_high	n/a	32	7	n/a	n/a	n/a
334.433070	2	cue_nonsocial	n/a	32	7	n/a	n/a	n/a
334.433070	2	cue_nonsocial_high	n/a	32	8	n/a	n/a	n/a
342.136960	2	cue_social	n/a	32	8	n/a	n/a	n/a
342.136960	2	cue_social_high	n/a	32	7	n/a	n/a	n/a
348.979370	2	cue_social	n/a	16	-8	n/a	n/a	n/a
348.979370	2	cue_social_low	n/a	16	-9	n/a	n/a	n/a
355.750150	2	cue_nonsocial	n/a	32	7	n/a	n/a	n/a
355.750150	2	cue_nonsocial_high	n/a	32	8	n/a	n/a	n/a
363.438400	2	cue_social	n/a	16	-8	n/a	n/a	n/a
363.438400	2	cue_social_low	n/a	16	-9	n/a	n/a	n/a
370.285130	2	cue_social	n/a	16	-8	n/a	n/a	n/a
370.285130	2	cue_social_low	n/a	16	-9	n/a	n/a	n/a
6.524870	1.315559	dec_social_choice	1.315559	32.000000	n/a	16	2.682292e-01	2.682292e-01
6.524870	1.315559	dec_choice	1.315559	32.000000	n/a	16	2.682292e-01	2.682292e-01
6.524870	1.315559	dec_social_accept	1.315559	32.000000	n/a	16	1.785714e-01	1.785714e-01
6.524870	1.315559	dec_accept	1.315559	32.000000	n/a	16	1.651786e-01	1.651786e-01
6.524870	1.315559	dec_social_high	1.315559	32.000000	n/a	16	2.682292e-01	2.682292e-01
6.524870	1.315559	dec_social_accept_high	1.315559	32.000000	n/a	16	2.682292e-01	2.682292e-01
15.790021	1.550803	dec_social_choice	1.550803	32.000000	n/a	3	-1.380208e-01	-1.380208e-01
15.790021	1.550803	dec_choice	1.550803	32.000000	n/a	3	-1.380208e-01	-1.380208e-01
15.790021	1.550803	dec_social_accept	1.550803	32.000000	n/a	3	-2.276786e-01	-2.276786e-01
15.790021	1.550803	dec_accept	1.550803	32.000000	n/a	3	-2.410714e-01	-2.410714e-01
15.790021	1.550803	dec_social_low	1.550803	32.000000	n/a	3	-1.380208e-01	-1.380208e-01
15.790021	1.550803	dec_social_accept_low	1.550803	32.000000	n/a	3	-1.380208e-01	-1.380208e-01
22.624165	0.882919	dec_nonsocial_choice	0.882919	16.000000	n/a	8	2.682292e-01	2.682292e-01
22.624165	0.882919	dec_choice	0.882919	16.000000	n/a	8	2.682292e-01	2.682292e-01
22.624165	0.882919	dec_nonsocial_accept	0.882919	16.000000	n/a	8	1.785714e-01	1.785714e-01
22.624165	0.882919	dec_accept	0.882919	16.000000	n/a	8	1.919643e-01	1.919643e-01
22.624165	0.882919	dec_nonsocial_high	0.882919	16.000000	n/a	8	2.682292e-01	2.682292e-01
22.624165	0.882919	dec_nonsocial_accept_high	0.882919	16.000000	n/a	8	1.919643e-01	1.919643e-01
29.458117	1.432301	dec_social_choice	1.432301	16.000000	n/a	0	0	-2.317708e-01
29.458117	1.432301	dec_choice	1.432301	16.000000	n/a	0	0	-2.317708e-01
29.458117	1.432301	dec_social_reject	1.432301	16.000000	n/a	0	0	1.875000e-02
29.458117	1.432301	dec_reject	1.432301	16.000000	n/a	0	0	3.750000e-02
29.458117	1.432301	dec_social_reject_low	1.432301	16.000000	n/a	2	-1.067708e-01	-2.317708e-01
36.290733	0.799856	dec_social_choice	0.799856	32.000000	n/a	16	2.682292e-01	2.682292e-01
36.290733	0.799856	dec_choice	0.799856	32.000000	n/a	16	2.682292e-01	2.682292e-01
36.290733	0.799856	dec_social_accept	0.799856	32.000000	n/a	16	1.785714e-01	1.785714e-01
36.290733	0.799856	dec_accept	0.799856	32.000000	n/a	16	1.651786e-01	1.651786e-01
36.290733	0.799856	dec_social_high	0.799856	32.000000	n/a	16	2.682292e-01	2.682292e-01
36.290733	0.799856	dec_social_accept_high	0.799856	32.000000	n/a	16	2.682292e-01	2.682292e-01
43.940872	1.166272	dec_nonsocial_choice	1.166272	32.000000	n/a	8	1.822917e-02	1.822917e-02
43.940872	1.166272	dec_choice	1.166272	32.000000	n/a	8	1.822917e-02	1.822917e-02
43.940872	1.166272	dec_nonsocial_accept	1.166272	32.000000	n/a	8	-7.142857e-02	-7.142857e-02
43.940872	1.166272	dec_accept	1.166272	32.000000	n/a	8	-5.803571e-02	-5.803571e-02
43.940872	1.166272	dec_nonsocial_high	1.166272	32.000000	n/a	8	1.822917e-02	1.822917e-02
43.940872	1.166272	dec_nonsocial_accept_high	1.166272	32.000000	n/a	8	-5.803571e-02	-5.803571e-02
54.806705	0.950320	dec_social_choice	0.950320	32.000000	n/a	16	2.682292e-01	2.682292e-01
54.806705	0.950320	dec_choice	0.950320	32.000000	n/a	16	2.682292e-01	2.682292e-01
54.806705	0.950320	dec_social_accept	0.950320	32.000000	n/a	16	1.785714e-01	1.785714e-01
54.806705	0.950320	dec_accept	0.950320	32.000000	n/a	16	1.651786e-01	1.651786e-01
54.806705	0.950320	dec_social_high	0.950320	32.000000	n/a	16	2.682292e-01	2.682292e-01
54.806705	0.950320	dec_social_accept_high	0.950320	32.000000	n/a	16	2.682292e-01	2.682292e-01
61.640705	0.850194	dec_nonsocial_choice	0.850194	16.000000	n/a	0	0	-2.317708e-01
61.640705	0.850194	dec_choice	0.850194	16.000000	n/a	0	0	-2.317708e-01
61.640705	0.850194	dec_nonsocial_reject	0.850194	16.000000	n/a	0	0	1.875000e-02
61.640705	0.850194	dec_reject	0.850194	16.000000	n/a	0	0	0
61.640705	0.850194	dec_nonsocial_reject_low	0.850194	16.000000	n/a	2	3.750000e-02	-8.750000e-02
70.890560	1.165988	dec_nonsocial_choice	1.165988	32.000000	n/a	0	0	-2.317708e-01
70.890560	1.165988	dec_choice	1.165988	32.000000	n/a	0	0	-2.317708e-01
70.890560	1.165988	dec_nonsocial_reject	1.165988	32.000000	n/a	0	0	-4.375000e-02
70.890560	1.165988	dec_reject	1.165988	32.000000	n/a	0	0	-6.250000e-02
70.890560	1.165988	dec_nonsocial_reject_low	1.165988	32.000000	n/a	2	-2.500000e-02	-8.750000e-02
77.724700	1.782398	dec_social_choice	1.782398	32.000000	n/a	3	-1.380208e-01	-1.380208e-01
77.724700	1.782398	dec_choice	1.782398	32.000000	n/a	3	-1.380208e-01	-1.380208e-01
77.724700	1.782398	dec_social_accept	1.782398	32.000000	n/a	3	-2.276786e-01	-2.276786e-01
77.724700	1.782398	dec_accept	1.782398	32.000000	n/a	3	-2.410714e-01	-2.410714e-01
77.724700	1.782398	dec_social_accept_low	1.782398	32.000000	n/a	3	-1.380208e-01	-1.380208e-01
86.990654	1.232703	dec_nonsocial_choice	1.232703	16.000000	n/a	2	-1.067708e-01	-1.067708e-01
86.990654	1.232703	dec_choice	1.232703	16.000000	n/a	2	-1.067708e-01	-1.067708e-01
86.990654	1.232703	dec_nonsocial_accept	1.232703	16.000000	n/a	2	-1.964286e-01	-1.964286e-01
86.990654	1.232703	dec_accept	1.232703	16.000000	n/a	2	-1.830357e-01	-1.830357e-01
86.990654	1.232703	dec_nonsocial_accept_low	1.232703	16.000000	n/a	2	-2.098214e-01	-2.098214e-01
93.824660	0.848844	dec_nonsocial_choice	0.848844	16.000000	n/a	0	0	-2.317708e-01
93.824660	0.848844	dec_choice	0.848844	16.000000	n/a	0	0	-2.317708e-01
93.824660	0.848844	dec_nonsocial_reject	0.848844	16.000000	n/a	0	0	3.937500e-01
93.824660	0.848844	dec_reject	0.848844	16.000000	n/a	0	0	3.750000e-01
93.824660	0.848844	dec_nonsocial_low	0.848844	16.000000	n/a	0	-2.317708e-01	-2.317708e-01
93.824660	0.848844	dec_nonsocial_reject_low	0.848844	16.000000	n/a	8	3.750000e-01	-1.250000e-01
100.656720	1.766657	dec_social_choice	1.766657	32.000000	n/a	0	0	-2.317708e-01
100.656720	1.766657	dec_choice	1.766657	32.000000	n/a	0	0	-2.317708e-01
100.656720	1.766657	dec_social_reject	1.766657	32.000000	n/a	0	0	-4.375000e-02
100.656720	1.766657	dec_reject	1.766657	32.000000	n/a	0	0	-2.500000e-02
100.656720	1.766657	dec_social_low	1.766657	32.000000	n/a	0	-2.317708e-01	-2.317708e-01
100.656720	1.766657	dec_social_reject_low	1.766657	32.000000	n/a	2	-1.692708e-01	-2.317708e-01
109.924640	1.282319	dec_nonsocial_choice	1.282319	32.000000	n/a	0	0	-2.317708e-01
109.924640	1.282319	dec_choice	1.282319	32.000000	n/a	0	0	-2.317708e-01
109.924640	1.282319	dec_nonsocial_reject	1.282319	32.000000	n/a	0	0	-4.375000e-02
109.924640	1.282319	dec_reject	1.282319	32.000000	n/a	0	0	-6.250000e-02
109.924640	1.282319	dec_nonsocial_reject_low	1.282319	32.000000	n/a	2	-2.500000e-02	-8.750000e-02
117.573654	1.000085	dec_nonsocial_choice	1.000085	32.000000	n/a	16	2.682292e-01	2.682292e-01
117.573654	1.000085	dec_choice	1.000085	32.000000	n/a	16	2.682292e-01	2.682292e-01
117.573654	1.000085	dec_nonsocial_accept	1.000085	32.000000	n/a	16	1.785714e-01	1.785714e-01
117.573654	1.000085	dec_accept	1.000085	32.000000	n/a	16	1.919643e-01	1.919643e-01
117.573654	1.000085	dec_nonsocial_high	1.000085	32.000000	n/a	16	2.682292e-01	2.682292e-01
117.573654	1.000085	dec_nonsocial_accept_high	1.000085	32.000000	n/a	16	1.919643e-01	1.919643e-01
124.407730	1.315607	dec_social_choice	1.315607	32.000000	n/a	8	1.822917e-02	1.822917e-02
124.407730	1.315607	dec_choice	1.315607	32.000000	n/a	8	1.822917e-02	1.822917e-02
124.407730	1.315607	dec_social_accept	1.315607	32.000000	n/a	8	-7.142857e-02	-7.142857e-02
124.407730	1.315607	dec_accept	1.315607	32.000000	n/a	8	-8.482143e-02	-8.482143e-02
124.407730	1.315607	dec_social_accept_high	1.315607	32.000000	n/a	8	1.822917e-02	1.822917e-02
132.057850	1.582553	dec_social_choice	1.582553	16.000000	n/a	4	1.822917e-02	1.822917e-02
132.057850	1.582553	dec_choice	1.582553	16.000000	n/a	4	1.822917e-02	1.822917e-02
132.057850	1.582553	dec_social_accept	1.582553	16.000000	n/a	4	-7.142857e-02	-7.142857e-02
132.057850	1.582553	dec_accept	1.582553	16.000000	n/a	4	-8.482143e-02	-8.482143e-02
132.057850	1.582553	dec_social_high	1.582553	16.000000	n/a	4	1.822917e-02	1.822917e-02
132.057850	1.582553	dec_social_accept_high	1.582553	16.000000	n/a	4	1.822917e-02	1.822917e-02
139.707660	1.016007	dec_social_choice	1.016007	32.000000	n/a	16	2.682292e-01	2.682292e-01
139.707660	1.016007	dec_choice	1.016007	32.000000	n/a	16	2.682292e-01	2.682292e-01
139.707660	1.016007	dec_social_accept	1.016007	32.000000	n/a	16	1.785714e-01	1.785714e-01
139.707660	1.016007	dec_accept	1.016007	32.000000	n/a	16	1.651786e-01	1.651786e-01
139.707660	1.016007	dec_social_high	1.016007	32.000000	n/a	16	2.682292e-01	2.682292e-01
139.707660	1.016007	dec_social_accept_high	1.016007	32.000000	n/a	16	2.682292e-01	2.682292e-01
146.540740	1.365851	dec_nonsocial_choice	1.365851	32.000000	n/a	0	0	-2.317708e-01
146.540740	1.365851	dec_choice	1.365851	32.000000	n/a	0	0	-2.317708e-01
146.540740	1.365851	dec_nonsocial_reject	1.365851	32.000000	n/a	0	0	-4.375000e-02
146.540740	1.365851	dec_reject	1.365851	32.000000	n/a	0	0	-6.250000e-02
146.540740	1.365851	dec_nonsocial_low	1.365851	32.000000	n/a	0	-2.317708e-01	-2.317708e-01
146.540740	1.365851	dec_nonsocial_reject_low	1.365851	32.000000	n/a	2	-6.250000e-02	-1.250000e-01
153.374050	1.198900	dec_nonsocial_choice	1.198900	32.000000	n/a	8	1.822917e-02	1.822917e-02
153.374050	1.198900	dec_choice	1.198900	32.000000	n/a	8	1.822917e-02	1.822917e-02
153.374050	1.198900	dec_nonsocial_accept	1.198900	32.000000	n/a	8	-7.142857e-02	-7.142857e-02
153.374050	1.198900	dec_accept	1.198900	32.000000	n/a	8	-5.803571e-02	-5.803571e-02
153.374050	1.198900	dec_nonsocial_high	1.198900	32.000000	n/a	8	1.822917e-02	1.822917e-02
153.374050	1.198900	dec_nonsocial_accept_high	1.198900	32.000000	n/a	8	-5.803571e-02	-5.803571e-02
160.207260	1.949583	dec_nonsocial_choice	1.949583	32.000000	n/a	3	-1.380208e-01	-1.380208e-01
160.207260	1.949583	dec_choice	1.949583	32.000000	n/a	3	-1.380208e-01	-1.380208e-01
160.207260	1.949583	dec_nonsocial_accept	1.949583	32.000000	n/a	3	-2.276786e-01	-2.276786e-01
160.207260	1.949583	dec_accept	1.949583	32.000000	n/a	3	-2.142857e-01	-2.142857e-01
160.207260	1.949583	dec_nonsocial_accept_low	1.949583	32.000000	n/a	3	-2.410714e-01	-2.410714e-01
171.074400	1.698705	dec_social_choice	1.698705	16.000000	n/a	0	0	-2.317708e-01
171.074400	1.698705	dec_choice	1.698705	16.000000	n/a	0	0	-2.317708e-01
171.074400	1.698705	dec_social_reject	1.698705	16.000000	n/a	0	0	1.875000e-02
171.074400	1.698705	dec_reject	1.698705	16.000000	n/a	0	0	3.750000e-02
171.074400	1.698705	dec_social_reject_low	1.698705	16.000000	n/a	2	-1.067708e-01	-2.317708e-01
178.724600	1.299076	dec_social_choice	1.299076	16.000000	n/a	8	2.682292e-01	2.682292e-01
178.724600	1.299076	dec_choice	1.299076	16.000000	n/a	8	2.682292e-01	2.682292e-01
178.724600	1.299076	dec_social_accept	1.299076	16.000000	n/a	8	1.785714e-01	1.785714e-01
178.724600	1.299076	dec_accept	1.299076	16.000000	n/a	8	1.651786e-01	1.651786e-01
178.724600	1.299076	dec_social_accept_high	1.299076	16.000000	n/a	8	2.682292e-01	2.682292e-01
185.556380	1.300272	dec_social_choice	1.300272	32.000000	n/a	0	0	-2.317708e-01
185.556380	1.300272	dec_choice	1.300272	32.000000	n/a	0	0	-2.317708e-01
185.556380	1.300272	dec_social_reject	1.300272	32.000000	n/a	0	0	-4.375000e-02
185.556380	1.300272	dec_reject	1.300272	32.000000	n/a	0	0	-2.500000e-02
185.556380	1.300272	dec_social_reject_low	1.300272	32.000000	n/a	2	-1.692708e-01	-2.317708e-01
193.207020	1.216244	dec_nonsocial_choice	1.216244	16.000000	n/a	4	1.822917e-02	1.822917e-02
193.207020	1.216244	dec_choice	1.216244	16.000000	n/a	4	1.822917e-02	1.822917e-02
193.207020	1.216244	dec_nonsocial_accept	1.216244	16.000000	n/a	4	-7.142857e-02	-7.142857e-02
193.207020	1.216244	dec_accept	1.216244	16.000000	n/a	4	-5.803571e-02	-5.803571e-02
193.207020	1.216244	dec_nonsocial_accept_high	1.216244	16.000000	n/a	4	-8.482143e-02	-8.482143e-02
200.040340	1.449949	dec_social_choice	1.449949	16.000000	n/a	0	0	-2.317708e-01
200.040340	1.449949	dec_choice	1.449949	16.000000	n/a	0	0	-2.317708e-01
200.040340	1.449949	dec_social_reject	1.449949	16.000000	n/a	0	0	-4.375000e-02
200.040340	1.449949	dec_reject	1.449949	16.000000	n/a	0	0	-2.500000e-02
200.040340	1.449949	dec_social_reject_low	1.449949	16.000000	n/a	1	-1.692708e-01	-2.317708e-01
207.690410	1.082885	dec_nonsocial_choice	1.082885	32.000000	n/a	16	2.682292e-01	2.682292e-01
207.690410	1.082885	dec_choice	1.082885	32.000000	n/a	16	2.682292e-01	2.682292e-01
207.690410	1.082885	dec_nonsocial_accept	1.082885	32.000000	n/a	16	1.785714e-01	1.785714e-01
207.690410	1.082885	dec_accept	1.082885	32.000000	n/a	16	1.919643e-01	1.919643e-01
207.690410	1.082885	dec_nonsocial_high	1.082885	32.000000	n/a	16	2.682292e-01	2.682292e-01
207.690410	1.082885	dec_nonsocial_accept_high	1.082885	32.000000	n/a	16	1.919643e-01	1.919643e-01
214.523560	1.149968	dec_social_choice	1.149968	16.000000	n/a	0	0	-2.317708e-01
214.523560	1.149968	dec_choice	1.149968	16.000000	n/a	0	0	-2.317708e-01
214.523560	1.149968	dec_social_reject	1.149968	16.000000	n/a	0	0	1.875000e-02
214.523560	1.149968	dec_reject	1.149968	16.000000	n/a	0	0	3.750000e-02
214.523560	1.149968	dec_social_low	1.149968	16.000000	n/a	0	-2.317708e-01	-2.317708e-01
214.523560	1.149968	dec_social_reject_low	1.149968	16.000000	n/a	2	-1.067708e-01	-2.317708e-01
221.356080	1.500286	dec_nonsocial_choice	1.500286	16.000000	n/a	0	0	-2.317708e-01
221.356080	1.500286	dec_choice	1.500286	16.000000	n/a	0	0	-2.317708e-01
221.356080	1.500286	dec_nonsocial_reject	1.500286	16.000000	n/a	0	0	1.875000e-02
221.356080	1.500286	dec_reject	1.500286	16.000000	n/a	0	0	0
221.356080	1.500286	dec_nonsocial_reject_low	1.500286	16.000000	n/a	2	3.750000e-02	-8.750000e-02
233.840620	1.099527	dec_nonsocial_choice	1.099527	16.000000	n/a	0	0	-2.317708e-01
233.840620	1.099527	dec_choice	1.099527	16.000000	n/a	0	0	-2.317708e-01
233.840620	1.099527	dec_nonsocial_reject	1.099527	16.000000	n/a	0	0	-4.375000e-02
233.840620	1.099527	dec_reject	1.099527	16.000000	n/a	0	0	-6.250000e-02
233.840620	1.099527	dec_nonsocial_low	1.099527	16.000000	n/a	0	-2.317708e-01	-2.317708e-01
233.840620	1.099527	dec_nonsocial_reject_low	1.099527	16.000000	n/a	1	-6.250000e-02	-1.250000e-01
243.107510	1.149113	dec_nonsocial_choice	1.149113	32.000000	n/a	0	0	-2.317708e-01
243.107510	1.149113	dec_choice	1.149113	32.000000	n/a	0	0	-2.317708e-01
243.107510	1.149113	dec_nonsocial_reject	1.149113	32.000000	n/a	0	0	-4.375000e-02
243.107510	1.149113	dec_reject	1.149113	32.000000	n/a	0	0	-6.250000e-02
243.107510	1.149113	dec_nonsocial_low	1.149113	32.000000	n/a	0	-2.317708e-01	-2.317708e-01
243.107510	1.149113	dec_nonsocial_reject_low	1.149113	32.000000	n/a	2	-6.250000e-02	-1.250000e-01
250.757490	1.065525	dec_nonsocial_choice	1.065525	16.000000	n/a	0	0	-2.317708e-01
250.757490	1.065525	dec_choice	1.065525	16.000000	n/a	0	0	-2.317708e-01
250.757490	1.065525	dec_nonsocial_reject	1.065525	16.000000	n/a	0	0	1.875000e-02
250.757490	1.065525	dec_reject	1.065525	16.000000	n/a	0	0	0
250.757490	1.065525	dec_nonsocial_low	1.065525	16.000000	n/a	0	-2.317708e-01	-2.317708e-01
250.757490	1.065525	dec_nonsocial_reject_low	1.065525	16.000000	n/a	2	0	-1.250000e-01
257.589540	2.016397	dec_nonsocial_choice	2.016397	32.000000	n/a	3	-1.380208e-01	-1.380208e-01
257.589540	2.016397	dec_choice	2.016397	32.000000	n/a	3	-1.380208e-01	-1.380208e-01
257.589540	2.016397	dec_nonsocial_accept	2.016397	32.000000	n/a	3	-2.276786e-01	-2.276786e-01
257.589540	2.016397	dec_accept	2.016397	32.000000	n/a	3	-2.142857e-01	-2.142857e-01
257.589540	2.016397	dec_nonsocial_low	2.016397	32.000000	n/a	3	-1.380208e-01	-1.380208e-01
257.589540	2.016397	dec_nonsocial_accept_low	2.016397	32.000000	n/a	3	-2.142857e-01	-2.142857e-01
264.422970	1.133521	dec_nonsocial_choice	1.133521	32.000000	n/a	0	0	-2.317708e-01
264.422970	1.133521	dec_choice	1.133521	32.000000	n/a	0	0	-2.317708e-01
264.422970	1.133521	dec_nonsocial_reject	1.133521	32.000000	n/a	0	0	-4.375000e-02
264.422970	1.133521	dec_reject	1.133521	32.000000	n/a	0	0	-6.250000e-02
264.422970	1.133521	dec_nonsocial_low	1.133521	32.000000	n/a	0	-2.317708e-01	-2.317708e-01
264.422970	1.133521	dec_nonsocial_reject_low	1.133521	32.000000	n/a	2	-6.250000e-02	-1.250000e-01
272.073360	1.399911	dec_social_choice	1.399911	32.000000	n/a	0	0	-2.317708e-01
272.073360	1.399911	dec_choice	1.399911	32.000000	n/a	0	0	-2.317708e-01
272.073360	1.399911	dec_social_reject	1.399911	32.000000	n/a	0	0	-4.375000e-02
272.073360	1.399911	dec_reject	1.399911	32.000000	n/a	0	0	-2.500000e-02
272.073360	1.399911	dec_social_reject_low	1.399911	32.000000	n/a	2	-1.692708e-01	-2.317708e-01
278.907230	1.249371	dec_nonsocial_choice	1.249371	16.000000	n/a	4	1.822917e-02	1.822917e-02
278.907230	1.249371	dec_choice	1.249371	16.000000	n/a	4	1.822917e-02	1.822917e-02
278.907230	1.249371	dec_nonsocial_accept	1.249371	16.000000	n/a	4	-7.142857e-02	-7.142857e-02
278.907230	1.249371	dec_accept	1.249371	16.000000	n/a	4	-5.803571e-02	-5.803571e-02
278.907230	1.249371	dec_nonsocial_accept_high	1.249371	16.000000	n/a	4	-8.482143e-02	-8.482143e-02
285.739530	1.300444	dec_social_choice	1.300444	16.000000	n/a	4	1.822917e-02	1.822917e-02
285.739530	1.300444	dec_choice	1.300444	16.000000	n/a	4	1.822917e-02	1.822917e-02
285.739530	1.300444	dec_social_accept	1.300444	16.000000	n/a	4	-7.142857e-02	-7.142857e-02
285.739530	1.300444	dec_accept	1.300444	16.000000	n/a	4	-8.482143e-02	-8.482143e-02
285.739530	1.300444	dec_social_accept_high	1.300444	16.000000	n/a	4	1.822917e-02	1.822917e-02
294.990360	1.399712	dec_social_choice	1.399712	16.000000	n/a	4	1.822917e-02	1.822917e-02
294.990360	1.399712	dec_choice	1.399712	16.000000	n/a	4	1.822917e-02	1.822917e-02
294.990360	1.399712	dec_social_accept	1.399712	16.000000	n/a	4	-7.142857e-02	-7.142857e-02
294.990360	1.399712	dec_accept	1.399712	16.000000	n/a	4	-8.482143e-02	-8.482143e-02
294.990360	1.399712	dec_social_accept_high	1.399712	16.000000	n/a	4	1.822917e-02	1.822917e-02
301.823330	1.483074	dec_nonsocial_choice	1.483074	16.000000	n/a	4	1.822917e-02	1.822917e-02
301.823330	1.483074	dec_choice	1.483074	16.000000	n/a	4	1.822917e-02	1.822917e-02
301.823330	1.483074	dec_nonsocial_accept	1.483074	16.000000	n/a	4	-7.142857e-02	-7.142857e-02
301.823330	1.483074	dec_accept	1.483074	16.000000	n/a	4	-5.803571e-02	-5.803571e-02
301.823330	1.483074	dec_nonsocial_high	1.483074	16.000000	n/a	4	1.822917e-02	1.822917e-02
301.823330	1.483074	dec_nonsocial_accept_high	1.483074	16.000000	n/a	4	-5.803571e-02	-5.803571e-02
312.688480	1.084487	dec_social_choice	1.084487	16.000000	n/a	0	0	-2.317708e-01
312.688480	1.084487	dec_choice	1.084487	16.000000	n/a	0	0	-2.317708e-01
312.688480	1.084487	dec_social_reject	1.084487	16.000000	n/a	0	0	-4.375000e-02
312.688480	1.084487	dec_reject	1.084487	16.000000	n/a	0	0	-2.500000e-02
312.688480	1.084487	dec_social_low	1.084487	16.000000	n/a	0	-2.317708e-01	-2.317708e-01
312.688480	1.084487	dec_social_reject_low	1.084487	16.000000	n/a	1	-1.692708e-01	-2.317708e-01
319.523500	1.315933	dec_nonsocial_choice	1.315933	32.000000	n/a	8	1.822917e-02	1.822917e-02
319.523500	1.315933	dec_choice	1.315933	32.000000	n/a	8	1.822917e-02	1.822917e-02
319.523500	1.315933	dec_nonsocial_accept	1.315933	32.000000	n/a	8	-7.142857e-02	-7.142857e-02
319.523500	1.315933	dec_accept	1.315933	32.000000	n/a	8	-5.803571e-02	-5.803571e-02
319.523500	1.315933	dec_nonsocial_accept_high	1.315933	32.000000	n/a	8	-8.482143e-02	-8.482143e-02
328.790600	1.182732	dec_social_choice	1.182732	32.000000	n/a	8	1.822917e-02	1.822917e-02
328.790600	1.182732	dec_choice	1.182732	32.000000	n/a	8	1.822917e-02	1.822917e-02
328.790600	1.182732	dec_social_accept	1.182732	32.000000	n/a	8	-7.142857e-02	-7.142857e-02
328.790600	1.182732	dec_accept	1.182732	32.000000	n/a	8	-8.482143e-02	-8.482143e-02
328.790600	1.182732	dec_social_accept_high	1.182732	32.000000	n/a	8	1.822917e-02	1.822917e-02
336.440220	1.415713	dec_nonsocial_choice	1.415713	32.000000	n/a	16	2.682292e-01	2.682292e-01
336.440220	1.415713	dec_choice	1.415713	32.000000	n/a	16	2.682292e-01	2.682292e-01
336.440220	1.415713	dec_nonsocial_accept	1.415713	32.000000	n/a	16	1.785714e-01	1.785714e-01
336.440220	1.415713	dec_accept	1.415713	32.000000	n/a	16	1.919643e-01	1.919643e-01
336.440220	1.415713	dec_nonsocial_accept_high	1.415713	32.000000	n/a	16	1.651786e-01	1.651786e-01
344.090060	1.316389	dec_social_choice	1.316389	32.000000	n/a	0	0	-2.317708e-01
344.090060	1.316389	dec_choice	1.316389	32.000000	n/a	0	0	-2.317708e-01
344.090060	1.316389	dec_social_reject	1.316389	32.000000	n/a	0	0	-4.375000e-02
344.090060	1.316389	dec_reject	1.316389	32.000000	n/a	0	0	-2.500000e-02
344.090060	1.316389	dec_social_low	1.316389	32.000000	n/a	0	-2.317708e-01	-2.317708e-01
344.090060	1.316389	dec_social_reject_low	1.316389	32.000000	n/a	2	-1.692708e-01	-2.317708e-01
350.922670	1.316189	dec_social_choice	1.316189	16.000000	n/a	4	1.822917e-02	1.822917e-02
350.922670	1.316189	dec_choice	1.316189	16.000000	n/a	4	1.822917e-02	1.822917e-02
350.922670	1.316189	dec_social_accept	1.316189	16.000000	n/a	4	-7.142857e-02	-7.142857e-02
350.922670	1.316189	dec_accept	1.316189	16.000000	n/a	4	-8.482143e-02	-8.482143e-02
350.922670	1.316189	dec_social_high	1.316189	16.000000	n/a	4	1.822917e-02	1.822917e-02
350.922670	1.316189	dec_social_accept_high	1.316189	16.000000	n/a	4	1.822917e-02	1.822917e-02
357.756740	1.616046	dec_nonsocial_choice	1.616046	32.000000	n/a	16	2.682292e-01	2.682292e-01
357.756740	1.616046	dec_choice	1.616046	32.000000	n/a	16	2.682292e-01	2.682292e-01
357.756740	1.616046	dec_nonsocial_accept	1.616046	32.000000	n/a	16	1.785714e-01	1.785714e-01
357.756740	1.616046	dec_accept	1.616046	32.000000	n/a	16	1.919643e-01	1.919643e-01
357.756740	1.616046	dec_nonsocial_high	1.616046	32.000000	n/a	16	2.682292e-01	2.682292e-01
357.756740	1.616046	dec_nonsocial_accept_high	1.616046	32.000000	n/a	16	1.919643e-01	1.919643e-01
365.407400	1.682305	dec_social_choice	1.682305	16.000000	n/a	0	0	-2.317708e-01
365.407400	1.682305	dec_choice	1.682305	16.000000	n/a	0	0	-2.317708e-01
365.407400	1.682305	dec_social_reject	1.682305	16.000000	n/a	0	0	1.875000e-02
365.407400	1.682305	dec_reject	1.682305	16.000000	n/a	0	0	3.750000e-02
365.407400	1.682305	dec_social_low	1.682305	16.000000	n/a	0	-2.317708e-01	-2.317708e-01
365.407400	1.682305	dec_social_reject_low	1.682305	16.000000	n/a	2	-1.067708e-01	-2.317708e-01
372.240480	1.249077	dec_social_choice	1.249077	16.000000	n/a	8	2.682292e-01	2.682292e-01
372.240480	1.249077	dec_choice	1.249077	16.000000	n/a	8	2.682292e-01	2.682292e-01
372.240480	1.249077	dec_social_accept	1.249077	16.000000	n/a	8	1.785714e-01	1.785714e-01
372.240480	1.249077	dec_accept	1.249077	16.000000	n/a	8	1.651786e-01	1.651786e-01
372.240480	1.249077	dec_social_accept_high	1.249077	16.000000	n/a	8	2.682292e-01	2.682292e-01
