onset	duration	trial_type	response_time	Endowment	Decision	Offer
4.508745	2	cue_nonsocial	n/a	32	n/a	n/a
4.508745	2	cue_nonsocial_high	n/a	32	n/a	n/a
6.515035	0.983716	dec_nonsocial_high	0.983716	32	n/a	16
6.515035	0.983716	dec_nonsocial_high_accept	0.983716	32	accept	16
11.341892	2	cue_nonsocial	n/a	32	n/a	n/a
11.341892	2	cue_nonsocial_high	n/a	32	n/a	n/a
13.349481	1.132643	dec_nonsocial_high	1.132643	32	n/a	8
13.349481	1.132643	dec_nonsocial_high_accept	1.132643	32	accept	8
18.991940	2	cue_nonsocial	n/a	16	n/a	n/a
18.991940	2	cue_nonsocial_low	n/a	16	n/a	n/a
20.998981	1.383242	dec_nonsocial_low	1.383242	16	n/a	2
20.998981	1.383242	dec_nonsocial_low_reject	1.383242	16	reject	2
25.869180	2	cue_social	n/a	16	n/a	n/a
25.869180	2	cue_social_low	n/a	16	n/a	n/a
27.831993	1.033887	dec_social_low	1.033887	16	n/a	8
27.831993	1.033887	dec_social_low_accept	1.033887	16	accept	8
32.716740	2	cue_social	n/a	16	n/a	n/a
32.716740	2	cue_social_low	n/a	16	n/a	n/a
34.665627	1.216051	dec_social_low	1.216051	16	n/a	8
34.665627	1.216051	dec_social_low_accept	1.216051	16	accept	8
41.908540	2	cue_nonsocial	n/a	32	n/a	n/a
41.908540	2	cue_nonsocial_high	n/a	32	n/a	n/a
43.916180	1.249524	dec_nonsocial_high	1.249524	32	n/a	8
43.916180	1.249524	dec_nonsocial_high_accept	1.249524	32	accept	8
49.558327	2	cue_nonsocial	n/a	32	n/a	n/a
49.558327	2	cue_nonsocial_high	n/a	32	n/a	n/a
51.564957	1.050523	dec_nonsocial_high	1.050523	32	n/a	16
51.564957	1.050523	dec_nonsocial_high_accept	1.050523	32	accept	16
56.391605	2	cue_nonsocial	n/a	16	n/a	n/a
56.391605	2	cue_nonsocial_low	n/a	16	n/a	n/a
58.398476	1.083620	dec_nonsocial_low	1.083620	16	n/a	2
58.398476	1.083620	dec_nonsocial_low_reject	1.083620	16	reject	2
65.726390	2	cue_social	n/a	16	n/a	n/a
65.726390	2	cue_social_low	n/a	16	n/a	n/a
67.648155	1.017119	dec_social_low	1.017119	16	n/a	2
67.648155	1.017119	dec_social_low_reject	1.017119	16	reject	2
73.343700	2	cue_social	n/a	32	n/a	n/a
73.343700	2	cue_social_high	n/a	32	n/a	n/a
75.281920	1.283363	dec_social_high	1.283363	32	n/a	8
75.281920	1.283363	dec_social_high_accept	1.283363	32	accept	8
82.621150	2	cue_social	n/a	16	n/a	n/a
82.621150	2	cue_social_low	n/a	16	n/a	n/a
84.531920	0.983387	dec_social_low	0.983387	16	n/a	2
84.531920	0.983387	dec_social_low_reject	0.983387	16	reject	2
89.358246	2	cue_nonsocial	n/a	32	n/a	n/a
89.358246	2	cue_nonsocial_high	n/a	32	n/a	n/a
91.364690	1.216460	dec_nonsocial_high	1.216460	32	n/a	8
91.364690	1.216460	dec_nonsocial_high_accept	1.216460	32	accept	8
96.191605	2	cue_nonsocial	n/a	32	n/a	n/a
96.191605	2	cue_nonsocial_high	n/a	32	n/a	n/a
98.199165	1.249262	dec_nonsocial_high	1.249262	32	n/a	3
98.199165	1.249262	dec_nonsocial_high_reject	1.249262	32	reject	3
105.458130	2	cue_nonsocial	n/a	32	n/a	n/a
105.458130	2	cue_nonsocial_high	n/a	32	n/a	n/a
107.465320	0.899478	dec_nonsocial_high	0.899478	32	n/a	8
107.465320	0.899478	dec_nonsocial_high_accept	0.899478	32	accept	8
112.291390	2	cue_nonsocial	n/a	32	n/a	n/a
112.291390	2	cue_nonsocial_high	n/a	32	n/a	n/a
114.298850	1.215766	dec_nonsocial_high	1.215766	32	n/a	2
114.298850	1.215766	dec_nonsocial_high_reject	1.215766	32	reject	2
121.606670	2	cue_social	n/a	16	n/a	n/a
121.606670	2	cue_social_low	n/a	16	n/a	n/a
123.565890	0.999036	dec_social_low	0.999036	16	n/a	8
123.565890	0.999036	dec_social_low_accept	0.999036	16	accept	8
128.391500	2	cue_nonsocial	n/a	16	n/a	n/a
128.391500	2	cue_nonsocial_low	n/a	16	n/a	n/a
130.398440	0.966053	dec_nonsocial_low	0.966053	16	n/a	8
130.398440	0.966053	dec_nonsocial_low_accept	0.966053	16	accept	8
139.341130	2	cue_social	n/a	16	n/a	n/a
139.341130	2	cue_social_low	n/a	16	n/a	n/a
141.264420	0.900334	dec_social_low	0.900334	16	n/a	2
141.264420	0.900334	dec_social_low_reject	0.900334	16	reject	2
146.178590	2	cue_social	n/a	32	n/a	n/a
146.178590	2	cue_social_high	n/a	32	n/a	n/a
148.098020	1.083024	dec_social_high	1.083024	32	n/a	8
148.098020	1.083024	dec_social_high_accept	1.083024	32	accept	8
152.925190	2	cue_nonsocial	n/a	32	n/a	n/a
152.925190	2	cue_nonsocial_high	n/a	32	n/a	n/a
154.931750	1.016334	dec_nonsocial_high	1.016334	32	n/a	8
154.931750	1.016334	dec_nonsocial_high_accept	1.016334	32	accept	8
160.622710	2	cue_social	n/a	16	n/a	n/a
160.622710	2	cue_social_low	n/a	16	n/a	n/a
162.581970	0.915862	dec_social_low	0.915862	16	n/a	1
162.581970	0.915862	dec_social_low_reject	0.915862	16	reject	1
168.223860	2	cue_nonsocial	n/a	16	n/a	n/a
168.223860	2	cue_nonsocial_low	n/a	16	n/a	n/a
170.231690	0.933317	dec_nonsocial_low	0.933317	16	n/a	2
170.231690	0.933317	dec_nonsocial_low_reject	0.933317	16	reject	2
175.093120	2	cue_social	n/a	32	n/a	n/a
175.093120	2	cue_social_high	n/a	32	n/a	n/a
177.063890	1.251085	dec_social_high	1.251085	32	n/a	2
177.063890	1.251085	dec_social_high_reject	1.251085	32	reject	2
181.925980	2	cue_social	n/a	32	n/a	n/a
181.925980	2	cue_social_high	n/a	32	n/a	n/a
183.897170	1.033767	dec_social_high	1.033767	32	n/a	2
183.897170	1.033767	dec_social_high_reject	1.033767	32	reject	2
188.803100	2	cue_social	n/a	32	n/a	n/a
188.803100	2	cue_social_high	n/a	32	n/a	n/a
190.731110	1.317520	dec_social_high	1.317520	32	n/a	16
190.731110	1.317520	dec_social_high_accept	1.317520	32	accept	16
199.590530	2	cue_nonsocial	n/a	32	n/a	n/a
199.590530	2	cue_nonsocial_high	n/a	32	n/a	n/a
201.597870	1.083736	dec_nonsocial_high	1.083736	32	n/a	16
201.597870	1.083736	dec_nonsocial_high_accept	1.083736	32	accept	16
207.262560	2	cue_social	n/a	32	n/a	n/a
207.262560	2	cue_social_high	n/a	32	n/a	n/a
209.247800	0.967336	dec_social_high	0.967336	32	n/a	3
209.247800	0.967336	dec_social_high_accept	0.967336	32	accept	3
214.873800	2	cue_nonsocial	n/a	32	n/a	n/a
214.873800	2	cue_nonsocial_high	n/a	32	n/a	n/a
216.881520	1.083388	dec_nonsocial_high	1.083388	32	n/a	2
216.881520	1.083388	dec_nonsocial_high_reject	1.083388	32	reject	2
221.763030	2	cue_social	n/a	16	n/a	n/a
221.763030	2	cue_social_low	n/a	16	n/a	n/a
223.714800	1.316346	dec_social_low	1.316346	16	n/a	2
223.714800	1.316346	dec_social_low_reject	1.316346	16	reject	2
228.599560	2	cue_social	n/a	16	n/a	n/a
228.599560	2	cue_social_low	n/a	16	n/a	n/a
230.548950	1.432761	dec_social_low	1.432761	16	n/a	8
230.548950	1.432761	dec_social_low_accept	1.432761	16	accept	8
235.374420	2	cue_nonsocial	n/a	16	n/a	n/a
235.374420	2	cue_nonsocial_low	n/a	16	n/a	n/a
237.381550	1.149996	dec_nonsocial_low	1.149996	16	n/a	4
237.381550	1.149996	dec_nonsocial_low_accept	1.149996	16	accept	4
242.223710	2	cue_social	n/a	32	n/a	n/a
242.223710	2	cue_social_high	n/a	32	n/a	n/a
244.214770	1.182880	dec_social_high	1.182880	32	n/a	8
244.214770	1.182880	dec_social_high_accept	1.182880	32	accept	8
249.912280	2	cue_social	n/a	32	n/a	n/a
249.912280	2	cue_social_high	n/a	32	n/a	n/a
251.863800	1.034047	dec_social_high	1.034047	32	n/a	2
251.863800	1.034047	dec_social_high_reject	1.034047	32	reject	2
256.750240	2	cue_social	n/a	32	n/a	n/a
256.750240	2	cue_social_high	n/a	32	n/a	n/a
258.697900	1.315796	dec_social_high	1.315796	32	n/a	8
258.697900	1.315796	dec_social_high_accept	1.315796	32	accept	8
263.524320	2	cue_nonsocial	n/a	32	n/a	n/a
263.524320	2	cue_nonsocial_high	n/a	32	n/a	n/a
265.530550	1.134172	dec_nonsocial_high	1.134172	32	n/a	2
265.530550	1.134172	dec_nonsocial_high_reject	1.134172	32	reject	2
272.871700	2	cue_social	n/a	16	n/a	n/a
272.871700	2	cue_social_low	n/a	16	n/a	n/a
274.781430	1.183142	dec_social_low	1.183142	16	n/a	4
274.781430	1.183142	dec_social_low_accept	1.183142	16	accept	4
279.607540	2	cue_nonsocial	n/a	16	n/a	n/a
279.607540	2	cue_nonsocial_low	n/a	16	n/a	n/a
281.613900	1.283687	dec_nonsocial_low	1.283687	16	n/a	8
281.613900	1.283687	dec_nonsocial_low_accept	1.283687	16	accept	8
286.502750	2	cue_social	n/a	32	n/a	n/a
286.502750	2	cue_social_high	n/a	32	n/a	n/a
288.447720	1.066553	dec_social_high	1.066553	32	n/a	2
288.447720	1.066553	dec_social_high_reject	1.066553	32	reject	2
294.141050	2	cue_social	n/a	32	n/a	n/a
294.141050	2	cue_social_high	n/a	32	n/a	n/a
296.096680	1.334593	dec_social_high	1.334593	32	n/a	3
296.096680	1.334593	dec_social_high_reject	1.334593	32	reject	3
306.574220	2	cue_nonsocial	n/a	16	n/a	n/a
306.574220	2	cue_nonsocial_low	n/a	16	n/a	n/a
308.580500	1.284579	dec_nonsocial_low	1.284579	16	n/a	8
308.580500	1.284579	dec_nonsocial_low_accept	1.284579	16	accept	8
313.407300	2	cue_nonsocial	n/a	16	n/a	n/a
313.407300	2	cue_nonsocial_low	n/a	16	n/a	n/a
315.414730	1.133165	dec_nonsocial_low	1.133165	16	n/a	2
315.414730	1.133165	dec_nonsocial_low_reject	1.133165	16	reject	2
320.289150	2	cue_social	n/a	16	n/a	n/a
320.289150	2	cue_social_low	n/a	16	n/a	n/a
322.247740	1.116305	dec_social_low	1.116305	16	n/a	8
322.247740	1.116305	dec_social_low_accept	1.116305	16	accept	8
327.890930	2	cue_nonsocial	n/a	16	n/a	n/a
327.890930	2	cue_nonsocial_low	n/a	16	n/a	n/a
329.897670	1.533250	dec_nonsocial_low	1.533250	16	n/a	1
329.897670	1.533250	dec_nonsocial_low_reject	1.533250	16	reject	1
334.724150	2	cue_nonsocial	n/a	32	n/a	n/a
334.724150	2	cue_nonsocial_high	n/a	32	n/a	n/a
336.731800	1.082790	dec_nonsocial_high	1.082790	32	n/a	2
336.731800	1.082790	dec_nonsocial_high_reject	1.082790	32	reject	2
343.990880	2	cue_nonsocial	n/a	32	n/a	n/a
343.990880	2	cue_nonsocial_high	n/a	32	n/a	n/a
345.997650	1.783501	dec_nonsocial_high	1.783501	32	n/a	3
345.997650	1.783501	dec_nonsocial_high_accept	1.783501	32	accept	3
354.857480	2	cue_nonsocial	n/a	32	n/a	n/a
354.857480	2	cue_nonsocial_high	n/a	32	n/a	n/a
356.863860	1.183409	dec_nonsocial_high	1.183409	32	n/a	2
356.863860	1.183409	dec_nonsocial_high_reject	1.183409	32	reject	2
362.541800	2	cue_social	n/a	16	n/a	n/a
362.541800	2	cue_social_low	n/a	16	n/a	n/a
364.497650	1.265912	dec_social_low	1.265912	16	n/a	4
364.497650	1.265912	dec_social_low_accept	1.265912	16	accept	4
370.195950	2	cue_social	n/a	16	n/a	n/a
370.195950	2	cue_social_low	n/a	16	n/a	n/a
372.146760	1.200732	dec_social_low	1.200732	16	n/a	1
372.146760	1.200732	dec_social_low_reject	1.200732	16	reject	1
