onset	duration	trial_type	response_time	Endowment	Endowment_pmod	Decision	Decision_pmod	Offer_pmod
4.508745	2	cue_nonsocial	n/a	32	6	n/a	n/a	n/a
4.508745	2	cue_nonsocial_high	n/a	32	9	n/a	n/a	n/a
11.341892	2	cue_nonsocial	n/a	32	6	n/a	n/a	n/a
11.341892	2	cue_nonsocial_high	n/a	32	9	n/a	n/a	n/a
18.991940	2	cue_nonsocial	n/a	16	-10	n/a	n/a	n/a
18.991940	2	cue_nonsocial_low	n/a	16	-7	n/a	n/a	n/a
25.869180	2	cue_social	n/a	16	-7	n/a	n/a	n/a
25.869180	2	cue_social_low	n/a	16	-10	n/a	n/a	n/a
32.716740	2	cue_social	n/a	16	-7	n/a	n/a	n/a
32.716740	2	cue_social_low	n/a	16	-10	n/a	n/a	n/a
41.908540	2	cue_nonsocial	n/a	32	6	n/a	n/a	n/a
41.908540	2	cue_nonsocial_high	n/a	32	9	n/a	n/a	n/a
49.558327	2	cue_nonsocial	n/a	32	6	n/a	n/a	n/a
49.558327	2	cue_nonsocial_high	n/a	32	9	n/a	n/a	n/a
56.391605	2	cue_nonsocial	n/a	16	-10	n/a	n/a	n/a
56.391605	2	cue_nonsocial_low	n/a	16	-7	n/a	n/a	n/a
65.726390	2	cue_social	n/a	16	-7	n/a	n/a	n/a
65.726390	2	cue_social_low	n/a	16	-10	n/a	n/a	n/a
73.343700	2	cue_social	n/a	32	9	n/a	n/a	n/a
73.343700	2	cue_social_high	n/a	32	6	n/a	n/a	n/a
82.621150	2	cue_social	n/a	16	-7	n/a	n/a	n/a
82.621150	2	cue_social_low	n/a	16	-10	n/a	n/a	n/a
89.358246	2	cue_nonsocial	n/a	32	6	n/a	n/a	n/a
89.358246	2	cue_nonsocial_high	n/a	32	9	n/a	n/a	n/a
96.191605	2	cue_nonsocial	n/a	32	6	n/a	n/a	n/a
96.191605	2	cue_nonsocial_high	n/a	32	9	n/a	n/a	n/a
105.458130	2	cue_nonsocial	n/a	32	6	n/a	n/a	n/a
105.458130	2	cue_nonsocial_high	n/a	32	9	n/a	n/a	n/a
112.291390	2	cue_nonsocial	n/a	32	6	n/a	n/a	n/a
112.291390	2	cue_nonsocial_high	n/a	32	9	n/a	n/a	n/a
121.606670	2	cue_social	n/a	16	-7	n/a	n/a	n/a
121.606670	2	cue_social_low	n/a	16	-10	n/a	n/a	n/a
128.391500	2	cue_nonsocial	n/a	16	-10	n/a	n/a	n/a
128.391500	2	cue_nonsocial_low	n/a	16	-7	n/a	n/a	n/a
139.341130	2	cue_social	n/a	16	-7	n/a	n/a	n/a
139.341130	2	cue_social_low	n/a	16	-10	n/a	n/a	n/a
146.178590	2	cue_social	n/a	32	9	n/a	n/a	n/a
146.178590	2	cue_social_high	n/a	32	6	n/a	n/a	n/a
152.925190	2	cue_nonsocial	n/a	32	6	n/a	n/a	n/a
152.925190	2	cue_nonsocial_high	n/a	32	9	n/a	n/a	n/a
160.622710	2	cue_social	n/a	16	-7	n/a	n/a	n/a
160.622710	2	cue_social_low	n/a	16	-10	n/a	n/a	n/a
168.223860	2	cue_nonsocial	n/a	16	-10	n/a	n/a	n/a
168.223860	2	cue_nonsocial_low	n/a	16	-7	n/a	n/a	n/a
175.093120	2	cue_social	n/a	32	9	n/a	n/a	n/a
175.093120	2	cue_social_high	n/a	32	6	n/a	n/a	n/a
181.925980	2	cue_social	n/a	32	9	n/a	n/a	n/a
181.925980	2	cue_social_high	n/a	32	6	n/a	n/a	n/a
188.803100	2	cue_social	n/a	32	9	n/a	n/a	n/a
188.803100	2	cue_social_high	n/a	32	6	n/a	n/a	n/a
199.590530	2	cue_nonsocial	n/a	32	6	n/a	n/a	n/a
199.590530	2	cue_nonsocial_high	n/a	32	9	n/a	n/a	n/a
207.262560	2	cue_social	n/a	32	9	n/a	n/a	n/a
207.262560	2	cue_social_high	n/a	32	6	n/a	n/a	n/a
214.873800	2	cue_nonsocial	n/a	32	6	n/a	n/a	n/a
214.873800	2	cue_nonsocial_high	n/a	32	9	n/a	n/a	n/a
221.763030	2	cue_social	n/a	16	-7	n/a	n/a	n/a
221.763030	2	cue_social_low	n/a	16	-10	n/a	n/a	n/a
228.599560	2	cue_social	n/a	16	-7	n/a	n/a	n/a
228.599560	2	cue_social_low	n/a	16	-10	n/a	n/a	n/a
235.374420	2	cue_nonsocial	n/a	16	-10	n/a	n/a	n/a
235.374420	2	cue_nonsocial_low	n/a	16	-7	n/a	n/a	n/a
242.223710	2	cue_social	n/a	32	9	n/a	n/a	n/a
242.223710	2	cue_social_high	n/a	32	6	n/a	n/a	n/a
249.912280	2	cue_social	n/a	32	9	n/a	n/a	n/a
249.912280	2	cue_social_high	n/a	32	6	n/a	n/a	n/a
256.750240	2	cue_social	n/a	32	9	n/a	n/a	n/a
256.750240	2	cue_social_high	n/a	32	6	n/a	n/a	n/a
263.524320	2	cue_nonsocial	n/a	32	6	n/a	n/a	n/a
263.524320	2	cue_nonsocial_high	n/a	32	9	n/a	n/a	n/a
272.871700	2	cue_social	n/a	16	-7	n/a	n/a	n/a
272.871700	2	cue_social_low	n/a	16	-10	n/a	n/a	n/a
279.607540	2	cue_nonsocial	n/a	16	-10	n/a	n/a	n/a
279.607540	2	cue_nonsocial_low	n/a	16	-7	n/a	n/a	n/a
286.502750	2	cue_social	n/a	32	9	n/a	n/a	n/a
286.502750	2	cue_social_high	n/a	32	6	n/a	n/a	n/a
294.141050	2	cue_social	n/a	32	9	n/a	n/a	n/a
294.141050	2	cue_social_high	n/a	32	6	n/a	n/a	n/a
306.574220	2	cue_nonsocial	n/a	16	-10	n/a	n/a	n/a
306.574220	2	cue_nonsocial_low	n/a	16	-7	n/a	n/a	n/a
313.407300	2	cue_nonsocial	n/a	16	-10	n/a	n/a	n/a
313.407300	2	cue_nonsocial_low	n/a	16	-7	n/a	n/a	n/a
320.289150	2	cue_social	n/a	16	-7	n/a	n/a	n/a
320.289150	2	cue_social_low	n/a	16	-10	n/a	n/a	n/a
327.890930	2	cue_nonsocial	n/a	16	-10	n/a	n/a	n/a
327.890930	2	cue_nonsocial_low	n/a	16	-7	n/a	n/a	n/a
334.724150	2	cue_nonsocial	n/a	32	6	n/a	n/a	n/a
334.724150	2	cue_nonsocial_high	n/a	32	9	n/a	n/a	n/a
343.990880	2	cue_nonsocial	n/a	32	6	n/a	n/a	n/a
343.990880	2	cue_nonsocial_high	n/a	32	9	n/a	n/a	n/a
354.857480	2	cue_nonsocial	n/a	32	6	n/a	n/a	n/a
354.857480	2	cue_nonsocial_high	n/a	32	9	n/a	n/a	n/a
362.541800	2	cue_social	n/a	16	-7	n/a	n/a	n/a
362.541800	2	cue_social_low	n/a	16	-10	n/a	n/a	n/a
370.195950	2	cue_social	n/a	16	-7	n/a	n/a	n/a
370.195950	2	cue_social_low	n/a	16	-10	n/a	n/a	n/a
6.515035	0.983716	dec_nonsocial_choice	0.983716	32.000000	n/a	16	2.682292e-01	2.682292e-01
6.515035	0.983716	dec_choice	0.983716	32.000000	n/a	16	2.682292e-01	2.682292e-01
6.515035	0.983716	dec_nonsocial_accept	0.983716	32.000000	n/a	16	1.466346e-01	1.466346e-01
6.515035	0.983716	dec_accept	0.983716	32.000000	n/a	16	1.466346e-01	1.466346e-01
6.515035	0.983716	dec_nonsocial_high	0.983716	32.000000	n/a	16	2.682292e-01	2.682292e-01
6.515035	0.983716	dec_nonsocial_accept_high	0.983716	32.000000	n/a	16	1.466346e-01	1.466346e-01
13.349481	1.132643	dec_nonsocial_choice	1.132643	32.000000	n/a	8	1.822917e-02	1.822917e-02
13.349481	1.132643	dec_choice	1.132643	32.000000	n/a	8	1.822917e-02	1.822917e-02
13.349481	1.132643	dec_nonsocial_accept	1.132643	32.000000	n/a	8	-1.033654e-01	-1.033654e-01
13.349481	1.132643	dec_accept	1.132643	32.000000	n/a	8	-1.033654e-01	-1.033654e-01
13.349481	1.132643	dec_nonsocial_accept_high	1.132643	32.000000	n/a	8	-1.033654e-01	-1.033654e-01
20.998981	1.383242	dec_nonsocial_choice	1.383242	16.000000	n/a	0	0	-2.317708e-01
20.998981	1.383242	dec_choice	1.383242	16.000000	n/a	0	0	-2.317708e-01
20.998981	1.383242	dec_nonsocial_reject	1.383242	16.000000	n/a	0	0	3.693182e-02
20.998981	1.383242	dec_reject	1.383242	16.000000	n/a	0	0	3.693182e-02
20.998981	1.383242	dec_nonsocial_reject_low	1.383242	16.000000	n/a	2	3.693182e-02	-8.806818e-02
27.831993	1.033887	dec_social_choice	1.033887	16.000000	n/a	8	2.682292e-01	2.682292e-01
27.831993	1.033887	dec_choice	1.033887	16.000000	n/a	8	2.682292e-01	2.682292e-01
27.831993	1.033887	dec_social_accept	1.033887	16.000000	n/a	8	1.466346e-01	1.466346e-01
27.831993	1.033887	dec_accept	1.033887	16.000000	n/a	8	1.466346e-01	1.466346e-01
27.831993	1.033887	dec_social_accept_high	1.033887	16.000000	n/a	8	2.682292e-01	2.682292e-01
34.665627	1.216051	dec_social_choice	1.216051	16.000000	n/a	8	2.682292e-01	2.682292e-01
34.665627	1.216051	dec_choice	1.216051	16.000000	n/a	8	2.682292e-01	2.682292e-01
34.665627	1.216051	dec_social_accept	1.216051	16.000000	n/a	8	1.466346e-01	1.466346e-01
34.665627	1.216051	dec_accept	1.216051	16.000000	n/a	8	1.466346e-01	1.466346e-01
34.665627	1.216051	dec_social_high	1.216051	16.000000	n/a	8	2.682292e-01	2.682292e-01
34.665627	1.216051	dec_social_accept_high	1.216051	16.000000	n/a	8	2.682292e-01	2.682292e-01
43.916180	1.249524	dec_nonsocial_choice	1.249524	32.000000	n/a	8	1.822917e-02	1.822917e-02
43.916180	1.249524	dec_choice	1.249524	32.000000	n/a	8	1.822917e-02	1.822917e-02
43.916180	1.249524	dec_nonsocial_accept	1.249524	32.000000	n/a	8	-1.033654e-01	-1.033654e-01
43.916180	1.249524	dec_accept	1.249524	32.000000	n/a	8	-1.033654e-01	-1.033654e-01
43.916180	1.249524	dec_nonsocial_high	1.249524	32.000000	n/a	8	1.822917e-02	1.822917e-02
43.916180	1.249524	dec_nonsocial_accept_high	1.249524	32.000000	n/a	8	-1.033654e-01	-1.033654e-01
51.564957	1.050523	dec_nonsocial_choice	1.050523	32.000000	n/a	16	2.682292e-01	2.682292e-01
51.564957	1.050523	dec_choice	1.050523	32.000000	n/a	16	2.682292e-01	2.682292e-01
51.564957	1.050523	dec_nonsocial_accept	1.050523	32.000000	n/a	16	1.466346e-01	1.466346e-01
51.564957	1.050523	dec_accept	1.050523	32.000000	n/a	16	1.466346e-01	1.466346e-01
51.564957	1.050523	dec_nonsocial_high	1.050523	32.000000	n/a	16	2.682292e-01	2.682292e-01
51.564957	1.050523	dec_nonsocial_accept_high	1.050523	32.000000	n/a	16	1.466346e-01	1.466346e-01
58.398476	1.083620	dec_nonsocial_choice	1.083620	16.000000	n/a	0	0	-2.317708e-01
58.398476	1.083620	dec_choice	1.083620	16.000000	n/a	0	0	-2.317708e-01
58.398476	1.083620	dec_nonsocial_reject	1.083620	16.000000	n/a	0	0	3.693182e-02
58.398476	1.083620	dec_reject	1.083620	16.000000	n/a	0	0	3.693182e-02
58.398476	1.083620	dec_nonsocial_reject_low	1.083620	16.000000	n/a	2	3.693182e-02	-8.806818e-02
67.648155	1.017119	dec_social_choice	1.017119	16.000000	n/a	0	0	-2.317708e-01
67.648155	1.017119	dec_choice	1.017119	16.000000	n/a	0	0	-2.317708e-01
67.648155	1.017119	dec_social_reject	1.017119	16.000000	n/a	0	0	3.693182e-02
67.648155	1.017119	dec_reject	1.017119	16.000000	n/a	0	0	3.693182e-02
67.648155	1.017119	dec_social_reject_low	1.017119	16.000000	n/a	2	-1.067708e-01	-2.317708e-01
75.281920	1.283363	dec_social_choice	1.283363	32.000000	n/a	8	1.822917e-02	1.822917e-02
75.281920	1.283363	dec_choice	1.283363	32.000000	n/a	8	1.822917e-02	1.822917e-02
75.281920	1.283363	dec_social_accept	1.283363	32.000000	n/a	8	-1.033654e-01	-1.033654e-01
75.281920	1.283363	dec_accept	1.283363	32.000000	n/a	8	-1.033654e-01	-1.033654e-01
75.281920	1.283363	dec_social_accept_high	1.283363	32.000000	n/a	8	1.822917e-02	1.822917e-02
84.531920	0.983387	dec_social_choice	0.983387	16.000000	n/a	0	0	-2.317708e-01
84.531920	0.983387	dec_choice	0.983387	16.000000	n/a	0	0	-2.317708e-01
84.531920	0.983387	dec_social_reject	0.983387	16.000000	n/a	0	0	3.693182e-02
84.531920	0.983387	dec_reject	0.983387	16.000000	n/a	0	0	3.693182e-02
84.531920	0.983387	dec_social_low	0.983387	16.000000	n/a	0	-2.317708e-01	-2.317708e-01
84.531920	0.983387	dec_social_reject_low	0.983387	16.000000	n/a	2	-1.067708e-01	-2.317708e-01
91.364690	1.216460	dec_nonsocial_choice	1.216460	32.000000	n/a	8	1.822917e-02	1.822917e-02
91.364690	1.216460	dec_choice	1.216460	32.000000	n/a	8	1.822917e-02	1.822917e-02
91.364690	1.216460	dec_nonsocial_accept	1.216460	32.000000	n/a	8	-1.033654e-01	-1.033654e-01
91.364690	1.216460	dec_accept	1.216460	32.000000	n/a	8	-1.033654e-01	-1.033654e-01
91.364690	1.216460	dec_nonsocial_accept_high	1.216460	32.000000	n/a	8	-1.033654e-01	-1.033654e-01
98.199165	1.249262	dec_nonsocial_choice	1.249262	32.000000	n/a	0	0	-2.317708e-01
98.199165	1.249262	dec_choice	1.249262	32.000000	n/a	0	0	-2.317708e-01
98.199165	1.249262	dec_nonsocial_reject	1.249262	32.000000	n/a	0	0	5.681818e-03
98.199165	1.249262	dec_reject	1.249262	32.000000	n/a	0	0	5.681818e-03
98.199165	1.249262	dec_nonsocial_reject_low	1.249262	32.000000	n/a	3	5.681818e-03	-8.806818e-02
107.465320	0.899478	dec_nonsocial_choice	0.899478	32.000000	n/a	8	1.822917e-02	1.822917e-02
107.465320	0.899478	dec_choice	0.899478	32.000000	n/a	8	1.822917e-02	1.822917e-02
107.465320	0.899478	dec_nonsocial_accept	0.899478	32.000000	n/a	8	-1.033654e-01	-1.033654e-01
107.465320	0.899478	dec_accept	0.899478	32.000000	n/a	8	-1.033654e-01	-1.033654e-01
107.465320	0.899478	dec_nonsocial_accept_high	0.899478	32.000000	n/a	8	-1.033654e-01	-1.033654e-01
114.298850	1.215766	dec_nonsocial_choice	1.215766	32.000000	n/a	0	0	-2.317708e-01
114.298850	1.215766	dec_choice	1.215766	32.000000	n/a	0	0	-2.317708e-01
114.298850	1.215766	dec_nonsocial_reject	1.215766	32.000000	n/a	0	0	-2.556818e-02
114.298850	1.215766	dec_reject	1.215766	32.000000	n/a	0	0	-2.556818e-02
114.298850	1.215766	dec_nonsocial_low	1.215766	32.000000	n/a	0	-2.317708e-01	-2.317708e-01
114.298850	1.215766	dec_nonsocial_reject_low	1.215766	32.000000	n/a	2	-2.556818e-02	-8.806818e-02
123.565890	0.999036	dec_social_choice	0.999036	16.000000	n/a	8	2.682292e-01	2.682292e-01
123.565890	0.999036	dec_choice	0.999036	16.000000	n/a	8	2.682292e-01	2.682292e-01
123.565890	0.999036	dec_social_accept	0.999036	16.000000	n/a	8	1.466346e-01	1.466346e-01
123.565890	0.999036	dec_accept	0.999036	16.000000	n/a	8	1.466346e-01	1.466346e-01
123.565890	0.999036	dec_social_accept_high	0.999036	16.000000	n/a	8	2.682292e-01	2.682292e-01
130.398440	0.966053	dec_nonsocial_choice	0.966053	16.000000	n/a	8	2.682292e-01	2.682292e-01
130.398440	0.966053	dec_choice	0.966053	16.000000	n/a	8	2.682292e-01	2.682292e-01
130.398440	0.966053	dec_nonsocial_accept	0.966053	16.000000	n/a	8	1.466346e-01	1.466346e-01
130.398440	0.966053	dec_accept	0.966053	16.000000	n/a	8	1.466346e-01	1.466346e-01
130.398440	0.966053	dec_nonsocial_accept_high	0.966053	16.000000	n/a	8	1.466346e-01	1.466346e-01
141.264420	0.900334	dec_social_choice	0.900334	16.000000	n/a	0	0	-2.317708e-01
141.264420	0.900334	dec_choice	0.900334	16.000000	n/a	0	0	-2.317708e-01
141.264420	0.900334	dec_social_reject	0.900334	16.000000	n/a	0	0	3.693182e-02
141.264420	0.900334	dec_reject	0.900334	16.000000	n/a	0	0	3.693182e-02
141.264420	0.900334	dec_social_reject_low	0.900334	16.000000	n/a	2	-1.067708e-01	-2.317708e-01
148.098020	1.083024	dec_social_choice	1.083024	32.000000	n/a	8	1.822917e-02	1.822917e-02
148.098020	1.083024	dec_choice	1.083024	32.000000	n/a	8	1.822917e-02	1.822917e-02
148.098020	1.083024	dec_social_accept	1.083024	32.000000	n/a	8	-1.033654e-01	-1.033654e-01
148.098020	1.083024	dec_accept	1.083024	32.000000	n/a	8	-1.033654e-01	-1.033654e-01
148.098020	1.083024	dec_social_high	1.083024	32.000000	n/a	8	1.822917e-02	1.822917e-02
148.098020	1.083024	dec_social_accept_high	1.083024	32.000000	n/a	8	1.822917e-02	1.822917e-02
154.931750	1.016334	dec_nonsocial_choice	1.016334	32.000000	n/a	8	1.822917e-02	1.822917e-02
154.931750	1.016334	dec_choice	1.016334	32.000000	n/a	8	1.822917e-02	1.822917e-02
154.931750	1.016334	dec_nonsocial_accept	1.016334	32.000000	n/a	8	-1.033654e-01	-1.033654e-01
154.931750	1.016334	dec_accept	1.016334	32.000000	n/a	8	-1.033654e-01	-1.033654e-01
154.931750	1.016334	dec_nonsocial_accept_high	1.016334	32.000000	n/a	8	-1.033654e-01	-1.033654e-01
162.581970	0.915862	dec_social_choice	0.915862	16.000000	n/a	0	0	-2.317708e-01
162.581970	0.915862	dec_choice	0.915862	16.000000	n/a	0	0	-2.317708e-01
162.581970	0.915862	dec_social_reject	0.915862	16.000000	n/a	0	0	-2.556818e-02
162.581970	0.915862	dec_reject	0.915862	16.000000	n/a	0	0	-2.556818e-02
162.581970	0.915862	dec_social_reject_low	0.915862	16.000000	n/a	1	-1.692708e-01	-2.317708e-01
170.231690	0.933317	dec_nonsocial_choice	0.933317	16.000000	n/a	0	0	-2.317708e-01
170.231690	0.933317	dec_choice	0.933317	16.000000	n/a	0	0	-2.317708e-01
170.231690	0.933317	dec_nonsocial_reject	0.933317	16.000000	n/a	0	0	3.693182e-02
170.231690	0.933317	dec_reject	0.933317	16.000000	n/a	0	0	3.693182e-02
170.231690	0.933317	dec_nonsocial_reject_low	0.933317	16.000000	n/a	2	3.693182e-02	-8.806818e-02
177.063890	1.251085	dec_social_choice	1.251085	32.000000	n/a	0	0	-2.317708e-01
177.063890	1.251085	dec_choice	1.251085	32.000000	n/a	0	0	-2.317708e-01
177.063890	1.251085	dec_social_reject	1.251085	32.000000	n/a	0	0	-2.556818e-02
177.063890	1.251085	dec_reject	1.251085	32.000000	n/a	0	0	-2.556818e-02
177.063890	1.251085	dec_social_low	1.251085	32.000000	n/a	0	-2.317708e-01	-2.317708e-01
177.063890	1.251085	dec_social_reject_low	1.251085	32.000000	n/a	2	-1.692708e-01	-2.317708e-01
183.897170	1.033767	dec_social_choice	1.033767	32.000000	n/a	0	0	-2.317708e-01
183.897170	1.033767	dec_choice	1.033767	32.000000	n/a	0	0	-2.317708e-01
183.897170	1.033767	dec_social_reject	1.033767	32.000000	n/a	0	0	-2.556818e-02
183.897170	1.033767	dec_reject	1.033767	32.000000	n/a	0	0	-2.556818e-02
183.897170	1.033767	dec_social_low	1.033767	32.000000	n/a	0	-2.317708e-01	-2.317708e-01
183.897170	1.033767	dec_social_reject_low	1.033767	32.000000	n/a	2	-1.692708e-01	-2.317708e-01
190.731110	1.317520	dec_social_choice	1.317520	32.000000	n/a	16	2.682292e-01	2.682292e-01
190.731110	1.317520	dec_choice	1.317520	32.000000	n/a	16	2.682292e-01	2.682292e-01
190.731110	1.317520	dec_social_accept	1.317520	32.000000	n/a	16	1.466346e-01	1.466346e-01
190.731110	1.317520	dec_accept	1.317520	32.000000	n/a	16	1.466346e-01	1.466346e-01
190.731110	1.317520	dec_social_high	1.317520	32.000000	n/a	16	2.682292e-01	2.682292e-01
190.731110	1.317520	dec_social_accept_high	1.317520	32.000000	n/a	16	2.682292e-01	2.682292e-01
201.597870	1.083736	dec_nonsocial_choice	1.083736	32.000000	n/a	16	2.682292e-01	2.682292e-01
201.597870	1.083736	dec_choice	1.083736	32.000000	n/a	16	2.682292e-01	2.682292e-01
201.597870	1.083736	dec_nonsocial_accept	1.083736	32.000000	n/a	16	1.466346e-01	1.466346e-01
201.597870	1.083736	dec_accept	1.083736	32.000000	n/a	16	1.466346e-01	1.466346e-01
201.597870	1.083736	dec_nonsocial_high	1.083736	32.000000	n/a	16	2.682292e-01	2.682292e-01
201.597870	1.083736	dec_nonsocial_accept_high	1.083736	32.000000	n/a	16	1.466346e-01	1.466346e-01
209.247800	0.967336	dec_social_choice	0.967336	32.000000	n/a	3	-1.380208e-01	-1.380208e-01
209.247800	0.967336	dec_choice	0.967336	32.000000	n/a	3	-1.380208e-01	-1.380208e-01
209.247800	0.967336	dec_social_accept	0.967336	32.000000	n/a	3	-2.596154e-01	-2.596154e-01
209.247800	0.967336	dec_accept	0.967336	32.000000	n/a	3	-2.596154e-01	-2.596154e-01
209.247800	0.967336	dec_social_low	0.967336	32.000000	n/a	3	-1.380208e-01	-1.380208e-01
209.247800	0.967336	dec_social_accept_low	0.967336	32.000000	n/a	3	-1.380208e-01	-1.380208e-01
216.881520	1.083388	dec_nonsocial_choice	1.083388	32.000000	n/a	0	0	-2.317708e-01
216.881520	1.083388	dec_choice	1.083388	32.000000	n/a	0	0	-2.317708e-01
216.881520	1.083388	dec_nonsocial_reject	1.083388	32.000000	n/a	0	0	-2.556818e-02
216.881520	1.083388	dec_reject	1.083388	32.000000	n/a	0	0	-2.556818e-02
216.881520	1.083388	dec_nonsocial_reject_low	1.083388	32.000000	n/a	2	-2.556818e-02	-8.806818e-02
223.714800	1.316346	dec_social_choice	1.316346	16.000000	n/a	0	0	-2.317708e-01
223.714800	1.316346	dec_choice	1.316346	16.000000	n/a	0	0	-2.317708e-01
223.714800	1.316346	dec_social_reject	1.316346	16.000000	n/a	0	0	3.693182e-02
223.714800	1.316346	dec_reject	1.316346	16.000000	n/a	0	0	3.693182e-02
223.714800	1.316346	dec_social_low	1.316346	16.000000	n/a	0	-2.317708e-01	-2.317708e-01
223.714800	1.316346	dec_social_reject_low	1.316346	16.000000	n/a	2	-1.067708e-01	-2.317708e-01
230.548950	1.432761	dec_social_choice	1.432761	16.000000	n/a	8	2.682292e-01	2.682292e-01
230.548950	1.432761	dec_choice	1.432761	16.000000	n/a	8	2.682292e-01	2.682292e-01
230.548950	1.432761	dec_social_accept	1.432761	16.000000	n/a	8	1.466346e-01	1.466346e-01
230.548950	1.432761	dec_accept	1.432761	16.000000	n/a	8	1.466346e-01	1.466346e-01
230.548950	1.432761	dec_social_high	1.432761	16.000000	n/a	8	2.682292e-01	2.682292e-01
230.548950	1.432761	dec_social_accept_high	1.432761	16.000000	n/a	8	2.682292e-01	2.682292e-01
237.381550	1.149996	dec_nonsocial_choice	1.149996	16.000000	n/a	4	1.822917e-02	1.822917e-02
237.381550	1.149996	dec_choice	1.149996	16.000000	n/a	4	1.822917e-02	1.822917e-02
237.381550	1.149996	dec_nonsocial_accept	1.149996	16.000000	n/a	4	-1.033654e-01	-1.033654e-01
237.381550	1.149996	dec_accept	1.149996	16.000000	n/a	4	-1.033654e-01	-1.033654e-01
237.381550	1.149996	dec_nonsocial_accept_high	1.149996	16.000000	n/a	4	-1.033654e-01	-1.033654e-01
244.214770	1.182880	dec_social_choice	1.182880	32.000000	n/a	8	1.822917e-02	1.822917e-02
244.214770	1.182880	dec_choice	1.182880	32.000000	n/a	8	1.822917e-02	1.822917e-02
244.214770	1.182880	dec_social_accept	1.182880	32.000000	n/a	8	-1.033654e-01	-1.033654e-01
244.214770	1.182880	dec_accept	1.182880	32.000000	n/a	8	-1.033654e-01	-1.033654e-01
244.214770	1.182880	dec_social_accept_high	1.182880	32.000000	n/a	8	1.822917e-02	1.822917e-02
251.863800	1.034047	dec_social_choice	1.034047	32.000000	n/a	0	0	-2.317708e-01
251.863800	1.034047	dec_choice	1.034047	32.000000	n/a	0	0	-2.317708e-01
251.863800	1.034047	dec_social_reject	1.034047	32.000000	n/a	0	0	-2.556818e-02
251.863800	1.034047	dec_reject	1.034047	32.000000	n/a	0	0	-2.556818e-02
251.863800	1.034047	dec_social_reject_low	1.034047	32.000000	n/a	2	-1.692708e-01	-2.317708e-01
258.697900	1.315796	dec_social_choice	1.315796	32.000000	n/a	8	1.822917e-02	1.822917e-02
258.697900	1.315796	dec_choice	1.315796	32.000000	n/a	8	1.822917e-02	1.822917e-02
258.697900	1.315796	dec_social_accept	1.315796	32.000000	n/a	8	-1.033654e-01	-1.033654e-01
258.697900	1.315796	dec_accept	1.315796	32.000000	n/a	8	-1.033654e-01	-1.033654e-01
258.697900	1.315796	dec_social_accept_high	1.315796	32.000000	n/a	8	1.822917e-02	1.822917e-02
265.530550	1.134172	dec_nonsocial_choice	1.134172	32.000000	n/a	0	0	-2.317708e-01
265.530550	1.134172	dec_choice	1.134172	32.000000	n/a	0	0	-2.317708e-01
265.530550	1.134172	dec_nonsocial_reject	1.134172	32.000000	n/a	0	0	-2.556818e-02
265.530550	1.134172	dec_reject	1.134172	32.000000	n/a	0	0	-2.556818e-02
265.530550	1.134172	dec_nonsocial_reject_low	1.134172	32.000000	n/a	2	-2.556818e-02	-8.806818e-02
274.781430	1.183142	dec_social_choice	1.183142	16.000000	n/a	4	1.822917e-02	1.822917e-02
274.781430	1.183142	dec_choice	1.183142	16.000000	n/a	4	1.822917e-02	1.822917e-02
274.781430	1.183142	dec_social_accept	1.183142	16.000000	n/a	4	-1.033654e-01	-1.033654e-01
274.781430	1.183142	dec_accept	1.183142	16.000000	n/a	4	-1.033654e-01	-1.033654e-01
274.781430	1.183142	dec_social_high	1.183142	16.000000	n/a	4	1.822917e-02	1.822917e-02
274.781430	1.183142	dec_social_accept_high	1.183142	16.000000	n/a	4	1.822917e-02	1.822917e-02
281.613900	1.283687	dec_nonsocial_choice	1.283687	16.000000	n/a	8	2.682292e-01	2.682292e-01
281.613900	1.283687	dec_choice	1.283687	16.000000	n/a	8	2.682292e-01	2.682292e-01
281.613900	1.283687	dec_nonsocial_accept	1.283687	16.000000	n/a	8	1.466346e-01	1.466346e-01
281.613900	1.283687	dec_accept	1.283687	16.000000	n/a	8	1.466346e-01	1.466346e-01
281.613900	1.283687	dec_nonsocial_high	1.283687	16.000000	n/a	8	2.682292e-01	2.682292e-01
281.613900	1.283687	dec_nonsocial_accept_high	1.283687	16.000000	n/a	8	1.466346e-01	1.466346e-01
288.447720	1.066553	dec_social_choice	1.066553	32.000000	n/a	0	0	-2.317708e-01
288.447720	1.066553	dec_choice	1.066553	32.000000	n/a	0	0	-2.317708e-01
288.447720	1.066553	dec_social_reject	1.066553	32.000000	n/a	0	0	-2.556818e-02
288.447720	1.066553	dec_reject	1.066553	32.000000	n/a	0	0	-2.556818e-02
288.447720	1.066553	dec_social_low	1.066553	32.000000	n/a	0	-2.317708e-01	-2.317708e-01
288.447720	1.066553	dec_social_reject_low	1.066553	32.000000	n/a	2	-1.692708e-01	-2.317708e-01
296.096680	1.334593	dec_social_choice	1.334593	32.000000	n/a	0	0	-2.317708e-01
296.096680	1.334593	dec_choice	1.334593	32.000000	n/a	0	0	-2.317708e-01
296.096680	1.334593	dec_social_reject	1.334593	32.000000	n/a	0	0	5.681818e-03
296.096680	1.334593	dec_reject	1.334593	32.000000	n/a	0	0	5.681818e-03
296.096680	1.334593	dec_social_low	1.334593	32.000000	n/a	0	-2.317708e-01	-2.317708e-01
296.096680	1.334593	dec_social_reject_low	1.334593	32.000000	n/a	3	-1.380208e-01	-2.317708e-01
308.580500	1.284579	dec_nonsocial_choice	1.284579	16.000000	n/a	8	2.682292e-01	2.682292e-01
308.580500	1.284579	dec_choice	1.284579	16.000000	n/a	8	2.682292e-01	2.682292e-01
308.580500	1.284579	dec_nonsocial_accept	1.284579	16.000000	n/a	8	1.466346e-01	1.466346e-01
308.580500	1.284579	dec_accept	1.284579	16.000000	n/a	8	1.466346e-01	1.466346e-01
308.580500	1.284579	dec_nonsocial_high	1.284579	16.000000	n/a	8	2.682292e-01	2.682292e-01
308.580500	1.284579	dec_nonsocial_accept_high	1.284579	16.000000	n/a	8	1.466346e-01	1.466346e-01
315.414730	1.133165	dec_nonsocial_choice	1.133165	16.000000	n/a	0	0	-2.317708e-01
315.414730	1.133165	dec_choice	1.133165	16.000000	n/a	0	0	-2.317708e-01
315.414730	1.133165	dec_nonsocial_reject	1.133165	16.000000	n/a	0	0	3.693182e-02
315.414730	1.133165	dec_reject	1.133165	16.000000	n/a	0	0	3.693182e-02
315.414730	1.133165	dec_nonsocial_reject_low	1.133165	16.000000	n/a	2	3.693182e-02	-8.806818e-02
322.247740	1.116305	dec_social_choice	1.116305	16.000000	n/a	8	2.682292e-01	2.682292e-01
322.247740	1.116305	dec_choice	1.116305	16.000000	n/a	8	2.682292e-01	2.682292e-01
322.247740	1.116305	dec_social_accept	1.116305	16.000000	n/a	8	1.466346e-01	1.466346e-01
322.247740	1.116305	dec_accept	1.116305	16.000000	n/a	8	1.466346e-01	1.466346e-01
322.247740	1.116305	dec_social_high	1.116305	16.000000	n/a	8	2.682292e-01	2.682292e-01
322.247740	1.116305	dec_social_accept_high	1.116305	16.000000	n/a	8	2.682292e-01	2.682292e-01
329.897670	1.533250	dec_nonsocial_choice	1.533250	16.000000	n/a	0	0	-2.317708e-01
329.897670	1.533250	dec_choice	1.533250	16.000000	n/a	0	0	-2.317708e-01
329.897670	1.533250	dec_nonsocial_reject	1.533250	16.000000	n/a	0	0	-2.556818e-02
329.897670	1.533250	dec_reject	1.533250	16.000000	n/a	0	0	-2.556818e-02
329.897670	1.533250	dec_nonsocial_low	1.533250	16.000000	n/a	0	-2.317708e-01	-2.317708e-01
329.897670	1.533250	dec_nonsocial_reject_low	1.533250	16.000000	n/a	1	-2.556818e-02	-8.806818e-02
336.731800	1.082790	dec_nonsocial_choice	1.082790	32.000000	n/a	0	0	-2.317708e-01
336.731800	1.082790	dec_choice	1.082790	32.000000	n/a	0	0	-2.317708e-01
336.731800	1.082790	dec_nonsocial_reject	1.082790	32.000000	n/a	0	0	-2.556818e-02
336.731800	1.082790	dec_reject	1.082790	32.000000	n/a	0	0	-2.556818e-02
336.731800	1.082790	dec_nonsocial_low	1.082790	32.000000	n/a	0	-2.317708e-01	-2.317708e-01
336.731800	1.082790	dec_nonsocial_reject_low	1.082790	32.000000	n/a	2	-2.556818e-02	-8.806818e-02
345.997650	1.783501	dec_nonsocial_choice	1.783501	32.000000	n/a	3	-1.380208e-01	-1.380208e-01
345.997650	1.783501	dec_choice	1.783501	32.000000	n/a	3	-1.380208e-01	-1.380208e-01
345.997650	1.783501	dec_nonsocial_accept	1.783501	32.000000	n/a	3	-2.596154e-01	-2.596154e-01
345.997650	1.783501	dec_accept	1.783501	32.000000	n/a	3	-2.596154e-01	-2.596154e-01
345.997650	1.783501	dec_nonsocial_accept_low	1.783501	32.000000	n/a	3	-2.596154e-01	-2.596154e-01
356.863860	1.183409	dec_nonsocial_choice	1.183409	32.000000	n/a	0	0	-2.317708e-01
356.863860	1.183409	dec_choice	1.183409	32.000000	n/a	0	0	-2.317708e-01
356.863860	1.183409	dec_nonsocial_reject	1.183409	32.000000	n/a	0	0	-2.556818e-02
356.863860	1.183409	dec_reject	1.183409	32.000000	n/a	0	0	-2.556818e-02
356.863860	1.183409	dec_nonsocial_low	1.183409	32.000000	n/a	0	-2.317708e-01	-2.317708e-01
356.863860	1.183409	dec_nonsocial_reject_low	1.183409	32.000000	n/a	2	-2.556818e-02	-8.806818e-02
364.497650	1.265912	dec_social_choice	1.265912	16.000000	n/a	4	1.822917e-02	1.822917e-02
364.497650	1.265912	dec_choice	1.265912	16.000000	n/a	4	1.822917e-02	1.822917e-02
364.497650	1.265912	dec_social_accept	1.265912	16.000000	n/a	4	-1.033654e-01	-1.033654e-01
364.497650	1.265912	dec_accept	1.265912	16.000000	n/a	4	-1.033654e-01	-1.033654e-01
364.497650	1.265912	dec_social_high	1.265912	16.000000	n/a	4	1.822917e-02	1.822917e-02
364.497650	1.265912	dec_social_accept_high	1.265912	16.000000	n/a	4	1.822917e-02	1.822917e-02
372.146760	1.200732	dec_social_choice	1.200732	16.000000	n/a	0	0	-2.317708e-01
372.146760	1.200732	dec_choice	1.200732	16.000000	n/a	0	0	-2.317708e-01
372.146760	1.200732	dec_social_reject	1.200732	16.000000	n/a	0	0	-2.556818e-02
372.146760	1.200732	dec_reject	1.200732	16.000000	n/a	0	0	-2.556818e-02
372.146760	1.200732	dec_social_low	1.200732	16.000000	n/a	0	-2.317708e-01	-2.317708e-01
372.146760	1.200732	dec_social_reject_low	1.200732	16.000000	n/a	1	-1.692708e-01	-2.317708e-01
