instrText,stimDoor,stimDoorLure,stimFace,stimFaceLure,Instructions.thisRepN,Instructions.thisTrialN,Instructions.thisN,Instructions.thisIndex,Trials.thisRepN,Trials.thisTrialN,Trials.thisN,Trials.thisIndex,Func,Keys,Text,RespTime,Onset,Offset,SystemTime_Start,SystemTime_Stop,Stim,Lure,Participant*,Age,date,expName,psychopyVersion,frameRate,
"In the earlier Feedback Games, you chose which doors contained a prize, and which peers liked you. 

You then saw positive or negative feedback (green check mark or red X) from the door or peer you selected.

You will now see a series of doors and peers, some of which you saw during the earlier Feedback Games, and some that you have never seen before.

Please press the spacebar to continue.",,,,,0,0,0,0,,,,,instrFunc,space,"In the earlier Feedback Games, you chose which doors contained a prize, and which peers liked you. 

You then saw positive or negative feedback (green check mark or red X) from the door or peer you selected.

You will now see a series of doors and peers, some of which you saw during the earlier Feedback Games, and some that you have never seen before.

Please press the spacebar to continue.",18.01699489999737,508.0800206999993,526.1660284000536,2023-10-04 13:15:27.790242,2023-10-04 13:15:45.865691,,,10785,40-69,2023-10-04_13h15.24.186,Recall,2021.2.3,60.01183433127415,
"For doors/peers that you remember selecting and getting feedback from, your job is to RECALL what feedback you received. 

Press '1' if you recall positive feedback. 

Press '2' if you recall negative feedback

Press the spacebar to continue.",,,,,0,1,1,1,,,,,instrFunc,space,"For doors/peers that you remember selecting and getting feedback from, your job is to RECALL what feedback you received. 

Press '1' if you recall positive feedback. 

Press '2' if you recall negative feedback

Press the spacebar to continue.",10.726489299995592,526.1387651999976,536.9105211999995,2023-10-04 13:15:45.866649,2023-10-04 13:15:56.623124,,,10785,40-69,2023-10-04_13h15.24.186,Recall,2021.2.3,60.01183433127415,
"For doors/peers that you don't remember getting feedback from, your job is to PREDICT what feedback you WOULD HAVE received.

Press '9' if you predict positive feedback.

Press '0' if you predict negative feedback. 

Please press the spacebar to continue.",,,,,0,2,2,2,,,,,instrFunc,space,"For doors/peers that you don't remember getting feedback from, your job is to PREDICT what feedback you WOULD HAVE received.

Press '9' if you predict positive feedback.

Press '0' if you predict negative feedback. 

Please press the spacebar to continue.",9.119923099991865,536.8975115000067,546.0682654999982,2023-10-04 13:15:56.623612,2023-10-04 13:16:05.779519,,,10785,40-69,2023-10-04_13h15.24.186,Recall,2021.2.3,60.01183433127415,
"This task is self-paced, and the prompts will always stay on the screen so that you know which buttons to press.

On the next screen we will show you what those prompts look like, so that you know exactly what to expect. 

You will start with either doors or peers, and then switch halfway through. 

Please press the spacebar to continue.",,,,,0,3,3,3,,,,,instrFunc,space,"This task is self-paced, and the prompts will always stay on the screen so that you know which buttons to press.

On the next screen we will show you what those prompts look like, so that you know exactly what to expect. 

You will start with either doors or peers, and then switch halfway through. 

Please press the spacebar to continue.",10.921333999998751,546.0481079000019,557.0210004999972,2023-10-04 13:16:05.780519,2023-10-04 13:16:16.737852,,,10785,40-69,2023-10-04_13h15.24.186,Recall,2021.2.3,60.01183433127415,
,,,,,,,,,,,,,imgtextFunc,space,"Here is what the screen will look like while you make your ratings.
The green circles remind you to press 1 or 9 for positive feedback.
The red circles remind you to press 2 or 0 for negative feedback.









Please let the experimenter know if you have any questions.

Whenever you're ready, press the spacebar to start the task.",22.436642000000575,557.156447100002,579.7687454999977,2023-10-04 13:16:16.747835,2023-10-04 13:16:39.355162,,,10785,40-69,2023-10-04_13h15.24.186,Recall,2021.2.3,60.01183433127415,
,DD004.jpg,0,FF004.jpg,0,,,,,0,0,0,3,imgFunc,1,NA,8.696111900004325,579.7529661000008,588.5816755999986,2023-10-04 13:16:39.392831,2023-10-04 13:16:48.210543,FF004.jpg,0,10785,40-69,2023-10-04_13h15.24.186,Recall,2021.2.3,60.01183433127415,
,SD004.jpg,0,MF004.jpg,0,,,,,0,1,1,53,imgFunc,1,NA,2.119457799999509,588.5459766999993,590.7614416000142,2023-10-04 13:16:48.220113,2023-10-04 13:16:50.428726,MF004.jpg,0,10785,40-69,2023-10-04_13h15.24.186,Recall,2021.2.3,60.01183433127415,
,DD027.jpg,0,FF027.jpg,0,,,,,0,2,2,26,imgFunc,0,NA,13.737128300010227,590.7599639000109,604.5873877000122,2023-10-04 13:16:50.436733,2023-10-04 13:17:04.255017,FF027.jpg,0,10785,40-69,2023-10-04_13h15.24.186,Recall,2021.2.3,60.01183433127415,
,DD008.jpg,0,FF008.jpg,0,,,,,0,3,3,7,imgFunc,9,NA,3.7755738999985624,604.5934810000035,608.4768967000127,2023-10-04 13:17:04.264966,2023-10-04 13:17:08.141446,FF008.jpg,0,10785,40-69,2023-10-04_13h15.24.186,Recall,2021.2.3,60.01183433127415,
,L_SD501.jpg,1,L_MF501.jpg,1,,,,,0,4,4,90,imgFunc,0,NA,2.703004699986195,608.4741107000009,611.2764895,2023-10-04 13:17:08.148453,2023-10-04 13:17:10.942397,L_MF501.jpg,1,10785,40-69,2023-10-04_13h15.24.186,Recall,2021.2.3,60.01183433127415,
,SD038.jpg,0,MF038.jpg,0,,,,,0,5,5,87,imgFunc,2,NA,2.288512400002219,611.2884575000062,613.6896860000124,2023-10-04 13:17:10.951373,2023-10-04 13:17:13.345045,MF038.jpg,0,10785,40-69,2023-10-04_13h15.24.186,Recall,2021.2.3,60.01183433127415,
,SD037.jpg,0,MF037.jpg,0,,,,,0,6,6,86,imgFunc,2,NA,1.9389422999956878,613.6861307000072,615.7358141000004,2023-10-04 13:17:13.354020,2023-10-04 13:17:15.395851,MF037.jpg,0,10785,40-69,2023-10-04_13h15.24.186,Recall,2021.2.3,60.01183433127415,
,SD030.jpg,0,MF030.jpg,0,,,,,0,7,7,79,imgFunc,2,NA,1.9266744000051403,615.7383569000085,617.7623514000152,2023-10-04 13:17:15.409774,2023-10-04 13:17:17.430705,MF030.jpg,0,10785,40-69,2023-10-04_13h15.24.186,Recall,2021.2.3,60.01183433127415,
,DD031.jpg,0,FF031.jpg,0,,,,,0,8,8,30,imgFunc,2,NA,3.158767300003092,617.7782790000056,621.0463474999997,2023-10-04 13:17:17.439681,2023-10-04 13:17:20.699952,FF031.jpg,0,10785,40-69,2023-10-04_13h15.24.186,Recall,2021.2.3,60.01183433127415,
,DD038.jpg,0,FF038.jpg,0,,,,,0,9,9,37,imgFunc,9,NA,3.3308923000004143,621.0462092000089,624.4824032000033,2023-10-04 13:17:20.707935,2023-10-04 13:17:24.135821,FF038.jpg,0,10785,40-69,2023-10-04_13h15.24.186,Recall,2021.2.3,60.01183433127415,
,SD035.jpg,0,MF035.jpg,0,,,,,0,10,10,84,imgFunc,9,NA,1.5090596999943955,624.475984500008,626.0937895000097,2023-10-04 13:17:24.143802,2023-10-04 13:17:25.753038,MF035.jpg,0,10785,40-69,2023-10-04_13h15.24.186,Recall,2021.2.3,60.01183433127415,
,SD024.jpg,0,MF024.jpg,0,,,,,0,11,11,73,imgFunc,9,NA,1.5221648000006098,626.0949603000045,627.730244300008,2023-10-04 13:17:25.761016,2023-10-04 13:17:27.388672,MF024.jpg,0,10785,40-69,2023-10-04_13h15.24.186,Recall,2021.2.3,60.01183433127415,
,SD015.jpg,0,MF015.jpg,0,,,,,0,12,12,64,imgFunc,9,NA,2.097729500004789,627.7514059000096,629.9593935000157,2023-10-04 13:17:27.409645,2023-10-04 13:17:29.606655,MF015.jpg,0,10785,40-69,2023-10-04_13h15.24.186,Recall,2021.2.3,60.01183433127415,
,SD017.jpg,0,MF017.jpg,0,,,,,0,13,13,66,imgFunc,0,NA,1.2376497999939602,629.9394267000025,631.274398900001,2023-10-04 13:17:29.614662,2023-10-04 13:17:30.941108,MF017.jpg,0,10785,40-69,2023-10-04_13h15.24.186,Recall,2021.2.3,60.01183433127415,
,L_DD506.jpg,1,L_FF506.jpg,1,,,,,0,14,14,45,imgFunc,0,NA,1.4639987000118708,631.2810848000081,632.8490529999981,2023-10-04 13:17:30.949100,2023-10-04 13:17:32.508837,L_FF506.jpg,1,10785,40-69,2023-10-04_13h15.24.186,Recall,2021.2.3,60.01183433127415,
,SD016.jpg,0,MF016.jpg,0,,,,,0,15,15,65,imgFunc,0,NA,1.5663670000067214,632.8587140000018,634.543717099994,2023-10-04 13:17:32.516814,2023-10-04 13:17:34.192963,MF016.jpg,0,10785,40-69,2023-10-04_13h15.24.186,Recall,2021.2.3,60.01183433127415,
,SD036.jpg,0,MF036.jpg,0,,,,,0,16,16,85,imgFunc,1,NA,3.324331199997687,634.5407414000074,637.9769335000019,2023-10-04 13:17:34.200933,2023-10-04 13:17:37.628755,MF036.jpg,0,10785,40-69,2023-10-04_13h15.24.186,Recall,2021.2.3,60.01183433127415,
,L_DD505.jpg,1,L_FF505.jpg,1,,,,,0,17,17,44,imgFunc,1,NA,1.7186624000023585,637.9624304000026,639.7810482000059,2023-10-04 13:17:37.636684,2023-10-04 13:17:39.446858,L_FF505.jpg,1,10785,40-69,2023-10-04_13h15.24.186,Recall,2021.2.3,60.01183433127415,
,DD030.jpg,0,FF030.jpg,0,,,,,0,18,18,29,imgFunc,1,NA,2.0016317999979947,639.7834333000064,641.8852135000197,2023-10-04 13:17:39.454832,2023-10-04 13:17:41.548090,FF030.jpg,0,10785,40-69,2023-10-04_13h15.24.186,Recall,2021.2.3,60.01183433127415,
,L_DD509.jpg,1,L_FF509.jpg,1,,,,,0,19,19,48,imgFunc,9,NA,2.5872870000021067,641.8861975000036,644.5717976000014,2023-10-04 13:17:41.556069,2023-10-04 13:17:44.233984,L_FF509.jpg,1,10785,40-69,2023-10-04_13h15.24.186,Recall,2021.2.3,60.01183433127415,
,SD003.jpg,0,MF003.jpg,0,,,,,0,20,20,52,imgFunc,0,NA,2.7056114000006346,644.5754395999975,647.3939237000013,2023-10-04 13:17:44.241977,2023-10-04 13:17:47.051700,MF003.jpg,0,10785,40-69,2023-10-04_13h15.24.186,Recall,2021.2.3,60.01183433127415,
,SD014.jpg,0,MF014.jpg,0,,,,,0,21,21,63,imgFunc,0,NA,1.7818694999878062,647.4031902999996,649.2930319000006,2023-10-04 13:17:47.065647,2023-10-04 13:17:48.953615,MF014.jpg,0,10785,40-69,2023-10-04_13h15.24.186,Recall,2021.2.3,60.01183433127415,
,DD024.jpg,0,FF024.jpg,0,,,,,0,22,22,23,imgFunc,2,NA,2.4697217000066303,649.2915063999972,651.8607278999843,2023-10-04 13:17:48.961587,2023-10-04 13:17:51.521901,FF024.jpg,0,10785,40-69,2023-10-04_13h15.24.186,Recall,2021.2.3,60.01183433127415,
,SD009.jpg,0,MF009.jpg,0,,,,,0,23,23,58,imgFunc,9,NA,3.2925878999958513,651.8604864000081,655.2620969000127,2023-10-04 13:17:51.530905,2023-10-04 13:17:54.924924,MF009.jpg,0,10785,40-69,2023-10-04_13h15.24.186,Recall,2021.2.3,60.01183433127415,
,DD036.jpg,0,FF036.jpg,0,,,,,0,24,24,35,imgFunc,0,NA,2.447939599995152,655.2652336000028,657.8176109000051,2023-10-04 13:17:54.931905,2023-10-04 13:17:57.476563,FF036.jpg,0,10785,40-69,2023-10-04_13h15.24.186,Recall,2021.2.3,60.01183433127415,
,DD002.jpg,0,FF002.jpg,0,,,,,0,25,25,1,imgFunc,2,NA,2.3930909000046086,657.8240556000092,660.3255591000197,2023-10-04 13:17:57.484513,2023-10-04 13:17:59.977811,FF002.jpg,0,10785,40-69,2023-10-04_13h15.24.186,Recall,2021.2.3,60.01183433127415,
,DD013.jpg,0,FF013.jpg,0,,,,,0,26,26,12,imgFunc,0,NA,2.057511399994837,660.3275715000054,662.4810422000155,2023-10-04 13:17:59.993767,2023-10-04 13:18:02.145873,FF013.jpg,0,10785,40-69,2023-10-04_13h15.24.186,Recall,2021.2.3,60.01183433127415,
,SD040.jpg,0,MF040.jpg,0,,,,,0,27,27,89,imgFunc,0,NA,1.4015811999997823,662.4795039000019,663.980395599996,2023-10-04 13:18:02.154847,2023-10-04 13:18:03.647569,MF040.jpg,0,10785,40-69,2023-10-04_13h15.24.186,Recall,2021.2.3,60.01183433127415,
,L_SD506.jpg,1,L_MF506.jpg,1,,,,,0,28,28,95,imgFunc,9,NA,4.889204599996447,663.9838947000098,668.9717404000257,2023-10-04 13:18:03.654549,2023-10-04 13:18:08.633998,L_MF506.jpg,1,10785,40-69,2023-10-04_13h15.24.186,Recall,2021.2.3,60.01183433127415,
,SD022.jpg,0,MF022.jpg,0,,,,,0,29,29,71,imgFunc,0,NA,1.0250746999954572,668.9760545000026,670.1091965000232,2023-10-04 13:18:08.642973,2023-10-04 13:18:09.768721,MF022.jpg,0,10785,40-69,2023-10-04_13h15.24.186,Recall,2021.2.3,60.01183433127415,
,DD003.jpg,0,FF003.jpg,0,,,,,0,30,30,2,imgFunc,1,NA,1.5926805000053719,670.1123911000032,671.814443899988,2023-10-04 13:18:09.775728,2023-10-04 13:18:11.469916,FF003.jpg,0,10785,40-69,2023-10-04_13h15.24.186,Recall,2021.2.3,60.01183433127415,
,DD022.jpg,0,FF022.jpg,0,,,,,0,31,31,21,imgFunc,0,NA,2.7355384999973467,671.8015540000051,674.6385955999867,2023-10-04 13:18:11.476897,2023-10-04 13:18:14.305320,FF022.jpg,0,10785,40-69,2023-10-04_13h15.24.186,Recall,2021.2.3,60.01183433127415,
,DD001.jpg,0,FF001.jpg,0,,,,,0,32,32,0,imgFunc,9,NA,2.2002332999982173,674.6328412000003,676.9191584000073,2023-10-04 13:18:14.312329,2023-10-04 13:18:16.589991,FF001.jpg,0,10785,40-69,2023-10-04_13h15.24.186,Recall,2021.2.3,60.01183433127415,
,L_SD508.jpg,1,L_MF508.jpg,1,,,,,0,33,33,97,imgFunc,0,NA,2.9627200000104494,676.9184917000093,679.971694300024,2023-10-04 13:18:16.598000,2023-10-04 13:18:19.641847,L_MF508.jpg,1,10785,40-69,2023-10-04_13h15.24.186,Recall,2021.2.3,60.01183433127415,
,SD021.jpg,0,MF021.jpg,0,,,,,0,34,34,70,imgFunc,0,NA,1.3051105000049574,679.9759535000048,681.3779529000167,2023-10-04 13:18:19.649824,2023-10-04 13:18:21.042667,MF021.jpg,0,10785,40-69,2023-10-04_13h15.24.186,Recall,2021.2.3,60.01183433127415,
,SD005.jpg,0,MF005.jpg,0,,,,,0,35,35,54,imgFunc,1,NA,2.97841409999819,681.3826890000055,684.4578282000002,2023-10-04 13:18:21.056629,2023-10-04 13:18:24.128606,MF005.jpg,0,10785,40-69,2023-10-04_13h15.24.186,Recall,2021.2.3,60.01183433127415,
,SD023.jpg,0,MF023.jpg,0,,,,,0,36,36,72,imgFunc,0,NA,2.514691100004711,684.4624651000049,687.082756400021,2023-10-04 13:18:24.135586,2023-10-04 13:18:26.747638,MF023.jpg,0,10785,40-69,2023-10-04_13h15.24.186,Recall,2021.2.3,60.01183433127415,
,SD020.jpg,0,MF020.jpg,0,,,,,0,37,37,69,imgFunc,9,NA,4.144708699997864,687.088381300011,691.3420916000177,2023-10-04 13:18:26.754637,2023-10-04 13:18:30.999828,MF020.jpg,0,10785,40-69,2023-10-04_13h15.24.186,Recall,2021.2.3,60.01183433127415,
,DD017.jpg,0,FF017.jpg,0,,,,,0,38,38,16,imgFunc,1,NA,2.2645544999977574,691.3364941000036,693.7055959000136,2023-10-04 13:18:31.007807,2023-10-04 13:18:33.368406,FF017.jpg,0,10785,40-69,2023-10-04_13h15.24.186,Recall,2021.2.3,60.01183433127415,
,SD012.jpg,0,MF012.jpg,0,,,,,0,39,39,61,imgFunc,9,NA,2.7716575999947963,693.7095872000064,696.5952670000115,2023-10-04 13:18:33.376359,2023-10-04 13:18:36.253484,MF012.jpg,0,10785,40-69,2023-10-04_13h15.24.186,Recall,2021.2.3,60.01183433127415,
,SD033.jpg,0,MF033.jpg,0,,,,,0,40,40,82,imgFunc,0,NA,1.538016599995899,696.5991106000001,698.236550799993,2023-10-04 13:18:36.268442,2023-10-04 13:18:37.905580,MF033.jpg,0,10785,40-69,2023-10-04_13h15.24.186,Recall,2021.2.3,60.01183433127415,
,DD028.jpg,0,FF028.jpg,0,,,,,0,41,41,27,imgFunc,9,NA,2.4303382000070997,698.234712999998,700.7529519999807,2023-10-04 13:18:37.913559,2023-10-04 13:18:40.423545,FF028.jpg,0,10785,40-69,2023-10-04_13h15.24.186,Recall,2021.2.3,60.01183433127415,
,L_SD507.jpg,1,L_MF507.jpg,1,,,,,0,42,42,96,imgFunc,0,NA,1.4440798999858089,700.7570738000068,702.2927430999989,2023-10-04 13:18:40.431524,2023-10-04 13:18:41.957914,L_MF507.jpg,1,10785,40-69,2023-10-04_13h15.24.186,Recall,2021.2.3,60.01183433127415,
,SD034.jpg,0,MF034.jpg,0,,,,,0,43,43,83,imgFunc,0,NA,2.2053117000032216,702.291810900002,704.5939307999943,2023-10-04 13:18:41.965917,2023-10-04 13:18:44.259923,MF034.jpg,0,10785,40-69,2023-10-04_13h15.24.186,Recall,2021.2.3,60.01183433127415,
,SD029.jpg,0,MF029.jpg,0,,,,,0,44,44,78,imgFunc,0,NA,2.117049499996938,704.5960648000037,706.8136517999956,2023-10-04 13:18:44.267903,2023-10-04 13:18:46.477899,MF029.jpg,0,10785,40-69,2023-10-04_13h15.24.186,Recall,2021.2.3,60.01183433127415,
,DD026.jpg,0,FF026.jpg,0,,,,,0,45,45,25,imgFunc,0,NA,1.1932795000029728,706.9518135000108,708.372052700026,2023-10-04 13:18:46.492861,2023-10-04 13:18:47.912410,FF026.jpg,0,10785,40-69,2023-10-04_13h15.24.186,Recall,2021.2.3,60.01183433127415,
,SD027.jpg,0,MF027.jpg,0,,,,,0,46,46,76,imgFunc,2,NA,3.6028672000102233,708.2462537000101,711.949745400023,2023-10-04 13:18:47.920362,2023-10-04 13:18:51.614879,MF027.jpg,0,10785,40-69,2023-10-04_13h15.24.186,Recall,2021.2.3,60.01183433127415,
,L_SD502.jpg,1,L_MF502.jpg,1,,,,,0,47,47,91,imgFunc,9,NA,3.250467899997602,711.9505987000011,715.3044662999891,2023-10-04 13:18:51.621861,2023-10-04 13:18:54.967462,L_MF502.jpg,1,10785,40-69,2023-10-04_13h15.24.186,Recall,2021.2.3,60.01183433127415,
,DD037.jpg,0,FF037.jpg,0,,,,,0,48,48,36,imgFunc,1,NA,1.4346225999906892,715.3024982000061,716.8370044999901,2023-10-04 13:18:54.975443,2023-10-04 13:18:56.501620,FF037.jpg,0,10785,40-69,2023-10-04_13h15.24.186,Recall,2021.2.3,60.01183433127415,
,DD009.jpg,0,FF009.jpg,0,,,,,0,49,49,8,imgFunc,1,NA,1.4808371999970404,716.8402642000001,718.4253237000084,2023-10-04 13:18:56.509600,2023-10-04 13:18:58.086528,FF009.jpg,0,10785,40-69,2023-10-04_13h15.24.186,Recall,2021.2.3,60.01183433127415,
,SD019.jpg,0,MF019.jpg,0,,,,,0,50,50,68,imgFunc,1,NA,2.25142689999484,718.4139235000039,720.7663639000093,2023-10-04 13:18:58.094507,2023-10-04 13:19:00.438050,MF019.jpg,0,10785,40-69,2023-10-04_13h15.24.186,Recall,2021.2.3,60.01183433127415,
,DD023.jpg,0,FF023.jpg,0,,,,,0,51,51,22,imgFunc,2,NA,3.087126599988551,720.7781396000064,723.9648084000073,2023-10-04 13:19:00.446061,2023-10-04 13:19:03.624030,FF023.jpg,0,10785,40-69,2023-10-04_13h15.24.186,Recall,2021.2.3,60.01183433127415,
,DD020.jpg,0,FF020.jpg,0,,,,,0,52,52,19,imgFunc,2,NA,1.6066387000028044,723.9624698999978,725.6788622000022,2023-10-04 13:19:03.633032,2023-10-04 13:19:05.342180,FF020.jpg,0,10785,40-69,2023-10-04_13h15.24.186,Recall,2021.2.3,60.01183433127415,
,L_SD510.jpg,1,L_MF510.jpg,1,,,,,0,53,53,99,imgFunc,0,NA,2.666008900007,725.6791269000096,728.4480707000184,2023-10-04 13:19:05.350187,2023-10-04 13:19:08.109783,L_MF510.jpg,1,10785,40-69,2023-10-04_13h15.24.186,Recall,2021.2.3,60.01183433127415,
,SD039.jpg,0,MF039.jpg,0,,,,,0,54,54,88,imgFunc,0,NA,0.8663170999934664,728.4467820999998,729.4019278000051,2023-10-04 13:19:08.124742,2023-10-04 13:19:09.077391,MF039.jpg,0,10785,40-69,2023-10-04_13h15.24.186,Recall,2021.2.3,60.01183433127415,
,SD002.jpg,0,MF002.jpg,0,,,,,0,55,55,51,imgFunc,9,NA,1.0650063999928534,729.4079896000039,730.5763331000053,2023-10-04 13:19:09.085372,2023-10-04 13:19:10.244938,MF002.jpg,0,10785,40-69,2023-10-04_13h15.24.186,Recall,2021.2.3,60.01183433127415,
,SD013.jpg,0,MF013.jpg,0,,,,,0,56,56,62,imgFunc,9,NA,2.9991224000114016,730.5780468000012,733.6814866999921,2023-10-04 13:19:10.252885,2023-10-04 13:19:13.346837,MF013.jpg,0,10785,40-69,2023-10-04_13h15.24.186,Recall,2021.2.3,60.01183433127415,
,L_DD510.jpg,1,L_FF510.jpg,1,,,,,0,57,57,49,imgFunc,0,NA,1.97695830000157,733.6803765000077,735.7495675999962,2023-10-04 13:19:13.354814,2023-10-04 13:19:15.415370,L_FF510.jpg,1,10785,40-69,2023-10-04_13h15.24.186,Recall,2021.2.3,60.01183433127415,
,DD019.jpg,0,FF019.jpg,0,,,,,0,58,58,18,imgFunc,1,NA,2.143037400004687,735.7540373000083,738.0053948999994,2023-10-04 13:19:15.423348,2023-10-04 13:19:17.666950,FF019.jpg,0,10785,40-69,2023-10-04_13h15.24.186,Recall,2021.2.3,60.01183433127415,
,L_DD502.jpg,1,L_FF502.jpg,1,,,,,0,59,59,41,imgFunc,1,NA,1.24498780000431,738.0041482000088,739.3403953000234,2023-10-04 13:19:17.681910,2023-10-04 13:19:19.018227,L_FF502.jpg,1,10785,40-69,2023-10-04_13h15.24.186,Recall,2021.2.3,60.01183433127415,
,DD005.jpg,0,FF005.jpg,0,,,,,0,60,60,4,imgFunc,0,NA,2.6819145000044955,739.3432085000095,742.1139192000119,2023-10-04 13:19:19.025222,2023-10-04 13:19:21.786953,FF005.jpg,0,10785,40-69,2023-10-04_13h15.24.186,Recall,2021.2.3,60.01183433127415,
,SD025.jpg,0,MF025.jpg,0,,,,,0,61,61,74,imgFunc,0,NA,1.1424594999989495,742.1146917000005,743.3494723999902,2023-10-04 13:19:21.794954,2023-10-04 13:19:23.021143,MF025.jpg,0,10785,40-69,2023-10-04_13h15.24.186,Recall,2021.2.3,60.01183433127415,
,DD016.jpg,0,FF016.jpg,0,,,,,0,62,62,15,imgFunc,1,NA,1.5660224000021117,743.347118500009,745.000139700016,2023-10-04 13:19:23.028155,2023-10-04 13:19:24.671687,FF016.jpg,0,10785,40-69,2023-10-04_13h15.24.186,Recall,2021.2.3,60.01183433127415,
,L_DD507.jpg,1,L_FF507.jpg,1,,,,,0,63,63,46,imgFunc,0,NA,3.269079600009718,745.0041480000073,748.3739508000144,2023-10-04 13:19:24.679667,2023-10-04 13:19:28.041208,L_FF507.jpg,1,10785,40-69,2023-10-04_13h15.24.186,Recall,2021.2.3,60.01183433127415,
,L_DD504.jpg,1,L_FF504.jpg,1,,,,,0,64,64,43,imgFunc,9,NA,2.5788233000057517,748.36632310001,751.036340199993,2023-10-04 13:19:28.048190,2023-10-04 13:19:30.709111,L_FF504.jpg,1,10785,40-69,2023-10-04_13h15.24.186,Recall,2021.2.3,60.01183433127415,
,SD028.jpg,0,MF028.jpg,0,,,,,0,65,65,77,imgFunc,9,NA,1.6371438000060152,751.0359933,752.7719617999828,2023-10-04 13:19:30.717073,2023-10-04 13:19:32.444502,MF028.jpg,0,10785,40-69,2023-10-04_13h15.24.186,Recall,2021.2.3,60.01183433127415,
,SD032.jpg,0,MF032.jpg,0,,,,,0,66,66,81,imgFunc,9,NA,2.1583969999919645,752.7707960999978,755.0235830999882,2023-10-04 13:19:32.451511,2023-10-04 13:19:34.695498,MF032.jpg,0,10785,40-69,2023-10-04_13h15.24.186,Recall,2021.2.3,60.01183433127415,
,DD029.jpg,0,FF029.jpg,0,,,,,0,67,67,28,imgFunc,0,NA,1.048975799989421,755.0242091999971,756.1763099999807,2023-10-04 13:19:34.703467,2023-10-04 13:19:35.846630,FF029.jpg,0,10785,40-69,2023-10-04_13h15.24.186,Recall,2021.2.3,60.01183433127415,
,SD011.jpg,0,MF011.jpg,0,,,,,0,68,68,60,imgFunc,9,NA,2.5624602000025334,756.1827028999978,758.8386888999958,2023-10-04 13:19:35.860567,2023-10-04 13:19:38.515197,MF011.jpg,0,10785,40-69,2023-10-04_13h15.24.186,Recall,2021.2.3,60.01183433127415,
,DD006.jpg,0,FF006.jpg,0,,,,,0,69,69,5,imgFunc,0,NA,1.2738146000046981,758.8393335000001,760.2086654000013,2023-10-04 13:19:38.522178,2023-10-04 13:19:39.882776,FF006.jpg,0,10785,40-69,2023-10-04_13h15.24.186,Recall,2021.2.3,60.01183433127415,
,SD007.jpg,0,MF007.jpg,0,,,,,0,70,70,56,imgFunc,0,NA,0.8647633999935351,760.2086414000078,761.1609906000085,2023-10-04 13:19:39.889741,2023-10-04 13:19:40.833229,MF007.jpg,0,10785,40-69,2023-10-04_13h15.24.186,Recall,2021.2.3,60.01183433127415,
,SD008.jpg,0,MF008.jpg,0,,,,,0,71,71,57,imgFunc,9,NA,1.6773052999924403,761.1640047999972,762.9320135000016,2023-10-04 13:19:40.842195,2023-10-04 13:19:42.601745,MF008.jpg,0,10785,40-69,2023-10-04_13h15.24.186,Recall,2021.2.3,60.01183433127415,
,L_DD508.jpg,1,L_FF508.jpg,1,,,,,0,72,72,47,imgFunc,0,NA,1.4001906999910716,762.9290268000041,764.4312393000146,2023-10-04 13:19:42.608722,2023-10-04 13:19:44.102497,L_FF508.jpg,1,10785,40-69,2023-10-04_13h15.24.186,Recall,2021.2.3,60.01183433127415,
,DD040.jpg,0,FF040.jpg,0,,,,,0,73,73,39,imgFunc,9,NA,1.882941199990455,764.4382001000049,766.4097576000058,2023-10-04 13:19:44.117454,2023-10-04 13:19:46.087003,FF040.jpg,0,10785,40-69,2023-10-04_13h15.24.186,Recall,2021.2.3,60.01183433127415,
,DD011.jpg,0,FF011.jpg,0,,,,,0,74,74,10,imgFunc,0,NA,0.7332482000056189,766.4119353999995,767.2310620999924,2023-10-04 13:19:46.094973,2023-10-04 13:19:46.904813,FF011.jpg,0,10785,40-69,2023-10-04_13h15.24.186,Recall,2021.2.3,60.01183433127415,
,DD025.jpg,0,FF025.jpg,0,,,,,0,75,75,24,imgFunc,9,NA,0.8870657999941614,767.2340898999973,768.2185000999889,2023-10-04 13:19:46.912790,2023-10-04 13:19:47.888452,FF025.jpg,0,10785,40-69,2023-10-04_13h15.24.186,Recall,2021.2.3,60.01183433127415,
,SD001.jpg,0,MF001.jpg,0,,,,,0,76,76,50,imgFunc,1,NA,2.177844100006041,768.2152799000032,770.4853214000177,2023-10-04 13:19:47.895433,2023-10-04 13:19:50.156930,MF001.jpg,0,10785,40-69,2023-10-04_13h15.24.186,Recall,2021.2.3,60.01183433127415,
,DD015.jpg,0,FF015.jpg,0,,,,,0,77,77,14,imgFunc,9,NA,4.504205000004731,770.4889543000027,775.0939779000037,2023-10-04 13:19:50.163915,2023-10-04 13:19:54.759848,FF015.jpg,0,10785,40-69,2023-10-04_13h15.24.186,Recall,2021.2.3,60.01183433127415,
,SD010.jpg,0,MF010.jpg,0,,,,,0,78,78,59,imgFunc,0,NA,1.679294799992931,775.0899203000008,776.8567918999906,2023-10-04 13:19:54.768784,2023-10-04 13:19:56.528146,MF010.jpg,0,10785,40-69,2023-10-04_13h15.24.186,Recall,2021.2.3,60.01183433127415,
,L_SD509.jpg,1,L_MF509.jpg,1,,,,,0,79,79,98,imgFunc,9,NA,1.3874949000019114,776.8536800000002,778.3393628999911,2023-10-04 13:19:56.535127,2023-10-04 13:19:58.012150,L_MF509.jpg,1,10785,40-69,2023-10-04_13h15.24.186,Recall,2021.2.3,60.01183433127415,
,L_DD503.jpg,1,L_FF503.jpg,1,,,,,0,80,80,42,imgFunc,0,NA,2.1173500000004424,778.3398750000051,780.5596254999982,2023-10-04 13:19:58.020127,2023-10-04 13:20:00.231018,L_FF503.jpg,1,10785,40-69,2023-10-04_13h15.24.186,Recall,2021.2.3,60.01183433127415,
,DD010.jpg,0,FF010.jpg,0,,,,,0,81,81,9,imgFunc,0,NA,0.7937681000039447,780.5594313000038,781.4449811000086,2023-10-04 13:20:00.237999,2023-10-04 13:20:01.114800,FF010.jpg,0,10785,40-69,2023-10-04_13h15.24.186,Recall,2021.2.3,60.01183433127415,
,L_SD505.jpg,1,L_MF505.jpg,1,,,,,0,82,82,94,imgFunc,0,NA,0.7828103999927407,781.4503934000095,782.3229073000111,2023-10-04 13:20:01.128763,2023-10-04 13:20:01.998317,L_MF505.jpg,1,10785,40-69,2023-10-04_13h15.24.186,Recall,2021.2.3,60.01183433127415,
,DD032.jpg,0,FF032.jpg,0,,,,,0,83,83,31,imgFunc,0,NA,1.046162300001015,782.3230440000043,783.4586694000172,2023-10-04 13:20:02.006322,2023-10-04 13:20:03.132317,FF032.jpg,0,10785,40-69,2023-10-04_13h15.24.186,Recall,2021.2.3,60.01183433127415,
,SD031.jpg,0,MF031.jpg,0,,,,,0,84,84,80,imgFunc,1,NA,3.0409211000078358,783.4882603000005,786.6568303999957,2023-10-04 13:20:03.141272,2023-10-04 13:20:06.302014,MF031.jpg,0,10785,40-69,2023-10-04_13h15.24.186,Recall,2021.2.3,60.01183433127415,
,DD039.jpg,0,FF039.jpg,0,,,,,0,85,85,38,imgFunc,1,NA,0.8517527999938466,786.629416900003,787.5815032999963,2023-10-04 13:20:06.309024,2023-10-04 13:20:07.252458,FF039.jpg,0,10785,40-69,2023-10-04_13h15.24.186,Recall,2021.2.3,60.01183433127415,
,DD021.jpg,0,FF021.jpg,0,,,,,0,86,86,20,imgFunc,0,NA,1.584453499992378,787.5847229000065,789.2708616000018,2023-10-04 13:20:07.259439,2023-10-04 13:20:08.936418,FF021.jpg,0,10785,40-69,2023-10-04_13h15.24.186,Recall,2021.2.3,60.01183433127415,
,SD026.jpg,0,MF026.jpg,0,,,,,0,87,87,75,imgFunc,0,NA,1.8183380000118632,789.2789269000059,791.181989100005,2023-10-04 13:20:08.952365,2023-10-04 13:20:10.855328,MF026.jpg,0,10785,40-69,2023-10-04_13h15.24.186,Recall,2021.2.3,60.01183433127415,
,DD012.jpg,0,FF012.jpg,0,,,,,0,88,88,11,imgFunc,9,NA,1.5505288999993354,791.1866945000074,792.8380151000019,2023-10-04 13:20:10.863307,2023-10-04 13:20:12.505653,FF012.jpg,0,10785,40-69,2023-10-04_13h15.24.186,Recall,2021.2.3,60.01183433127415,
,DD007.jpg,0,FF007.jpg,0,,,,,0,89,89,6,imgFunc,1,NA,1.2668599999888102,792.838316399997,794.2068138000031,2023-10-04 13:20:12.513608,2023-10-04 13:20:13.873947,FF007.jpg,0,10785,40-69,2023-10-04_13h15.24.186,Recall,2021.2.3,60.01183433127415,
,DD014.jpg,0,FF014.jpg,0,,,,,0,90,90,13,imgFunc,0,NA,2.5280386000085855,794.2091291999968,796.8452804000117,2023-10-04 13:20:13.881954,2023-10-04 13:20:16.508770,FF014.jpg,0,10785,40-69,2023-10-04_13h15.24.186,Recall,2021.2.3,60.01183433127415,
,DD034.jpg,0,FF034.jpg,0,,,,,0,91,91,33,imgFunc,0,NA,0.9924323000013828,796.8487829000078,797.9497873000073,2023-10-04 13:20:16.516743,2023-10-04 13:20:17.610281,FF034.jpg,0,10785,40-69,2023-10-04_13h15.24.186,Recall,2021.2.3,60.01183433127415,
,DD018.jpg,0,FF018.jpg,0,,,,,0,92,92,17,imgFunc,0,NA,0.7653877999982797,797.9400259000104,798.8085569000104,2023-10-04 13:20:17.617292,2023-10-04 13:20:18.477505,FF018.jpg,0,10785,40-69,2023-10-04_13h15.24.186,Recall,2021.2.3,60.01183433127415,
,SD018.jpg,0,MF018.jpg,0,,,,,0,93,93,67,imgFunc,0,NA,0.7016263000114122,798.8036452000088,799.6068971000204,2023-10-04 13:20:18.484488,2023-10-04 13:20:19.278767,MF018.jpg,0,10785,40-69,2023-10-04_13h15.24.186,Recall,2021.2.3,60.01183433127415,
,L_DD501.jpg,1,L_FF501.jpg,1,,,,,0,94,94,40,imgFunc,0,NA,1.3576083999942057,799.6116149000009,801.0615737999906,2023-10-04 13:20:19.286746,2023-10-04 13:20:20.729052,L_FF501.jpg,1,10785,40-69,2023-10-04_13h15.24.186,Recall,2021.2.3,60.01183433127415,
,DD033.jpg,0,FF033.jpg,0,,,,,0,95,95,32,imgFunc,0,NA,1.6201087000081316,801.0610718000098,802.7797097000293,2023-10-04 13:20:20.736061,2023-10-04 13:20:22.446825,FF033.jpg,0,10785,40-69,2023-10-04_13h15.24.186,Recall,2021.2.3,60.01183433127415,
,L_SD504.jpg,1,L_MF504.jpg,1,,,,,0,96,96,93,imgFunc,0,NA,1.019010599993635,802.7901788000017,803.9098554000084,2023-10-04 13:20:22.461775,2023-10-04 13:20:23.580552,L_MF504.jpg,1,10785,40-69,2023-10-04_13h15.24.186,Recall,2021.2.3,60.01183433127415,
,SD006.jpg,0,MF006.jpg,0,,,,,0,97,97,55,imgFunc,1,NA,2.5558013999980176,803.9174727000063,806.570197500012,2023-10-04 13:20:23.588534,2023-10-04 13:20:26.232200,MF006.jpg,0,10785,40-69,2023-10-04_13h15.24.186,Recall,2021.2.3,60.01183433127415,
,L_SD503.jpg,1,L_MF503.jpg,1,,,,,0,98,98,92,imgFunc,0,NA,1.0082155999989482,806.5609645000077,807.6615236000071,2023-10-04 13:20:26.241198,2023-10-04 13:20:27.333616,L_MF503.jpg,1,10785,40-69,2023-10-04_13h15.24.186,Recall,2021.2.3,60.01183433127415,
,DD035.jpg,0,FF035.jpg,0,,,,,0,99,99,34,imgFunc,1,NA,3.644407500003581,807.6608890000061,811.3989772999921,2023-10-04 13:20:27.340597,2023-10-04 13:20:31.069841,FF035.jpg,0,10785,40-69,2023-10-04_13h15.24.186,Recall,2021.2.3,60.01183433127415,
,,,,,,,,,,,,,instrFunc,space,"Great work! 

 Now you will switch to the other image type.

 Press the spacebar whenever you are ready to start.",4.884248700007447,811.3333530000091,816.2670848999842,2023-10-04 13:20:31.070841,2023-10-04 13:20:35.988690,,,10785,40-69,2023-10-04_13h15.24.186,Recall,2021.2.3,60.01183433127415,
,SD036.jpg,0,MF036.jpg,0,,,,,0,0,0,85,imgFunc,9,NA,4.5395817999960855,816.3496404000034,820.9909451999993,2023-10-04 13:20:36.020629,2023-10-04 13:20:40.660119,SD036.jpg,0,10785,40-69,2023-10-04_13h15.24.186,Recall,2021.2.3,60.01183433127415,
,SD007.jpg,0,MF007.jpg,0,,,,,0,1,1,56,imgFunc,9,NA,2.5248081000027014,820.9886323000101,823.6063457000128,2023-10-04 13:20:40.668101,2023-10-04 13:20:43.278752,SD007.jpg,0,10785,40-69,2023-10-04_13h15.24.186,Recall,2021.2.3,60.01183433127415,
,L_DD509.jpg,1,L_FF509.jpg,1,,,,,0,2,2,48,imgFunc,2,NA,2.4009861999948043,823.6084948000062,826.1115518000006,2023-10-04 13:20:43.285735,2023-10-04 13:20:45.780609,L_DD509.jpg,1,10785,40-69,2023-10-04_13h15.24.186,Recall,2021.2.3,60.01183433127415,
,SD011.jpg,0,MF011.jpg,0,,,,,0,3,3,60,imgFunc,1,NA,2.8006633000040893,826.1126259000011,829.007385799996,2023-10-04 13:20:45.791608,2023-10-04 13:20:48.682348,SD011.jpg,0,10785,40-69,2023-10-04_13h15.24.186,Recall,2021.2.3,60.01183433127415,
,DD002.jpg,0,FF002.jpg,0,,,,,0,4,4,1,imgFunc,1,NA,4.191689600003883,829.0098471000092,833.2974808000145,2023-10-04 13:20:48.689354,2023-10-04 13:20:52.968672,DD002.jpg,0,10785,40-69,2023-10-04_13h15.24.186,Recall,2021.2.3,60.01183433127415,
,DD017.jpg,0,FF017.jpg,0,,,,,0,5,5,16,imgFunc,9,NA,3.02988610000466,833.2996592999989,836.4191352000053,2023-10-04 13:20:52.976681,2023-10-04 13:20:56.087899,DD017.jpg,0,10785,40-69,2023-10-04_13h15.24.186,Recall,2021.2.3,60.01183433127415,
,DD014.jpg,0,FF014.jpg,0,,,,,0,6,6,13,imgFunc,0,NA,3.265934200011543,836.4234944000054,839.7939863000065,2023-10-04 13:20:56.094883,2023-10-04 13:20:59.456820,DD014.jpg,0,10785,40-69,2023-10-04_13h15.24.186,Recall,2021.2.3,60.01183433127415,
,SD031.jpg,0,MF031.jpg,0,,,,,0,7,7,80,imgFunc,9,NA,2.4269872000004398,839.7903894000046,842.3104255000071,2023-10-04 13:20:59.463804,2023-10-04 13:21:01.975500,SD031.jpg,0,10785,40-69,2023-10-04_13h15.24.186,Recall,2021.2.3,60.01183433127415,
,L_DD510.jpg,1,L_FF510.jpg,1,,,,,0,8,8,49,imgFunc,0,NA,1.342677000007825,842.3067097000021,843.7429592999979,2023-10-04 13:21:01.982483,2023-10-04 13:21:03.409579,L_DD510.jpg,1,10785,40-69,2023-10-04_13h15.24.186,Recall,2021.2.3,60.01183433127415,
,DD016.jpg,0,FF016.jpg,0,,,,,0,9,9,15,imgFunc,9,NA,3.14749760000268,843.7418825000059,846.9964077000186,2023-10-04 13:21:03.416563,2023-10-04 13:21:06.662144,DD016.jpg,0,10785,40-69,2023-10-04_13h15.24.186,Recall,2021.2.3,60.01183433127415,
,SD027.jpg,0,MF027.jpg,0,,,,,0,10,10,76,imgFunc,9,NA,2.9327100000082282,846.9884889000095,850.0089671000023,2023-10-04 13:21:06.669127,2023-10-04 13:21:09.680763,SD027.jpg,0,10785,40-69,2023-10-04_13h15.24.186,Recall,2021.2.3,60.01183433127415,
,DD006.jpg,0,FF006.jpg,0,,,,,0,11,11,5,imgFunc,0,NA,2.618467399996007,850.0149964000011,852.7358563000162,2023-10-04 13:21:09.687746,2023-10-04 13:21:12.399583,DD006.jpg,0,10785,40-69,2023-10-04_13h15.24.186,Recall,2021.2.3,60.01183433127415,
,SD017.jpg,0,MF017.jpg,0,,,,,0,12,12,66,imgFunc,2,NA,3.6043936000060057,852.7408533999987,856.45052329998,2023-10-04 13:21:12.412550,2023-10-04 13:21:16.118747,SD017.jpg,0,10785,40-69,2023-10-04_13h15.24.186,Recall,2021.2.3,60.01183433127415,
,DD015.jpg,0,FF015.jpg,0,,,,,0,13,13,14,imgFunc,9,NA,2.2958035999909043,856.4417006000003,858.8281683999958,2023-10-04 13:21:16.125730,2023-10-04 13:21:18.503740,DD015.jpg,0,10785,40-69,2023-10-04_13h15.24.186,Recall,2021.2.3,60.01183433127415,
,SD023.jpg,0,MF023.jpg,0,,,,,0,14,14,72,imgFunc,9,NA,1.3419266999990214,858.8356408999971,860.271554299994,2023-10-04 13:21:18.510723,2023-10-04 13:21:19.938287,SD023.jpg,0,10785,40-69,2023-10-04_13h15.24.186,Recall,2021.2.3,60.01183433127415,
,DD028.jpg,0,FF028.jpg,0,,,,,0,15,15,27,imgFunc,9,NA,3.6422862999897916,860.2711825000006,864.0084974000056,2023-10-04 13:21:19.945270,2023-10-04 13:21:23.674257,DD028.jpg,0,10785,40-69,2023-10-04_13h15.24.186,Recall,2021.2.3,60.01183433127415,
,L_SD510.jpg,1,L_MF510.jpg,1,,,,,0,16,16,99,imgFunc,0,NA,0.9487514999927953,864.0044718999998,865.0566606000066,2023-10-04 13:21:23.681240,2023-10-04 13:21:24.724950,L_SD510.jpg,1,10785,40-69,2023-10-04_13h15.24.186,Recall,2021.2.3,60.01183433127415,
,DD004.jpg,0,FF004.jpg,0,,,,,0,17,17,3,imgFunc,2,NA,2.3985841999965487,865.0749616000103,867.5803614000033,2023-10-04 13:21:24.738937,2023-10-04 13:21:27.243343,DD004.jpg,0,10785,40-69,2023-10-04_13h15.24.186,Recall,2021.2.3,60.01183433127415,
,SD034.jpg,0,MF034.jpg,0,,,,,0,18,18,83,imgFunc,1,NA,2.3796715999924345,867.5658125000045,870.0358173000132,2023-10-04 13:21:27.250327,2023-10-04 13:21:29.711708,SD034.jpg,0,10785,40-69,2023-10-04_13h15.24.186,Recall,2021.2.3,60.01183433127415,
,SD029.jpg,0,MF029.jpg,0,,,,,0,19,19,78,imgFunc,0,NA,5.124467300003744,870.0449618999992,875.266621200004,2023-10-04 13:21:29.719712,2023-10-04 13:21:34.932623,SD029.jpg,0,10785,40-69,2023-10-04_13h15.24.186,Recall,2021.2.3,60.01183433127415,
,DD012.jpg,0,FF012.jpg,0,,,,,0,20,20,11,imgFunc,9,NA,1.8536186999990605,875.2836513000075,877.2494833999954,2023-10-04 13:21:34.941608,2023-10-04 13:21:36.900129,DD012.jpg,0,10785,40-69,2023-10-04_13h15.24.186,Recall,2021.2.3,60.01183433127415,
,SD022.jpg,0,MF022.jpg,0,,,,,0,21,21,71,imgFunc,1,NA,2.386617300013313,877.2468618999992,879.7506753000052,2023-10-04 13:21:36.907112,2023-10-04 13:21:39.402262,SD022.jpg,0,10785,40-69,2023-10-04_13h15.24.186,Recall,2021.2.3,60.01183433127415,
,SD039.jpg,0,MF039.jpg,0,,,,,0,22,22,88,imgFunc,0,NA,2.0995683999935864,879.7418296000105,881.9295476000116,2023-10-04 13:21:39.417251,2023-10-04 13:21:41.603778,SD039.jpg,0,10785,40-69,2023-10-04_13h15.24.186,Recall,2021.2.3,60.01183433127415,
,DD020.jpg,0,FF020.jpg,0,,,,,0,23,23,19,imgFunc,9,NA,1.9384753000049386,881.9428267000039,883.9955867000099,2023-10-04 13:21:41.610761,2023-10-04 13:21:43.655041,DD020.jpg,0,10785,40-69,2023-10-04_13h15.24.186,Recall,2021.2.3,60.01183433127415,
,L_DD502.jpg,1,L_FF502.jpg,1,,,,,0,24,24,41,imgFunc,9,NA,2.726858499998343,883.9787386000098,886.7985753000103,2023-10-04 13:21:43.662024,2023-10-04 13:21:46.473663,L_DD502.jpg,1,10785,40-69,2023-10-04_13h15.24.186,Recall,2021.2.3,60.01183433127415,
,SD032.jpg,0,MF032.jpg,0,,,,,0,25,25,81,imgFunc,0,NA,1.9919392000010703,886.809396800003,888.9129825000273,2023-10-04 13:21:46.480646,2023-10-04 13:21:48.575569,SD032.jpg,0,10785,40-69,2023-10-04_13h15.24.186,Recall,2021.2.3,60.01183433127415,
,DD011.jpg,0,FF011.jpg,0,,,,,0,26,26,10,imgFunc,1,NA,2.554205799999181,888.9034014000063,891.5565848000115,2023-10-04 13:21:48.582571,2023-10-04 13:21:51.226984,DD011.jpg,0,10785,40-69,2023-10-04_13h15.24.186,Recall,2021.2.3,60.01183433127415,
,DD035.jpg,0,FF035.jpg,0,,,,,0,27,27,34,imgFunc,1,NA,1.1122464999934891,891.5610480000032,892.7806151999976,2023-10-04 13:21:51.233967,2023-10-04 13:21:52.444445,DD035.jpg,0,10785,40-69,2023-10-04_13h15.24.186,Recall,2021.2.3,60.01183433127415,
,SD005.jpg,0,MF005.jpg,0,,,,,0,28,28,54,imgFunc,0,NA,3.3809706999891205,892.772566700005,896.2442295000073,2023-10-04 13:21:52.451428,2023-10-04 13:21:55.913983,SD005.jpg,0,10785,40-69,2023-10-04_13h15.24.186,Recall,2021.2.3,60.01183433127415,
,L_DD503.jpg,1,L_FF503.jpg,1,,,,,0,29,29,42,imgFunc,0,NA,1.9445938999997452,896.2409865000081,898.2769765000121,2023-10-04 13:21:55.920969,2023-10-04 13:21:57.948592,L_DD503.jpg,1,10785,40-69,2023-10-04_13h15.24.186,Recall,2021.2.3,60.01183433127415,
,SD033.jpg,0,MF033.jpg,0,,,,,0,30,30,82,imgFunc,9,NA,1.1688185000093654,898.2804427000083,899.5500399000011,2023-10-04 13:21:57.955575,2023-10-04 13:21:59.216194,SD033.jpg,0,10785,40-69,2023-10-04_13h15.24.186,Recall,2021.2.3,60.01183433127415,
,DD038.jpg,0,FF038.jpg,0,,,,,0,31,31,37,imgFunc,1,NA,2.495081000000937,899.5544156000105,902.1464883000153,2023-10-04 13:21:59.229161,2023-10-04 13:22:01.818063,DD038.jpg,0,10785,40-69,2023-10-04_13h15.24.186,Recall,2021.2.3,60.01183433127415,
,L_DD504.jpg,1,L_FF504.jpg,1,,,,,0,32,32,43,imgFunc,0,NA,2.1737890999938827,902.1554945000098,904.4423769000132,2023-10-04 13:22:01.825056,2023-10-04 13:22:04.102969,L_DD504.jpg,1,10785,40-69,2023-10-04_13h15.24.186,Recall,2021.2.3,60.01183433127415,
,SD013.jpg,0,MF013.jpg,0,,,,,0,33,33,62,imgFunc,1,NA,1.7018231000110973,904.4275962000102,906.2132283999963,2023-10-04 13:22:04.110800,2023-10-04 13:22:05.887742,SD013.jpg,0,10785,40-69,2023-10-04_13h15.24.186,Recall,2021.2.3,60.01183433127415,
,DD010.jpg,0,FF010.jpg,0,,,,,0,34,34,9,imgFunc,9,NA,1.9296273999934783,906.2156937999971,908.2355663999915,2023-10-04 13:22:05.894725,2023-10-04 13:22:07.905989,DD010.jpg,0,10785,40-69,2023-10-04_13h15.24.186,Recall,2021.2.3,60.01183433127415,
,DD009.jpg,0,FF009.jpg,0,,,,,0,35,35,8,imgFunc,0,NA,2.289473900003941,908.2402219000069,910.6272578000062,2023-10-04 13:22:07.912972,2023-10-04 13:22:10.290978,DD009.jpg,0,10785,40-69,2023-10-04_13h15.24.186,Recall,2021.2.3,60.01183433127415,
,DD031.jpg,0,FF031.jpg,0,,,,,0,36,36,30,imgFunc,1,NA,3.902349399999366,910.6351262000098,914.6421218000178,2023-10-04 13:22:10.304943,2023-10-04 13:22:14.310264,DD031.jpg,0,10785,40-69,2023-10-04_13h15.24.186,Recall,2021.2.3,60.01183433127415,
,DD007.jpg,0,FF007.jpg,0,,,,,0,37,37,6,imgFunc,9,NA,2.1226446999935433,914.6389893000014,916.8586291999964,2023-10-04 13:22:14.318267,2023-10-04 13:22:16.529008,DD007.jpg,0,10785,40-69,2023-10-04_13h15.24.186,Recall,2021.2.3,60.01183433127415,
,SD024.jpg,0,MF024.jpg,0,,,,,0,38,38,73,imgFunc,0,NA,1.3885085999936564,916.8690464000101,918.3665222000127,2023-10-04 13:22:16.538966,2023-10-04 13:22:18.029761,SD024.jpg,0,10785,40-69,2023-10-04_13h15.24.186,Recall,2021.2.3,60.01183433127415,
,SD021.jpg,0,MF021.jpg,0,,,,,0,39,39,70,imgFunc,0,NA,1.3347624000016367,918.3545620000077,919.7734257000266,2023-10-04 13:22:18.036744,2023-10-04 13:22:19.447521,SD021.jpg,0,10785,40-69,2023-10-04_13h15.24.186,Recall,2021.2.3,60.01183433127415,
,SD030.jpg,0,MF030.jpg,0,,,,,0,40,40,79,imgFunc,2,NA,4.476573799998732,919.780855200006,924.3526149000099,2023-10-04 13:22:19.454479,2023-10-04 13:22:24.017429,SD030.jpg,0,10785,40-69,2023-10-04_13h15.24.186,Recall,2021.2.3,60.01183433127415,
,DD025.jpg,0,FF025.jpg,0,,,,,0,41,41,24,imgFunc,1,NA,1.125870899995789,924.3554922000039,925.588474300006,2023-10-04 13:22:24.034386,2023-10-04 13:22:25.251412,DD025.jpg,0,10785,40-69,2023-10-04_13h15.24.186,Recall,2021.2.3,60.01183433127415,
,SD014.jpg,0,MF014.jpg,0,,,,,0,42,42,63,imgFunc,9,NA,3.0979770999983884,925.5835220000008,928.7870626999938,2023-10-04 13:22:25.258417,2023-10-04 13:22:28.453646,SD014.jpg,0,10785,40-69,2023-10-04_13h15.24.186,Recall,2021.2.3,60.01183433127415,
,DD024.jpg,0,FF024.jpg,0,,,,,0,43,43,23,imgFunc,0,NA,3.667582299996866,928.790041500004,932.5605037000059,2023-10-04 13:22:28.461649,2023-10-04 13:22:32.223108,DD024.jpg,0,10785,40-69,2023-10-04_13h15.24.186,Recall,2021.2.3,60.01183433127415,
,SD028.jpg,0,MF028.jpg,0,,,,,0,44,44,77,imgFunc,9,NA,2.217983800001093,932.5515565000096,934.8710837000108,2023-10-04 13:22:32.230091,2023-10-04 13:22:34.541520,SD028.jpg,0,10785,40-69,2023-10-04_13h15.24.186,Recall,2021.2.3,60.01183433127415,
,DD033.jpg,0,FF033.jpg,0,,,,,0,45,45,32,imgFunc,9,NA,2.921228199993493,934.8802617000038,937.8998755000066,2023-10-04 13:22:34.548533,2023-10-04 13:22:37.560304,DD033.jpg,0,10785,40-69,2023-10-04_13h15.24.186,Recall,2021.2.3,60.01183433127415,
,L_DD505.jpg,1,L_FF505.jpg,1,,,,,0,46,46,44,imgFunc,0,NA,2.3567989000002854,937.8848317000084,940.3378338000184,2023-10-04 13:22:37.567288,2023-10-04 13:22:40.012104,L_DD505.jpg,1,10785,40-69,2023-10-04_13h15.24.186,Recall,2021.2.3,60.01183433127415,
,DD019.jpg,0,FF019.jpg,0,,,,,0,47,47,18,imgFunc,2,NA,3.7787979999993695,940.3426834999991,944.2140403999947,2023-10-04 13:22:40.019087,2023-10-04 13:22:43.881615,DD019.jpg,0,10785,40-69,2023-10-04_13h15.24.186,Recall,2021.2.3,60.01183433127415,
,DD032.jpg,0,FF032.jpg,0,,,,,0,48,48,31,imgFunc,9,NA,1.736642000003485,944.2090000000026,946.0450117000146,2023-10-04 13:22:43.888598,2023-10-04 13:22:45.716251,DD032.jpg,0,10785,40-69,2023-10-04_13h15.24.186,Recall,2021.2.3,60.01183433127415,
,SD001.jpg,0,MF001.jpg,0,,,,,0,49,49,50,imgFunc,0,NA,1.5374823000020115,946.0481528000091,947.6840299000178,2023-10-04 13:22:45.723252,2023-10-04 13:22:47.350705,SD001.jpg,0,10785,40-69,2023-10-04_13h15.24.186,Recall,2021.2.3,60.01183433127415,
,DD023.jpg,0,FF023.jpg,0,,,,,0,50,50,22,imgFunc,9,NA,1.0260967000067467,947.6955263999989,948.8201415999938,2023-10-04 13:22:47.363672,2023-10-04 13:22:48.484813,DD023.jpg,0,10785,40-69,2023-10-04_13h15.24.186,Recall,2021.2.3,60.01183433127415,
,DD037.jpg,0,FF037.jpg,0,,,,,0,51,51,36,imgFunc,9,NA,1.1605301999952644,948.8167870000034,950.0690360000008,2023-10-04 13:22:48.491796,2023-10-04 13:22:49.735960,DD037.jpg,0,10785,40-69,2023-10-04_13h15.24.186,Recall,2021.2.3,60.01183433127415,
,SD010.jpg,0,MF010.jpg,0,,,,,0,52,52,59,imgFunc,0,NA,2.82050070000696,950.0610148999986,952.9808457000036,2023-10-04 13:22:49.742941,2023-10-04 13:22:52.654216,SD010.jpg,0,10785,40-69,2023-10-04_13h15.24.186,Recall,2021.2.3,60.01183433127415,
,DD018.jpg,0,FF018.jpg,0,,,,,0,53,53,17,imgFunc,0,NA,1.0521413999958895,952.9814399000024,954.1343407999811,2023-10-04 13:22:52.661199,2023-10-04 13:22:53.805327,DD018.jpg,0,10785,40-69,2023-10-04_13h15.24.186,Recall,2021.2.3,60.01183433127415,
,SD006.jpg,0,MF006.jpg,0,,,,,0,54,54,55,imgFunc,0,NA,4.36310930000036,954.1342078000016,958.5892805999902,2023-10-04 13:22:53.812310,2023-10-04 13:22:58.258640,SD006.jpg,0,10785,40-69,2023-10-04_13h15.24.186,Recall,2021.2.3,60.01183433127415,
,L_SD506.jpg,1,L_MF506.jpg,1,,,,,0,55,55,95,imgFunc,2,NA,2.0042649999959394,958.6050479999976,960.7079493000056,2023-10-04 13:22:58.274599,2023-10-04 13:23:00.376557,L_SD506.jpg,1,10785,40-69,2023-10-04_13h15.24.186,Recall,2021.2.3,60.01183433127415,
,SD003.jpg,0,MF003.jpg,0,,,,,0,56,56,52,imgFunc,2,NA,0.9040482999989763,960.7134324000072,961.7160891000094,2023-10-04 13:23:00.383540,2023-10-04 13:23:01.377403,SD003.jpg,0,10785,40-69,2023-10-04_13h15.24.186,Recall,2021.2.3,60.01183433127415,
,DD008.jpg,0,FF008.jpg,0,,,,,0,57,57,7,imgFunc,1,NA,1.1904547000012826,961.7072500000068,962.9923453000083,2023-10-04 13:23:01.385339,2023-10-04 13:23:02.661643,DD008.jpg,0,10785,40-69,2023-10-04_13h15.24.186,Recall,2021.2.3,60.01183433127415,
,L_SD502.jpg,1,L_MF502.jpg,1,,,,,0,58,58,91,imgFunc,1,NA,1.1733412000030512,962.9882979999966,964.2568268000032,2023-10-04 13:23:02.668651,2023-10-04 13:23:03.929094,L_SD502.jpg,1,10785,40-69,2023-10-04_13h15.24.186,Recall,2021.2.3,60.01183433127415,
,DD040.jpg,0,FF040.jpg,0,,,,,0,59,59,39,imgFunc,9,NA,2.38531040000089,964.2561847000034,966.7434230999934,2023-10-04 13:23:03.936077,2023-10-04 13:23:06.414221,DD040.jpg,0,10785,40-69,2023-10-04_13h15.24.186,Recall,2021.2.3,60.01183433127415,
,DD030.jpg,0,FF030.jpg,0,,,,,0,60,60,29,imgFunc,9,NA,4.330114500000491,966.759493000005,971.1831874999916,2023-10-04 13:23:06.429104,2023-10-04 13:23:10.850932,DD030.jpg,0,10785,40-69,2023-10-04_13h15.24.186,Recall,2021.2.3,60.01183433127415,
,L_DD508.jpg,1,L_FF508.jpg,1,,,,,0,61,61,47,imgFunc,0,NA,3.4132781000080286,971.1802195000055,974.6829444000177,2023-10-04 13:23:10.858934,2023-10-04 13:23:14.353426,L_DD508.jpg,1,10785,40-69,2023-10-04_13h15.24.186,Recall,2021.2.3,60.01183433127415,
,L_SD509.jpg,1,L_MF509.jpg,1,,,,,0,62,62,98,imgFunc,2,NA,3.945054399999208,974.6802480000042,978.7173242999997,2023-10-04 13:23:14.360409,2023-10-04 13:23:18.389240,L_SD509.jpg,1,10785,40-69,2023-10-04_13h15.24.186,Recall,2021.2.3,60.01183433127415,
,SD018.jpg,0,MF018.jpg,0,,,,,0,63,63,67,imgFunc,9,NA,1.6814395999972476,978.7201652000076,980.5068302,2023-10-04 13:23:18.396223,2023-10-04 13:23:20.174060,SD018.jpg,0,10785,40-69,2023-10-04_13h15.24.186,Recall,2021.2.3,60.01183433127415,
,SD025.jpg,0,MF025.jpg,0,,,,,0,64,64,74,imgFunc,1,NA,2.5797403000033228,980.5098720000096,983.1962723000033,2023-10-04 13:23:20.181043,2023-10-04 13:23:22.859291,SD025.jpg,0,10785,40-69,2023-10-04_13h15.24.186,Recall,2021.2.3,60.01183433127415,
,SD004.jpg,0,MF004.jpg,0,,,,,0,65,65,53,imgFunc,1,NA,2.4544663000124274,983.1871711999993,985.7407360999932,2023-10-04 13:23:22.866274,2023-10-04 13:23:25.411380,SD004.jpg,0,10785,40-69,2023-10-04_13h15.24.186,Recall,2021.2.3,60.01183433127415,
,DD013.jpg,0,FF013.jpg,0,,,,,0,66,66,12,imgFunc,9,NA,1.77662849999615,985.7370314,987.6067015000008,2023-10-04 13:23:25.418363,2023-10-04 13:23:27.279338,DD013.jpg,0,10785,40-69,2023-10-04_13h15.24.186,Recall,2021.2.3,60.01183433127415,
,DD034.jpg,0,FF034.jpg,0,,,,,0,67,67,33,imgFunc,2,NA,4.359633899992332,987.6096634999994,992.0649383999989,2023-10-04 13:23:27.286321,2023-10-04 13:23:31.732577,DD034.jpg,0,10785,40-69,2023-10-04_13h15.24.186,Recall,2021.2.3,60.01183433127415,
,L_SD504.jpg,1,L_MF504.jpg,1,,,,,0,68,68,93,imgFunc,1,NA,1.7122307999961777,992.0813668000046,993.9142793999927,2023-10-04 13:23:31.741577,2023-10-04 13:23:33.566940,L_SD504.jpg,1,10785,40-69,2023-10-04_13h15.24.186,Recall,2021.2.3,60.01183433127415,
,SD008.jpg,0,MF008.jpg,0,,,,,0,69,69,57,imgFunc,9,NA,1.50845730000583,993.9168867999979,995.5245369999902,2023-10-04 13:23:33.579907,2023-10-04 13:23:35.184929,SD008.jpg,0,10785,40-69,2023-10-04_13h15.24.186,Recall,2021.2.3,60.01183433127415,
,L_DD501.jpg,1,L_FF501.jpg,1,,,,,0,70,70,40,imgFunc,0,NA,1.37312020000536,995.51619200001,996.9859422000154,2023-10-04 13:23:35.191912,2023-10-04 13:23:36.652653,L_DD501.jpg,1,10785,40-69,2023-10-04_13h15.24.186,Recall,2021.2.3,60.01183433127415,
,SD015.jpg,0,MF015.jpg,0,,,,,0,71,71,64,imgFunc,0,NA,1.3724997000099393,996.9810395000095,998.4505034000176,2023-10-04 13:23:36.659636,2023-10-04 13:23:38.120079,SD015.jpg,0,10785,40-69,2023-10-04_13h15.24.186,Recall,2021.2.3,60.01183433127415,
,SD012.jpg,0,MF012.jpg,0,,,,,0,72,72,61,imgFunc,0,NA,0.7712350000074366,998.4544661000109,999.3241151000111,2023-10-04 13:23:38.127062,2023-10-04 13:23:38.987631,SD012.jpg,0,10785,40-69,2023-10-04_13h15.24.186,Recall,2021.2.3,60.01183433127415,
,SD035.jpg,0,MF035.jpg,0,,,,,0,73,73,84,imgFunc,9,NA,1.6210982000047807,999.3165348000039,1001.0356825000054,2023-10-04 13:23:38.995246,2023-10-04 13:23:40.705029,SD035.jpg,0,10785,40-69,2023-10-04_13h15.24.186,Recall,2021.2.3,60.01183433127415,
,DD036.jpg,0,FF036.jpg,0,,,,,0,74,74,35,imgFunc,0,NA,1.2900743000063812,1001.0475167999975,1002.435541999992,2023-10-04 13:23:40.720013,2023-10-04 13:23:42.105986,DD036.jpg,0,10785,40-69,2023-10-04_13h15.24.186,Recall,2021.2.3,60.01183433127415,
,SD009.jpg,0,MF009.jpg,0,,,,,0,75,75,58,imgFunc,1,NA,4.8869778999942355,1002.4425693000085,1007.4307563000184,2023-10-04 13:23:42.113968,2023-10-04 13:23:47.093115,SD009.jpg,0,10785,40-69,2023-10-04_13h15.24.186,Recall,2021.2.3,60.01183433127415,
,SD019.jpg,0,MF019.jpg,0,,,,,0,76,76,68,imgFunc,1,NA,1.125396899995394,1007.428078500001,1008.660475800003,2023-10-04 13:23:47.102093,2023-10-04 13:23:48.327620,SD019.jpg,0,10785,40-69,2023-10-04_13h15.24.186,Recall,2021.2.3,60.01183433127415,
,SD016.jpg,0,MF016.jpg,0,,,,,0,77,77,65,imgFunc,1,NA,0.902890400000615,1008.6587490000093,1009.6602683000092,2023-10-04 13:23:48.335601,2023-10-04 13:23:49.328201,SD016.jpg,0,10785,40-69,2023-10-04_13h15.24.186,Recall,2021.2.3,60.01183433127415,
,DD001.jpg,0,FF001.jpg,0,,,,,0,78,78,0,imgFunc,2,NA,2.8575056999980006,1009.6639531999972,1012.6178255999985,2023-10-04 13:23:49.335184,2023-10-04 13:23:52.280436,DD001.jpg,0,10785,40-69,2023-10-04_13h15.24.186,Recall,2021.2.3,60.01183433127415,
,L_SD507.jpg,1,L_MF507.jpg,1,,,,,0,79,79,96,imgFunc,9,NA,4.002910900002462,1012.6225507000054,1016.729602499996,2023-10-04 13:23:52.294400,2023-10-04 13:23:56.399947,L_SD507.jpg,1,10785,40-69,2023-10-04_13h15.24.186,Recall,2021.2.3,60.01183433127415,
,DD029.jpg,0,FF029.jpg,0,,,,,0,80,80,28,imgFunc,0,NA,0.8747601000068244,1016.7269721000048,1017.6961184000102,2023-10-04 13:23:56.406930,2023-10-04 13:23:57.367257,DD029.jpg,0,10785,40-69,2023-10-04_13h15.24.186,Recall,2021.2.3,60.01183433127415,
,SD037.jpg,0,MF037.jpg,0,,,,,0,81,81,86,imgFunc,0,NA,2.278876099997433,1017.7067351000005,1020.0930592000077,2023-10-04 13:23:57.374240,2023-10-04 13:23:59.752446,SD037.jpg,0,10785,40-69,2023-10-04_13h15.24.186,Recall,2021.2.3,60.01183433127415,
,SD020.jpg,0,MF020.jpg,0,,,,,0,82,82,69,imgFunc,0,NA,0.8552896000037435,1020.0903535000107,1021.0588563999918,2023-10-04 13:23:59.759430,2023-10-04 13:24:00.719693,SD020.jpg,0,10785,40-69,2023-10-04_13h15.24.186,Recall,2021.2.3,60.01183433127415,
,L_SD505.jpg,1,L_MF505.jpg,1,,,,,0,83,83,94,imgFunc,1,NA,1.6647217999998247,1021.0649061000004,1022.8509494000173,2023-10-04 13:24:00.726677,2023-10-04 13:24:02.504493,L_SD505.jpg,1,10785,40-69,2023-10-04_13h15.24.186,Recall,2021.2.3,60.01183433127415,
,L_DD507.jpg,1,L_FF507.jpg,1,,,,,0,84,84,46,imgFunc,0,NA,0.8998032000090461,1022.8297660000098,1023.8155972000095,2023-10-04 13:24:02.511477,2023-10-04 13:24:03.488431,L_DD507.jpg,1,10785,40-69,2023-10-04_13h15.24.186,Recall,2021.2.3,60.01183433127415,
,DD039.jpg,0,FF039.jpg,0,,,,,0,85,85,38,imgFunc,9,NA,2.083245600006194,1023.8143105000054,1025.9844586000108,2023-10-04 13:24:03.495414,2023-10-04 13:24:05.656473,DD039.jpg,0,10785,40-69,2023-10-04_13h15.24.186,Recall,2021.2.3,60.01183433127415,
,DD005.jpg,0,FF005.jpg,0,,,,,0,86,86,4,imgFunc,9,NA,0.98920559999533,1026.0045380000083,1027.1075589000102,2023-10-04 13:24:05.663456,2023-10-04 13:24:06.757487,DD005.jpg,0,10785,40-69,2023-10-04_13h15.24.186,Recall,2021.2.3,60.01183433127415,
,L_DD506.jpg,1,L_FF506.jpg,1,,,,,0,87,87,45,imgFunc,0,NA,1.7085891000024276,1027.0929631000035,1028.912764800014,2023-10-04 13:24:06.764470,2023-10-04 13:24:08.575311,L_DD506.jpg,1,10785,40-69,2023-10-04_13h15.24.186,Recall,2021.2.3,60.01183433127415,
,DD027.jpg,0,FF027.jpg,0,,,,,0,88,88,26,imgFunc,0,NA,0.759599299999536,1028.9141361000075,1029.771959299993,2023-10-04 13:24:08.588279,2023-10-04 13:24:09.442797,DD027.jpg,0,10785,40-69,2023-10-04_13h15.24.186,Recall,2021.2.3,60.01183433127415,
,DD021.jpg,0,FF021.jpg,0,,,,,0,89,89,20,imgFunc,0,NA,1.3786141000018688,1029.7749317999987,1031.2612900999957,2023-10-04 13:24:09.449780,2023-10-04 13:24:10.926901,DD021.jpg,0,10785,40-69,2023-10-04_13h15.24.186,Recall,2021.2.3,60.01183433127415,
,SD038.jpg,0,MF038.jpg,0,,,,,0,90,90,87,imgFunc,1,NA,2.224019600005704,1031.2577024000057,1033.5775410000206,2023-10-04 13:24:10.933885,2023-10-04 13:24:13.245346,SD038.jpg,0,10785,40-69,2023-10-04_13h15.24.186,Recall,2021.2.3,60.01183433127415,
,SD026.jpg,0,MF026.jpg,0,,,,,0,91,91,75,imgFunc,9,NA,2.18738360000134,1033.5741995999997,1035.860404999985,2023-10-04 13:24:13.252329,2023-10-04 13:24:15.530099,SD026.jpg,0,10785,40-69,2023-10-04_13h15.24.186,Recall,2021.2.3,60.01183433127415,
,DD026.jpg,0,FF026.jpg,0,,,,,0,92,92,25,imgFunc,9,NA,1.0412466999987373,1035.8643211000017,1037.0008242999902,2023-10-04 13:24:15.537082,2023-10-04 13:24:16.664692,DD026.jpg,0,10785,40-69,2023-10-04_13h15.24.186,Recall,2021.2.3,60.01183433127415,
,DD022.jpg,0,FF022.jpg,0,,,,,0,93,93,21,imgFunc,1,NA,1.988766000009491,1037.0128216000012,1039.1017892999953,2023-10-04 13:24:16.678656,2023-10-04 13:24:18.765959,DD022.jpg,0,10785,40-69,2023-10-04_13h15.24.186,Recall,2021.2.3,60.01183433127415,
,L_SD508.jpg,1,L_MF508.jpg,1,,,,,0,94,94,97,imgFunc,0,NA,2.413256799991359,1039.092469700001,1041.5962,2023-10-04 13:24:18.772942,2023-10-04 13:24:21.267904,L_SD508.jpg,1,10785,40-69,2023-10-04_13h15.24.186,Recall,2021.2.3,60.01183433127415,
,DD003.jpg,0,FF003.jpg,0,,,,,0,95,95,2,imgFunc,0,NA,2.467588900006376,1041.5981017000013,1044.1676945999934,2023-10-04 13:24:21.274887,2023-10-04 13:24:23.836165,DD003.jpg,0,10785,40-69,2023-10-04_13h15.24.186,Recall,2021.2.3,60.01183433127415,
,SD040.jpg,0,MF040.jpg,0,,,,,0,96,96,89,imgFunc,0,NA,0.8078330999996979,1044.1697511000093,1045.0719817000063,2023-10-04 13:24:23.843148,2023-10-04 13:24:24.737004,SD040.jpg,0,10785,40-69,2023-10-04_13h15.24.186,Recall,2021.2.3,60.01183433127415,
,L_SD503.jpg,1,L_MF503.jpg,1,,,,,0,97,97,92,imgFunc,9,NA,1.4233785000105854,1045.0742094000016,1046.610271100013,2023-10-04 13:24:24.743986,2023-10-04 13:24:26.271319,L_SD503.jpg,1,10785,40-69,2023-10-04_13h15.24.186,Recall,2021.2.3,60.01183433127415,
,SD002.jpg,0,MF002.jpg,0,,,,,0,98,98,51,imgFunc,0,NA,3.243298600005801,1046.6142803999974,1049.9530299000035,2023-10-04 13:24:26.286281,2023-10-04 13:24:29.623684,SD002.jpg,0,10785,40-69,2023-10-04_13h15.24.186,Recall,2021.2.3,60.01183433127415,
,L_SD501.jpg,1,L_MF501.jpg,1,,,,,0,99,99,90,imgFunc,9,NA,1.3414575999922818,1049.9478619000001,1051.3828153000068,2023-10-04 13:24:29.631665,2023-10-04 13:24:31.058037,L_SD501.jpg,1,10785,40-69,2023-10-04_13h15.24.186,Recall,2021.2.3,60.01183433127415,
