onset	duration	trial_type	response_time	Endowment	Endowment_pmod	Decision	Decision_pmod	Offer_pmod
4.516335	2	cue_nonsocial	n/a	32	6	n/a	n/a	n/a
4.516335	2	cue_nonsocial_high	n/a	32	8	n/a	n/a	n/a
11.414516	2	cue_social	n/a	16	-8	n/a	n/a	n/a
11.414516	2	cue_social_low	n/a	16	-10	n/a	n/a	n/a
18.182428	2	cue_nonsocial	n/a	32	6	n/a	n/a	n/a
18.182428	2	cue_nonsocial_high	n/a	32	8	n/a	n/a	n/a
25.015730	2	cue_nonsocial	n/a	16	-10	n/a	n/a	n/a
25.015730	2	cue_nonsocial_low	n/a	16	-8	n/a	n/a	n/a
31.848986	2	cue_nonsocial	n/a	32	6	n/a	n/a	n/a
31.848986	2	cue_nonsocial_high	n/a	32	8	n/a	n/a	n/a
42.774320	2	cue_social	n/a	32	8	n/a	n/a	n/a
42.774320	2	cue_social_high	n/a	32	6	n/a	n/a	n/a
51.965744	2	cue_nonsocial	n/a	32	6	n/a	n/a	n/a
51.965744	2	cue_nonsocial_high	n/a	32	8	n/a	n/a	n/a
58.798714	2	cue_nonsocial	n/a	32	6	n/a	n/a	n/a
58.798714	2	cue_nonsocial_high	n/a	32	8	n/a	n/a	n/a
65.691360	2	cue_social	n/a	32	8	n/a	n/a	n/a
65.691360	2	cue_social_high	n/a	32	6	n/a	n/a	n/a
74.882440	2	cue_nonsocial	n/a	16	-10	n/a	n/a	n/a
74.882440	2	cue_nonsocial_low	n/a	16	-8	n/a	n/a	n/a
82.585570	2	cue_social	n/a	32	8	n/a	n/a	n/a
82.585570	2	cue_social_high	n/a	32	6	n/a	n/a	n/a
89.365830	2	cue_nonsocial	n/a	16	-10	n/a	n/a	n/a
89.365830	2	cue_nonsocial_low	n/a	16	-8	n/a	n/a	n/a
97.129170	2	cue_social	n/a	32	8	n/a	n/a	n/a
97.129170	2	cue_social_high	n/a	32	6	n/a	n/a	n/a
103.849020	2	cue_nonsocial	n/a	16	-10	n/a	n/a	n/a
103.849020	2	cue_nonsocial_low	n/a	16	-8	n/a	n/a	n/a
111.552120	2	cue_social	n/a	32	8	n/a	n/a	n/a
111.552120	2	cue_social_high	n/a	32	6	n/a	n/a	n/a
119.211500	2	cue_social	n/a	16	-8	n/a	n/a	n/a
119.211500	2	cue_social_low	n/a	16	-10	n/a	n/a	n/a
125.981700	2	cue_nonsocial	n/a	32	6	n/a	n/a	n/a
125.981700	2	cue_nonsocial_high	n/a	32	8	n/a	n/a	n/a
133.632430	2	cue_nonsocial	n/a	16	-10	n/a	n/a	n/a
133.632430	2	cue_nonsocial_low	n/a	16	-8	n/a	n/a	n/a
141.356200	2	cue_social	n/a	16	-8	n/a	n/a	n/a
141.356200	2	cue_social_low	n/a	16	-10	n/a	n/a	n/a
148.115500	2	cue_nonsocial	n/a	16	-10	n/a	n/a	n/a
148.115500	2	cue_nonsocial_low	n/a	16	-8	n/a	n/a	n/a
154.948820	2	cue_nonsocial	n/a	32	6	n/a	n/a	n/a
154.948820	2	cue_nonsocial_high	n/a	32	8	n/a	n/a	n/a
161.808260	2	cue_social	n/a	32	8	n/a	n/a	n/a
161.808260	2	cue_social_high	n/a	32	6	n/a	n/a	n/a
171.032030	2	cue_nonsocial	n/a	16	-10	n/a	n/a	n/a
171.032030	2	cue_nonsocial_low	n/a	16	-8	n/a	n/a	n/a
180.358540	2	cue_social	n/a	16	-8	n/a	n/a	n/a
180.358540	2	cue_social_low	n/a	16	-10	n/a	n/a	n/a
187.954540	2	cue_social	n/a	32	8	n/a	n/a	n/a
187.954540	2	cue_social_high	n/a	32	6	n/a	n/a	n/a
194.801380	2	cue_social	n/a	32	8	n/a	n/a	n/a
194.801380	2	cue_social_high	n/a	32	6	n/a	n/a	n/a
201.660170	2	cue_social	n/a	32	8	n/a	n/a	n/a
201.660170	2	cue_social_high	n/a	32	6	n/a	n/a	n/a
208.464500	2	cue_social	n/a	16	-8	n/a	n/a	n/a
208.464500	2	cue_social_low	n/a	16	-10	n/a	n/a	n/a
215.298500	2	cue_social	n/a	16	-8	n/a	n/a	n/a
215.298500	2	cue_social_low	n/a	16	-10	n/a	n/a	n/a
224.597260	2	cue_social	n/a	16	-8	n/a	n/a	n/a
224.597260	2	cue_social_low	n/a	16	-10	n/a	n/a	n/a
231.348790	2	cue_nonsocial	n/a	16	-10	n/a	n/a	n/a
231.348790	2	cue_nonsocial_low	n/a	16	-8	n/a	n/a	n/a
238.251980	2	cue_social	n/a	16	-8	n/a	n/a	n/a
238.251980	2	cue_social_low	n/a	16	-10	n/a	n/a	n/a
245.015340	2	cue_nonsocial	n/a	32	6	n/a	n/a	n/a
245.015340	2	cue_nonsocial_high	n/a	32	8	n/a	n/a	n/a
251.916890	2	cue_social	n/a	32	8	n/a	n/a	n/a
251.916890	2	cue_social_high	n/a	32	6	n/a	n/a	n/a
259.498700	2	cue_nonsocial	n/a	32	6	n/a	n/a	n/a
259.498700	2	cue_nonsocial_high	n/a	32	8	n/a	n/a	n/a
267.148320	2	cue_nonsocial	n/a	16	-10	n/a	n/a	n/a
267.148320	2	cue_nonsocial_low	n/a	16	-8	n/a	n/a	n/a
274.853760	2	cue_social	n/a	16	-8	n/a	n/a	n/a
274.853760	2	cue_social_low	n/a	16	-10	n/a	n/a	n/a
281.632080	2	cue_nonsocial	n/a	32	6	n/a	n/a	n/a
281.632080	2	cue_nonsocial_high	n/a	32	8	n/a	n/a	n/a
289.338500	2	cue_social	n/a	32	8	n/a	n/a	n/a
289.338500	2	cue_social_high	n/a	32	6	n/a	n/a	n/a
296.182130	2	cue_social	n/a	16	-8	n/a	n/a	n/a
296.182130	2	cue_social_low	n/a	16	-10	n/a	n/a	n/a
305.426970	2	cue_social	n/a	16	-8	n/a	n/a	n/a
305.426970	2	cue_social_low	n/a	16	-10	n/a	n/a	n/a
316.308200	2	cue_social	n/a	16	-8	n/a	n/a	n/a
316.308200	2	cue_social_low	n/a	16	-10	n/a	n/a	n/a
325.481540	2	cue_nonsocial	n/a	32	6	n/a	n/a	n/a
325.481540	2	cue_nonsocial_high	n/a	32	8	n/a	n/a	n/a
332.383480	2	cue_social	n/a	32	8	n/a	n/a	n/a
332.383480	2	cue_social_high	n/a	32	6	n/a	n/a	n/a
339.964750	2	cue_nonsocial	n/a	32	6	n/a	n/a	n/a
339.964750	2	cue_nonsocial_high	n/a	32	8	n/a	n/a	n/a
350.831800	2	cue_nonsocial	n/a	32	6	n/a	n/a	n/a
350.831800	2	cue_nonsocial_high	n/a	32	8	n/a	n/a	n/a
357.664860	2	cue_nonsocial	n/a	32	6	n/a	n/a	n/a
357.664860	2	cue_nonsocial_high	n/a	32	8	n/a	n/a	n/a
365.314730	2	cue_nonsocial	n/a	32	6	n/a	n/a	n/a
365.314730	2	cue_nonsocial_high	n/a	32	8	n/a	n/a	n/a
6.522931	1.682680	dec_nonsocial_choice	1.682680	32.000000	n/a	8	2.083333e-02	2.083333e-02
6.522931	1.682680	dec_choice	1.682680	32.000000	n/a	8	2.083333e-02	2.083333e-02
6.522931	1.682680	dec_nonsocial_accept	1.682680	32.000000	n/a	8	-1.666667e-01	-1.666667e-01
6.522931	1.682680	dec_accept	1.682680	32.000000	n/a	8	-1.875000e-01	-1.875000e-01
6.522931	1.682680	dec_nonsocial_accept_high	1.682680	32.000000	n/a	8	-1.500000e-01	-1.500000e-01
13.355809	1.049586	dec_social_choice	1.049586	16.000000	n/a	8	2.708333e-01	2.708333e-01
13.355809	1.049586	dec_choice	1.049586	16.000000	n/a	8	2.708333e-01	2.708333e-01
13.355809	1.049586	dec_social_accept	1.049586	16.000000	n/a	8	8.333333e-02	8.333333e-02
13.355809	1.049586	dec_accept	1.049586	16.000000	n/a	8	1.000000e-01	1.000000e-01
13.355809	1.049586	dec_social_high	1.049586	16.000000	n/a	8	2.708333e-01	2.708333e-01
13.355809	1.049586	dec_social_accept_high	1.049586	16.000000	n/a	8	2.708333e-01	2.708333e-01
20.188862	0.966611	dec_nonsocial_choice	0.966611	32.000000	n/a	0	0	-2.291667e-01
20.188862	0.966611	dec_choice	0.966611	32.000000	n/a	0	0	-2.291667e-01
20.188862	0.966611	dec_nonsocial_reject	0.966611	32.000000	n/a	0	0	-2.291667e-02
20.188862	0.966611	dec_reject	0.966611	32.000000	n/a	0	0	-3.125000e-02
20.188862	0.966611	dec_nonsocial_reject_low	0.966611	32.000000	n/a	3	-1.339286e-02	-1.071429e-01
27.022919	1.215419	dec_nonsocial_choice	1.215419	16.000000	n/a	0	0	-2.291667e-01
27.022919	1.215419	dec_choice	1.215419	16.000000	n/a	0	0	-2.291667e-01
27.022919	1.215419	dec_nonsocial_reject	1.215419	16.000000	n/a	0	0	1.333333e-01
27.022919	1.215419	dec_reject	1.215419	16.000000	n/a	0	0	1.250000e-01
27.022919	1.215419	dec_nonsocial_reject_low	1.215419	16.000000	n/a	4	1.428571e-01	-1.071429e-01
33.854908	1.116732	dec_nonsocial_choice	1.116732	32.000000	n/a	0	0	-2.291667e-01
33.854908	1.116732	dec_choice	1.116732	32.000000	n/a	0	0	-2.291667e-01
33.854908	1.116732	dec_nonsocial_reject	1.116732	32.000000	n/a	0	0	-2.291667e-02
33.854908	1.116732	dec_reject	1.116732	32.000000	n/a	0	0	-3.125000e-02
33.854908	1.116732	dec_nonsocial_reject_low	1.116732	32.000000	n/a	3	-1.339286e-02	-1.071429e-01
44.721714	1.283832	dec_social_choice	1.283832	32.000000	n/a	8	2.083333e-02	2.083333e-02
44.721714	1.283832	dec_choice	1.283832	32.000000	n/a	8	2.083333e-02	2.083333e-02
44.721714	1.283832	dec_social_accept	1.283832	32.000000	n/a	8	-1.666667e-01	-1.666667e-01
44.721714	1.283832	dec_accept	1.283832	32.000000	n/a	8	-1.500000e-01	-1.500000e-01
44.721714	1.283832	dec_social_accept_high	1.283832	32.000000	n/a	8	2.083333e-02	2.083333e-02
53.971767	1.216270	dec_nonsocial_choice	1.216270	32.000000	n/a	16	2.708333e-01	2.708333e-01
53.971767	1.216270	dec_choice	1.216270	32.000000	n/a	16	2.708333e-01	2.708333e-01
53.971767	1.216270	dec_nonsocial_accept	1.216270	32.000000	n/a	16	8.333333e-02	8.333333e-02
53.971767	1.216270	dec_accept	1.216270	32.000000	n/a	16	6.250000e-02	6.250000e-02
53.971767	1.216270	dec_nonsocial_high	1.216270	32.000000	n/a	16	2.708333e-01	2.708333e-01
53.971767	1.216270	dec_nonsocial_accept_high	1.216270	32.000000	n/a	16	6.250000e-02	6.250000e-02
60.805410	1.049951	dec_nonsocial_choice	1.049951	32.000000	n/a	0	0	-2.291667e-01
60.805410	1.049951	dec_choice	1.049951	32.000000	n/a	0	0	-2.291667e-01
60.805410	1.049951	dec_nonsocial_reject	1.049951	32.000000	n/a	0	0	-2.291667e-02
60.805410	1.049951	dec_reject	1.049951	32.000000	n/a	0	0	-3.125000e-02
60.805410	1.049951	dec_nonsocial_low	1.049951	32.000000	n/a	0	-2.291667e-01	-2.291667e-01
60.805410	1.049951	dec_nonsocial_reject_low	1.049951	32.000000	n/a	3	-3.125000e-02	-1.250000e-01
67.638880	0.999749	dec_social_choice	0.999749	32.000000	n/a	0	0	-2.291667e-01
67.638880	0.999749	dec_choice	0.999749	32.000000	n/a	0	0	-2.291667e-01
67.638880	0.999749	dec_social_reject	0.999749	32.000000	n/a	0	0	-5.416667e-02
67.638880	0.999749	dec_reject	0.999749	32.000000	n/a	0	0	-4.464286e-02
67.638880	0.999749	dec_social_reject_low	0.999749	32.000000	n/a	2	-1.666667e-01	-2.291667e-01
76.888700	1.566602	dec_nonsocial_choice	1.566602	16.000000	n/a	8	2.708333e-01	2.708333e-01
76.888700	1.566602	dec_choice	1.566602	16.000000	n/a	8	2.708333e-01	2.708333e-01
76.888700	1.566602	dec_nonsocial_accept	1.566602	16.000000	n/a	8	8.333333e-02	8.333333e-02
76.888700	1.566602	dec_accept	1.566602	16.000000	n/a	8	6.250000e-02	6.250000e-02
76.888700	1.566602	dec_nonsocial_accept_high	1.566602	16.000000	n/a	8	1.000000e-01	1.000000e-01
84.537796	0.967022	dec_social_choice	0.967022	32.000000	n/a	0	0	-2.291667e-01
84.537796	0.967022	dec_choice	0.967022	32.000000	n/a	0	0	-2.291667e-01
84.537796	0.967022	dec_social_reject	0.967022	32.000000	n/a	0	0	-5.416667e-02
84.537796	0.967022	dec_reject	0.967022	32.000000	n/a	0	0	-4.464286e-02
84.537796	0.967022	dec_social_low	0.967022	32.000000	n/a	0	-2.291667e-01	-2.291667e-01
84.537796	0.967022	dec_social_reject_low	0.967022	32.000000	n/a	2	-1.666667e-01	-2.291667e-01
91.371895	0.966321	dec_nonsocial_choice	0.966321	16.000000	n/a	0	0	-2.291667e-01
91.371895	0.966321	dec_choice	0.966321	16.000000	n/a	0	0	-2.291667e-01
91.371895	0.966321	dec_nonsocial_reject	0.966321	16.000000	n/a	0	0	8.333333e-03
91.371895	0.966321	dec_reject	0.966321	16.000000	n/a	0	0	0
91.371895	0.966321	dec_nonsocial_low	0.966321	16.000000	n/a	0	-2.291667e-01	-2.291667e-01
91.371895	0.966321	dec_nonsocial_reject_low	0.966321	16.000000	n/a	2	0	-1.250000e-01
99.021920	1.433337	dec_social_choice	1.433337	32.000000	n/a	16	2.708333e-01	2.708333e-01
99.021920	1.433337	dec_choice	1.433337	32.000000	n/a	16	2.708333e-01	2.708333e-01
99.021920	1.433337	dec_social_accept	1.433337	32.000000	n/a	16	8.333333e-02	8.333333e-02
99.021920	1.433337	dec_accept	1.433337	32.000000	n/a	16	1.000000e-01	1.000000e-01
99.021920	1.433337	dec_social_accept_high	1.433337	32.000000	n/a	16	2.708333e-01	2.708333e-01
105.855930	1.132676	dec_nonsocial_choice	1.132676	16.000000	n/a	0	0	-2.291667e-01
105.855930	1.132676	dec_choice	1.132676	16.000000	n/a	0	0	-2.291667e-01
105.855930	1.132676	dec_nonsocial_reject	1.132676	16.000000	n/a	0	0	-5.416667e-02
105.855930	1.132676	dec_reject	1.132676	16.000000	n/a	0	0	-6.250000e-02
105.855930	1.132676	dec_nonsocial_low	1.132676	16.000000	n/a	0	-2.291667e-01	-2.291667e-01
105.855930	1.132676	dec_nonsocial_reject_low	1.132676	16.000000	n/a	1	-6.250000e-02	-1.250000e-01
113.505140	1.133372	dec_social_choice	1.133372	32.000000	n/a	8	2.083333e-02	2.083333e-02
113.505140	1.133372	dec_choice	1.133372	32.000000	n/a	8	2.083333e-02	2.083333e-02
113.505140	1.133372	dec_social_accept	1.133372	32.000000	n/a	8	-1.666667e-01	-1.666667e-01
113.505140	1.133372	dec_accept	1.133372	32.000000	n/a	8	-1.500000e-01	-1.500000e-01
113.505140	1.133372	dec_social_accept_high	1.133372	32.000000	n/a	8	2.083333e-02	2.083333e-02
121.155270	1.283170	dec_social_choice	1.283170	16.000000	n/a	0	0	-2.291667e-01
121.155270	1.283170	dec_choice	1.283170	16.000000	n/a	0	0	-2.291667e-01
121.155270	1.283170	dec_social_reject	1.283170	16.000000	n/a	0	0	-5.416667e-02
121.155270	1.283170	dec_reject	1.283170	16.000000	n/a	0	0	-4.464286e-02
121.155270	1.283170	dec_social_low	1.283170	16.000000	n/a	0	-2.291667e-01	-2.291667e-01
121.155270	1.283170	dec_social_reject_low	1.283170	16.000000	n/a	1	-1.666667e-01	-2.291667e-01
127.987760	1.317021	dec_nonsocial_choice	1.317021	32.000000	n/a	16	2.708333e-01	2.708333e-01
127.987760	1.317021	dec_choice	1.317021	32.000000	n/a	16	2.708333e-01	2.708333e-01
127.987760	1.317021	dec_nonsocial_accept	1.317021	32.000000	n/a	16	8.333333e-02	8.333333e-02
127.987760	1.317021	dec_accept	1.317021	32.000000	n/a	16	6.250000e-02	6.250000e-02
127.987760	1.317021	dec_nonsocial_high	1.317021	32.000000	n/a	16	2.708333e-01	2.708333e-01
127.987760	1.317021	dec_nonsocial_accept_high	1.317021	32.000000	n/a	16	6.250000e-02	6.250000e-02
135.637700	1.034654	dec_nonsocial_choice	1.034654	16.000000	n/a	0	0	-2.291667e-01
135.637700	1.034654	dec_choice	1.034654	16.000000	n/a	0	0	-2.291667e-01
135.637700	1.034654	dec_nonsocial_reject	1.034654	16.000000	n/a	0	0	-5.416667e-02
135.637700	1.034654	dec_reject	1.034654	16.000000	n/a	0	0	-6.250000e-02
135.637700	1.034654	dec_nonsocial_reject_low	1.034654	16.000000	n/a	1	-4.464286e-02	-1.071429e-01
143.288210	1.183129	dec_social_choice	1.183129	16.000000	n/a	8	2.708333e-01	2.708333e-01
143.288210	1.183129	dec_choice	1.183129	16.000000	n/a	8	2.708333e-01	2.708333e-01
143.288210	1.183129	dec_social_accept	1.183129	16.000000	n/a	8	8.333333e-02	8.333333e-02
143.288210	1.183129	dec_accept	1.183129	16.000000	n/a	8	1.000000e-01	1.000000e-01
143.288210	1.183129	dec_social_accept_high	1.183129	16.000000	n/a	8	2.708333e-01	2.708333e-01
150.121960	1.533069	dec_nonsocial_choice	1.533069	16.000000	n/a	0	0	-2.291667e-01
150.121960	1.533069	dec_choice	1.533069	16.000000	n/a	0	0	-2.291667e-01
150.121960	1.533069	dec_nonsocial_reject	1.533069	16.000000	n/a	0	0	8.333333e-03
150.121960	1.533069	dec_reject	1.533069	16.000000	n/a	0	0	0
150.121960	1.533069	dec_nonsocial_reject_low	1.533069	16.000000	n/a	2	1.785714e-02	-1.071429e-01
156.955660	1.382889	dec_nonsocial_choice	1.382889	32.000000	n/a	16	2.708333e-01	2.708333e-01
156.955660	1.382889	dec_choice	1.382889	32.000000	n/a	16	2.708333e-01	2.708333e-01
156.955660	1.382889	dec_nonsocial_accept	1.382889	32.000000	n/a	16	8.333333e-02	8.333333e-02
156.955660	1.382889	dec_accept	1.382889	32.000000	n/a	16	6.250000e-02	6.250000e-02
156.955660	1.382889	dec_nonsocial_accept_high	1.382889	32.000000	n/a	16	1.000000e-01	1.000000e-01
163.788620	0.983122	dec_social_choice	0.983122	32.000000	n/a	0	0	-2.291667e-01
163.788620	0.983122	dec_choice	0.983122	32.000000	n/a	0	0	-2.291667e-01
163.788620	0.983122	dec_social_reject	0.983122	32.000000	n/a	0	0	-2.291667e-02
163.788620	0.983122	dec_reject	0.983122	32.000000	n/a	0	0	-1.339286e-02
163.788620	0.983122	dec_social_low	0.983122	32.000000	n/a	0	-2.291667e-01	-2.291667e-01
163.788620	0.983122	dec_social_reject_low	0.983122	32.000000	n/a	3	-1.354167e-01	-2.291667e-01
173.038960	1.682751	dec_nonsocial_choice	1.682751	16.000000	n/a	0	0	-2.291667e-01
173.038960	1.682751	dec_choice	1.682751	16.000000	n/a	0	0	-2.291667e-01
173.038960	1.682751	dec_nonsocial_reject	1.682751	16.000000	n/a	0	0	1.333333e-01
173.038960	1.682751	dec_reject	1.682751	16.000000	n/a	0	0	1.250000e-01
173.038960	1.682751	dec_nonsocial_reject_low	1.682751	16.000000	n/a	4	1.428571e-01	-1.071429e-01
182.287890	1.933425	dec_social_choice	1.933425	16.000000	n/a	8	2.708333e-01	2.708333e-01
182.287890	1.933425	dec_choice	1.933425	16.000000	n/a	8	2.708333e-01	2.708333e-01
182.287890	1.933425	dec_social_accept	1.933425	16.000000	n/a	8	8.333333e-02	8.333333e-02
182.287890	1.933425	dec_accept	1.933425	16.000000	n/a	8	1.000000e-01	1.000000e-01
182.287890	1.933425	dec_social_accept_high	1.933425	16.000000	n/a	8	2.708333e-01	2.708333e-01
189.921480	1.833444	dec_social_choice	1.833444	32.000000	n/a	0	0	-2.291667e-01
189.921480	1.833444	dec_choice	1.833444	32.000000	n/a	0	0	-2.291667e-01
189.921480	1.833444	dec_social_reject	1.833444	32.000000	n/a	0	0	-5.416667e-02
189.921480	1.833444	dec_reject	1.833444	32.000000	n/a	0	0	-4.464286e-02
189.921480	1.833444	dec_social_reject_low	1.833444	32.000000	n/a	2	-1.666667e-01	-2.291667e-01
196.755110	1.449918	dec_social_choice	1.449918	32.000000	n/a	0	0	-2.291667e-01
196.755110	1.449918	dec_choice	1.449918	32.000000	n/a	0	0	-2.291667e-01
196.755110	1.449918	dec_social_reject	1.449918	32.000000	n/a	0	0	-2.291667e-02
196.755110	1.449918	dec_reject	1.449918	32.000000	n/a	0	0	-1.339286e-02
196.755110	1.449918	dec_social_low	1.449918	32.000000	n/a	0	-2.291667e-01	-2.291667e-01
196.755110	1.449918	dec_social_reject_low	1.449918	32.000000	n/a	3	-1.354167e-01	-2.291667e-01
203.587940	1.216980	dec_social_choice	1.216980	32.000000	n/a	0	0	-2.291667e-01
203.587940	1.216980	dec_choice	1.216980	32.000000	n/a	0	0	-2.291667e-01
203.587940	1.216980	dec_social_reject	1.216980	32.000000	n/a	0	0	-2.291667e-02
203.587940	1.216980	dec_reject	1.216980	32.000000	n/a	0	0	-1.339286e-02
203.587940	1.216980	dec_social_reject_low	1.216980	32.000000	n/a	3	-1.354167e-01	-2.291667e-01
210.422010	1.332884	dec_social_choice	1.332884	16.000000	n/a	0	0	-2.291667e-01
210.422010	1.332884	dec_choice	1.332884	16.000000	n/a	0	0	-2.291667e-01
210.422010	1.332884	dec_social_reject	1.332884	16.000000	n/a	0	0	1.333333e-01
210.422010	1.332884	dec_reject	1.332884	16.000000	n/a	0	0	1.428571e-01
210.422010	1.332884	dec_social_low	1.332884	16.000000	n/a	0	-2.291667e-01	-2.291667e-01
210.422010	1.332884	dec_social_reject_low	1.332884	16.000000	n/a	4	2.083333e-02	-2.291667e-01
217.254910	1.333498	dec_social_choice	1.333498	16.000000	n/a	4	2.083333e-02	2.083333e-02
217.254910	1.333498	dec_choice	1.333498	16.000000	n/a	4	2.083333e-02	2.083333e-02
217.254910	1.333498	dec_social_accept	1.333498	16.000000	n/a	4	-1.666667e-01	-1.666667e-01
217.254910	1.333498	dec_accept	1.333498	16.000000	n/a	4	-1.500000e-01	-1.500000e-01
217.254910	1.333498	dec_social_high	1.333498	16.000000	n/a	4	2.083333e-02	2.083333e-02
217.254910	1.333498	dec_social_accept_high	1.333498	16.000000	n/a	4	2.083333e-02	2.083333e-02
226.521740	1.116515	dec_social_choice	1.116515	16.000000	n/a	0	0	-2.291667e-01
226.521740	1.116515	dec_choice	1.116515	16.000000	n/a	0	0	-2.291667e-01
226.521740	1.116515	dec_social_reject	1.116515	16.000000	n/a	0	0	-5.416667e-02
226.521740	1.116515	dec_reject	1.116515	16.000000	n/a	0	0	-4.464286e-02
226.521740	1.116515	dec_social_low	1.116515	16.000000	n/a	0	-2.291667e-01	-2.291667e-01
226.521740	1.116515	dec_social_reject_low	1.116515	16.000000	n/a	1	-1.666667e-01	-2.291667e-01
233.355260	1.115897	dec_nonsocial_choice	1.115897	16.000000	n/a	0	0	-2.291667e-01
233.355260	1.115897	dec_choice	1.115897	16.000000	n/a	0	0	-2.291667e-01
233.355260	1.115897	dec_nonsocial_reject	1.115897	16.000000	n/a	0	0	-5.416667e-02
233.355260	1.115897	dec_reject	1.115897	16.000000	n/a	0	0	-6.250000e-02
233.355260	1.115897	dec_nonsocial_reject_low	1.115897	16.000000	n/a	1	-4.464286e-02	-1.071429e-01
240.188870	1.565644	dec_social_choice	1.565644	16.000000	n/a	0	0	-2.291667e-01
240.188870	1.565644	dec_choice	1.565644	16.000000	n/a	0	0	-2.291667e-01
240.188870	1.565644	dec_social_reject	1.565644	16.000000	n/a	0	0	1.333333e-01
240.188870	1.565644	dec_reject	1.565644	16.000000	n/a	0	0	1.428571e-01
240.188870	1.565644	dec_social_low	1.565644	16.000000	n/a	0	-2.291667e-01	-2.291667e-01
240.188870	1.565644	dec_social_reject_low	1.565644	16.000000	n/a	4	2.083333e-02	-2.291667e-01
247.021710	2.199902	dec_nonsocial_choice	2.199902	32.000000	n/a	0	0	-2.291667e-01
247.021710	2.199902	dec_choice	2.199902	32.000000	n/a	0	0	-2.291667e-01
247.021710	2.199902	dec_nonsocial_reject	2.199902	32.000000	n/a	0	0	1.333333e-01
247.021710	2.199902	dec_reject	2.199902	32.000000	n/a	0	0	1.250000e-01
247.021710	2.199902	dec_nonsocial_reject_low	2.199902	32.000000	n/a	8	1.428571e-01	-1.071429e-01
253.855350	1.249335	dec_social_choice	1.249335	32.000000	n/a	0	0	-2.291667e-01
253.855350	1.249335	dec_choice	1.249335	32.000000	n/a	0	0	-2.291667e-01
253.855350	1.249335	dec_social_reject	1.249335	32.000000	n/a	0	0	-5.416667e-02
253.855350	1.249335	dec_reject	1.249335	32.000000	n/a	0	0	-4.464286e-02
253.855350	1.249335	dec_social_reject_low	1.249335	32.000000	n/a	2	-1.666667e-01	-2.291667e-01
261.504400	0.983806	dec_nonsocial_choice	0.983806	32.000000	n/a	0	0	-2.291667e-01
261.504400	0.983806	dec_choice	0.983806	32.000000	n/a	0	0	-2.291667e-01
261.504400	0.983806	dec_nonsocial_reject	0.983806	32.000000	n/a	0	0	-5.416667e-02
261.504400	0.983806	dec_reject	0.983806	32.000000	n/a	0	0	-6.250000e-02
261.504400	0.983806	dec_nonsocial_reject_low	0.983806	32.000000	n/a	2	-4.464286e-02	-1.071429e-01
269.154480	1.450077	dec_nonsocial_choice	1.450077	16.000000	n/a	0	0	-2.291667e-01
269.154480	1.450077	dec_choice	1.450077	16.000000	n/a	0	0	-2.291667e-01
269.154480	1.450077	dec_nonsocial_reject	1.450077	16.000000	n/a	0	0	1.333333e-01
269.154480	1.450077	dec_reject	1.450077	16.000000	n/a	0	0	1.250000e-01
269.154480	1.450077	dec_nonsocial_low	1.450077	16.000000	n/a	0	-2.291667e-01	-2.291667e-01
269.154480	1.450077	dec_nonsocial_reject_low	1.450077	16.000000	n/a	4	1.250000e-01	-1.250000e-01
276.805050	1.699628	dec_social_choice	1.699628	16.000000	n/a	0	0	-2.291667e-01
276.805050	1.699628	dec_choice	1.699628	16.000000	n/a	0	0	-2.291667e-01
276.805050	1.699628	dec_social_reject	1.699628	16.000000	n/a	0	0	8.333333e-03
276.805050	1.699628	dec_reject	1.699628	16.000000	n/a	0	0	1.785714e-02
276.805050	1.699628	dec_social_reject_low	1.699628	16.000000	n/a	2	-1.041667e-01	-2.291667e-01
283.638430	1.282860	dec_nonsocial_choice	1.282860	32.000000	n/a	0	0	-2.291667e-01
283.638430	1.282860	dec_choice	1.282860	32.000000	n/a	0	0	-2.291667e-01
283.638430	1.282860	dec_nonsocial_reject	1.282860	32.000000	n/a	0	0	-2.291667e-02
283.638430	1.282860	dec_reject	1.282860	32.000000	n/a	0	0	-3.125000e-02
283.638430	1.282860	dec_nonsocial_reject_low	1.282860	32.000000	n/a	3	-1.339286e-02	-1.071429e-01
291.288850	1.182524	dec_social_choice	1.182524	32.000000	n/a	0	0	-2.291667e-01
291.288850	1.182524	dec_choice	1.182524	32.000000	n/a	0	0	-2.291667e-01
291.288850	1.182524	dec_social_reject	1.182524	32.000000	n/a	0	0	-2.291667e-02
291.288850	1.182524	dec_reject	1.182524	32.000000	n/a	0	0	-1.339286e-02
291.288850	1.182524	dec_social_low	1.182524	32.000000	n/a	0	-2.291667e-01	-2.291667e-01
291.288850	1.182524	dec_social_reject_low	1.182524	32.000000	n/a	3	-1.354167e-01	-2.291667e-01
298.121600	1.483206	dec_social_choice	1.483206	16.000000	n/a	8	2.708333e-01	2.708333e-01
298.121600	1.483206	dec_choice	1.483206	16.000000	n/a	8	2.708333e-01	2.708333e-01
298.121600	1.483206	dec_social_accept	1.483206	16.000000	n/a	8	8.333333e-02	8.333333e-02
298.121600	1.483206	dec_accept	1.483206	16.000000	n/a	8	1.000000e-01	1.000000e-01
298.121600	1.483206	dec_social_accept_high	1.483206	16.000000	n/a	8	2.708333e-01	2.708333e-01
307.370900	1.216692	dec_social_choice	1.216692	16.000000	n/a	0	0	-2.291667e-01
307.370900	1.216692	dec_choice	1.216692	16.000000	n/a	0	0	-2.291667e-01
307.370900	1.216692	dec_social_reject	1.216692	16.000000	n/a	0	0	8.333333e-03
307.370900	1.216692	dec_reject	1.216692	16.000000	n/a	0	0	1.785714e-02
307.370900	1.216692	dec_social_reject_low	1.216692	16.000000	n/a	2	-1.041667e-01	-2.291667e-01
318.238300	2.099587	dec_social_choice	2.099587	16.000000	n/a	4	2.083333e-02	2.083333e-02
318.238300	2.099587	dec_choice	2.099587	16.000000	n/a	4	2.083333e-02	2.083333e-02
318.238300	2.099587	dec_social_accept	2.099587	16.000000	n/a	4	-1.666667e-01	-1.666667e-01
318.238300	2.099587	dec_accept	2.099587	16.000000	n/a	4	-1.500000e-01	-1.500000e-01
318.238300	2.099587	dec_social_high	2.099587	16.000000	n/a	4	2.083333e-02	2.083333e-02
318.238300	2.099587	dec_social_accept_high	2.099587	16.000000	n/a	4	2.083333e-02	2.083333e-02
327.487430	1.316602	dec_nonsocial_choice	1.316602	32.000000	n/a	16	2.708333e-01	2.708333e-01
327.487430	1.316602	dec_choice	1.316602	32.000000	n/a	16	2.708333e-01	2.708333e-01
327.487430	1.316602	dec_nonsocial_accept	1.316602	32.000000	n/a	16	8.333333e-02	8.333333e-02
327.487430	1.316602	dec_accept	1.316602	32.000000	n/a	16	6.250000e-02	6.250000e-02
327.487430	1.316602	dec_nonsocial_accept_high	1.316602	32.000000	n/a	16	1.000000e-01	1.000000e-01
334.321100	0.916222	dec_social_choice	0.916222	32.000000	n/a	16	2.708333e-01	2.708333e-01
334.321100	0.916222	dec_choice	0.916222	32.000000	n/a	16	2.708333e-01	2.708333e-01
334.321100	0.916222	dec_social_accept	0.916222	32.000000	n/a	16	8.333333e-02	8.333333e-02
334.321100	0.916222	dec_accept	0.916222	32.000000	n/a	16	1.000000e-01	1.000000e-01
334.321100	0.916222	dec_social_accept_high	0.916222	32.000000	n/a	16	2.708333e-01	2.708333e-01
341.972300	1.115204	dec_nonsocial_choice	1.115204	32.000000	n/a	0	0	-2.291667e-01
341.972300	1.115204	dec_choice	1.115204	32.000000	n/a	0	0	-2.291667e-01
341.972300	1.115204	dec_nonsocial_reject	1.115204	32.000000	n/a	0	0	-5.416667e-02
341.972300	1.115204	dec_reject	1.115204	32.000000	n/a	0	0	-6.250000e-02
341.972300	1.115204	dec_nonsocial_reject_low	1.115204	32.000000	n/a	2	-4.464286e-02	-1.071429e-01
352.837300	1.766920	dec_nonsocial_choice	1.766920	32.000000	n/a	8	2.083333e-02	2.083333e-02
352.837300	1.766920	dec_choice	1.766920	32.000000	n/a	8	2.083333e-02	2.083333e-02
352.837300	1.766920	dec_nonsocial_accept	1.766920	32.000000	n/a	8	-1.666667e-01	-1.666667e-01
352.837300	1.766920	dec_accept	1.766920	32.000000	n/a	8	-1.875000e-01	-1.875000e-01
352.837300	1.766920	dec_nonsocial_high	1.766920	32.000000	n/a	8	2.083333e-02	2.083333e-02
352.837300	1.766920	dec_nonsocial_accept_high	1.766920	32.000000	n/a	8	-1.875000e-01	-1.875000e-01
359.670780	1.216713	dec_nonsocial_choice	1.216713	32.000000	n/a	0	0	-2.291667e-01
359.670780	1.216713	dec_choice	1.216713	32.000000	n/a	0	0	-2.291667e-01
359.670780	1.216713	dec_nonsocial_reject	1.216713	32.000000	n/a	0	0	-5.416667e-02
359.670780	1.216713	dec_reject	1.216713	32.000000	n/a	0	0	-6.250000e-02
359.670780	1.216713	dec_nonsocial_reject_low	1.216713	32.000000	n/a	2	-4.464286e-02	-1.071429e-01
367.321900	0.949139	dec_nonsocial_choice	0.949139	32.000000	n/a	16	2.708333e-01	2.708333e-01
367.321900	0.949139	dec_choice	0.949139	32.000000	n/a	16	2.708333e-01	2.708333e-01
367.321900	0.949139	dec_nonsocial_accept	0.949139	32.000000	n/a	16	8.333333e-02	8.333333e-02
367.321900	0.949139	dec_accept	0.949139	32.000000	n/a	16	6.250000e-02	6.250000e-02
367.321900	0.949139	dec_nonsocial_high	0.949139	32.000000	n/a	16	2.708333e-01	2.708333e-01
367.321900	0.949139	dec_nonsocial_accept_high	0.949139	32.000000	n/a	16	6.250000e-02	6.250000e-02
