onset	duration	trial_type	response_time	Endowment	Endowment_pmod	Decision	Decision_pmod	Offer_pmod
4.583306	2	cue_social	n/a	32	7	n/a	n/a	n/a
4.583306	2	cue_social_high	n/a	32	7	n/a	n/a	n/a
13.847292	2	cue_social	n/a	16	-9	n/a	n/a	n/a
13.847292	2	cue_social_low	n/a	16	-9	n/a	n/a	n/a
21.491072	2	cue_social	n/a	16	-9	n/a	n/a	n/a
21.491072	2	cue_social_low	n/a	16	-9	n/a	n/a	n/a
28.239832	2	cue_nonsocial	n/a	32	7	n/a	n/a	n/a
28.239832	2	cue_nonsocial_high	n/a	32	7	n/a	n/a	n/a
35.949097	2	cue_social	n/a	16	-9	n/a	n/a	n/a
35.949097	2	cue_social_low	n/a	16	-9	n/a	n/a	n/a
43.539337	2	cue_nonsocial	n/a	16	-9	n/a	n/a	n/a
43.539337	2	cue_nonsocial_low	n/a	16	-9	n/a	n/a	n/a
54.406387	2	cue_nonsocial	n/a	32	7	n/a	n/a	n/a
54.406387	2	cue_nonsocial_high	n/a	32	7	n/a	n/a	n/a
65.364730	2	cue_social	n/a	32	7	n/a	n/a	n/a
65.364730	2	cue_social_high	n/a	32	7	n/a	n/a	n/a
74.608960	2	cue_social	n/a	16	-9	n/a	n/a	n/a
74.608960	2	cue_social_low	n/a	16	-9	n/a	n/a	n/a
81.373030	2	cue_nonsocial	n/a	32	7	n/a	n/a	n/a
81.373030	2	cue_nonsocial_high	n/a	32	7	n/a	n/a	n/a
88.206330	2	cue_nonsocial	n/a	32	7	n/a	n/a	n/a
88.206330	2	cue_nonsocial_high	n/a	32	7	n/a	n/a	n/a
95.039730	2	cue_nonsocial	n/a	32	7	n/a	n/a	n/a
95.039730	2	cue_nonsocial_high	n/a	32	7	n/a	n/a	n/a
104.306230	2	cue_nonsocial	n/a	16	-9	n/a	n/a	n/a
104.306230	2	cue_nonsocial_low	n/a	16	-9	n/a	n/a	n/a
111.139560	2	cue_nonsocial	n/a	32	7	n/a	n/a	n/a
111.139560	2	cue_nonsocial_high	n/a	32	7	n/a	n/a	n/a
120.445790	2	cue_social	n/a	32	7	n/a	n/a	n/a
120.445790	2	cue_social_high	n/a	32	7	n/a	n/a	n/a
128.152850	2	cue_social	n/a	32	7	n/a	n/a	n/a
128.152850	2	cue_social_high	n/a	32	7	n/a	n/a	n/a
134.872850	2	cue_nonsocial	n/a	16	-9	n/a	n/a	n/a
134.872850	2	cue_nonsocial_low	n/a	16	-9	n/a	n/a	n/a
142.580500	2	cue_social	n/a	32	7	n/a	n/a	n/a
142.580500	2	cue_social_high	n/a	32	7	n/a	n/a	n/a
151.853780	2	cue_social	n/a	32	7	n/a	n/a	n/a
151.853780	2	cue_social_high	n/a	32	7	n/a	n/a	n/a
158.606060	2	cue_nonsocial	n/a	32	7	n/a	n/a	n/a
158.606060	2	cue_nonsocial_high	n/a	32	7	n/a	n/a	n/a
166.326000	2	cue_social	n/a	16	-9	n/a	n/a	n/a
166.326000	2	cue_social_low	n/a	16	-9	n/a	n/a	n/a
178.739440	2	cue_nonsocial	n/a	16	-9	n/a	n/a	n/a
178.739440	2	cue_nonsocial_low	n/a	16	-9	n/a	n/a	n/a
185.646970	2	cue_social	n/a	16	-9	n/a	n/a	n/a
185.646970	2	cue_social_low	n/a	16	-9	n/a	n/a	n/a
192.405990	2	cue_nonsocial	n/a	16	-9	n/a	n/a	n/a
192.405990	2	cue_nonsocial_low	n/a	16	-9	n/a	n/a	n/a
199.239410	2	cue_nonsocial	n/a	16	-9	n/a	n/a	n/a
199.239410	2	cue_nonsocial_low	n/a	16	-9	n/a	n/a	n/a
206.175140	2	cue_social	n/a	32	7	n/a	n/a	n/a
206.175140	2	cue_social_high	n/a	32	7	n/a	n/a	n/a
213.780790	2	cue_social	n/a	32	7	n/a	n/a	n/a
213.780790	2	cue_social_high	n/a	32	7	n/a	n/a	n/a
220.640340	2	cue_social	n/a	16	-9	n/a	n/a	n/a
220.640340	2	cue_social_low	n/a	16	-9	n/a	n/a	n/a
227.389310	2	cue_nonsocial	n/a	32	7	n/a	n/a	n/a
227.389310	2	cue_nonsocial_high	n/a	32	7	n/a	n/a	n/a
234.222890	2	cue_nonsocial	n/a	32	7	n/a	n/a	n/a
234.222890	2	cue_nonsocial_high	n/a	32	7	n/a	n/a	n/a
241.166350	2	cue_social	n/a	16	-9	n/a	n/a	n/a
241.166350	2	cue_social_low	n/a	16	-9	n/a	n/a	n/a
248.706180	2	cue_nonsocial	n/a	32	7	n/a	n/a	n/a
248.706180	2	cue_nonsocial_high	n/a	32	7	n/a	n/a	n/a
256.356050	2	cue_nonsocial	n/a	16	-9	n/a	n/a	n/a
256.356050	2	cue_nonsocial_low	n/a	16	-9	n/a	n/a	n/a
264.053280	2	cue_social	n/a	32	7	n/a	n/a	n/a
264.053280	2	cue_social_high	n/a	32	7	n/a	n/a	n/a
273.309020	2	cue_social	n/a	32	7	n/a	n/a	n/a
273.309020	2	cue_social_high	n/a	32	7	n/a	n/a	n/a
280.072570	2	cue_nonsocial	n/a	32	7	n/a	n/a	n/a
280.072570	2	cue_nonsocial_high	n/a	32	7	n/a	n/a	n/a
286.990600	2	cue_social	n/a	16	-9	n/a	n/a	n/a
286.990600	2	cue_social_low	n/a	16	-9	n/a	n/a	n/a
293.739140	2	cue_nonsocial	n/a	32	7	n/a	n/a	n/a
293.739140	2	cue_nonsocial_high	n/a	32	7	n/a	n/a	n/a
301.461180	2	cue_social	n/a	32	7	n/a	n/a	n/a
301.461180	2	cue_social_high	n/a	32	7	n/a	n/a	n/a
309.039150	2	cue_nonsocial	n/a	16	-9	n/a	n/a	n/a
309.039150	2	cue_nonsocial_low	n/a	16	-9	n/a	n/a	n/a
316.689030	2	cue_nonsocial	n/a	32	7	n/a	n/a	n/a
316.689030	2	cue_nonsocial_high	n/a	32	7	n/a	n/a	n/a
323.595400	2	cue_social	n/a	32	7	n/a	n/a	n/a
323.595400	2	cue_social_high	n/a	32	7	n/a	n/a	n/a
330.456400	2	cue_social	n/a	16	-9	n/a	n/a	n/a
330.456400	2	cue_social_low	n/a	16	-9	n/a	n/a	n/a
337.189060	2	cue_nonsocial	n/a	16	-9	n/a	n/a	n/a
337.189060	2	cue_nonsocial_low	n/a	16	-9	n/a	n/a	n/a
346.439030	2	cue_nonsocial	n/a	32	7	n/a	n/a	n/a
346.439030	2	cue_nonsocial_high	n/a	32	7	n/a	n/a	n/a
353.341600	2	cue_social	n/a	16	-9	n/a	n/a	n/a
353.341600	2	cue_social_low	n/a	16	-9	n/a	n/a	n/a
360.105770	2	cue_nonsocial	n/a	16	-9	n/a	n/a	n/a
360.105770	2	cue_nonsocial_low	n/a	16	-9	n/a	n/a	n/a
367.001900	2	cue_social	n/a	32	7	n/a	n/a	n/a
367.001900	2	cue_social_high	n/a	32	7	n/a	n/a	n/a
6.512891	1.899987	dec_social_choice	1.899987	32.000000	n/a	0	0	-2.298177e-01
6.512891	1.899987	dec_choice	1.899987	32.000000	n/a	0	0	-2.304688e-01
6.512891	1.899987	dec_social_reject	1.899987	32.000000	n/a	0	0	-1.939655e-02
6.512891	1.899987	dec_reject	1.899987	32.000000	n/a	0	0	-4.807692e-03
6.512891	1.899987	dec_social_reject_low	1.899987	32.000000	n/a	3	-1.367188e-01	-2.304688e-01
15.762923	1.266145	dec_social_choice	1.266145	16.000000	n/a	8	2.701823e-01	2.701823e-01
15.762923	1.266145	dec_choice	1.266145	16.000000	n/a	8	2.695312e-01	2.695312e-01
15.762923	1.266145	dec_social_accept	1.266145	16.000000	n/a	8	9.210526e-02	9.210526e-02
15.762923	1.266145	dec_accept	1.266145	16.000000	n/a	8	1.136364e-01	1.136364e-01
15.762923	1.266145	dec_social_high	1.266145	16.000000	n/a	8	2.695312e-01	2.695312e-01
15.762923	1.266145	dec_social_accept_high	1.266145	16.000000	n/a	8	2.695312e-01	2.695312e-01
23.412542	1.232995	dec_social_choice	1.232995	16.000000	n/a	0	0	-2.298177e-01
23.412542	1.232995	dec_choice	1.232995	16.000000	n/a	0	0	-2.304688e-01
23.412542	1.232995	dec_social_reject	1.232995	16.000000	n/a	0	0	1.185345e-02
23.412542	1.232995	dec_reject	1.232995	16.000000	n/a	0	0	2.644231e-02
23.412542	1.232995	dec_social_reject_low	1.232995	16.000000	n/a	2	-1.054688e-01	-2.304688e-01
30.246088	1.500072	dec_nonsocial_choice	1.500072	32.000000	n/a	16	2.701823e-01	2.701823e-01
30.246088	1.500072	dec_choice	1.500072	32.000000	n/a	16	2.708333e-01	2.708333e-01
30.246088	1.500072	dec_nonsocial_accept	1.500072	32.000000	n/a	16	9.210526e-02	9.210526e-02
30.246088	1.500072	dec_accept	1.500072	32.000000	n/a	16	6.250000e-02	6.250000e-02
30.246088	1.500072	dec_nonsocial_accept_high	1.500072	32.000000	n/a	16	1.136364e-01	1.136364e-01
37.896587	1.299387	dec_social_choice	1.299387	16.000000	n/a	0	0	-2.298177e-01
37.896587	1.299387	dec_choice	1.299387	16.000000	n/a	0	0	-2.304688e-01
37.896587	1.299387	dec_social_reject	1.299387	16.000000	n/a	0	0	1.185345e-02
37.896587	1.299387	dec_reject	1.299387	16.000000	n/a	0	0	2.644231e-02
37.896587	1.299387	dec_social_low	1.299387	16.000000	n/a	0	-2.304688e-01	-2.304688e-01
37.896587	1.299387	dec_social_reject_low	1.299387	16.000000	n/a	2	-1.054688e-01	-2.304688e-01
45.546173	1.066114	dec_nonsocial_choice	1.066114	16.000000	n/a	0	0	-2.298177e-01
45.546173	1.066114	dec_choice	1.066114	16.000000	n/a	0	0	-2.291667e-01
45.546173	1.066114	dec_nonsocial_reject	1.066114	16.000000	n/a	0	0	1.185345e-02
45.546173	1.066114	dec_reject	1.066114	16.000000	n/a	0	0	0
45.546173	1.066114	dec_nonsocial_low	1.066114	16.000000	n/a	0	-2.291667e-01	-2.291667e-01
45.546173	1.066114	dec_nonsocial_reject_low	1.066114	16.000000	n/a	2	0	-1.250000e-01
56.412064	0.967157	dec_nonsocial_choice	0.967157	32.000000	n/a	0	0	-2.298177e-01
56.412064	0.967157	dec_choice	0.967157	32.000000	n/a	0	0	-2.291667e-01
56.412064	0.967157	dec_nonsocial_reject	0.967157	32.000000	n/a	0	0	-5.064655e-02
56.412064	0.967157	dec_reject	0.967157	32.000000	n/a	0	0	-6.250000e-02
56.412064	0.967157	dec_nonsocial_low	0.967157	32.000000	n/a	0	-2.291667e-01	-2.291667e-01
56.412064	0.967157	dec_nonsocial_reject_low	0.967157	32.000000	n/a	2	-6.250000e-02	-1.250000e-01
67.279870	1.015645	dec_social_choice	1.015645	32.000000	n/a	0	0	-2.298177e-01
67.279870	1.015645	dec_choice	1.015645	32.000000	n/a	0	0	-2.304688e-01
67.279870	1.015645	dec_social_reject	1.015645	32.000000	n/a	0	0	-5.064655e-02
67.279870	1.015645	dec_reject	1.015645	32.000000	n/a	0	0	-3.605769e-02
67.279870	1.015645	dec_social_low	1.015645	32.000000	n/a	0	-2.304688e-01	-2.304688e-01
67.279870	1.015645	dec_social_reject_low	1.015645	32.000000	n/a	2	-1.679688e-01	-2.304688e-01
76.546300	1.515965	dec_social_choice	1.515965	16.000000	n/a	0	0	-2.298177e-01
76.546300	1.515965	dec_choice	1.515965	16.000000	n/a	0	0	-2.304688e-01
76.546300	1.515965	dec_social_reject	1.515965	16.000000	n/a	0	0	-5.064655e-02
76.546300	1.515965	dec_reject	1.515965	16.000000	n/a	0	0	-3.605769e-02
76.546300	1.515965	dec_social_reject_low	1.515965	16.000000	n/a	1	-1.679688e-01	-2.304688e-01
83.378790	1.750974	dec_nonsocial_choice	1.750974	32.000000	n/a	8	2.018229e-02	2.018229e-02
83.378790	1.750974	dec_choice	1.750974	32.000000	n/a	8	2.083333e-02	2.083333e-02
83.378790	1.750974	dec_nonsocial_accept	1.750974	32.000000	n/a	8	-1.578947e-01	-1.578947e-01
83.378790	1.750974	dec_accept	1.750974	32.000000	n/a	8	-1.875000e-01	-1.875000e-01
83.378790	1.750974	dec_nonsocial_high	1.750974	32.000000	n/a	8	2.083333e-02	2.083333e-02
83.378790	1.750974	dec_nonsocial_accept_high	1.750974	32.000000	n/a	8	-1.875000e-01	-1.875000e-01
90.211930	1.117069	dec_nonsocial_choice	1.117069	32.000000	n/a	0	0	-2.298177e-01
90.211930	1.117069	dec_choice	1.117069	32.000000	n/a	0	0	-2.291667e-01
90.211930	1.117069	dec_nonsocial_reject	1.117069	32.000000	n/a	0	0	-1.939655e-02
90.211930	1.117069	dec_reject	1.117069	32.000000	n/a	0	0	-3.125000e-02
90.211930	1.117069	dec_nonsocial_reject_low	1.117069	32.000000	n/a	3	-4.807692e-03	-9.855769e-02
97.046550	1.115705	dec_nonsocial_choice	1.115705	32.000000	n/a	0	0	-2.298177e-01
97.046550	1.115705	dec_choice	1.115705	32.000000	n/a	0	0	-2.291667e-01
97.046550	1.115705	dec_nonsocial_reject	1.115705	32.000000	n/a	0	0	-1.939655e-02
97.046550	1.115705	dec_reject	1.115705	32.000000	n/a	0	0	-3.125000e-02
97.046550	1.115705	dec_nonsocial_reject_low	1.115705	32.000000	n/a	3	-4.807692e-03	-9.855769e-02
106.312170	1.116673	dec_nonsocial_choice	1.116673	16.000000	n/a	8	2.701823e-01	2.701823e-01
106.312170	1.116673	dec_choice	1.116673	16.000000	n/a	8	2.708333e-01	2.708333e-01
106.312170	1.116673	dec_nonsocial_accept	1.116673	16.000000	n/a	8	9.210526e-02	9.210526e-02
106.312170	1.116673	dec_accept	1.116673	16.000000	n/a	8	6.250000e-02	6.250000e-02
106.312170	1.116673	dec_nonsocial_high	1.116673	16.000000	n/a	8	2.708333e-01	2.708333e-01
106.312170	1.116673	dec_nonsocial_accept_high	1.116673	16.000000	n/a	8	6.250000e-02	6.250000e-02
113.145100	1.716993	dec_nonsocial_choice	1.716993	32.000000	n/a	8	2.018229e-02	2.018229e-02
113.145100	1.716993	dec_choice	1.716993	32.000000	n/a	8	2.083333e-02	2.083333e-02
113.145100	1.716993	dec_nonsocial_accept	1.716993	32.000000	n/a	8	-1.578947e-01	-1.578947e-01
113.145100	1.716993	dec_accept	1.716993	32.000000	n/a	8	-1.875000e-01	-1.875000e-01
113.145100	1.716993	dec_nonsocial_high	1.716993	32.000000	n/a	8	2.083333e-02	2.083333e-02
113.145100	1.716993	dec_nonsocial_accept_high	1.716993	32.000000	n/a	8	-1.875000e-01	-1.875000e-01
122.396225	1.833518	dec_social_choice	1.833518	32.000000	n/a	8	2.018229e-02	2.018229e-02
122.396225	1.833518	dec_choice	1.833518	32.000000	n/a	8	1.953125e-02	1.953125e-02
122.396225	1.833518	dec_social_accept	1.833518	32.000000	n/a	8	-1.578947e-01	-1.578947e-01
122.396225	1.833518	dec_accept	1.833518	32.000000	n/a	8	-1.363636e-01	-1.363636e-01
122.396225	1.833518	dec_social_accept_high	1.833518	32.000000	n/a	8	1.953125e-02	1.953125e-02
130.046310	1.182925	dec_social_choice	1.182925	32.000000	n/a	16	2.701823e-01	2.701823e-01
130.046310	1.182925	dec_choice	1.182925	32.000000	n/a	16	2.695312e-01	2.695312e-01
130.046310	1.182925	dec_social_accept	1.182925	32.000000	n/a	16	9.210526e-02	9.210526e-02
130.046310	1.182925	dec_accept	1.182925	32.000000	n/a	16	1.136364e-01	1.136364e-01
130.046310	1.182925	dec_social_high	1.182925	32.000000	n/a	16	2.695312e-01	2.695312e-01
130.046310	1.182925	dec_social_accept_high	1.182925	32.000000	n/a	16	2.695312e-01	2.695312e-01
136.878860	2.416627	dec_nonsocial_choice	2.416627	16.000000	n/a	8	2.701823e-01	2.701823e-01
136.878860	2.416627	dec_choice	2.416627	16.000000	n/a	8	2.708333e-01	2.708333e-01
136.878860	2.416627	dec_nonsocial_accept	2.416627	16.000000	n/a	8	9.210526e-02	9.210526e-02
136.878860	2.416627	dec_accept	2.416627	16.000000	n/a	8	6.250000e-02	6.250000e-02
136.878860	2.416627	dec_nonsocial_high	2.416627	16.000000	n/a	8	2.708333e-01	2.708333e-01
136.878860	2.416627	dec_nonsocial_accept_high	2.416627	16.000000	n/a	8	6.250000e-02	6.250000e-02
144.530270	1.082232	dec_social_choice	1.082232	32.000000	n/a	0	0	-2.298177e-01
144.530270	1.082232	dec_choice	1.082232	32.000000	n/a	0	0	-2.304688e-01
144.530270	1.082232	dec_social_reject	1.082232	32.000000	n/a	0	0	-5.064655e-02
144.530270	1.082232	dec_reject	1.082232	32.000000	n/a	0	0	-3.605769e-02
144.530270	1.082232	dec_social_low	1.082232	32.000000	n/a	0	-2.304688e-01	-2.304688e-01
144.530270	1.082232	dec_social_reject_low	1.082232	32.000000	n/a	2	-1.679688e-01	-2.304688e-01
153.778400	1.067522	dec_social_choice	1.067522	32.000000	n/a	8	2.018229e-02	2.018229e-02
153.778400	1.067522	dec_choice	1.067522	32.000000	n/a	8	1.953125e-02	1.953125e-02
153.778400	1.067522	dec_social_accept	1.067522	32.000000	n/a	8	-1.578947e-01	-1.578947e-01
153.778400	1.067522	dec_accept	1.067522	32.000000	n/a	8	-1.363636e-01	-1.363636e-01
153.778400	1.067522	dec_social_high	1.067522	32.000000	n/a	8	1.953125e-02	1.953125e-02
153.778400	1.067522	dec_social_accept_high	1.067522	32.000000	n/a	8	1.953125e-02	1.953125e-02
160.612120	1.383858	dec_nonsocial_choice	1.383858	32.000000	n/a	0	0	-2.298177e-01
160.612120	1.383858	dec_choice	1.383858	32.000000	n/a	0	0	-2.291667e-01
160.612120	1.383858	dec_nonsocial_reject	1.383858	32.000000	n/a	0	0	-5.064655e-02
160.612120	1.383858	dec_reject	1.383858	32.000000	n/a	0	0	-6.250000e-02
160.612120	1.383858	dec_nonsocial_reject_low	1.383858	32.000000	n/a	2	-3.605769e-02	-9.855769e-02
168.262570	0.950058	dec_social_choice	0.950058	16.000000	n/a	8	2.701823e-01	2.701823e-01
168.262570	0.950058	dec_choice	0.950058	16.000000	n/a	8	2.695312e-01	2.695312e-01
168.262570	0.950058	dec_social_accept	0.950058	16.000000	n/a	8	9.210526e-02	9.210526e-02
168.262570	0.950058	dec_accept	0.950058	16.000000	n/a	8	1.136364e-01	1.136364e-01
168.262570	0.950058	dec_social_high	0.950058	16.000000	n/a	8	2.695312e-01	2.695312e-01
168.262570	0.950058	dec_social_accept_high	0.950058	16.000000	n/a	8	2.695312e-01	2.695312e-01
180.745700	1.534077	dec_nonsocial_choice	1.534077	16.000000	n/a	0	0	-2.298177e-01
180.745700	1.534077	dec_choice	1.534077	16.000000	n/a	0	0	-2.291667e-01
180.745700	1.534077	dec_nonsocial_reject	1.534077	16.000000	n/a	0	0	1.368534e-01
180.745700	1.534077	dec_reject	1.534077	16.000000	n/a	0	0	1.250000e-01
180.745700	1.534077	dec_nonsocial_low	1.534077	16.000000	n/a	0	-2.291667e-01	-2.291667e-01
180.745700	1.534077	dec_nonsocial_reject_low	1.534077	16.000000	n/a	4	1.250000e-01	-1.250000e-01
187.578520	1.383541	dec_social_choice	1.383541	16.000000	n/a	0	0	-2.298177e-01
187.578520	1.383541	dec_choice	1.383541	16.000000	n/a	0	0	-2.304688e-01
187.578520	1.383541	dec_social_reject	1.383541	16.000000	n/a	0	0	1.185345e-02
187.578520	1.383541	dec_reject	1.383541	16.000000	n/a	0	0	2.644231e-02
187.578520	1.383541	dec_social_low	1.383541	16.000000	n/a	0	-2.304688e-01	-2.304688e-01
187.578520	1.383541	dec_social_reject_low	1.383541	16.000000	n/a	2	-1.054688e-01	-2.304688e-01
194.412900	1.149683	dec_nonsocial_choice	1.149683	16.000000	n/a	0	0	-2.298177e-01
194.412900	1.149683	dec_choice	1.149683	16.000000	n/a	0	0	-2.291667e-01
194.412900	1.149683	dec_nonsocial_reject	1.149683	16.000000	n/a	0	0	-5.064655e-02
194.412900	1.149683	dec_reject	1.149683	16.000000	n/a	0	0	-6.250000e-02
194.412900	1.149683	dec_nonsocial_low	1.149683	16.000000	n/a	0	-2.291667e-01	-2.291667e-01
194.412900	1.149683	dec_nonsocial_reject_low	1.149683	16.000000	n/a	1	-6.250000e-02	-1.250000e-01
201.246150	2.232541	dec_nonsocial_choice	2.232541	16.000000	n/a	0	0	-2.298177e-01
201.246150	2.232541	dec_choice	2.232541	16.000000	n/a	0	0	-2.291667e-01
201.246150	2.232541	dec_nonsocial_reject	2.232541	16.000000	n/a	0	0	1.368534e-01
201.246150	2.232541	dec_reject	2.232541	16.000000	n/a	0	0	1.250000e-01
201.246150	2.232541	dec_nonsocial_reject_low	2.232541	16.000000	n/a	4	1.514423e-01	-9.855769e-02
208.078600	1.166714	dec_social_choice	1.166714	32.000000	n/a	0	0	-2.298177e-01
208.078600	1.166714	dec_choice	1.166714	32.000000	n/a	0	0	-2.304688e-01
208.078600	1.166714	dec_social_reject	1.166714	32.000000	n/a	0	0	-5.064655e-02
208.078600	1.166714	dec_reject	1.166714	32.000000	n/a	0	0	-3.605769e-02
208.078600	1.166714	dec_social_low	1.166714	32.000000	n/a	0	-2.304688e-01	-2.304688e-01
208.078600	1.166714	dec_social_reject_low	1.166714	32.000000	n/a	2	-1.679688e-01	-2.304688e-01
215.729630	1.165758	dec_social_choice	1.165758	32.000000	n/a	16	2.701823e-01	2.701823e-01
215.729630	1.165758	dec_choice	1.165758	32.000000	n/a	16	2.695312e-01	2.695312e-01
215.729630	1.165758	dec_social_accept	1.165758	32.000000	n/a	16	9.210526e-02	9.210526e-02
215.729630	1.165758	dec_accept	1.165758	32.000000	n/a	16	1.136364e-01	1.136364e-01
215.729630	1.165758	dec_social_accept_high	1.165758	32.000000	n/a	16	2.695312e-01	2.695312e-01
222.562930	1.149406	dec_social_choice	1.149406	16.000000	n/a	0	0	-2.298177e-01
222.562930	1.149406	dec_choice	1.149406	16.000000	n/a	0	0	-2.304688e-01
222.562930	1.149406	dec_social_reject	1.149406	16.000000	n/a	0	0	-5.064655e-02
222.562930	1.149406	dec_reject	1.149406	16.000000	n/a	0	0	-3.605769e-02
222.562930	1.149406	dec_social_reject_low	1.149406	16.000000	n/a	1	-1.679688e-01	-2.304688e-01
229.396960	1.564961	dec_nonsocial_choice	1.564961	32.000000	n/a	16	2.701823e-01	2.701823e-01
229.396960	1.564961	dec_choice	1.564961	32.000000	n/a	16	2.708333e-01	2.708333e-01
229.396960	1.564961	dec_nonsocial_accept	1.564961	32.000000	n/a	16	9.210526e-02	9.210526e-02
229.396960	1.564961	dec_accept	1.564961	32.000000	n/a	16	6.250000e-02	6.250000e-02
229.396960	1.564961	dec_nonsocial_accept_high	1.564961	32.000000	n/a	16	1.136364e-01	1.136364e-01
236.229140	0.883387	dec_nonsocial_choice	0.883387	32.000000	n/a	16	2.701823e-01	2.701823e-01
236.229140	0.883387	dec_choice	0.883387	32.000000	n/a	16	2.708333e-01	2.708333e-01
236.229140	0.883387	dec_nonsocial_accept	0.883387	32.000000	n/a	16	9.210526e-02	9.210526e-02
236.229140	0.883387	dec_accept	0.883387	32.000000	n/a	16	6.250000e-02	6.250000e-02
236.229140	0.883387	dec_nonsocial_accept_high	0.883387	32.000000	n/a	16	1.136364e-01	1.136364e-01
243.062600	1.249669	dec_social_choice	1.249669	16.000000	n/a	4	2.018229e-02	2.018229e-02
243.062600	1.249669	dec_choice	1.249669	16.000000	n/a	4	1.953125e-02	1.953125e-02
243.062600	1.249669	dec_social_accept	1.249669	16.000000	n/a	4	-1.578947e-01	-1.578947e-01
243.062600	1.249669	dec_accept	1.249669	16.000000	n/a	4	-1.363636e-01	-1.363636e-01
243.062600	1.249669	dec_social_accept_high	1.249669	16.000000	n/a	4	1.953125e-02	1.953125e-02
250.713000	1.249389	dec_nonsocial_choice	1.249389	32.000000	n/a	16	2.701823e-01	2.701823e-01
250.713000	1.249389	dec_choice	1.249389	32.000000	n/a	16	2.708333e-01	2.708333e-01
250.713000	1.249389	dec_nonsocial_accept	1.249389	32.000000	n/a	16	9.210526e-02	9.210526e-02
250.713000	1.249389	dec_accept	1.249389	32.000000	n/a	16	6.250000e-02	6.250000e-02
250.713000	1.249389	dec_nonsocial_high	1.249389	32.000000	n/a	16	2.708333e-01	2.708333e-01
250.713000	1.249389	dec_nonsocial_accept_high	1.249389	32.000000	n/a	16	6.250000e-02	6.250000e-02
258.362520	1.433261	dec_nonsocial_choice	1.433261	16.000000	n/a	0	0	-2.298177e-01
258.362520	1.433261	dec_choice	1.433261	16.000000	n/a	0	0	-2.291667e-01
258.362520	1.433261	dec_nonsocial_reject	1.433261	16.000000	n/a	0	0	1.368534e-01
258.362520	1.433261	dec_reject	1.433261	16.000000	n/a	0	0	1.250000e-01
258.362520	1.433261	dec_nonsocial_reject_low	1.433261	16.000000	n/a	4	1.514423e-01	-9.855769e-02
265.995030	1.083901	dec_social_choice	1.083901	32.000000	n/a	0	0	-2.298177e-01
265.995030	1.083901	dec_choice	1.083901	32.000000	n/a	0	0	-2.304688e-01
265.995030	1.083901	dec_social_reject	1.083901	32.000000	n/a	0	0	-1.939655e-02
265.995030	1.083901	dec_reject	1.083901	32.000000	n/a	0	0	-4.807692e-03
265.995030	1.083901	dec_social_reject_low	1.083901	32.000000	n/a	3	-1.367188e-01	-2.304688e-01
275.245820	1.949760	dec_social_choice	1.949760	32.000000	n/a	8	2.018229e-02	2.018229e-02
275.245820	1.949760	dec_choice	1.949760	32.000000	n/a	8	1.953125e-02	1.953125e-02
275.245820	1.949760	dec_social_accept	1.949760	32.000000	n/a	8	-1.578947e-01	-1.578947e-01
275.245820	1.949760	dec_accept	1.949760	32.000000	n/a	8	-1.363636e-01	-1.363636e-01
275.245820	1.949760	dec_social_high	1.949760	32.000000	n/a	8	1.953125e-02	1.953125e-02
275.245820	1.949760	dec_social_accept_high	1.949760	32.000000	n/a	8	1.953125e-02	1.953125e-02
282.079700	1.115272	dec_nonsocial_choice	1.115272	32.000000	n/a	0	0	-2.298177e-01
282.079700	1.115272	dec_choice	1.115272	32.000000	n/a	0	0	-2.291667e-01
282.079700	1.115272	dec_nonsocial_reject	1.115272	32.000000	n/a	0	0	-5.064655e-02
282.079700	1.115272	dec_reject	1.115272	32.000000	n/a	0	0	-6.250000e-02
282.079700	1.115272	dec_nonsocial_reject_low	1.115272	32.000000	n/a	2	-3.605769e-02	-9.855769e-02
288.911900	1.200087	dec_social_choice	1.200087	16.000000	n/a	8	2.701823e-01	2.701823e-01
288.911900	1.200087	dec_choice	1.200087	16.000000	n/a	8	2.695312e-01	2.695312e-01
288.911900	1.200087	dec_social_accept	1.200087	16.000000	n/a	8	9.210526e-02	9.210526e-02
288.911900	1.200087	dec_accept	1.200087	16.000000	n/a	8	1.136364e-01	1.136364e-01
288.911900	1.200087	dec_social_high	1.200087	16.000000	n/a	8	2.695312e-01	2.695312e-01
288.911900	1.200087	dec_social_accept_high	1.200087	16.000000	n/a	8	2.695312e-01	2.695312e-01
295.746550	1.249030	dec_nonsocial_choice	1.249030	32.000000	n/a	0	0	-2.298177e-01
295.746550	1.249030	dec_choice	1.249030	32.000000	n/a	0	0	-2.291667e-01
295.746550	1.249030	dec_nonsocial_reject	1.249030	32.000000	n/a	0	0	-1.939655e-02
295.746550	1.249030	dec_reject	1.249030	32.000000	n/a	0	0	-3.125000e-02
295.746550	1.249030	dec_nonsocial_low	1.249030	32.000000	n/a	0	-2.291667e-01	-2.291667e-01
295.746550	1.249030	dec_nonsocial_reject_low	1.249030	32.000000	n/a	3	-3.125000e-02	-1.250000e-01
303.394680	1.700786	dec_social_choice	1.700786	32.000000	n/a	8	2.018229e-02	2.018229e-02
303.394680	1.700786	dec_choice	1.700786	32.000000	n/a	8	1.953125e-02	1.953125e-02
303.394680	1.700786	dec_social_accept	1.700786	32.000000	n/a	8	-1.578947e-01	-1.578947e-01
303.394680	1.700786	dec_accept	1.700786	32.000000	n/a	8	-1.363636e-01	-1.363636e-01
303.394680	1.700786	dec_social_high	1.700786	32.000000	n/a	8	1.953125e-02	1.953125e-02
303.394680	1.700786	dec_social_accept_high	1.700786	32.000000	n/a	8	1.953125e-02	1.953125e-02
311.045840	1.015991	dec_nonsocial_choice	1.015991	16.000000	n/a	0	0	-2.298177e-01
311.045840	1.015991	dec_choice	1.015991	16.000000	n/a	0	0	-2.291667e-01
311.045840	1.015991	dec_nonsocial_reject	1.015991	16.000000	n/a	0	0	-5.064655e-02
311.045840	1.015991	dec_reject	1.015991	16.000000	n/a	0	0	-6.250000e-02
311.045840	1.015991	dec_nonsocial_low	1.015991	16.000000	n/a	0	-2.291667e-01	-2.291667e-01
311.045840	1.015991	dec_nonsocial_reject_low	1.015991	16.000000	n/a	1	-6.250000e-02	-1.250000e-01
318.695560	1.216180	dec_nonsocial_choice	1.216180	32.000000	n/a	0	0	-2.298177e-01
318.695560	1.216180	dec_choice	1.216180	32.000000	n/a	0	0	-2.291667e-01
318.695560	1.216180	dec_nonsocial_reject	1.216180	32.000000	n/a	0	0	-5.064655e-02
318.695560	1.216180	dec_reject	1.216180	32.000000	n/a	0	0	-6.250000e-02
318.695560	1.216180	dec_nonsocial_low	1.216180	32.000000	n/a	0	-2.291667e-01	-2.291667e-01
318.695560	1.216180	dec_nonsocial_reject_low	1.216180	32.000000	n/a	2	-6.250000e-02	-1.250000e-01
325.527920	1.301002	dec_social_choice	1.301002	32.000000	n/a	0	0	-2.298177e-01
325.527920	1.301002	dec_choice	1.301002	32.000000	n/a	0	0	-2.304688e-01
325.527920	1.301002	dec_social_reject	1.301002	32.000000	n/a	0	0	-1.939655e-02
325.527920	1.301002	dec_reject	1.301002	32.000000	n/a	0	0	-4.807692e-03
325.527920	1.301002	dec_social_low	1.301002	32.000000	n/a	0	-2.304688e-01	-2.304688e-01
325.527920	1.301002	dec_social_reject_low	1.301002	32.000000	n/a	3	-1.367188e-01	-2.304688e-01
332.361900	1.433583	dec_social_choice	1.433583	16.000000	n/a	0	0	-2.298177e-01
332.361900	1.433583	dec_choice	1.433583	16.000000	n/a	0	0	-2.304688e-01
332.361900	1.433583	dec_social_reject	1.433583	16.000000	n/a	0	0	1.368534e-01
332.361900	1.433583	dec_reject	1.433583	16.000000	n/a	0	0	1.514423e-01
332.361900	1.433583	dec_social_reject_low	1.433583	16.000000	n/a	4	1.953125e-02	-2.304688e-01
339.195370	1.449677	dec_nonsocial_choice	1.449677	16.000000	n/a	0	0	-2.298177e-01
339.195370	1.449677	dec_choice	1.449677	16.000000	n/a	0	0	-2.291667e-01
339.195370	1.449677	dec_nonsocial_reject	1.449677	16.000000	n/a	0	0	1.368534e-01
339.195370	1.449677	dec_reject	1.449677	16.000000	n/a	0	0	1.250000e-01
339.195370	1.449677	dec_nonsocial_low	1.449677	16.000000	n/a	0	-2.291667e-01	-2.291667e-01
339.195370	1.449677	dec_nonsocial_reject_low	1.449677	16.000000	n/a	4	1.250000e-01	-1.250000e-01
348.444900	1.166537	dec_nonsocial_choice	1.166537	32.000000	n/a	0	0	-2.298177e-01
348.444900	1.166537	dec_choice	1.166537	32.000000	n/a	0	0	-2.291667e-01
348.444900	1.166537	dec_nonsocial_reject	1.166537	32.000000	n/a	0	0	-1.939655e-02
348.444900	1.166537	dec_reject	1.166537	32.000000	n/a	0	0	-3.125000e-02
348.444900	1.166537	dec_nonsocial_reject_low	1.166537	32.000000	n/a	3	-4.807692e-03	-9.855769e-02
355.279020	1.315930	dec_social_choice	1.315930	16.000000	n/a	0	0	-2.298177e-01
355.279020	1.315930	dec_choice	1.315930	16.000000	n/a	0	0	-2.304688e-01
355.279020	1.315930	dec_social_reject	1.315930	16.000000	n/a	0	0	-5.064655e-02
355.279020	1.315930	dec_reject	1.315930	16.000000	n/a	0	0	-3.605769e-02
355.279020	1.315930	dec_social_low	1.315930	16.000000	n/a	0	-2.304688e-01	-2.304688e-01
355.279020	1.315930	dec_social_reject_low	1.315930	16.000000	n/a	1	-1.679688e-01	-2.304688e-01
362.111570	1.500369	dec_nonsocial_choice	1.500369	16.000000	n/a	0	0	-2.298177e-01
362.111570	1.500369	dec_choice	1.500369	16.000000	n/a	0	0	-2.291667e-01
362.111570	1.500369	dec_nonsocial_reject	1.500369	16.000000	n/a	0	0	1.185345e-02
362.111570	1.500369	dec_reject	1.500369	16.000000	n/a	0	0	0
362.111570	1.500369	dec_nonsocial_low	1.500369	16.000000	n/a	0	-2.291667e-01	-2.291667e-01
362.111570	1.500369	dec_nonsocial_reject_low	1.500369	16.000000	n/a	2	0	-1.250000e-01
368.945040	1.166982	dec_social_choice	1.166982	32.000000	n/a	16	2.701823e-01	2.701823e-01
368.945040	1.166982	dec_choice	1.166982	32.000000	n/a	16	2.695312e-01	2.695312e-01
368.945040	1.166982	dec_social_accept	1.166982	32.000000	n/a	16	9.210526e-02	9.210526e-02
368.945040	1.166982	dec_accept	1.166982	32.000000	n/a	16	1.136364e-01	1.136364e-01
368.945040	1.166982	dec_social_accept_high	1.166982	32.000000	n/a	16	2.695312e-01	2.695312e-01
