onset	duration	trial_type	response_time	Endowment	Endowment_pmod	Decision	Decision_pmod	Offer_pmod
4.562329	2	cue_social	n/a	16	-8	n/a	n/a	n/a
4.562329	2	cue_social_low	n/a	16	-11	n/a	n/a	n/a
11.409884	2	cue_social	n/a	16	-8	n/a	n/a	n/a
11.409884	2	cue_social_low	n/a	16	-11	n/a	n/a	n/a
18.178860	2	cue_nonsocial	n/a	16	-11	n/a	n/a	n/a
18.178860	2	cue_nonsocial_low	n/a	16	-8	n/a	n/a	n/a
25.069912	2	cue_social	n/a	16	-8	n/a	n/a	n/a
25.069912	2	cue_social_low	n/a	16	-11	n/a	n/a	n/a
32.744980	2	cue_social	n/a	16	-8	n/a	n/a	n/a
32.744980	2	cue_social_low	n/a	16	-11	n/a	n/a	n/a
43.586514	2	cue_social	n/a	32	8	n/a	n/a	n/a
43.586514	2	cue_social_high	n/a	32	5	n/a	n/a	n/a
50.362022	2	cue_nonsocial	n/a	32	5	n/a	n/a	n/a
50.362022	2	cue_nonsocial_high	n/a	32	8	n/a	n/a	n/a
58.012375	2	cue_nonsocial	n/a	32	5	n/a	n/a	n/a
58.012375	2	cue_nonsocial_high	n/a	32	8	n/a	n/a	n/a
68.878930	2	cue_nonsocial	n/a	32	5	n/a	n/a	n/a
68.878930	2	cue_nonsocial_high	n/a	32	8	n/a	n/a	n/a
75.712290	2	cue_nonsocial	n/a	16	-11	n/a	n/a	n/a
75.712290	2	cue_nonsocial_low	n/a	16	-8	n/a	n/a	n/a
82.545685	2	cue_nonsocial	n/a	32	5	n/a	n/a	n/a
82.545685	2	cue_nonsocial_high	n/a	32	8	n/a	n/a	n/a
91.812110	2	cue_nonsocial	n/a	32	5	n/a	n/a	n/a
91.812110	2	cue_nonsocial_high	n/a	32	8	n/a	n/a	n/a
99.462190	2	cue_nonsocial	n/a	32	5	n/a	n/a	n/a
99.462190	2	cue_nonsocial_high	n/a	32	8	n/a	n/a	n/a
108.784775	2	cue_social	n/a	32	8	n/a	n/a	n/a
108.784775	2	cue_social_high	n/a	32	5	n/a	n/a	n/a
119.595360	2	cue_nonsocial	n/a	32	5	n/a	n/a	n/a
119.595360	2	cue_nonsocial_high	n/a	32	8	n/a	n/a	n/a
126.428700	2	cue_nonsocial	n/a	16	-11	n/a	n/a	n/a
126.428700	2	cue_nonsocial_low	n/a	16	-8	n/a	n/a	n/a
133.262440	2	cue_nonsocial	n/a	32	5	n/a	n/a	n/a
133.262440	2	cue_nonsocial_high	n/a	32	8	n/a	n/a	n/a
140.095280	2	cue_nonsocial	n/a	16	-11	n/a	n/a	n/a
140.095280	2	cue_nonsocial_low	n/a	16	-8	n/a	n/a	n/a
147.822980	2	cue_social	n/a	16	-8	n/a	n/a	n/a
147.822980	2	cue_social_low	n/a	16	-11	n/a	n/a	n/a
154.635570	2	cue_social	n/a	32	8	n/a	n/a	n/a
154.635570	2	cue_social_high	n/a	32	5	n/a	n/a	n/a
163.944050	2	cue_social	n/a	32	8	n/a	n/a	n/a
163.944050	2	cue_social_high	n/a	32	5	n/a	n/a	n/a
170.761120	2	cue_social	n/a	32	8	n/a	n/a	n/a
170.761120	2	cue_social_high	n/a	32	5	n/a	n/a	n/a
183.161640	2	cue_nonsocial	n/a	32	5	n/a	n/a	n/a
183.161640	2	cue_nonsocial_high	n/a	32	8	n/a	n/a	n/a
190.037830	2	cue_social	n/a	16	-8	n/a	n/a	n/a
190.037830	2	cue_social_low	n/a	16	-11	n/a	n/a	n/a
196.891270	2	cue_social	n/a	32	8	n/a	n/a	n/a
196.891270	2	cue_social_high	n/a	32	5	n/a	n/a	n/a
203.661880	2	cue_nonsocial	n/a	32	5	n/a	n/a	n/a
203.661880	2	cue_nonsocial_high	n/a	32	8	n/a	n/a	n/a
210.495090	2	cue_nonsocial	n/a	32	5	n/a	n/a	n/a
210.495090	2	cue_nonsocial_high	n/a	32	8	n/a	n/a	n/a
218.219600	2	cue_social	n/a	32	8	n/a	n/a	n/a
218.219600	2	cue_social_high	n/a	32	5	n/a	n/a	n/a
225.029460	2	cue_social	n/a	16	-8	n/a	n/a	n/a
225.029460	2	cue_social_low	n/a	16	-11	n/a	n/a	n/a
231.915880	2	cue_social	n/a	32	8	n/a	n/a	n/a
231.915880	2	cue_social_high	n/a	32	5	n/a	n/a	n/a
239.521600	2	cue_social	n/a	32	8	n/a	n/a	n/a
239.521600	2	cue_social_high	n/a	32	5	n/a	n/a	n/a
247.147110	2	cue_social	n/a	32	8	n/a	n/a	n/a
247.147110	2	cue_social_high	n/a	32	5	n/a	n/a	n/a
254.796450	2	cue_social	n/a	16	-8	n/a	n/a	n/a
254.796450	2	cue_social_low	n/a	16	-11	n/a	n/a	n/a
262.463800	2	cue_social	n/a	16	-8	n/a	n/a	n/a
262.463800	2	cue_social_low	n/a	16	-11	n/a	n/a	n/a
270.061740	2	cue_nonsocial	n/a	16	-11	n/a	n/a	n/a
270.061740	2	cue_nonsocial_low	n/a	16	-8	n/a	n/a	n/a
276.969540	2	cue_social	n/a	16	-8	n/a	n/a	n/a
276.969540	2	cue_social_low	n/a	16	-11	n/a	n/a	n/a
283.728300	2	cue_nonsocial	n/a	32	5	n/a	n/a	n/a
283.728300	2	cue_nonsocial_high	n/a	32	8	n/a	n/a	n/a
290.561500	2	cue_nonsocial	n/a	32	5	n/a	n/a	n/a
290.561500	2	cue_nonsocial_high	n/a	32	8	n/a	n/a	n/a
297.456000	2	cue_social	n/a	16	-8	n/a	n/a	n/a
297.456000	2	cue_social_low	n/a	16	-11	n/a	n/a	n/a
306.661620	2	cue_nonsocial	n/a	32	5	n/a	n/a	n/a
306.661620	2	cue_nonsocial_high	n/a	32	8	n/a	n/a	n/a
314.358520	2	cue_social	n/a	32	8	n/a	n/a	n/a
314.358520	2	cue_social_high	n/a	32	5	n/a	n/a	n/a
321.944850	2	cue_nonsocial	n/a	16	-11	n/a	n/a	n/a
321.944850	2	cue_nonsocial_low	n/a	16	-8	n/a	n/a	n/a
328.778000	2	cue_nonsocial	n/a	32	5	n/a	n/a	n/a
328.778000	2	cue_nonsocial_high	n/a	32	8	n/a	n/a	n/a
335.611330	2	cue_nonsocial	n/a	16	-11	n/a	n/a	n/a
335.611330	2	cue_nonsocial_low	n/a	16	-8	n/a	n/a	n/a
344.884060	2	cue_social	n/a	16	-8	n/a	n/a	n/a
344.884060	2	cue_social_low	n/a	16	-11	n/a	n/a	n/a
354.144380	2	cue_nonsocial	n/a	16	-11	n/a	n/a	n/a
354.144380	2	cue_nonsocial_low	n/a	16	-8	n/a	n/a	n/a
361.021480	2	cue_social	n/a	32	8	n/a	n/a	n/a
361.021480	2	cue_social_high	n/a	32	5	n/a	n/a	n/a
370.227970	2	cue_nonsocial	n/a	32	5	n/a	n/a	n/a
370.227970	2	cue_nonsocial_high	n/a	32	8	n/a	n/a	n/a
6.519945	1.349031	dec_social_choice	1.349031	16.000000	n/a	4	2.018229e-02	2.018229e-02
6.519945	1.349031	dec_choice	1.349031	16.000000	n/a	4	2.083333e-02	2.083333e-02
6.519945	1.349031	dec_social_accept	1.349031	16.000000	n/a	4	1.111111e-02	1.111111e-02
6.519945	1.349031	dec_accept	1.349031	16.000000	n/a	4	2.083333e-02	2.083333e-02
6.519945	1.349031	dec_social_high	1.349031	16.000000	n/a	4	2.083333e-02	2.083333e-02
6.519945	1.349031	dec_social_accept_high	1.349031	16.000000	n/a	4	2.083333e-02	2.083333e-02
13.352788	1.649684	dec_social_choice	1.649684	16.000000	n/a	1	-1.673177e-01	-1.673177e-01
13.352788	1.649684	dec_choice	1.649684	16.000000	n/a	1	-1.666667e-01	-1.666667e-01
13.352788	1.649684	dec_social_accept	1.649684	16.000000	n/a	1	-1.763889e-01	-1.763889e-01
13.352788	1.649684	dec_accept	1.649684	16.000000	n/a	1	-1.666667e-01	-1.666667e-01
13.352788	1.649684	dec_social_low	1.649684	16.000000	n/a	1	-1.666667e-01	-1.666667e-01
13.352788	1.649684	dec_social_accept_low	1.649684	16.000000	n/a	1	-1.666667e-01	-1.666667e-01
20.186068	1.283067	dec_nonsocial_choice	1.283067	16.000000	n/a	2	-1.048177e-01	-1.048177e-01
20.186068	1.283067	dec_choice	1.283067	16.000000	n/a	2	-1.054688e-01	-1.054688e-01
20.186068	1.283067	dec_nonsocial_accept	1.283067	16.000000	n/a	2	-1.138889e-01	-1.138889e-01
20.186068	1.283067	dec_accept	1.283067	16.000000	n/a	2	-1.250000e-01	-1.250000e-01
20.186068	1.283067	dec_nonsocial_low	1.283067	16.000000	n/a	2	-1.054688e-01	-1.054688e-01
20.186068	1.283067	dec_nonsocial_accept_low	1.283067	16.000000	n/a	2	-1.250000e-01	-1.250000e-01
27.020025	1.365178	dec_social_choice	1.365178	16.000000	n/a	1	-1.673177e-01	-1.673177e-01
27.020025	1.365178	dec_choice	1.365178	16.000000	n/a	1	-1.666667e-01	-1.666667e-01
27.020025	1.365178	dec_social_accept	1.365178	16.000000	n/a	1	-1.763889e-01	-1.763889e-01
27.020025	1.365178	dec_accept	1.365178	16.000000	n/a	1	-1.666667e-01	-1.666667e-01
27.020025	1.365178	dec_social_low	1.365178	16.000000	n/a	1	-1.666667e-01	-1.666667e-01
27.020025	1.365178	dec_social_accept_low	1.365178	16.000000	n/a	1	-1.666667e-01	-1.666667e-01
34.669056	1.750027	dec_social_choice	1.750027	16.000000	n/a	8	2.701823e-01	2.701823e-01
34.669056	1.750027	dec_choice	1.750027	16.000000	n/a	8	2.708333e-01	2.708333e-01
34.669056	1.750027	dec_social_accept	1.750027	16.000000	n/a	8	2.611111e-01	2.611111e-01
34.669056	1.750027	dec_accept	1.750027	16.000000	n/a	8	2.708333e-01	2.708333e-01
34.669056	1.750027	dec_social_high	1.750027	16.000000	n/a	8	2.708333e-01	2.708333e-01
34.669056	1.750027	dec_social_accept_high	1.750027	16.000000	n/a	8	2.708333e-01	2.708333e-01
45.535255	1.183837	dec_social_choice	1.183837	32.000000	n/a	3	-1.360677e-01	-1.360677e-01
45.535255	1.183837	dec_choice	1.183837	32.000000	n/a	3	-1.354167e-01	-1.354167e-01
45.535255	1.183837	dec_social_accept	1.183837	32.000000	n/a	3	-1.451389e-01	-1.451389e-01
45.535255	1.183837	dec_accept	1.183837	32.000000	n/a	3	-1.354167e-01	-1.354167e-01
45.535255	1.183837	dec_social_low	1.183837	32.000000	n/a	3	-1.354167e-01	-1.354167e-01
45.535255	1.183837	dec_social_accept_low	1.183837	32.000000	n/a	3	-1.354167e-01	-1.354167e-01
52.370033	1.382002	dec_nonsocial_choice	1.382002	32.000000	n/a	16	2.701823e-01	2.701823e-01
52.370033	1.382002	dec_choice	1.382002	32.000000	n/a	16	2.695312e-01	2.695312e-01
52.370033	1.382002	dec_nonsocial_accept	1.382002	32.000000	n/a	16	2.611111e-01	2.611111e-01
52.370033	1.382002	dec_accept	1.382002	32.000000	n/a	16	2.500000e-01	2.500000e-01
52.370033	1.382002	dec_nonsocial_high	1.382002	32.000000	n/a	16	2.695312e-01	2.695312e-01
52.370033	1.382002	dec_nonsocial_accept_high	1.382002	32.000000	n/a	16	2.500000e-01	2.500000e-01
60.019050	1.400004	dec_nonsocial_choice	1.400004	32.000000	n/a	8	2.018229e-02	2.018229e-02
60.019050	1.400004	dec_choice	1.400004	32.000000	n/a	8	1.953125e-02	1.953125e-02
60.019050	1.400004	dec_nonsocial_accept	1.400004	32.000000	n/a	8	1.111111e-02	1.111111e-02
60.019050	1.400004	dec_accept	1.400004	32.000000	n/a	8	0	0
60.019050	1.400004	dec_nonsocial_accept_high	1.400004	32.000000	n/a	8	2.083333e-02	2.083333e-02
70.885180	1.516668	dec_nonsocial_choice	1.516668	32.000000	n/a	16	2.701823e-01	2.701823e-01
70.885180	1.516668	dec_choice	1.516668	32.000000	n/a	16	2.695312e-01	2.695312e-01
70.885180	1.516668	dec_nonsocial_accept	1.516668	32.000000	n/a	16	2.611111e-01	2.611111e-01
70.885180	1.516668	dec_accept	1.516668	32.000000	n/a	16	2.500000e-01	2.500000e-01
70.885180	1.516668	dec_nonsocial_high	1.516668	32.000000	n/a	16	2.695312e-01	2.695312e-01
70.885180	1.516668	dec_nonsocial_accept_high	1.516668	32.000000	n/a	16	2.500000e-01	2.500000e-01
77.718970	1.566414	dec_nonsocial_choice	1.566414	16.000000	n/a	4	2.018229e-02	2.018229e-02
77.718970	1.566414	dec_choice	1.566414	16.000000	n/a	4	1.953125e-02	1.953125e-02
77.718970	1.566414	dec_nonsocial_accept	1.566414	16.000000	n/a	4	1.111111e-02	1.111111e-02
77.718970	1.566414	dec_accept	1.566414	16.000000	n/a	4	0	0
77.718970	1.566414	dec_nonsocial_high	1.566414	16.000000	n/a	4	1.953125e-02	1.953125e-02
77.718970	1.566414	dec_nonsocial_accept_high	1.566414	16.000000	n/a	4	0	0
84.552980	1.565585	dec_nonsocial_choice	1.565585	32.000000	n/a	2	-1.673177e-01	-1.673177e-01
84.552980	1.565585	dec_choice	1.565585	32.000000	n/a	2	-1.679688e-01	-1.679688e-01
84.552980	1.565585	dec_nonsocial_accept	1.565585	32.000000	n/a	2	-1.763889e-01	-1.763889e-01
84.552980	1.565585	dec_accept	1.565585	32.000000	n/a	2	-1.875000e-01	-1.875000e-01
84.552980	1.565585	dec_nonsocial_low	1.565585	32.000000	n/a	2	-1.679688e-01	-1.679688e-01
84.552980	1.565585	dec_nonsocial_accept_low	1.565585	32.000000	n/a	2	-1.875000e-01	-1.875000e-01
93.818960	1.516296	dec_nonsocial_choice	1.516296	32.000000	n/a	8	2.018229e-02	2.018229e-02
93.818960	1.516296	dec_choice	1.516296	32.000000	n/a	8	1.953125e-02	1.953125e-02
93.818960	1.516296	dec_nonsocial_accept	1.516296	32.000000	n/a	8	1.111111e-02	1.111111e-02
93.818960	1.516296	dec_accept	1.516296	32.000000	n/a	8	0	0
93.818960	1.516296	dec_nonsocial_high	1.516296	32.000000	n/a	8	1.953125e-02	1.953125e-02
93.818960	1.516296	dec_nonsocial_accept_high	1.516296	32.000000	n/a	8	0	0
101.468925	1.633068	dec_nonsocial_choice	1.633068	32.000000	n/a	8	2.018229e-02	2.018229e-02
101.468925	1.633068	dec_choice	1.633068	32.000000	n/a	8	1.953125e-02	1.953125e-02
101.468925	1.633068	dec_nonsocial_accept	1.633068	32.000000	n/a	8	1.111111e-02	1.111111e-02
101.468925	1.633068	dec_accept	1.633068	32.000000	n/a	8	0	0
101.468925	1.633068	dec_nonsocial_high	1.633068	32.000000	n/a	8	1.953125e-02	1.953125e-02
101.468925	1.633068	dec_nonsocial_accept_high	1.633068	32.000000	n/a	8	0	0
110.735954	1.449781	dec_social_choice	1.449781	32.000000	n/a	2	-1.673177e-01	-1.673177e-01
110.735954	1.449781	dec_choice	1.449781	32.000000	n/a	2	-1.666667e-01	-1.666667e-01
110.735954	1.449781	dec_social_accept	1.449781	32.000000	n/a	2	-1.763889e-01	-1.763889e-01
110.735954	1.449781	dec_accept	1.449781	32.000000	n/a	2	-1.666667e-01	-1.666667e-01
110.735954	1.449781	dec_social_low	1.449781	32.000000	n/a	2	-1.666667e-01	-1.666667e-01
110.735954	1.449781	dec_social_accept_low	1.449781	32.000000	n/a	2	-1.666667e-01	-1.666667e-01
121.602980	1.765300	dec_nonsocial_choice	1.765300	32.000000	n/a	2	-1.673177e-01	-1.673177e-01
121.602980	1.765300	dec_choice	1.765300	32.000000	n/a	2	-1.679688e-01	-1.679688e-01
121.602980	1.765300	dec_nonsocial_accept	1.765300	32.000000	n/a	2	-1.763889e-01	-1.763889e-01
121.602980	1.765300	dec_accept	1.765300	32.000000	n/a	2	-1.875000e-01	-1.875000e-01
121.602980	1.765300	dec_nonsocial_accept_low	1.765300	32.000000	n/a	2	-1.666667e-01	-1.666667e-01
128.435730	1.782914	dec_nonsocial_choice	1.782914	16.000000	n/a	1	-1.673177e-01	-1.673177e-01
128.435730	1.782914	dec_choice	1.782914	16.000000	n/a	1	-1.679688e-01	-1.679688e-01
128.435730	1.782914	dec_nonsocial_accept	1.782914	16.000000	n/a	1	-1.763889e-01	-1.763889e-01
128.435730	1.782914	dec_accept	1.782914	16.000000	n/a	1	-1.875000e-01	-1.875000e-01
128.435730	1.782914	dec_nonsocial_accept_low	1.782914	16.000000	n/a	1	-1.666667e-01	-1.666667e-01
135.268970	1.400351	dec_nonsocial_choice	1.400351	32.000000	n/a	16	2.701823e-01	2.701823e-01
135.268970	1.400351	dec_choice	1.400351	32.000000	n/a	16	2.695312e-01	2.695312e-01
135.268970	1.400351	dec_nonsocial_accept	1.400351	32.000000	n/a	16	2.611111e-01	2.611111e-01
135.268970	1.400351	dec_accept	1.400351	32.000000	n/a	16	2.500000e-01	2.500000e-01
135.268970	1.400351	dec_nonsocial_accept_high	1.400351	32.000000	n/a	16	2.708333e-01	2.708333e-01
142.102900	1.715467	dec_nonsocial_choice	1.715467	16.000000	n/a	8	2.701823e-01	2.701823e-01
142.102900	1.715467	dec_choice	1.715467	16.000000	n/a	8	2.695312e-01	2.695312e-01
142.102900	1.715467	dec_nonsocial_accept	1.715467	16.000000	n/a	8	2.611111e-01	2.611111e-01
142.102900	1.715467	dec_accept	1.715467	16.000000	n/a	8	2.500000e-01	2.500000e-01
142.102900	1.715467	dec_nonsocial_high	1.715467	16.000000	n/a	8	2.695312e-01	2.695312e-01
142.102900	1.715467	dec_nonsocial_accept_high	1.715467	16.000000	n/a	8	2.500000e-01	2.500000e-01
149.750990	1.334078	dec_social_choice	1.334078	16.000000	n/a	8	2.701823e-01	2.701823e-01
149.750990	1.334078	dec_choice	1.334078	16.000000	n/a	8	2.708333e-01	2.708333e-01
149.750990	1.334078	dec_social_accept	1.334078	16.000000	n/a	8	2.611111e-01	2.611111e-01
149.750990	1.334078	dec_accept	1.334078	16.000000	n/a	8	2.708333e-01	2.708333e-01
149.750990	1.334078	dec_social_accept_high	1.334078	16.000000	n/a	8	2.708333e-01	2.708333e-01
156.585940	1.599482	dec_social_choice	1.599482	32.000000	n/a	8	2.018229e-02	2.018229e-02
156.585940	1.599482	dec_choice	1.599482	32.000000	n/a	8	2.083333e-02	2.083333e-02
156.585940	1.599482	dec_social_accept	1.599482	32.000000	n/a	8	1.111111e-02	1.111111e-02
156.585940	1.599482	dec_accept	1.599482	32.000000	n/a	8	2.083333e-02	2.083333e-02
156.585940	1.599482	dec_social_high	1.599482	32.000000	n/a	8	2.083333e-02	2.083333e-02
156.585940	1.599482	dec_social_accept_high	1.599482	32.000000	n/a	8	2.083333e-02	2.083333e-02
165.850950	1.351087	dec_social_choice	1.351087	32.000000	n/a	8	2.018229e-02	2.018229e-02
165.850950	1.351087	dec_choice	1.351087	32.000000	n/a	8	2.083333e-02	2.083333e-02
165.850950	1.351087	dec_social_accept	1.351087	32.000000	n/a	8	1.111111e-02	1.111111e-02
165.850950	1.351087	dec_accept	1.351087	32.000000	n/a	8	2.083333e-02	2.083333e-02
165.850950	1.351087	dec_social_high	1.351087	32.000000	n/a	8	2.083333e-02	2.083333e-02
165.850950	1.351087	dec_social_accept_high	1.351087	32.000000	n/a	8	2.083333e-02	2.083333e-02
172.685880	1.199334	dec_social_choice	1.199334	32.000000	n/a	2	-1.673177e-01	-1.673177e-01
172.685880	1.199334	dec_choice	1.199334	32.000000	n/a	2	-1.666667e-01	-1.666667e-01
172.685880	1.199334	dec_social_accept	1.199334	32.000000	n/a	2	-1.763889e-01	-1.763889e-01
172.685880	1.199334	dec_accept	1.199334	32.000000	n/a	2	-1.666667e-01	-1.666667e-01
172.685880	1.199334	dec_social_accept_low	1.199334	32.000000	n/a	2	-1.666667e-01	-1.666667e-01
185.168580	1.850065	dec_nonsocial_choice	1.850065	32.000000	n/a	0	0	-2.298177e-01
185.168580	1.850065	dec_choice	1.850065	32.000000	n/a	0	0	-2.304688e-01
185.168580	1.850065	dec_nonsocial_reject	1.850065	32.000000	n/a	0	0	2.343750e-02
185.168580	1.850065	dec_reject	1.850065	32.000000	n/a	0	0	0
185.168580	1.850065	dec_nonsocial_reject_low	1.850065	32.000000	n/a	3	9.375000e-02	0
192.002620	1.315658	dec_social_choice	1.315658	16.000000	n/a	8	2.701823e-01	2.701823e-01
192.002620	1.315658	dec_choice	1.315658	16.000000	n/a	8	2.708333e-01	2.708333e-01
192.002620	1.315658	dec_social_accept	1.315658	16.000000	n/a	8	2.611111e-01	2.611111e-01
192.002620	1.315658	dec_accept	1.315658	16.000000	n/a	8	2.708333e-01	2.708333e-01
192.002620	1.315658	dec_social_accept_high	1.315658	16.000000	n/a	8	2.708333e-01	2.708333e-01
198.835880	1.199353	dec_social_choice	1.199353	32.000000	n/a	3	-1.360677e-01	-1.360677e-01
198.835880	1.199353	dec_choice	1.199353	32.000000	n/a	3	-1.354167e-01	-1.354167e-01
198.835880	1.199353	dec_social_accept	1.199353	32.000000	n/a	3	-1.451389e-01	-1.451389e-01
198.835880	1.199353	dec_accept	1.199353	32.000000	n/a	3	-1.354167e-01	-1.354167e-01
198.835880	1.199353	dec_social_low	1.199353	32.000000	n/a	3	-1.354167e-01	-1.354167e-01
198.835880	1.199353	dec_social_accept_low	1.199353	32.000000	n/a	3	-1.354167e-01	-1.354167e-01
205.668880	1.783113	dec_nonsocial_choice	1.783113	32.000000	n/a	0	0	-2.298177e-01
205.668880	1.783113	dec_choice	1.783113	32.000000	n/a	0	0	-2.304688e-01
205.668880	1.783113	dec_nonsocial_reject	1.783113	32.000000	n/a	0	0	-7.812500e-03
205.668880	1.783113	dec_reject	1.783113	32.000000	n/a	0	0	-3.125000e-02
205.668880	1.783113	dec_nonsocial_reject_low	1.783113	32.000000	n/a	2	6.250000e-02	0
212.501860	1.250057	dec_nonsocial_choice	1.250057	32.000000	n/a	16	2.701823e-01	2.701823e-01
212.501860	1.250057	dec_choice	1.250057	32.000000	n/a	16	2.695312e-01	2.695312e-01
212.501860	1.250057	dec_nonsocial_accept	1.250057	32.000000	n/a	16	2.611111e-01	2.611111e-01
212.501860	1.250057	dec_accept	1.250057	32.000000	n/a	16	2.500000e-01	2.500000e-01
212.501860	1.250057	dec_nonsocial_high	1.250057	32.000000	n/a	16	2.695312e-01	2.695312e-01
212.501860	1.250057	dec_nonsocial_accept_high	1.250057	32.000000	n/a	16	2.500000e-01	2.500000e-01
220.151920	1.516640	dec_social_choice	1.516640	32.000000	n/a	3	-1.360677e-01	-1.360677e-01
220.151920	1.516640	dec_choice	1.516640	32.000000	n/a	3	-1.354167e-01	-1.354167e-01
220.151920	1.516640	dec_social_accept	1.516640	32.000000	n/a	3	-1.451389e-01	-1.451389e-01
220.151920	1.516640	dec_accept	1.516640	32.000000	n/a	3	-1.354167e-01	-1.354167e-01
220.151920	1.516640	dec_social_accept_low	1.516640	32.000000	n/a	3	-1.354167e-01	-1.354167e-01
226.985950	1.632723	dec_social_choice	1.632723	16.000000	n/a	8	2.701823e-01	2.701823e-01
226.985950	1.632723	dec_choice	1.632723	16.000000	n/a	8	2.708333e-01	2.708333e-01
226.985950	1.632723	dec_social_accept	1.632723	16.000000	n/a	8	2.611111e-01	2.611111e-01
226.985950	1.632723	dec_accept	1.632723	16.000000	n/a	8	2.708333e-01	2.708333e-01
226.985950	1.632723	dec_social_accept_high	1.632723	16.000000	n/a	8	2.708333e-01	2.708333e-01
233.818820	1.515647	dec_social_choice	1.515647	32.000000	n/a	8	2.018229e-02	2.018229e-02
233.818820	1.515647	dec_choice	1.515647	32.000000	n/a	8	2.083333e-02	2.083333e-02
233.818820	1.515647	dec_social_accept	1.515647	32.000000	n/a	8	1.111111e-02	1.111111e-02
233.818820	1.515647	dec_accept	1.515647	32.000000	n/a	8	2.083333e-02	2.083333e-02
233.818820	1.515647	dec_social_high	1.515647	32.000000	n/a	8	2.083333e-02	2.083333e-02
233.818820	1.515647	dec_social_accept_high	1.515647	32.000000	n/a	8	2.083333e-02	2.083333e-02
241.467790	1.566785	dec_social_choice	1.566785	32.000000	n/a	8	2.018229e-02	2.018229e-02
241.467790	1.566785	dec_choice	1.566785	32.000000	n/a	8	2.083333e-02	2.083333e-02
241.467790	1.566785	dec_social_accept	1.566785	32.000000	n/a	8	1.111111e-02	1.111111e-02
241.467790	1.566785	dec_accept	1.566785	32.000000	n/a	8	2.083333e-02	2.083333e-02
241.467790	1.566785	dec_social_high	1.566785	32.000000	n/a	8	2.083333e-02	2.083333e-02
241.467790	1.566785	dec_social_accept_high	1.566785	32.000000	n/a	8	2.083333e-02	2.083333e-02
249.117700	1.666984	dec_social_choice	1.666984	32.000000	n/a	3	-1.360677e-01	-1.360677e-01
249.117700	1.666984	dec_choice	1.666984	32.000000	n/a	3	-1.354167e-01	-1.354167e-01
249.117700	1.666984	dec_social_accept	1.666984	32.000000	n/a	3	-1.451389e-01	-1.451389e-01
249.117700	1.666984	dec_accept	1.666984	32.000000	n/a	3	-1.354167e-01	-1.354167e-01
249.117700	1.666984	dec_social_low	1.666984	32.000000	n/a	3	-1.354167e-01	-1.354167e-01
249.117700	1.666984	dec_social_accept_low	1.666984	32.000000	n/a	3	-1.354167e-01	-1.354167e-01
256.767820	1.200687	dec_social_choice	1.200687	16.000000	n/a	2	-1.048177e-01	-1.048177e-01
256.767820	1.200687	dec_choice	1.200687	16.000000	n/a	2	-1.041667e-01	-1.041667e-01
256.767820	1.200687	dec_social_accept	1.200687	16.000000	n/a	2	-1.138889e-01	-1.138889e-01
256.767820	1.200687	dec_accept	1.200687	16.000000	n/a	2	-1.041667e-01	-1.041667e-01
256.767820	1.200687	dec_social_low	1.200687	16.000000	n/a	2	-1.041667e-01	-1.041667e-01
256.767820	1.200687	dec_social_accept_low	1.200687	16.000000	n/a	2	-1.041667e-01	-1.041667e-01
264.418820	1.565718	dec_social_choice	1.565718	16.000000	n/a	2	-1.048177e-01	-1.048177e-01
264.418820	1.565718	dec_choice	1.565718	16.000000	n/a	2	-1.041667e-01	-1.041667e-01
264.418820	1.565718	dec_social_accept	1.565718	16.000000	n/a	2	-1.138889e-01	-1.138889e-01
264.418820	1.565718	dec_accept	1.565718	16.000000	n/a	2	-1.041667e-01	-1.041667e-01
264.418820	1.565718	dec_social_low	1.565718	16.000000	n/a	2	-1.041667e-01	-1.041667e-01
264.418820	1.565718	dec_social_accept_low	1.565718	16.000000	n/a	2	-1.041667e-01	-1.041667e-01
272.068330	1.565943	dec_nonsocial_choice	1.565943	16.000000	n/a	0	0	-2.298177e-01
272.068330	1.565943	dec_choice	1.565943	16.000000	n/a	0	0	-2.304688e-01
272.068330	1.565943	dec_nonsocial_reject	1.565943	16.000000	n/a	0	0	5.468750e-02
272.068330	1.565943	dec_reject	1.565943	16.000000	n/a	0	0	3.125000e-02
272.068330	1.565943	dec_nonsocial_low	1.565943	16.000000	n/a	0	-2.304688e-01	-2.304688e-01
272.068330	1.565943	dec_nonsocial_reject_low	1.565943	16.000000	n/a	2	3.125000e-02	-9.375000e-02
278.900800	1.417753	dec_social_choice	1.417753	16.000000	n/a	8	2.701823e-01	2.701823e-01
278.900800	1.417753	dec_choice	1.417753	16.000000	n/a	8	2.708333e-01	2.708333e-01
278.900800	1.417753	dec_social_accept	1.417753	16.000000	n/a	8	2.611111e-01	2.611111e-01
278.900800	1.417753	dec_accept	1.417753	16.000000	n/a	8	2.708333e-01	2.708333e-01
278.900800	1.417753	dec_social_high	1.417753	16.000000	n/a	8	2.708333e-01	2.708333e-01
278.900800	1.417753	dec_social_accept_high	1.417753	16.000000	n/a	8	2.708333e-01	2.708333e-01
285.735200	1.466191	dec_nonsocial_choice	1.466191	32.000000	n/a	2	-1.673177e-01	-1.673177e-01
285.735200	1.466191	dec_choice	1.466191	32.000000	n/a	2	-1.679688e-01	-1.679688e-01
285.735200	1.466191	dec_nonsocial_accept	1.466191	32.000000	n/a	2	-1.763889e-01	-1.763889e-01
285.735200	1.466191	dec_accept	1.466191	32.000000	n/a	2	-1.875000e-01	-1.875000e-01
285.735200	1.466191	dec_nonsocial_accept_low	1.466191	32.000000	n/a	2	-1.666667e-01	-1.666667e-01
292.568500	1.533319	dec_nonsocial_choice	1.533319	32.000000	n/a	8	2.018229e-02	2.018229e-02
292.568500	1.533319	dec_choice	1.533319	32.000000	n/a	8	1.953125e-02	1.953125e-02
292.568500	1.533319	dec_nonsocial_accept	1.533319	32.000000	n/a	8	1.111111e-02	1.111111e-02
292.568500	1.533319	dec_accept	1.533319	32.000000	n/a	8	0	0
292.568500	1.533319	dec_nonsocial_high	1.533319	32.000000	n/a	8	1.953125e-02	1.953125e-02
292.568500	1.533319	dec_nonsocial_accept_high	1.533319	32.000000	n/a	8	0	0
299.400800	1.517149	dec_social_choice	1.517149	16.000000	n/a	8	2.701823e-01	2.701823e-01
299.400800	1.517149	dec_choice	1.517149	16.000000	n/a	8	2.708333e-01	2.708333e-01
299.400800	1.517149	dec_social_accept	1.517149	16.000000	n/a	8	2.611111e-01	2.611111e-01
299.400800	1.517149	dec_accept	1.517149	16.000000	n/a	8	2.708333e-01	2.708333e-01
299.400800	1.517149	dec_social_high	1.517149	16.000000	n/a	8	2.708333e-01	2.708333e-01
299.400800	1.517149	dec_social_accept_high	1.517149	16.000000	n/a	8	2.708333e-01	2.708333e-01
308.667720	1.300669	dec_nonsocial_choice	1.300669	32.000000	n/a	3	-1.360677e-01	-1.360677e-01
308.667720	1.300669	dec_choice	1.300669	32.000000	n/a	3	-1.367188e-01	-1.367188e-01
308.667720	1.300669	dec_nonsocial_accept	1.300669	32.000000	n/a	3	-1.451389e-01	-1.451389e-01
308.667720	1.300669	dec_accept	1.300669	32.000000	n/a	3	-1.562500e-01	-1.562500e-01
308.667720	1.300669	dec_nonsocial_low	1.300669	32.000000	n/a	3	-1.367188e-01	-1.367188e-01
308.667720	1.300669	dec_nonsocial_accept_low	1.300669	32.000000	n/a	3	-1.562500e-01	-1.562500e-01
316.317400	1.600756	dec_social_choice	1.600756	32.000000	n/a	2	-1.673177e-01	-1.673177e-01
316.317400	1.600756	dec_choice	1.600756	32.000000	n/a	2	-1.666667e-01	-1.666667e-01
316.317400	1.600756	dec_social_accept	1.600756	32.000000	n/a	2	-1.763889e-01	-1.763889e-01
316.317400	1.600756	dec_accept	1.600756	32.000000	n/a	2	-1.666667e-01	-1.666667e-01
316.317400	1.600756	dec_social_low	1.600756	32.000000	n/a	2	-1.666667e-01	-1.666667e-01
316.317400	1.600756	dec_social_accept_low	1.600756	32.000000	n/a	2	-1.666667e-01	-1.666667e-01
323.950680	1.167172	dec_nonsocial_choice	1.167172	16.000000	n/a	2	-1.048177e-01	-1.048177e-01
323.950680	1.167172	dec_choice	1.167172	16.000000	n/a	2	-1.054688e-01	-1.054688e-01
323.950680	1.167172	dec_nonsocial_accept	1.167172	16.000000	n/a	2	-1.138889e-01	-1.138889e-01
323.950680	1.167172	dec_accept	1.167172	16.000000	n/a	2	-1.250000e-01	-1.250000e-01
323.950680	1.167172	dec_nonsocial_low	1.167172	16.000000	n/a	2	-1.054688e-01	-1.054688e-01
323.950680	1.167172	dec_nonsocial_accept_low	1.167172	16.000000	n/a	2	-1.250000e-01	-1.250000e-01
330.784760	1.383606	dec_nonsocial_choice	1.383606	32.000000	n/a	2	-1.673177e-01	-1.673177e-01
330.784760	1.383606	dec_choice	1.383606	32.000000	n/a	2	-1.679688e-01	-1.679688e-01
330.784760	1.383606	dec_nonsocial_accept	1.383606	32.000000	n/a	2	-1.763889e-01	-1.763889e-01
330.784760	1.383606	dec_accept	1.383606	32.000000	n/a	2	-1.875000e-01	-1.875000e-01
330.784760	1.383606	dec_nonsocial_accept_low	1.383606	32.000000	n/a	2	-1.666667e-01	-1.666667e-01
337.617920	1.383709	dec_nonsocial_choice	1.383709	16.000000	n/a	4	2.018229e-02	2.018229e-02
337.617920	1.383709	dec_choice	1.383709	16.000000	n/a	4	1.953125e-02	1.953125e-02
337.617920	1.383709	dec_nonsocial_accept	1.383709	16.000000	n/a	4	1.111111e-02	1.111111e-02
337.617920	1.383709	dec_accept	1.383709	16.000000	n/a	4	0	0
337.617920	1.383709	dec_nonsocial_accept_high	1.383709	16.000000	n/a	4	2.083333e-02	2.083333e-02
346.884600	1.049929	dec_social_choice	1.049929	16.000000	n/a	1	-1.673177e-01	-1.673177e-01
346.884600	1.049929	dec_choice	1.049929	16.000000	n/a	1	-1.666667e-01	-1.666667e-01
346.884600	1.049929	dec_social_accept	1.049929	16.000000	n/a	1	-1.763889e-01	-1.763889e-01
346.884600	1.049929	dec_accept	1.049929	16.000000	n/a	1	-1.666667e-01	-1.666667e-01
346.884600	1.049929	dec_social_low	1.049929	16.000000	n/a	1	-1.666667e-01	-1.666667e-01
346.884600	1.049929	dec_social_accept_low	1.049929	16.000000	n/a	1	-1.666667e-01	-1.666667e-01
356.150800	1.466523	dec_nonsocial_choice	1.466523	16.000000	n/a	8	2.701823e-01	2.701823e-01
356.150800	1.466523	dec_choice	1.466523	16.000000	n/a	8	2.695312e-01	2.695312e-01
356.150800	1.466523	dec_nonsocial_accept	1.466523	16.000000	n/a	8	2.611111e-01	2.611111e-01
356.150800	1.466523	dec_accept	1.466523	16.000000	n/a	8	2.500000e-01	2.500000e-01
356.150800	1.466523	dec_nonsocial_high	1.466523	16.000000	n/a	8	2.695312e-01	2.695312e-01
356.150800	1.466523	dec_nonsocial_accept_high	1.466523	16.000000	n/a	8	2.500000e-01	2.500000e-01
362.984740	1.299892	dec_social_choice	1.299892	32.000000	n/a	8	2.018229e-02	2.018229e-02
362.984740	1.299892	dec_choice	1.299892	32.000000	n/a	8	2.083333e-02	2.083333e-02
362.984740	1.299892	dec_social_accept	1.299892	32.000000	n/a	8	1.111111e-02	1.111111e-02
362.984740	1.299892	dec_accept	1.299892	32.000000	n/a	8	2.083333e-02	2.083333e-02
362.984740	1.299892	dec_social_accept_high	1.299892	32.000000	n/a	8	2.083333e-02	2.083333e-02
372.234830	1.382807	dec_nonsocial_choice	1.382807	32.000000	n/a	3	-1.360677e-01	-1.360677e-01
372.234830	1.382807	dec_choice	1.382807	32.000000	n/a	3	-1.367188e-01	-1.367188e-01
372.234830	1.382807	dec_nonsocial_accept	1.382807	32.000000	n/a	3	-1.451389e-01	-1.451389e-01
372.234830	1.382807	dec_accept	1.382807	32.000000	n/a	3	-1.562500e-01	-1.562500e-01
372.234830	1.382807	dec_nonsocial_accept_low	1.382807	32.000000	n/a	3	-1.354167e-01	-1.354167e-01
