onset	duration	trial_type	response_time	Endowment	Decision	Offer
4.504952	2	cue_nonsocial	n/a	16	n/a	n/a
4.504952	2	cue_nonsocial_low	n/a	16	n/a	n/a
6.512840	1.815387	dec_nonsocial_low	1.815387	16	n/a	4
6.512840	1.815387	dec_nonsocial_low_accept	1.815387	16	accept	4
12.155046	2	cue_nonsocial	n/a	32	n/a	n/a
12.155046	2	cue_nonsocial_high	n/a	32	n/a	n/a
14.161181	1.400207	dec_nonsocial_high	1.400207	32	n/a	2
14.161181	1.400207	dec_nonsocial_high_accept	1.400207	32	accept	2
19.061543	2	cue_social	n/a	16	n/a	n/a
19.061543	2	cue_social_low	n/a	16	n/a	n/a
20.994130	1.517483	dec_social_low	1.517483	16	n/a	2
20.994130	1.517483	dec_social_low_accept	1.517483	16	accept	2
26.709260	2	cue_social	n/a	32	n/a	n/a
26.709260	2	cue_social_high	n/a	32	n/a	n/a
28.629076	1.149674	dec_social_high	1.149674	32	n/a	8
28.629076	1.149674	dec_social_high_accept	1.149674	32	accept	8
34.364708	2	cue_social	n/a	16	n/a	n/a
34.364708	2	cue_social_low	n/a	16	n/a	n/a
36.279076	1.715183	dec_social_low	1.715183	16	n/a	8
36.279076	1.715183	dec_social_low_accept	1.715183	16	accept	8
41.174570	2	cue_social	n/a	16	n/a	n/a
41.174570	2	cue_social_low	n/a	16	n/a	n/a
43.112170	1.732982	dec_social_low	1.732982	16	n/a	2
43.112170	1.732982	dec_social_low_accept	1.732982	16	accept	2
50.424217	2	cue_social	n/a	16	n/a	n/a
50.424217	2	cue_social_low	n/a	16	n/a	n/a
52.378040	1.966419	dec_social_low	1.966419	16	n/a	4
52.378040	1.966419	dec_social_low_accept	1.966419	16	accept	4
58.021717	2	cue_nonsocial	n/a	16	n/a	n/a
58.021717	2	cue_nonsocial_low	n/a	16	n/a	n/a
60.027336	1.450544	dec_nonsocial_low	1.450544	16	n/a	4
60.027336	1.450544	dec_nonsocial_low_accept	1.450544	16	accept	4
64.854950	2	cue_nonsocial	n/a	16	n/a	n/a
64.854950	2	cue_nonsocial_low	n/a	16	n/a	n/a
66.861880	1.215883	dec_nonsocial_low	1.215883	16	n/a	2
66.861880	1.215883	dec_nonsocial_low_accept	1.215883	16	accept	2
71.688070	2	cue_nonsocial	n/a	32	n/a	n/a
71.688070	2	cue_nonsocial_high	n/a	32	n/a	n/a
73.695990	1.482369	dec_nonsocial_high	1.482369	32	n/a	3
73.695990	1.482369	dec_nonsocial_high_accept	1.482369	32	accept	3
78.599830	2	cue_social	n/a	32	n/a	n/a
78.599830	2	cue_social_high	n/a	32	n/a	n/a
80.527440	1.450985	dec_social_high	1.450985	32	n/a	16
80.527440	1.450985	dec_social_high_accept	1.450985	32	accept	16
85.431625	2	cue_social	n/a	32	n/a	n/a
85.431625	2	cue_social_high	n/a	32	n/a	n/a
87.360730	1.434195	dec_social_high	1.434195	32	n/a	3
87.360730	1.434195	dec_social_high_accept	1.434195	32	accept	3
93.103030	2	cue_social	n/a	32	n/a	n/a
93.103030	2	cue_social_high	n/a	32	n/a	n/a
95.011160	1.800211	dec_social_high	1.800211	32	n/a	2
95.011160	1.800211	dec_social_high_accept	1.800211	32	accept	2
100.654810	2	cue_nonsocial	n/a	32	n/a	n/a
100.654810	2	cue_nonsocial_high	n/a	32	n/a	n/a
102.661940	1.100020	dec_nonsocial_high	1.100020	32	n/a	16
102.661940	1.100020	dec_nonsocial_high_accept	1.100020	32	accept	16
109.905040	2	cue_nonsocial	n/a	16	n/a	n/a
109.905040	2	cue_nonsocial_low	n/a	16	n/a	n/a
111.911390	1.116455	dec_nonsocial_low	1.116455	16	n/a	2
111.911390	1.116455	dec_nonsocial_low_accept	1.116455	16	accept	2
117.608570	2	cue_social	n/a	16	n/a	n/a
117.608570	2	cue_social_low	n/a	16	n/a	n/a
119.561990	1.133231	dec_social_low	1.133231	16	n/a	4
119.561990	1.133231	dec_social_low_accept	1.133231	16	accept	4
124.388070	2	cue_nonsocial	n/a	32	n/a	n/a
124.388070	2	cue_nonsocial_high	n/a	32	n/a	n/a
126.394940	1.233064	dec_nonsocial_high	1.233064	32	n/a	8
126.394940	1.233064	dec_nonsocial_high_accept	1.233064	32	accept	8
135.254760	2	cue_nonsocial	n/a	32	n/a	n/a
135.254760	2	cue_nonsocial_high	n/a	32	n/a	n/a
137.261780	1.383171	dec_nonsocial_high	1.383171	32	n/a	2
137.261780	1.383171	dec_nonsocial_high_accept	1.383171	32	accept	2
142.105400	2	cue_social	n/a	32	n/a	n/a
142.105400	2	cue_social_high	n/a	32	n/a	n/a
144.095920	1.349034	dec_social_high	1.349034	32	n/a	2
144.095920	1.349034	dec_social_high_accept	1.349034	32	accept	2
153.022550	2	cue_social	n/a	32	n/a	n/a
153.022550	2	cue_social_high	n/a	32	n/a	n/a
154.962590	1.365232	dec_social_high	1.365232	32	n/a	2
154.962590	1.365232	dec_social_high_accept	1.365232	32	accept	2
159.844000	2	cue_social	n/a	32	n/a	n/a
159.844000	2	cue_social_high	n/a	32	n/a	n/a
161.794310	1.466836	dec_social_high	1.466836	32	n/a	16
161.794310	1.466836	dec_social_high_accept	1.466836	32	accept	16
169.106280	2	cue_social	n/a	16	n/a	n/a
169.106280	2	cue_social_low	n/a	16	n/a	n/a
171.044920	1.266149	dec_social_low	1.266149	16	n/a	8
171.044920	1.266149	dec_social_low_accept	1.266149	16	accept	8
175.871350	2	cue_nonsocial	n/a	32	n/a	n/a
175.871350	2	cue_nonsocial_high	n/a	32	n/a	n/a
177.877900	1.483375	dec_nonsocial_high	1.483375	32	n/a	2
177.877900	1.483375	dec_nonsocial_high_accept	1.483375	32	accept	2
186.737760	2	cue_nonsocial	n/a	32	n/a	n/a
186.737760	2	cue_nonsocial_high	n/a	32	n/a	n/a
188.744890	1.765935	dec_nonsocial_high	1.765935	32	n/a	16
188.744890	1.765935	dec_nonsocial_high_accept	1.765935	32	accept	16
194.439700	2	cue_social	n/a	16	n/a	n/a
194.439700	2	cue_social_low	n/a	16	n/a	n/a
196.393840	1.766950	dec_social_low	1.766950	16	n/a	1
196.393840	1.766950	dec_social_low_accept	1.766950	16	accept	1
201.221180	2	cue_nonsocial	n/a	16	n/a	n/a
201.221180	2	cue_nonsocial_low	n/a	16	n/a	n/a
203.227830	1.650227	dec_nonsocial_low	1.650227	16	n/a	8
203.227830	1.650227	dec_nonsocial_low_accept	1.650227	16	accept	8
208.115570	2	cue_social	n/a	32	n/a	n/a
208.115570	2	cue_social_high	n/a	32	n/a	n/a
210.060930	1.133917	dec_social_high	1.133917	32	n/a	16
210.060930	1.133917	dec_social_high_accept	1.133917	32	accept	16
214.887860	2	cue_nonsocial	n/a	16	n/a	n/a
214.887860	2	cue_nonsocial_low	n/a	16	n/a	n/a
216.895430	1.465581	dec_nonsocial_low	1.465581	16	n/a	1
216.895430	1.465581	dec_nonsocial_low_accept	1.465581	16	accept	1
221.721180	2	cue_nonsocial	n/a	16	n/a	n/a
221.721180	2	cue_nonsocial_low	n/a	16	n/a	n/a
223.727840	1.233614	dec_nonsocial_low	1.233614	16	n/a	4
223.727840	1.233614	dec_nonsocial_low_accept	1.233614	16	accept	4
230.970780	2	cue_nonsocial	n/a	32	n/a	n/a
230.970780	2	cue_nonsocial_high	n/a	32	n/a	n/a
232.978870	1.232885	dec_nonsocial_high	1.232885	32	n/a	16
232.978870	1.232885	dec_nonsocial_high_accept	1.232885	32	accept	16
237.803830	2	cue_nonsocial	n/a	32	n/a	n/a
237.803830	2	cue_nonsocial_high	n/a	32	n/a	n/a
239.811830	1.199061	dec_nonsocial_high	1.199061	32	n/a	16
239.811830	1.199061	dec_nonsocial_high_accept	1.199061	32	accept	16
245.454970	2	cue_nonsocial	n/a	32	n/a	n/a
245.454970	2	cue_nonsocial_high	n/a	32	n/a	n/a
247.460820	0.983905	dec_nonsocial_high	0.983905	32	n/a	3
247.460820	0.983905	dec_nonsocial_high_accept	0.983905	32	accept	3
254.704240	2	cue_nonsocial	n/a	32	n/a	n/a
254.704240	2	cue_nonsocial_high	n/a	32	n/a	n/a
256.710820	0.983826	dec_nonsocial_high	0.983826	32	n/a	2
256.710820	0.983826	dec_nonsocial_high_accept	0.983826	32	accept	2
261.537800	2	cue_nonsocial	n/a	32	n/a	n/a
261.537800	2	cue_nonsocial_high	n/a	32	n/a	n/a
263.544860	1.265878	dec_nonsocial_high	1.265878	32	n/a	2
263.544860	1.265878	dec_nonsocial_high_accept	1.265878	32	accept	2
268.432920	2	cue_social	n/a	16	n/a	n/a
268.432920	2	cue_social_low	n/a	16	n/a	n/a
270.378800	1.299135	dec_social_low	1.299135	16	n/a	4
270.378800	1.299135	dec_social_low_accept	1.299135	16	accept	4
275.204440	2	cue_nonsocial	n/a	32	n/a	n/a
275.204440	2	cue_nonsocial_high	n/a	32	n/a	n/a
277.211730	1.499511	dec_nonsocial_high	1.499511	32	n/a	3
277.211730	1.499511	dec_nonsocial_high_accept	1.499511	32	accept	3
282.089540	2	cue_social	n/a	16	n/a	n/a
282.089540	2	cue_social_low	n/a	16	n/a	n/a
284.044800	1.183004	dec_social_low	1.183004	16	n/a	4
284.044800	1.183004	dec_social_low_accept	1.183004	16	accept	4
291.389200	2	cue_social	n/a	32	n/a	n/a
291.389200	2	cue_social_high	n/a	32	n/a	n/a
293.294800	1.449673	dec_social_high	1.449673	32	n/a	8
293.294800	1.449673	dec_social_high_accept	1.449673	32	accept	8
298.975680	2	cue_social	n/a	32	n/a	n/a
298.975680	2	cue_social_high	n/a	32	n/a	n/a
300.944580	1.350095	dec_social_high	1.350095	32	n/a	3
300.944580	1.350095	dec_social_high_accept	1.350095	32	accept	3
305.822050	2	cue_social	n/a	16	n/a	n/a
305.822050	2	cue_social_low	n/a	16	n/a	n/a
307.778530	1.582375	dec_social_low	1.582375	16	n/a	2
307.778530	1.582375	dec_social_low_accept	1.582375	16	accept	2
312.604250	2	cue_nonsocial	n/a	32	n/a	n/a
312.604250	2	cue_nonsocial_high	n/a	32	n/a	n/a
314.609860	1.334642	dec_nonsocial_high	1.334642	32	n/a	8
314.609860	1.334642	dec_nonsocial_high_accept	1.334642	32	accept	8
325.087680	2	cue_nonsocial	n/a	16	n/a	n/a
325.087680	2	cue_nonsocial_low	n/a	16	n/a	n/a
327.094800	1.415671	dec_nonsocial_low	1.415671	16	n/a	4
327.094800	1.415671	dec_nonsocial_low_accept	1.415671	16	accept	4
332.016140	2	cue_social	n/a	16	n/a	n/a
332.016140	2	cue_social_low	n/a	16	n/a	n/a
333.927730	1.732955	dec_social_low	1.732955	16	n/a	1
333.927730	1.732955	dec_social_low_accept	1.732955	16	accept	1
339.626500	2	cue_social	n/a	32	n/a	n/a
339.626500	2	cue_social_high	n/a	32	n/a	n/a
341.577760	1.583091	dec_social_high	1.583091	32	n/a	16
341.577760	1.583091	dec_social_high_accept	1.583091	32	accept	16
346.403960	2	cue_nonsocial	n/a	32	n/a	n/a
346.403960	2	cue_nonsocial_high	n/a	32	n/a	n/a
348.410700	1.083824	dec_nonsocial_high	1.083824	32	n/a	16
348.410700	1.083824	dec_nonsocial_high_accept	1.083824	32	accept	16
354.120970	2	cue_social	n/a	32	n/a	n/a
354.120970	2	cue_social_high	n/a	32	n/a	n/a
356.060700	1.583547	dec_social_high	1.583547	32	n/a	3
356.060700	1.583547	dec_social_high_accept	1.583547	32	accept	3
360.948640	2	cue_social	n/a	32	n/a	n/a
360.948640	2	cue_social_high	n/a	32	n/a	n/a
362.894100	1.216068	dec_social_high	1.216068	32	n/a	2
362.894100	1.216068	dec_social_high_accept	1.216068	32	accept	2
368.537350	2	cue_nonsocial	n/a	16	n/a	n/a
368.537350	2	cue_nonsocial_low	n/a	16	n/a	n/a
370.543760	1.283907	dec_nonsocial_low	1.283907	16	n/a	2
370.543760	1.283907	dec_nonsocial_low_accept	1.283907	16	accept	2
