onset	duration	trial_type	response_time	Endowment	Endowment_pmod	Decision	Decision_pmod	Offer_pmod
4.504952	2	cue_nonsocial	n/a	16	-10	n/a	n/a	n/a
4.504952	2	cue_nonsocial_low	n/a	16	-9	n/a	n/a	n/a
12.155046	2	cue_nonsocial	n/a	32	6	n/a	n/a	n/a
12.155046	2	cue_nonsocial_high	n/a	32	7	n/a	n/a	n/a
19.061543	2	cue_social	n/a	16	-9	n/a	n/a	n/a
19.061543	2	cue_social_low	n/a	16	-10	n/a	n/a	n/a
26.709260	2	cue_social	n/a	32	7	n/a	n/a	n/a
26.709260	2	cue_social_high	n/a	32	6	n/a	n/a	n/a
34.364708	2	cue_social	n/a	16	-9	n/a	n/a	n/a
34.364708	2	cue_social_low	n/a	16	-10	n/a	n/a	n/a
41.174570	2	cue_social	n/a	16	-9	n/a	n/a	n/a
41.174570	2	cue_social_low	n/a	16	-10	n/a	n/a	n/a
50.424217	2	cue_social	n/a	16	-9	n/a	n/a	n/a
50.424217	2	cue_social_low	n/a	16	-10	n/a	n/a	n/a
58.021717	2	cue_nonsocial	n/a	16	-10	n/a	n/a	n/a
58.021717	2	cue_nonsocial_low	n/a	16	-9	n/a	n/a	n/a
64.854950	2	cue_nonsocial	n/a	16	-10	n/a	n/a	n/a
64.854950	2	cue_nonsocial_low	n/a	16	-9	n/a	n/a	n/a
71.688070	2	cue_nonsocial	n/a	32	6	n/a	n/a	n/a
71.688070	2	cue_nonsocial_high	n/a	32	7	n/a	n/a	n/a
78.599830	2	cue_social	n/a	32	7	n/a	n/a	n/a
78.599830	2	cue_social_high	n/a	32	6	n/a	n/a	n/a
85.431625	2	cue_social	n/a	32	7	n/a	n/a	n/a
85.431625	2	cue_social_high	n/a	32	6	n/a	n/a	n/a
93.103030	2	cue_social	n/a	32	7	n/a	n/a	n/a
93.103030	2	cue_social_high	n/a	32	6	n/a	n/a	n/a
100.654810	2	cue_nonsocial	n/a	32	6	n/a	n/a	n/a
100.654810	2	cue_nonsocial_high	n/a	32	7	n/a	n/a	n/a
109.905040	2	cue_nonsocial	n/a	16	-10	n/a	n/a	n/a
109.905040	2	cue_nonsocial_low	n/a	16	-9	n/a	n/a	n/a
117.608570	2	cue_social	n/a	16	-9	n/a	n/a	n/a
117.608570	2	cue_social_low	n/a	16	-10	n/a	n/a	n/a
124.388070	2	cue_nonsocial	n/a	32	6	n/a	n/a	n/a
124.388070	2	cue_nonsocial_high	n/a	32	7	n/a	n/a	n/a
135.254760	2	cue_nonsocial	n/a	32	6	n/a	n/a	n/a
135.254760	2	cue_nonsocial_high	n/a	32	7	n/a	n/a	n/a
142.105400	2	cue_social	n/a	32	7	n/a	n/a	n/a
142.105400	2	cue_social_high	n/a	32	6	n/a	n/a	n/a
153.022550	2	cue_social	n/a	32	7	n/a	n/a	n/a
153.022550	2	cue_social_high	n/a	32	6	n/a	n/a	n/a
159.844000	2	cue_social	n/a	32	7	n/a	n/a	n/a
159.844000	2	cue_social_high	n/a	32	6	n/a	n/a	n/a
169.106280	2	cue_social	n/a	16	-9	n/a	n/a	n/a
169.106280	2	cue_social_low	n/a	16	-10	n/a	n/a	n/a
175.871350	2	cue_nonsocial	n/a	32	6	n/a	n/a	n/a
175.871350	2	cue_nonsocial_high	n/a	32	7	n/a	n/a	n/a
186.737760	2	cue_nonsocial	n/a	32	6	n/a	n/a	n/a
186.737760	2	cue_nonsocial_high	n/a	32	7	n/a	n/a	n/a
194.439700	2	cue_social	n/a	16	-9	n/a	n/a	n/a
194.439700	2	cue_social_low	n/a	16	-10	n/a	n/a	n/a
201.221180	2	cue_nonsocial	n/a	16	-10	n/a	n/a	n/a
201.221180	2	cue_nonsocial_low	n/a	16	-9	n/a	n/a	n/a
208.115570	2	cue_social	n/a	32	7	n/a	n/a	n/a
208.115570	2	cue_social_high	n/a	32	6	n/a	n/a	n/a
214.887860	2	cue_nonsocial	n/a	16	-10	n/a	n/a	n/a
214.887860	2	cue_nonsocial_low	n/a	16	-9	n/a	n/a	n/a
221.721180	2	cue_nonsocial	n/a	16	-10	n/a	n/a	n/a
221.721180	2	cue_nonsocial_low	n/a	16	-9	n/a	n/a	n/a
230.970780	2	cue_nonsocial	n/a	32	6	n/a	n/a	n/a
230.970780	2	cue_nonsocial_high	n/a	32	7	n/a	n/a	n/a
237.803830	2	cue_nonsocial	n/a	32	6	n/a	n/a	n/a
237.803830	2	cue_nonsocial_high	n/a	32	7	n/a	n/a	n/a
245.454970	2	cue_nonsocial	n/a	32	6	n/a	n/a	n/a
245.454970	2	cue_nonsocial_high	n/a	32	7	n/a	n/a	n/a
254.704240	2	cue_nonsocial	n/a	32	6	n/a	n/a	n/a
254.704240	2	cue_nonsocial_high	n/a	32	7	n/a	n/a	n/a
261.537800	2	cue_nonsocial	n/a	32	6	n/a	n/a	n/a
261.537800	2	cue_nonsocial_high	n/a	32	7	n/a	n/a	n/a
268.432920	2	cue_social	n/a	16	-9	n/a	n/a	n/a
268.432920	2	cue_social_low	n/a	16	-10	n/a	n/a	n/a
275.204440	2	cue_nonsocial	n/a	32	6	n/a	n/a	n/a
275.204440	2	cue_nonsocial_high	n/a	32	7	n/a	n/a	n/a
282.089540	2	cue_social	n/a	16	-9	n/a	n/a	n/a
282.089540	2	cue_social_low	n/a	16	-10	n/a	n/a	n/a
291.389200	2	cue_social	n/a	32	7	n/a	n/a	n/a
291.389200	2	cue_social_high	n/a	32	6	n/a	n/a	n/a
298.975680	2	cue_social	n/a	32	7	n/a	n/a	n/a
298.975680	2	cue_social_high	n/a	32	6	n/a	n/a	n/a
305.822050	2	cue_social	n/a	16	-9	n/a	n/a	n/a
305.822050	2	cue_social_low	n/a	16	-10	n/a	n/a	n/a
312.604250	2	cue_nonsocial	n/a	32	6	n/a	n/a	n/a
312.604250	2	cue_nonsocial_high	n/a	32	7	n/a	n/a	n/a
325.087680	2	cue_nonsocial	n/a	16	-10	n/a	n/a	n/a
325.087680	2	cue_nonsocial_low	n/a	16	-9	n/a	n/a	n/a
332.016140	2	cue_social	n/a	16	-9	n/a	n/a	n/a
332.016140	2	cue_social_low	n/a	16	-10	n/a	n/a	n/a
339.626500	2	cue_social	n/a	32	7	n/a	n/a	n/a
339.626500	2	cue_social_high	n/a	32	6	n/a	n/a	n/a
346.403960	2	cue_nonsocial	n/a	32	6	n/a	n/a	n/a
346.403960	2	cue_nonsocial_high	n/a	32	7	n/a	n/a	n/a
354.120970	2	cue_social	n/a	32	7	n/a	n/a	n/a
354.120970	2	cue_social_high	n/a	32	6	n/a	n/a	n/a
360.948640	2	cue_social	n/a	32	7	n/a	n/a	n/a
360.948640	2	cue_social_high	n/a	32	6	n/a	n/a	n/a
368.537350	2	cue_nonsocial	n/a	16	-10	n/a	n/a	n/a
368.537350	2	cue_nonsocial_low	n/a	16	-9	n/a	n/a	n/a
6.512840	1.815387	dec_nonsocial_choice	1.815387	16.000000	n/a	4	1.953125e-02	1.953125e-02
6.512840	1.815387	dec_choice	1.815387	16.000000	n/a	4	1.953125e-02	1.953125e-02
6.512840	1.815387	dec_nonsocial_accept	1.815387	16.000000	n/a	4	1.953125e-02	1.953125e-02
6.512840	1.815387	dec_accept	1.815387	16.000000	n/a	4	1.953125e-02	1.953125e-02
6.512840	1.815387	dec_nonsocial_high	1.815387	16.000000	n/a	4	1.953125e-02	1.953125e-02
6.512840	1.815387	dec_nonsocial_accept_high	1.815387	16.000000	n/a	4	1.953125e-02	1.953125e-02
14.161181	1.400207	dec_nonsocial_choice	1.400207	32.000000	n/a	2	-1.679688e-01	-1.679688e-01
14.161181	1.400207	dec_choice	1.400207	32.000000	n/a	2	-1.679688e-01	-1.679688e-01
14.161181	1.400207	dec_nonsocial_accept	1.400207	32.000000	n/a	2	-1.679688e-01	-1.679688e-01
14.161181	1.400207	dec_accept	1.400207	32.000000	n/a	2	-1.679688e-01	-1.679688e-01
14.161181	1.400207	dec_nonsocial_accept_low	1.400207	32.000000	n/a	2	-1.679688e-01	-1.679688e-01
20.994130	1.517483	dec_social_choice	1.517483	16.000000	n/a	2	-1.054688e-01	-1.054688e-01
20.994130	1.517483	dec_choice	1.517483	16.000000	n/a	2	-1.054688e-01	-1.054688e-01
20.994130	1.517483	dec_social_accept	1.517483	16.000000	n/a	2	-1.054688e-01	-1.054688e-01
20.994130	1.517483	dec_accept	1.517483	16.000000	n/a	2	-1.054688e-01	-1.054688e-01
20.994130	1.517483	dec_social_low	1.517483	16.000000	n/a	2	-1.054688e-01	-1.054688e-01
20.994130	1.517483	dec_social_accept_low	1.517483	16.000000	n/a	2	-1.054688e-01	-1.054688e-01
28.629076	1.149674	dec_social_choice	1.149674	32.000000	n/a	8	1.953125e-02	1.953125e-02
28.629076	1.149674	dec_choice	1.149674	32.000000	n/a	8	1.953125e-02	1.953125e-02
28.629076	1.149674	dec_social_accept	1.149674	32.000000	n/a	8	1.953125e-02	1.953125e-02
28.629076	1.149674	dec_accept	1.149674	32.000000	n/a	8	1.953125e-02	1.953125e-02
28.629076	1.149674	dec_social_accept_high	1.149674	32.000000	n/a	8	1.953125e-02	1.953125e-02
36.279076	1.715183	dec_social_choice	1.715183	16.000000	n/a	8	2.695312e-01	2.695312e-01
36.279076	1.715183	dec_choice	1.715183	16.000000	n/a	8	2.695312e-01	2.695312e-01
36.279076	1.715183	dec_social_accept	1.715183	16.000000	n/a	8	2.695312e-01	2.695312e-01
36.279076	1.715183	dec_accept	1.715183	16.000000	n/a	8	2.695312e-01	2.695312e-01
36.279076	1.715183	dec_social_high	1.715183	16.000000	n/a	8	2.695312e-01	2.695312e-01
36.279076	1.715183	dec_social_accept_high	1.715183	16.000000	n/a	8	2.695312e-01	2.695312e-01
43.112170	1.732982	dec_social_choice	1.732982	16.000000	n/a	2	-1.054688e-01	-1.054688e-01
43.112170	1.732982	dec_choice	1.732982	16.000000	n/a	2	-1.054688e-01	-1.054688e-01
43.112170	1.732982	dec_social_accept	1.732982	16.000000	n/a	2	-1.054688e-01	-1.054688e-01
43.112170	1.732982	dec_accept	1.732982	16.000000	n/a	2	-1.054688e-01	-1.054688e-01
43.112170	1.732982	dec_social_accept_low	1.732982	16.000000	n/a	2	-1.054688e-01	-1.054688e-01
52.378040	1.966419	dec_social_choice	1.966419	16.000000	n/a	4	1.953125e-02	1.953125e-02
52.378040	1.966419	dec_choice	1.966419	16.000000	n/a	4	1.953125e-02	1.953125e-02
52.378040	1.966419	dec_social_accept	1.966419	16.000000	n/a	4	1.953125e-02	1.953125e-02
52.378040	1.966419	dec_accept	1.966419	16.000000	n/a	4	1.953125e-02	1.953125e-02
52.378040	1.966419	dec_social_accept_high	1.966419	16.000000	n/a	4	1.953125e-02	1.953125e-02
60.027336	1.450544	dec_nonsocial_choice	1.450544	16.000000	n/a	4	1.953125e-02	1.953125e-02
60.027336	1.450544	dec_choice	1.450544	16.000000	n/a	4	1.953125e-02	1.953125e-02
60.027336	1.450544	dec_nonsocial_accept	1.450544	16.000000	n/a	4	1.953125e-02	1.953125e-02
60.027336	1.450544	dec_accept	1.450544	16.000000	n/a	4	1.953125e-02	1.953125e-02
60.027336	1.450544	dec_nonsocial_high	1.450544	16.000000	n/a	4	1.953125e-02	1.953125e-02
60.027336	1.450544	dec_nonsocial_accept_high	1.450544	16.000000	n/a	4	1.953125e-02	1.953125e-02
66.861880	1.215883	dec_nonsocial_choice	1.215883	16.000000	n/a	2	-1.054688e-01	-1.054688e-01
66.861880	1.215883	dec_choice	1.215883	16.000000	n/a	2	-1.054688e-01	-1.054688e-01
66.861880	1.215883	dec_nonsocial_accept	1.215883	16.000000	n/a	2	-1.054688e-01	-1.054688e-01
66.861880	1.215883	dec_accept	1.215883	16.000000	n/a	2	-1.054688e-01	-1.054688e-01
66.861880	1.215883	dec_nonsocial_accept_low	1.215883	16.000000	n/a	2	-1.054688e-01	-1.054688e-01
73.695990	1.482369	dec_nonsocial_choice	1.482369	32.000000	n/a	3	-1.367188e-01	-1.367188e-01
73.695990	1.482369	dec_choice	1.482369	32.000000	n/a	3	-1.367188e-01	-1.367188e-01
73.695990	1.482369	dec_nonsocial_accept	1.482369	32.000000	n/a	3	-1.367188e-01	-1.367188e-01
73.695990	1.482369	dec_accept	1.482369	32.000000	n/a	3	-1.367188e-01	-1.367188e-01
73.695990	1.482369	dec_nonsocial_low	1.482369	32.000000	n/a	3	-1.367188e-01	-1.367188e-01
73.695990	1.482369	dec_nonsocial_accept_low	1.482369	32.000000	n/a	3	-1.367188e-01	-1.367188e-01
80.527440	1.450985	dec_social_choice	1.450985	32.000000	n/a	16	2.695312e-01	2.695312e-01
80.527440	1.450985	dec_choice	1.450985	32.000000	n/a	16	2.695312e-01	2.695312e-01
80.527440	1.450985	dec_social_accept	1.450985	32.000000	n/a	16	2.695312e-01	2.695312e-01
80.527440	1.450985	dec_accept	1.450985	32.000000	n/a	16	2.695312e-01	2.695312e-01
80.527440	1.450985	dec_social_accept_high	1.450985	32.000000	n/a	16	2.695312e-01	2.695312e-01
87.360730	1.434195	dec_social_choice	1.434195	32.000000	n/a	3	-1.367188e-01	-1.367188e-01
87.360730	1.434195	dec_choice	1.434195	32.000000	n/a	3	-1.367188e-01	-1.367188e-01
87.360730	1.434195	dec_social_accept	1.434195	32.000000	n/a	3	-1.367188e-01	-1.367188e-01
87.360730	1.434195	dec_accept	1.434195	32.000000	n/a	3	-1.367188e-01	-1.367188e-01
87.360730	1.434195	dec_social_low	1.434195	32.000000	n/a	3	-1.367188e-01	-1.367188e-01
87.360730	1.434195	dec_social_accept_low	1.434195	32.000000	n/a	3	-1.367188e-01	-1.367188e-01
95.011160	1.800211	dec_social_choice	1.800211	32.000000	n/a	2	-1.679688e-01	-1.679688e-01
95.011160	1.800211	dec_choice	1.800211	32.000000	n/a	2	-1.679688e-01	-1.679688e-01
95.011160	1.800211	dec_social_accept	1.800211	32.000000	n/a	2	-1.679688e-01	-1.679688e-01
95.011160	1.800211	dec_accept	1.800211	32.000000	n/a	2	-1.679688e-01	-1.679688e-01
95.011160	1.800211	dec_social_accept_low	1.800211	32.000000	n/a	2	-1.679688e-01	-1.679688e-01
102.661940	1.100020	dec_nonsocial_choice	1.100020	32.000000	n/a	16	2.695312e-01	2.695312e-01
102.661940	1.100020	dec_choice	1.100020	32.000000	n/a	16	2.695312e-01	2.695312e-01
102.661940	1.100020	dec_nonsocial_accept	1.100020	32.000000	n/a	16	2.695312e-01	2.695312e-01
102.661940	1.100020	dec_accept	1.100020	32.000000	n/a	16	2.695312e-01	2.695312e-01
102.661940	1.100020	dec_nonsocial_accept_high	1.100020	32.000000	n/a	16	2.695312e-01	2.695312e-01
111.911390	1.116455	dec_nonsocial_choice	1.116455	16.000000	n/a	2	-1.054688e-01	-1.054688e-01
111.911390	1.116455	dec_choice	1.116455	16.000000	n/a	2	-1.054688e-01	-1.054688e-01
111.911390	1.116455	dec_nonsocial_accept	1.116455	16.000000	n/a	2	-1.054688e-01	-1.054688e-01
111.911390	1.116455	dec_accept	1.116455	16.000000	n/a	2	-1.054688e-01	-1.054688e-01
111.911390	1.116455	dec_nonsocial_low	1.116455	16.000000	n/a	2	-1.054688e-01	-1.054688e-01
111.911390	1.116455	dec_nonsocial_accept_low	1.116455	16.000000	n/a	2	-1.054688e-01	-1.054688e-01
119.561990	1.133231	dec_social_choice	1.133231	16.000000	n/a	4	1.953125e-02	1.953125e-02
119.561990	1.133231	dec_choice	1.133231	16.000000	n/a	4	1.953125e-02	1.953125e-02
119.561990	1.133231	dec_social_accept	1.133231	16.000000	n/a	4	1.953125e-02	1.953125e-02
119.561990	1.133231	dec_accept	1.133231	16.000000	n/a	4	1.953125e-02	1.953125e-02
119.561990	1.133231	dec_social_high	1.133231	16.000000	n/a	4	1.953125e-02	1.953125e-02
119.561990	1.133231	dec_social_accept_high	1.133231	16.000000	n/a	4	1.953125e-02	1.953125e-02
126.394940	1.233064	dec_nonsocial_choice	1.233064	32.000000	n/a	8	1.953125e-02	1.953125e-02
126.394940	1.233064	dec_choice	1.233064	32.000000	n/a	8	1.953125e-02	1.953125e-02
126.394940	1.233064	dec_nonsocial_accept	1.233064	32.000000	n/a	8	1.953125e-02	1.953125e-02
126.394940	1.233064	dec_accept	1.233064	32.000000	n/a	8	1.953125e-02	1.953125e-02
126.394940	1.233064	dec_nonsocial_high	1.233064	32.000000	n/a	8	1.953125e-02	1.953125e-02
126.394940	1.233064	dec_nonsocial_accept_high	1.233064	32.000000	n/a	8	1.953125e-02	1.953125e-02
137.261780	1.383171	dec_nonsocial_choice	1.383171	32.000000	n/a	2	-1.679688e-01	-1.679688e-01
137.261780	1.383171	dec_choice	1.383171	32.000000	n/a	2	-1.679688e-01	-1.679688e-01
137.261780	1.383171	dec_nonsocial_accept	1.383171	32.000000	n/a	2	-1.679688e-01	-1.679688e-01
137.261780	1.383171	dec_accept	1.383171	32.000000	n/a	2	-1.679688e-01	-1.679688e-01
137.261780	1.383171	dec_nonsocial_accept_low	1.383171	32.000000	n/a	2	-1.679688e-01	-1.679688e-01
144.095920	1.349034	dec_social_choice	1.349034	32.000000	n/a	2	-1.679688e-01	-1.679688e-01
144.095920	1.349034	dec_choice	1.349034	32.000000	n/a	2	-1.679688e-01	-1.679688e-01
144.095920	1.349034	dec_social_accept	1.349034	32.000000	n/a	2	-1.679688e-01	-1.679688e-01
144.095920	1.349034	dec_accept	1.349034	32.000000	n/a	2	-1.679688e-01	-1.679688e-01
144.095920	1.349034	dec_social_low	1.349034	32.000000	n/a	2	-1.679688e-01	-1.679688e-01
144.095920	1.349034	dec_social_accept_low	1.349034	32.000000	n/a	2	-1.679688e-01	-1.679688e-01
154.962590	1.365232	dec_social_choice	1.365232	32.000000	n/a	2	-1.679688e-01	-1.679688e-01
154.962590	1.365232	dec_choice	1.365232	32.000000	n/a	2	-1.679688e-01	-1.679688e-01
154.962590	1.365232	dec_social_accept	1.365232	32.000000	n/a	2	-1.679688e-01	-1.679688e-01
154.962590	1.365232	dec_accept	1.365232	32.000000	n/a	2	-1.679688e-01	-1.679688e-01
154.962590	1.365232	dec_social_accept_low	1.365232	32.000000	n/a	2	-1.679688e-01	-1.679688e-01
161.794310	1.466836	dec_social_choice	1.466836	32.000000	n/a	16	2.695312e-01	2.695312e-01
161.794310	1.466836	dec_choice	1.466836	32.000000	n/a	16	2.695312e-01	2.695312e-01
161.794310	1.466836	dec_social_accept	1.466836	32.000000	n/a	16	2.695312e-01	2.695312e-01
161.794310	1.466836	dec_accept	1.466836	32.000000	n/a	16	2.695312e-01	2.695312e-01
161.794310	1.466836	dec_social_high	1.466836	32.000000	n/a	16	2.695312e-01	2.695312e-01
161.794310	1.466836	dec_social_accept_high	1.466836	32.000000	n/a	16	2.695312e-01	2.695312e-01
171.044920	1.266149	dec_social_choice	1.266149	16.000000	n/a	8	2.695312e-01	2.695312e-01
171.044920	1.266149	dec_choice	1.266149	16.000000	n/a	8	2.695312e-01	2.695312e-01
171.044920	1.266149	dec_social_accept	1.266149	16.000000	n/a	8	2.695312e-01	2.695312e-01
171.044920	1.266149	dec_accept	1.266149	16.000000	n/a	8	2.695312e-01	2.695312e-01
171.044920	1.266149	dec_social_high	1.266149	16.000000	n/a	8	2.695312e-01	2.695312e-01
171.044920	1.266149	dec_social_accept_high	1.266149	16.000000	n/a	8	2.695312e-01	2.695312e-01
177.877900	1.483375	dec_nonsocial_choice	1.483375	32.000000	n/a	2	-1.679688e-01	-1.679688e-01
177.877900	1.483375	dec_choice	1.483375	32.000000	n/a	2	-1.679688e-01	-1.679688e-01
177.877900	1.483375	dec_nonsocial_accept	1.483375	32.000000	n/a	2	-1.679688e-01	-1.679688e-01
177.877900	1.483375	dec_accept	1.483375	32.000000	n/a	2	-1.679688e-01	-1.679688e-01
177.877900	1.483375	dec_nonsocial_accept_low	1.483375	32.000000	n/a	2	-1.679688e-01	-1.679688e-01
188.744890	1.765935	dec_nonsocial_choice	1.765935	32.000000	n/a	16	2.695312e-01	2.695312e-01
188.744890	1.765935	dec_choice	1.765935	32.000000	n/a	16	2.695312e-01	2.695312e-01
188.744890	1.765935	dec_nonsocial_accept	1.765935	32.000000	n/a	16	2.695312e-01	2.695312e-01
188.744890	1.765935	dec_accept	1.765935	32.000000	n/a	16	2.695312e-01	2.695312e-01
188.744890	1.765935	dec_nonsocial_accept_high	1.765935	32.000000	n/a	16	2.695312e-01	2.695312e-01
196.393840	1.766950	dec_social_choice	1.766950	16.000000	n/a	1	-1.679688e-01	-1.679688e-01
196.393840	1.766950	dec_choice	1.766950	16.000000	n/a	1	-1.679688e-01	-1.679688e-01
196.393840	1.766950	dec_social_accept	1.766950	16.000000	n/a	1	-1.679688e-01	-1.679688e-01
196.393840	1.766950	dec_accept	1.766950	16.000000	n/a	1	-1.679688e-01	-1.679688e-01
196.393840	1.766950	dec_social_low	1.766950	16.000000	n/a	1	-1.679688e-01	-1.679688e-01
196.393840	1.766950	dec_social_accept_low	1.766950	16.000000	n/a	1	-1.679688e-01	-1.679688e-01
203.227830	1.650227	dec_nonsocial_choice	1.650227	16.000000	n/a	8	2.695312e-01	2.695312e-01
203.227830	1.650227	dec_choice	1.650227	16.000000	n/a	8	2.695312e-01	2.695312e-01
203.227830	1.650227	dec_nonsocial_accept	1.650227	16.000000	n/a	8	2.695312e-01	2.695312e-01
203.227830	1.650227	dec_accept	1.650227	16.000000	n/a	8	2.695312e-01	2.695312e-01
203.227830	1.650227	dec_nonsocial_accept_high	1.650227	16.000000	n/a	8	2.695312e-01	2.695312e-01
210.060930	1.133917	dec_social_choice	1.133917	32.000000	n/a	16	2.695312e-01	2.695312e-01
210.060930	1.133917	dec_choice	1.133917	32.000000	n/a	16	2.695312e-01	2.695312e-01
210.060930	1.133917	dec_social_accept	1.133917	32.000000	n/a	16	2.695312e-01	2.695312e-01
210.060930	1.133917	dec_accept	1.133917	32.000000	n/a	16	2.695312e-01	2.695312e-01
210.060930	1.133917	dec_social_accept_high	1.133917	32.000000	n/a	16	2.695312e-01	2.695312e-01
216.895430	1.465581	dec_nonsocial_choice	1.465581	16.000000	n/a	1	-1.679688e-01	-1.679688e-01
216.895430	1.465581	dec_choice	1.465581	16.000000	n/a	1	-1.679688e-01	-1.679688e-01
216.895430	1.465581	dec_nonsocial_accept	1.465581	16.000000	n/a	1	-1.679688e-01	-1.679688e-01
216.895430	1.465581	dec_accept	1.465581	16.000000	n/a	1	-1.679688e-01	-1.679688e-01
216.895430	1.465581	dec_nonsocial_low	1.465581	16.000000	n/a	1	-1.679688e-01	-1.679688e-01
216.895430	1.465581	dec_nonsocial_accept_low	1.465581	16.000000	n/a	1	-1.679688e-01	-1.679688e-01
223.727840	1.233614	dec_nonsocial_choice	1.233614	16.000000	n/a	4	1.953125e-02	1.953125e-02
223.727840	1.233614	dec_choice	1.233614	16.000000	n/a	4	1.953125e-02	1.953125e-02
223.727840	1.233614	dec_nonsocial_accept	1.233614	16.000000	n/a	4	1.953125e-02	1.953125e-02
223.727840	1.233614	dec_accept	1.233614	16.000000	n/a	4	1.953125e-02	1.953125e-02
223.727840	1.233614	dec_nonsocial_high	1.233614	16.000000	n/a	4	1.953125e-02	1.953125e-02
223.727840	1.233614	dec_nonsocial_accept_high	1.233614	16.000000	n/a	4	1.953125e-02	1.953125e-02
232.978870	1.232885	dec_nonsocial_choice	1.232885	32.000000	n/a	16	2.695312e-01	2.695312e-01
232.978870	1.232885	dec_choice	1.232885	32.000000	n/a	16	2.695312e-01	2.695312e-01
232.978870	1.232885	dec_nonsocial_accept	1.232885	32.000000	n/a	16	2.695312e-01	2.695312e-01
232.978870	1.232885	dec_accept	1.232885	32.000000	n/a	16	2.695312e-01	2.695312e-01
232.978870	1.232885	dec_nonsocial_accept_high	1.232885	32.000000	n/a	16	2.695312e-01	2.695312e-01
239.811830	1.199061	dec_nonsocial_choice	1.199061	32.000000	n/a	16	2.695312e-01	2.695312e-01
239.811830	1.199061	dec_choice	1.199061	32.000000	n/a	16	2.695312e-01	2.695312e-01
239.811830	1.199061	dec_nonsocial_accept	1.199061	32.000000	n/a	16	2.695312e-01	2.695312e-01
239.811830	1.199061	dec_accept	1.199061	32.000000	n/a	16	2.695312e-01	2.695312e-01
239.811830	1.199061	dec_nonsocial_accept_high	1.199061	32.000000	n/a	16	2.695312e-01	2.695312e-01
247.460820	0.983905	dec_nonsocial_choice	0.983905	32.000000	n/a	3	-1.367188e-01	-1.367188e-01
247.460820	0.983905	dec_choice	0.983905	32.000000	n/a	3	-1.367188e-01	-1.367188e-01
247.460820	0.983905	dec_nonsocial_accept	0.983905	32.000000	n/a	3	-1.367188e-01	-1.367188e-01
247.460820	0.983905	dec_accept	0.983905	32.000000	n/a	3	-1.367188e-01	-1.367188e-01
247.460820	0.983905	dec_nonsocial_accept_low	0.983905	32.000000	n/a	3	-1.367188e-01	-1.367188e-01
256.710820	0.983826	dec_nonsocial_choice	0.983826	32.000000	n/a	2	-1.679688e-01	-1.679688e-01
256.710820	0.983826	dec_choice	0.983826	32.000000	n/a	2	-1.679688e-01	-1.679688e-01
256.710820	0.983826	dec_nonsocial_accept	0.983826	32.000000	n/a	2	-1.679688e-01	-1.679688e-01
256.710820	0.983826	dec_accept	0.983826	32.000000	n/a	2	-1.679688e-01	-1.679688e-01
256.710820	0.983826	dec_nonsocial_accept_low	0.983826	32.000000	n/a	2	-1.679688e-01	-1.679688e-01
263.544860	1.265878	dec_nonsocial_choice	1.265878	32.000000	n/a	2	-1.679688e-01	-1.679688e-01
263.544860	1.265878	dec_choice	1.265878	32.000000	n/a	2	-1.679688e-01	-1.679688e-01
263.544860	1.265878	dec_nonsocial_accept	1.265878	32.000000	n/a	2	-1.679688e-01	-1.679688e-01
263.544860	1.265878	dec_accept	1.265878	32.000000	n/a	2	-1.679688e-01	-1.679688e-01
263.544860	1.265878	dec_nonsocial_low	1.265878	32.000000	n/a	2	-1.679688e-01	-1.679688e-01
263.544860	1.265878	dec_nonsocial_accept_low	1.265878	32.000000	n/a	2	-1.679688e-01	-1.679688e-01
270.378800	1.299135	dec_social_choice	1.299135	16.000000	n/a	4	1.953125e-02	1.953125e-02
270.378800	1.299135	dec_choice	1.299135	16.000000	n/a	4	1.953125e-02	1.953125e-02
270.378800	1.299135	dec_social_accept	1.299135	16.000000	n/a	4	1.953125e-02	1.953125e-02
270.378800	1.299135	dec_accept	1.299135	16.000000	n/a	4	1.953125e-02	1.953125e-02
270.378800	1.299135	dec_social_high	1.299135	16.000000	n/a	4	1.953125e-02	1.953125e-02
270.378800	1.299135	dec_social_accept_high	1.299135	16.000000	n/a	4	1.953125e-02	1.953125e-02
277.211730	1.499511	dec_nonsocial_choice	1.499511	32.000000	n/a	3	-1.367188e-01	-1.367188e-01
277.211730	1.499511	dec_choice	1.499511	32.000000	n/a	3	-1.367188e-01	-1.367188e-01
277.211730	1.499511	dec_nonsocial_accept	1.499511	32.000000	n/a	3	-1.367188e-01	-1.367188e-01
277.211730	1.499511	dec_accept	1.499511	32.000000	n/a	3	-1.367188e-01	-1.367188e-01
277.211730	1.499511	dec_nonsocial_accept_low	1.499511	32.000000	n/a	3	-1.367188e-01	-1.367188e-01
284.044800	1.183004	dec_social_choice	1.183004	16.000000	n/a	4	1.953125e-02	1.953125e-02
284.044800	1.183004	dec_choice	1.183004	16.000000	n/a	4	1.953125e-02	1.953125e-02
284.044800	1.183004	dec_social_accept	1.183004	16.000000	n/a	4	1.953125e-02	1.953125e-02
284.044800	1.183004	dec_accept	1.183004	16.000000	n/a	4	1.953125e-02	1.953125e-02
284.044800	1.183004	dec_social_high	1.183004	16.000000	n/a	4	1.953125e-02	1.953125e-02
284.044800	1.183004	dec_social_accept_high	1.183004	16.000000	n/a	4	1.953125e-02	1.953125e-02
293.294800	1.449673	dec_social_choice	1.449673	32.000000	n/a	8	1.953125e-02	1.953125e-02
293.294800	1.449673	dec_choice	1.449673	32.000000	n/a	8	1.953125e-02	1.953125e-02
293.294800	1.449673	dec_social_accept	1.449673	32.000000	n/a	8	1.953125e-02	1.953125e-02
293.294800	1.449673	dec_accept	1.449673	32.000000	n/a	8	1.953125e-02	1.953125e-02
293.294800	1.449673	dec_social_high	1.449673	32.000000	n/a	8	1.953125e-02	1.953125e-02
293.294800	1.449673	dec_social_accept_high	1.449673	32.000000	n/a	8	1.953125e-02	1.953125e-02
300.944580	1.350095	dec_social_choice	1.350095	32.000000	n/a	3	-1.367188e-01	-1.367188e-01
300.944580	1.350095	dec_choice	1.350095	32.000000	n/a	3	-1.367188e-01	-1.367188e-01
300.944580	1.350095	dec_social_accept	1.350095	32.000000	n/a	3	-1.367188e-01	-1.367188e-01
300.944580	1.350095	dec_accept	1.350095	32.000000	n/a	3	-1.367188e-01	-1.367188e-01
300.944580	1.350095	dec_social_accept_low	1.350095	32.000000	n/a	3	-1.367188e-01	-1.367188e-01
307.778530	1.582375	dec_social_choice	1.582375	16.000000	n/a	2	-1.054688e-01	-1.054688e-01
307.778530	1.582375	dec_choice	1.582375	16.000000	n/a	2	-1.054688e-01	-1.054688e-01
307.778530	1.582375	dec_social_accept	1.582375	16.000000	n/a	2	-1.054688e-01	-1.054688e-01
307.778530	1.582375	dec_accept	1.582375	16.000000	n/a	2	-1.054688e-01	-1.054688e-01
307.778530	1.582375	dec_social_low	1.582375	16.000000	n/a	2	-1.054688e-01	-1.054688e-01
307.778530	1.582375	dec_social_accept_low	1.582375	16.000000	n/a	2	-1.054688e-01	-1.054688e-01
314.609860	1.334642	dec_nonsocial_choice	1.334642	32.000000	n/a	8	1.953125e-02	1.953125e-02
314.609860	1.334642	dec_choice	1.334642	32.000000	n/a	8	1.953125e-02	1.953125e-02
314.609860	1.334642	dec_nonsocial_accept	1.334642	32.000000	n/a	8	1.953125e-02	1.953125e-02
314.609860	1.334642	dec_accept	1.334642	32.000000	n/a	8	1.953125e-02	1.953125e-02
314.609860	1.334642	dec_nonsocial_accept_high	1.334642	32.000000	n/a	8	1.953125e-02	1.953125e-02
327.094800	1.415671	dec_nonsocial_choice	1.415671	16.000000	n/a	4	1.953125e-02	1.953125e-02
327.094800	1.415671	dec_choice	1.415671	16.000000	n/a	4	1.953125e-02	1.953125e-02
327.094800	1.415671	dec_nonsocial_accept	1.415671	16.000000	n/a	4	1.953125e-02	1.953125e-02
327.094800	1.415671	dec_accept	1.415671	16.000000	n/a	4	1.953125e-02	1.953125e-02
327.094800	1.415671	dec_nonsocial_high	1.415671	16.000000	n/a	4	1.953125e-02	1.953125e-02
327.094800	1.415671	dec_nonsocial_accept_high	1.415671	16.000000	n/a	4	1.953125e-02	1.953125e-02
333.927730	1.732955	dec_social_choice	1.732955	16.000000	n/a	1	-1.679688e-01	-1.679688e-01
333.927730	1.732955	dec_choice	1.732955	16.000000	n/a	1	-1.679688e-01	-1.679688e-01
333.927730	1.732955	dec_social_accept	1.732955	16.000000	n/a	1	-1.679688e-01	-1.679688e-01
333.927730	1.732955	dec_accept	1.732955	16.000000	n/a	1	-1.679688e-01	-1.679688e-01
333.927730	1.732955	dec_social_accept_low	1.732955	16.000000	n/a	1	-1.679688e-01	-1.679688e-01
341.577760	1.583091	dec_social_choice	1.583091	32.000000	n/a	16	2.695312e-01	2.695312e-01
341.577760	1.583091	dec_choice	1.583091	32.000000	n/a	16	2.695312e-01	2.695312e-01
341.577760	1.583091	dec_social_accept	1.583091	32.000000	n/a	16	2.695312e-01	2.695312e-01
341.577760	1.583091	dec_accept	1.583091	32.000000	n/a	16	2.695312e-01	2.695312e-01
341.577760	1.583091	dec_social_accept_high	1.583091	32.000000	n/a	16	2.695312e-01	2.695312e-01
348.410700	1.083824	dec_nonsocial_choice	1.083824	32.000000	n/a	16	2.695312e-01	2.695312e-01
348.410700	1.083824	dec_choice	1.083824	32.000000	n/a	16	2.695312e-01	2.695312e-01
348.410700	1.083824	dec_nonsocial_accept	1.083824	32.000000	n/a	16	2.695312e-01	2.695312e-01
348.410700	1.083824	dec_accept	1.083824	32.000000	n/a	16	2.695312e-01	2.695312e-01
348.410700	1.083824	dec_nonsocial_accept_high	1.083824	32.000000	n/a	16	2.695312e-01	2.695312e-01
356.060700	1.583547	dec_social_choice	1.583547	32.000000	n/a	3	-1.367188e-01	-1.367188e-01
356.060700	1.583547	dec_choice	1.583547	32.000000	n/a	3	-1.367188e-01	-1.367188e-01
356.060700	1.583547	dec_social_accept	1.583547	32.000000	n/a	3	-1.367188e-01	-1.367188e-01
356.060700	1.583547	dec_accept	1.583547	32.000000	n/a	3	-1.367188e-01	-1.367188e-01
356.060700	1.583547	dec_social_low	1.583547	32.000000	n/a	3	-1.367188e-01	-1.367188e-01
356.060700	1.583547	dec_social_accept_low	1.583547	32.000000	n/a	3	-1.367188e-01	-1.367188e-01
362.894100	1.216068	dec_social_choice	1.216068	32.000000	n/a	2	-1.679688e-01	-1.679688e-01
362.894100	1.216068	dec_choice	1.216068	32.000000	n/a	2	-1.679688e-01	-1.679688e-01
362.894100	1.216068	dec_social_accept	1.216068	32.000000	n/a	2	-1.679688e-01	-1.679688e-01
362.894100	1.216068	dec_accept	1.216068	32.000000	n/a	2	-1.679688e-01	-1.679688e-01
362.894100	1.216068	dec_social_low	1.216068	32.000000	n/a	2	-1.679688e-01	-1.679688e-01
362.894100	1.216068	dec_social_accept_low	1.216068	32.000000	n/a	2	-1.679688e-01	-1.679688e-01
370.543760	1.283907	dec_nonsocial_choice	1.283907	16.000000	n/a	2	-1.054688e-01	-1.054688e-01
370.543760	1.283907	dec_choice	1.283907	16.000000	n/a	2	-1.054688e-01	-1.054688e-01
370.543760	1.283907	dec_nonsocial_accept	1.283907	16.000000	n/a	2	-1.054688e-01	-1.054688e-01
370.543760	1.283907	dec_accept	1.283907	16.000000	n/a	2	-1.054688e-01	-1.054688e-01
370.543760	1.283907	dec_nonsocial_low	1.283907	16.000000	n/a	2	-1.054688e-01	-1.054688e-01
370.543760	1.283907	dec_nonsocial_accept_low	1.283907	16.000000	n/a	2	-1.054688e-01	-1.054688e-01
