TrialNumber,nTrial,Block,Endowment,ITI,ISI,L_Option,R_Option,ran,order,cue_Onset,endowment_onset,endowment_offset,ISI_onset,ISI_offset,decision_onset,resp,rt,resp_onset,decision_offset,trialDuration,ITIonset,ITIoffset
1,1,2,32,0.5575,1,0,8,1.0,0.0,4.511926,5.5010524,5.518122,5.518246,6.518728,6.518897,2.0,1.3157305,7.8346276,10.286886,3.7686663,10.287689,10.847763
2,2,3,16,0.5575,1,8,0,1.0,1.0,11.406087,12.334207,12.3514,12.351476,13.351649,13.351792,1.0,0.9664537,14.318246,17.118795,3.7675936,17.119493,17.67881
3,3,2,32,0.5575,1,3,0,1.0,2.0,18.178238,19.167751,19.185022,19.18523,20.185759,20.1859,2.0,1.098962,21.28486,23.953741,3.768401,23.954418,24.51306
4,4,2,16,0.5575,1,4,0,1.0,3.0,25.011488,26.000984,26.01845,26.018597,27.017923,27.018064,1.0,1.3665624,28.384626,30.785744,3.7682216,30.786406,31.346476
5,5,2,32,4.595,1,3,0,1.0,4.0,31.845238,32.834564,32.851677,32.851803,33.851776,33.85192,2.0,1.0330938,34.885014,37.618755,3.767407,37.61943,42.216415
6,6,3,32,2.98,1,0,8,1.0,5.0,42.819595,43.701214,43.718155,43.718254,44.717503,44.717644,2.0,1.3343598,46.052006,48.484795,3.7676883,48.485455,51.467316
7,7,2,32,0.5575,1,16,0,1.0,6.0,51.9613,52.951,52.9684,52.968548,53.968403,53.968548,1.0,1.9997853,55.968334,57.73576,3.7677686,57.736423,58.295723
8,8,2,32,0.5575,1,0,3,1.0,7.0,58.794884,59.78405,59.80122,59.801296,60.800694,60.80084,1.0,2.067253,62.86809,64.56773,3.7675061,64.56849,65.12869
9,9,3,32,2.98,1,2,0,1.0,8.0,65.686775,66.61739,66.63457,66.63466,67.6347,67.63484,2.0,1.2338794,68.86872,71.4017,3.7674,71.40235,74.384346
10,10,2,16,1.365,1,0,8,1.0,9.0,74.895035,75.88423,75.90161,75.90176,76.90238,76.90253,2.0,1.082394,77.984924,80.66969,3.7677336,80.67039,82.03729
11,11,3,32,0.5575,1,0,2,1.0,10.0,82.63689,83.53457,83.55111,83.5512,84.55106,84.5512,1.0,1.4338067,85.98501,88.317795,3.7671528,88.31847,88.87754
12,12,2,16,1.365,1,0,2,1.0,11.0,89.37782,90.36767,90.38483,90.384964,91.384766,91.3849,1.0,1.3664037,92.75131,95.15171,3.7673447,95.15236,96.51962
13,13,3,32,0.5575,1,0,16,1.0,12.0,97.08492,98.01769,98.034645,98.03479,99.03457,99.03471,2.0,1.2335541,100.268265,102.80167,3.767492,102.80231,103.36265
14,14,2,16,1.365,1,0,1,1.0,13.0,103.86153,104.85098,104.86813,104.86827,105.86864,105.86878,1.0,1.1996366,107.06841,109.63566,3.7675016,109.636406,111.00263
15,15,3,32,1.365,1,0,8,1.0,14.0,111.59806,112.50121,112.51722,112.51731,113.517525,113.51766,2.0,1.3335838,114.85125,117.284645,3.7675169,117.285286,118.65136
16,16,3,16,0.5575,1,0,1,1.0,15.0,119.218376,120.1506,120.16756,120.16763,121.16864,121.168785,1.0,1.2992,122.46798,124.934616,3.7663753,124.935265,125.49437
17,17,2,32,1.365,1,16,0,1.0,16.0,125.99477,126.984215,127.00134,127.00149,128.00098,128.00113,1.0,1.2006377,129.20177,131.76761,3.767053,131.7683,133.13461
18,18,2,16,1.365,1,1,0,1.0,17.0,133.64508,134.63396,134.65143,134.65157,135.65253,135.65268,2.0,1.415119,137.0678,139.4196,3.7674584,139.42026,140.78726
19,19,3,16,0.5575,1,0,8,1.0,18.0,141.34032,142.28459,142.30096,142.3011,143.30057,143.3007,2.0,1.0838702,144.38458,147.06857,3.768405,147.06923,147.62964
20,20,2,16,0.5575,1,2,0,1.0,19.0,148.12857,149.11713,149.13412,149.13422,150.13359,150.13374,2.0,0.8342284,150.96797,153.90045,3.7672465,153.9011,154.46065
21,21,2,32,0.5575,1,0,16,1.0,20.0,154.96086,155.95082,155.96776,155.96791,156.96812,156.96826,2.0,0.9996631,157.96793,160.73558,3.767862,160.73622,161.29556
22,22,3,32,2.98,1,0,3,1.0,21.0,161.8413,162.78409,162.80086,162.80093,163.80159,163.80173,2.0,1.949304,165.75104,167.56854,3.7673514,167.5692,170.55054
23,23,2,16,2.98,1,4,0,1.0,22.0,171.04475,172.03412,172.05144,172.05159,173.05156,173.0517,1.0,1.5830585,174.63475,176.81857,3.7674208,176.81921,179.80016
24,24,3,16,1.365,1,0,8,1.0,23.0,180.40695,181.28372,181.30107,181.30121,182.30052,182.30067,2.0,1.0003092,183.30098,186.06755,3.767421,186.06819,187.43448
25,25,3,32,0.5575,1,2,0,1.0,24.0,187.98285,188.93454,188.95139,188.95152,189.95154,189.95168,2.0,1.3329722,191.28464,193.71852,3.767423,193.71922,194.27951
26,26,3,32,0.5575,1,0,3,1.0,25.0,194.83241,195.7669,195.78415,195.78424,196.7835,196.78365,2.0,1.4841295,198.26778,200.54968,3.766602,200.55037,201.1105
27,27,3,32,0.5575,1,3,0,1.0,26.0,201.664,202.60071,202.61725,202.61732,203.61656,203.6167,1.0,1.7341923,205.35089,207.38348,3.7673368,207.38414,207.94495
28,28,3,16,0.5575,1,0,4,1.0,27.0,208.50487,209.43361,209.45071,209.45079,210.45052,210.45065,2.0,1.1506914,211.60135,214.21751,3.767409,214.21817,214.77751
29,29,3,16,2.98,1,4,0,1.0,28.0,215.35915,216.26753,216.2834,216.28354,217.28435,217.2845,1.0,1.582617,218.86711,221.05151,3.7675562,221.05217,224.03447
30,30,3,16,0.5575,1,0,1,1.0,29.0,224.59619,225.53448,225.55103,225.55116,226.5514,226.55154,1.0,1.2831787,227.83473,230.3182,3.7672105,230.31886,230.8785
31,31,2,16,0.5575,1,1,0,1.0,30.0,231.37755,232.36653,232.384,232.38408,233.38446,233.38461,2.0,0.9830499,234.36766,237.15147,3.7674103,237.15211,237.71246
32,32,3,16,0.5575,1,0,4,1.0,31.0,238.27753,239.20009,239.21718,239.21725,240.21701,240.21715,2.0,1.183965,241.40112,243.98544,3.7688475,243.98611,244.54494
33,33,2,32,0.5575,1,8,0,1.0,32.0,245.04517,246.03378,246.05106,246.0512,247.05144,247.05159,1.0,1.1155316,248.16711,250.81844,3.7674072,250.8191,251.3786
34,34,3,32,1.365,1,2,0,1.0,33.0,251.93576,252.86662,252.88385,252.88393,253.88358,253.88373,2.0,1.1340082,255.01773,257.65042,3.7672448,257.6511,259.01843
35,35,2,32,1.365,1,2,0,1.0,34.0,259.52734,260.51663,260.53387,260.53397,261.53445,261.53458,2.0,1.1333237,262.6679,265.3005,3.7664511,265.30115,266.667
36,36,2,16,1.365,1,0,4,1.0,35.0,267.1775,268.1667,268.18387,268.18396,269.18338,269.18353,2.0,1.2338516,270.4174,272.95132,3.76837,272.95203,274.3192
37,37,3,16,0.5575,1,2,0,1.0,36.0,274.8708,275.81754,275.83426,275.83444,276.83444,276.83456,1.0,1.4157736,278.25034,280.6024,3.7683792,280.60306,281.16342
38,38,2,32,1.365,1,3,0,1.0,37.0,281.6608,282.6501,282.66745,282.6676,283.66742,283.66757,2.0,1.6663076,285.33386,287.43442,3.7673883,287.43506,288.80115
39,39,3,32,0.5575,1,0,3,1.0,38.0,289.37973,290.3,290.3172,290.31735,291.3177,291.31784,2.0,1.8329232,293.15076,295.0864,3.7691317,295.0871,295.64746
40,40,3,16,2.98,1,0,8,1.0,39.0,296.2072,297.13327,297.15033,297.15045,298.15137,298.1515,2.0,0.9988459,299.15036,301.91837,3.767505,301.91913,304.90164
41,41,3,16,4.595,1,2,0,1.0,40.0,305.46994,306.39975,306.41736,306.4175,307.41812,307.41824,1.0,1.3655499,308.7838,311.1854,3.767701,311.18607,315.78333
42,42,3,16,2.98,1,4,0,1.0,41.0,316.36905,317.26697,317.2837,317.28384,318.28333,318.28348,1.0,1.6842335,319.9677,322.05035,3.7674327,322.05103,325.03348
43,43,2,32,0.5575,1,0,16,1.0,42.0,325.5441,326.53314,326.55035,326.55045,327.55032,327.55048,2.0,1.0502182,328.60068,331.3163,3.7664022,331.317,331.8763
44,44,3,32,1.365,1,0,16,1.0,43.0,332.44217,333.36676,333.3839,333.3841,334.384,334.38416,2.0,1.3329624,335.7171,338.15094,3.7673314,338.15158,339.51733
45,45,2,32,4.595,1,2,0,1.0,44.0,340.02716,341.01642,341.0335,341.0336,342.0343,342.03445,2.0,1.2654687,343.29993,345.8013,3.7674005,345.80197,350.39932
46,46,2,32,0.5575,1,8,0,1.0,45.0,350.89398,351.88303,351.90005,351.90012,352.89932,352.89948,1.0,1.284448,354.18393,356.6663,3.767351,356.66693,357.227
47,47,2,32,1.365,1,2,0,1.0,46.0,357.72748,358.71637,358.73352,358.73358,359.7339,359.73404,2.0,0.9660874,360.7001,363.50015,3.7666488,363.5008,364.8684
48,48,2,32,6.21,1,16,0,1.0,47.0,365.3771,366.3666,366.3837,366.38382,367.38342,367.38354,1.0,1.2337937,368.61734,371.1503,3.7672768,371.15094,377.36194
