TrialNumber,Trialn,TrialType,Partner,Feedback,ITI,ISI,ran,order,studyStart,InitFixOnset,decision_onset,resp,resp_onset,rt,ISI_onset,isi_for_trial,ISI_offset,outcome_val,outcome_onset,outcome_offset,trialDuration,ITIonset,ITIoffset,final_fix_offset
1,1,6,2,3,8.075000e-01,1.615000e+00,1.0,0.0,2.5000004e-06,0.0040373,4.0272226,1.0,6.0050774,1.9778551,6.105525,2.3371449,8.445048,4.0,8.445187,9.055163,5.0279408,9.055363,9.866109,--
2,2,1,1,1,2.422500e+00,2.422500e+00,1.0,1.0,--,--,9.871975,1.0,11.120881,1.2489063,11.221261,3.8735938,15.097408,7.0,15.097514,15.704999,5.833025,15.70517,18.129139,--
3,3,8,3,2,8.075000e-01,8.075000e-01,1.0,2.0,--,--,18.390724,2.0,19.337477,0.9467519,19.43785,2.560748,22.000837,5.0,22.000942,22.608013,4.217289,22.608166,23.417463,--
4,4,4,2,1,4.037500e+00,1.615000e+00,1.0,3.0,--,--,23.429567,2.0,24.47096,1.0413924,24.571335,3.2736075,27.846899,3.0,27.847004,28.453016,5.0234485,28.453165,32.493073,--
5,5,2,1,2,2.422500e+00,8.075000e-01,1.0,4.0,--,--,32.49681,1.0,33.73728,1.2404679,33.837646,2.2670321,36.10769,5.0,36.10779,36.71312,4.216308,36.713264,39.13791,--
6,6,7,3,1,2.422500e+00,8.075000e-01,1.0,5.0,--,--,39.38775,1.0,40.120834,0.7330862,40.221214,2.7744138,42.997936,7.0,42.99804,43.602627,4.214878,43.602795,46.027073,--
7,7,9,3,3,8.075000e-01,2.422500e+00,1.0,6.0,--,--,46.27198,2.0,47.104618,0.8326351,47.204998,4.289865,51.497047,6.0,51.497154,52.104538,5.8325567,52.10469,52.914856,--
8,8,6,2,3,8.075000e-01,1.615000e+00,1.0,7.0,--,--,52.926975,2.0,53.756123,0.8291472,53.85649,3.4858527,57.34398,8.0,57.344086,57.949993,5.0230193,57.95014,58.760033,--
9,9,6,2,3,4.037500e+00,1.615000e+00,1.0,8.0,--,--,58.77064,2.0,59.304417,0.5337742,59.404816,3.7812257,63.1886,8.0,63.188713,63.793045,5.022403,63.793194,67.83287,--
10,10,1,1,1,5.652500e+00,1.615000e+00,1.0,9.0,--,--,67.83669,1.0,69.387276,1.5505819,69.48765,2.7644181,72.25382,7.0,72.25393,72.85904,5.022349,72.85919,78.51398,--
11,11,4,2,1,2.422500e+00,8.075000e-01,1.0,10.0,--,--,78.52643,2.0,79.25409,0.7276586,79.35446,2.7798414,82.13672,3.0,82.136826,82.74096,4.2145314,82.74111,85.16625,--
12,12,3,1,3,8.075000e-01,1.615000e+00,1.0,11.0,--,--,85.169235,1.0,86.003975,0.8347397,86.10434,3.4802604,89.586876,2.0,89.58698,90.193634,5.0243955,90.193794,91.00302,--
13,13,4,2,1,8.075000e-01,8.075000e-01,1.0,12.0,--,--,91.01614,1.0,91.53713,0.5209873,91.63749,2.9865127,94.62595,8.0,94.62606,95.23113,4.2149854,95.231285,96.04057,--
14,14,3,1,3,8.075000e-01,8.075000e-01,1.0,13.0,--,--,96.04364,2.0,96.67099,0.6273519,96.77137,2.8801482,99.653725,9.0,99.65383,100.26051,4.216874,100.26067,101.0699,--
15,15,3,1,3,7.267500e+00,2.422500e+00,1.0,14.0,--,--,101.071815,2.0,102.00402,0.9322008,102.104385,4.190299,106.296585,7.0,106.2967,106.900696,5.8288784,106.90084,114.17097,--
16,16,9,3,3,5.652500e+00,2.422500e+00,1.0,15.0,--,--,114.42045,2.0,115.570755,1.1503009,115.67113,3.9721992,119.645935,9.0,119.64604,120.25008,5.829628,120.25023,125.90497,--
17,17,7,3,1,2.422500e+00,1.615000e+00,1.0,16.0,--,--,126.14914,1.0,127.08729,0.9381476,127.18766,3.3768525,130.56604,8.0,130.56615,131.17104,5.021896,131.1712,133.59595,--
18,18,7,3,1,8.075000e-01,1.615000e+00,1.0,17.0,--,--,133.84091,1.0,134.7873,0.9463867,134.88768,3.3686132,138.25803,7.0,138.25813,138.86206,5.021148,138.86223,139.67203,--
19,19,5,2,2,2.422500e+00,2.422500e+00,1.0,18.0,--,--,139.68376,2.0,140.20384,0.5200859,140.30428,4.602414,144.90897,5.0,144.90907,145.51506,5.8313,145.51521,147.9402,--
20,20,1,1,1,8.075000e-01,8.075000e-01,1.0,19.0,--,--,147.94386,1.0,149.28778,1.3439215,149.38814,2.1635785,151.55461,9.0,151.55472,152.1601,4.216225,152.16025,152.96964,--
21,21,6,2,3,8.075000e-01,2.422500e+00,1.0,20.0,--,--,152.9822,2.0,153.40373,0.4215413,153.50409,4.7009587,158.20615,9.0,158.20625,158.81113,5.828934,158.81126,159.62102,--
22,22,4,2,1,4.037500e+00,2.422500e+00,1.0,21.0,--,--,159.63231,2.0,160.3706,0.7382973,160.471,4.3842025,164.85733,2.0,164.85744,165.46324,5.830922,165.4634,169.50345,--
23,23,6,2,3,8.075000e-01,2.422500e+00,1.0,22.0,--,--,169.51414,1.0,170.25383,0.739685,170.35419,4.382815,174.73889,4.0,174.739,175.34412,5.829969,175.34425,176.15456,--
24,24,1,1,1,2.422500e+00,8.075000e-01,1.0,23.0,--,--,176.15756,1.0,176.68735,0.5297921,176.78773,2.9777079,179.76712,8.0,179.76723,180.37212,4.21455,180.37225,182.79689,--
25,25,7,3,1,2.422500e+00,2.422500e+00,1.0,24.0,--,--,183.04562,2.0,183.67038,0.6247559,183.77075,4.497744,188.27074,4.0,188.27084,188.87517,5.829546,188.87532,191.30002,--
26,26,3,1,3,8.075000e-01,1.615000e+00,1.0,25.0,--,--,191.30354,1.0,193.98735,2.683817,194.08774,1.631183,195.72093,2.0,195.72104,196.3258,5.022273,196.32596,197.13603,--
27,27,4,2,1,7.267500e+00,2.422500e+00,1.0,26.0,--,--,197.14772,1.0,197.67044,0.5227304,197.77081,4.5997696,202.37209,7.0,202.3722,202.97739,5.8296742,202.97754,210.24701,--
28,28,7,3,1,8.075000e-01,1.615000e+00,1.0,27.0,--,--,210.49478,1.0,211.43724,0.9424546,211.53761,3.3725455,214.91243,7.0,214.91254,215.51605,5.021272,215.5162,216.32658,--
29,29,1,1,1,4.037500e+00,1.615000e+00,1.0,28.0,--,--,216.33018,2.0,216.9536,0.6234086,217.05397,3.6915915,220.74716,1.0,220.74727,221.35307,5.0228925,221.35323,225.3931,--
30,30,3,1,3,4.037500e+00,1.615000e+00,1.0,29.0,--,--,225.39494,1.0,226.02048,0.6255358,226.12086,3.689464,229.81293,3.0,229.81303,230.41907,5.0241323,230.41924,234.459,--
31,31,1,1,1,8.882500e+00,2.422500e+00,1.0,30.0,--,--,234.46103,1.0,235.18701,0.7259822,235.28738,4.3965178,239.68587,7.0,239.68599,240.2922,5.8311687,240.29234,249.177,--
32,32,2,1,2,8.075000e-01,1.615000e+00,1.0,31.0,--,--,249.179,2.0,250.32025,1.1412508,250.42062,3.1737492,253.59702,5.0,253.5971,254.20204,5.023045,254.2022,255.012,--
33,33,7,3,1,8.075000e-01,8.075000e-01,1.0,32.0,--,--,255.26216,1.0,257.1202,1.8580287,257.22055,1.6494713,258.87177,8.0,258.87186,259.47705,4.214876,259.4772,260.28696,--
34,34,6,2,3,2.422500e+00,8.075000e-01,1.0,33.0,--,--,260.29953,2.0,260.62054,0.3210024,260.72092,3.1864977,263.90942,6.0,263.90952,264.5141,4.214565,264.51428,266.9388,--
35,35,3,1,3,2.422500e+00,2.422500e+00,1.0,34.0,--,--,266.9424,2.0,268.08722,1.1448013,268.1876,3.9776988,272.1671,7.0,272.1672,272.77167,5.8292623,272.77182,275.196,--
36,36,1,1,1,8.075000e-01,8.075000e-01,1.0,35.0,--,--,275.1979,2.0,276.13705,0.9391486,276.23743,2.5683515,278.8084,4.0,278.8085,279.41318,4.215288,279.41333,280.22305,--
37,37,6,2,3,2.422500e+00,1.615000e+00,1.0,36.0,--,--,280.2348,2.0,281.17023,0.9354366,281.2706,3.3795633,284.652,9.0,284.6521,285.25742,5.02263,285.25757,287.6822,--
38,38,9,3,3,8.075000e-01,8.075000e-01,1.0,37.0,--,--,287.93372,2.0,288.87036,0.9366484,288.97073,2.5708516,291.5434,9.0,291.54352,292.1483,4.214573,292.14844,292.95764,--
39,39,5,2,2,8.075000e-01,8.075000e-01,1.0,38.0,--,--,292.97006,2.0,294.0053,1.0352247,294.10565,2.4722753,296.58014,5.0,296.58023,297.18494,4.2148495,297.18506,297.99503,--
40,40,4,2,1,8.075000e-01,2.422500e+00,1.0,39.0,--,--,298.00534,2.0,298.53714,0.5317776,298.6375,4.5907226,303.23062,1.0,303.2307,303.8361,5.830728,303.83624,304.6456,--
41,41,9,3,3,8.075000e-01,8.075000e-01,1.0,40.0,--,--,304.88998,1.0,305.5204,0.6303833,305.62076,2.8771167,308.50006,1.0,308.50015,309.10513,4.2151423,309.1053,309.9145,--
42,42,7,3,1,8.075000e-01,1.615000e+00,1.0,41.0,--,--,310.16183,1.0,310.78696,0.6251222,310.8873,3.6898777,314.579,9.0,314.5791,315.18356,5.0217314,315.18372,315.99396,--
43,43,9,3,3,8.075000e-01,2.422500e+00,1.0,42.0,--,--,316.23907,2.0,318.00397,1.7649058,318.10434,3.3575943,321.4643,6.0,321.46442,322.06912,5.8300676,322.06927,322.87866,--
44,44,9,3,3,8.075000e-01,2.422500e+00,1.0,43.0,--,--,323.12555,2.0,324.8873,1.761745,324.98764,3.360755,328.3499,7.0,328.35004,328.95416,5.8286185,328.95435,329.7638,--
45,45,4,2,1,5.652500e+00,8.075000e-01,1.0,44.0,--,--,329.7763,2.0,330.4033,0.6269986,330.50366,2.8805015,333.38574,1.0,333.38586,333.9922,4.2158995,333.99234,339.64676,--
46,46,3,1,3,4.037500e+00,2.422500e+00,1.0,45.0,--,--,339.65048,1.0,340.38687,0.736387,340.4872,4.386113,344.8767,1.0,344.87683,345.48227,5.831776,345.4824,349.52203,--
47,47,6,2,3,8.075000e-01,1.615000e+00,1.0,46.0,--,--,349.53488,1.0,350.2701,0.7352307,350.37048,3.5797694,353.95245,3.0,353.95255,354.55716,5.0222826,354.5573,355.36707,--
48,48,4,2,1,2.422500e+00,8.075000e-01,1.0,47.0,--,--,355.379,1.0,356.6199,1.240884,356.72025,2.266616,358.98813,9.0,358.98825,359.59338,4.2143736,359.59354,362.01807,--
49,49,7,3,1,2.422500e+00,2.422500e+00,1.0,48.0,--,--,362.26587,2.0,363.00366,0.737794,363.10406,4.384706,367.49072,2.0,367.49084,368.09518,5.829308,368.09534,370.52008,--
50,50,8,3,2,4.037500e+00,8.075000e-01,1.0,49.0,--,--,370.76608,1.0,371.92026,1.154198,372.02063,2.353302,374.37604,5.0,374.37616,374.9813,4.2152243,374.98148,379.0211,--
51,51,1,1,1,8.075000e-01,2.422500e+00,1.0,50.0,--,--,379.02475,1.0,379.5533,0.5285779,379.6537,4.593922,384.24997,6.0,384.25006,384.85477,5.830014,384.85492,385.66516,--
52,52,9,3,3,8.075000e-01,8.075000e-01,1.0,51.0,--,--,385.91324,1.0,387.05347,1.1402162,387.15384,2.3672838,389.5232,2.0,389.5233,390.12814,4.2148914,390.1283,390.93842,--
53,53,3,1,3,8.075000e-01,1.615000e+00,1.0,52.0,--,--,390.94147,1.0,392.1867,1.245236,392.28708,3.069764,395.35837,2.0,395.3585,395.9633,5.021829,395.96344,396.77264,--
54,54,9,3,3,5.652500e+00,1.615000e+00,1.0,53.0,--,--,397.0222,1.0,397.9548,0.9326221,398.05518,3.3823779,401.4401,4.0,401.44022,402.04422,5.0220265,402.04434,407.69885,412.0007
