onset	duration	trial_type	response_time	Endowment	Endowment_pmod	Decision	Decision_pmod	Offer_pmod
4.529470	2	cue_nonsocial	n/a	16	-6	n/a	n/a	n/a
4.529470	2	cue_nonsocial_low	n/a	16	-9	n/a	n/a	n/a
15.457219	2	cue_social	n/a	32	7	n/a	n/a	n/a
15.457219	2	cue_social_high	n/a	32	10	n/a	n/a	n/a
22.275806	2	cue_social	n/a	16	-9	n/a	n/a	n/a
22.275806	2	cue_social_low	n/a	16	-6	n/a	n/a	n/a
29.925062	2	cue_social	n/a	16	-9	n/a	n/a	n/a
29.925062	2	cue_social_low	n/a	16	-6	n/a	n/a	n/a
39.178520	2	cue_nonsocial	n/a	16	-6	n/a	n/a	n/a
39.178520	2	cue_nonsocial_low	n/a	16	-9	n/a	n/a	n/a
46.026200	2	cue_social	n/a	32	7	n/a	n/a	n/a
46.026200	2	cue_social_high	n/a	32	10	n/a	n/a	n/a
53.022118	2	cue_social	n/a	16	-9	n/a	n/a	n/a
53.022118	2	cue_social_low	n/a	16	-6	n/a	n/a	n/a
60.563488	2	cue_social	n/a	32	7	n/a	n/a	n/a
60.563488	2	cue_social_high	n/a	32	10	n/a	n/a	n/a
67.378685	2	cue_nonsocial	n/a	16	-6	n/a	n/a	n/a
67.378685	2	cue_nonsocial_low	n/a	16	-9	n/a	n/a	n/a
74.229190	2	cue_nonsocial	n/a	16	-6	n/a	n/a	n/a
74.229190	2	cue_nonsocial_low	n/a	16	-9	n/a	n/a	n/a
81.078300	2	cue_nonsocial	n/a	16	-6	n/a	n/a	n/a
81.078300	2	cue_nonsocial_low	n/a	16	-9	n/a	n/a	n/a
90.358810	2	cue_social	n/a	16	-9	n/a	n/a	n/a
90.358810	2	cue_social_low	n/a	16	-6	n/a	n/a	n/a
99.612150	2	cue_nonsocial	n/a	32	10	n/a	n/a	n/a
99.612150	2	cue_nonsocial_high	n/a	32	7	n/a	n/a	n/a
106.462326	2	cue_nonsocial	n/a	16	-6	n/a	n/a	n/a
106.462326	2	cue_nonsocial_low	n/a	16	-9	n/a	n/a	n/a
113.325370	2	cue_social	n/a	16	-9	n/a	n/a	n/a
113.325370	2	cue_social_low	n/a	16	-6	n/a	n/a	n/a
120.171530	2	cue_social	n/a	32	7	n/a	n/a	n/a
120.171530	2	cue_social_high	n/a	32	10	n/a	n/a	n/a
127.879585	2	cue_social	n/a	16	-9	n/a	n/a	n/a
127.879585	2	cue_social_low	n/a	16	-6	n/a	n/a	n/a
137.092600	2	cue_social	n/a	32	7	n/a	n/a	n/a
137.092600	2	cue_social_high	n/a	32	10	n/a	n/a	n/a
144.742220	2	cue_social	n/a	32	7	n/a	n/a	n/a
144.742220	2	cue_social_high	n/a	32	10	n/a	n/a	n/a
151.694240	2	cue_social	n/a	32	7	n/a	n/a	n/a
151.694240	2	cue_social_high	n/a	32	10	n/a	n/a	n/a
158.424290	2	cue_social	n/a	16	-9	n/a	n/a	n/a
158.424290	2	cue_social_low	n/a	16	-6	n/a	n/a	n/a
169.312040	2	cue_nonsocial	n/a	16	-6	n/a	n/a	n/a
169.312040	2	cue_nonsocial_low	n/a	16	-9	n/a	n/a	n/a
178.607150	2	cue_social	n/a	32	7	n/a	n/a	n/a
178.607150	2	cue_social_high	n/a	32	10	n/a	n/a	n/a
186.229110	2	cue_nonsocial	n/a	16	-6	n/a	n/a	n/a
186.229110	2	cue_nonsocial_low	n/a	16	-9	n/a	n/a	n/a
193.877940	2	cue_nonsocial	n/a	32	10	n/a	n/a	n/a
193.877940	2	cue_nonsocial_high	n/a	32	7	n/a	n/a	n/a
200.728620	2	cue_nonsocial	n/a	16	-6	n/a	n/a	n/a
200.728620	2	cue_nonsocial_low	n/a	16	-9	n/a	n/a	n/a
207.578120	2	cue_nonsocial	n/a	32	10	n/a	n/a	n/a
207.578120	2	cue_nonsocial_high	n/a	32	7	n/a	n/a	n/a
215.331450	2	cue_social	n/a	32	7	n/a	n/a	n/a
215.331450	2	cue_social_high	n/a	32	10	n/a	n/a	n/a
222.872480	2	cue_social	n/a	16	-9	n/a	n/a	n/a
222.872480	2	cue_social_low	n/a	16	-6	n/a	n/a	n/a
230.527900	2	cue_nonsocial	n/a	16	-6	n/a	n/a	n/a
230.527900	2	cue_nonsocial_low	n/a	16	-9	n/a	n/a	n/a
243.027920	2	cue_nonsocial	n/a	16	-6	n/a	n/a	n/a
243.027920	2	cue_nonsocial_low	n/a	16	-9	n/a	n/a	n/a
249.870060	2	cue_social	n/a	16	-9	n/a	n/a	n/a
249.870060	2	cue_social_low	n/a	16	-6	n/a	n/a	n/a
256.820950	2	cue_social	n/a	32	7	n/a	n/a	n/a
256.820950	2	cue_social_high	n/a	32	10	n/a	n/a	n/a
265.994630	2	cue_nonsocial	n/a	32	10	n/a	n/a	n/a
265.994630	2	cue_nonsocial_high	n/a	32	7	n/a	n/a	n/a
273.640750	2	cue_social	n/a	32	7	n/a	n/a	n/a
273.640750	2	cue_social_high	n/a	32	10	n/a	n/a	n/a
282.911160	2	cue_nonsocial	n/a	16	-6	n/a	n/a	n/a
282.911160	2	cue_nonsocial_low	n/a	16	-9	n/a	n/a	n/a
289.751620	2	cue_social	n/a	32	7	n/a	n/a	n/a
289.751620	2	cue_social_high	n/a	32	10	n/a	n/a	n/a
296.611050	2	cue_nonsocial	n/a	16	-6	n/a	n/a	n/a
296.611050	2	cue_nonsocial_low	n/a	16	-9	n/a	n/a	n/a
303.472320	2	cue_social	n/a	16	-9	n/a	n/a	n/a
303.472320	2	cue_social_low	n/a	16	-6	n/a	n/a	n/a
311.111100	2	cue_nonsocial	n/a	16	-6	n/a	n/a	n/a
311.111100	2	cue_nonsocial_low	n/a	16	-9	n/a	n/a	n/a
318.761170	2	cue_nonsocial	n/a	32	10	n/a	n/a	n/a
318.761170	2	cue_nonsocial_high	n/a	32	7	n/a	n/a	n/a
325.611570	2	cue_nonsocial	n/a	32	10	n/a	n/a	n/a
325.611570	2	cue_nonsocial_high	n/a	32	7	n/a	n/a	n/a
332.461030	2	cue_nonsocial	n/a	32	10	n/a	n/a	n/a
332.461030	2	cue_nonsocial_high	n/a	32	7	n/a	n/a	n/a
339.310970	2	cue_nonsocial	n/a	32	10	n/a	n/a	n/a
339.310970	2	cue_nonsocial_high	n/a	32	7	n/a	n/a	n/a
346.149380	2	cue_social	n/a	32	7	n/a	n/a	n/a
346.149380	2	cue_social_high	n/a	32	10	n/a	n/a	n/a
353.010770	2	cue_nonsocial	n/a	16	-6	n/a	n/a	n/a
353.010770	2	cue_nonsocial_low	n/a	16	-9	n/a	n/a	n/a
360.661530	2	cue_nonsocial	n/a	32	10	n/a	n/a	n/a
360.661530	2	cue_nonsocial_high	n/a	32	7	n/a	n/a	n/a
371.538100	2	cue_social	n/a	16	-9	n/a	n/a	n/a
371.538100	2	cue_social_low	n/a	16	-6	n/a	n/a	n/a
6.535152	2.449087	dec_nonsocial_choice	2.449087	16.000000	n/a	1	-1.692708e-01	-1.692708e-01
6.535152	2.449087	dec_choice	2.449087	16.000000	n/a	1	-1.705729e-01	-1.705729e-01
6.535152	2.449087	dec_nonsocial_accept	2.449087	16.000000	n/a	1	-1.692708e-01	-1.692708e-01
6.535152	2.449087	dec_accept	2.449087	16.000000	n/a	1	-1.705729e-01	-1.705729e-01
6.535152	2.449087	dec_nonsocial_accept_low	2.449087	16.000000	n/a	1	-1.679688e-01	-1.679688e-01
17.417917	2.366287	dec_social_choice	2.366287	32.000000	n/a	3	-1.380208e-01	-1.380208e-01
17.417917	2.366287	dec_choice	2.366287	32.000000	n/a	3	-1.367188e-01	-1.367188e-01
17.417917	2.366287	dec_social_accept	2.366287	32.000000	n/a	3	-1.380208e-01	-1.380208e-01
17.417917	2.366287	dec_accept	2.366287	32.000000	n/a	3	-1.367188e-01	-1.367188e-01
17.417917	2.366287	dec_social_low	2.366287	32.000000	n/a	3	-1.367188e-01	-1.367188e-01
17.417917	2.366287	dec_social_accept_low	2.366287	32.000000	n/a	3	-1.367188e-01	-1.367188e-01
24.267040	1.000605	dec_social_choice	1.000605	16.000000	n/a	2	-1.067708e-01	-1.067708e-01
24.267040	1.000605	dec_choice	1.000605	16.000000	n/a	2	-1.054688e-01	-1.054688e-01
24.267040	1.000605	dec_social_accept	1.000605	16.000000	n/a	2	-1.067708e-01	-1.067708e-01
24.267040	1.000605	dec_accept	1.000605	16.000000	n/a	2	-1.054688e-01	-1.054688e-01
24.267040	1.000605	dec_social_accept_low	1.000605	16.000000	n/a	2	-1.054688e-01	-1.054688e-01
31.917908	1.182824	dec_social_choice	1.182824	16.000000	n/a	8	2.682292e-01	2.682292e-01
31.917908	1.182824	dec_choice	1.182824	16.000000	n/a	8	2.695312e-01	2.695312e-01
31.917908	1.182824	dec_social_accept	1.182824	16.000000	n/a	8	2.682292e-01	2.682292e-01
31.917908	1.182824	dec_accept	1.182824	16.000000	n/a	8	2.695312e-01	2.695312e-01
31.917908	1.182824	dec_social_accept_high	1.182824	16.000000	n/a	8	2.695312e-01	2.695312e-01
41.184307	1.466459	dec_nonsocial_choice	1.466459	16.000000	n/a	8	2.682292e-01	2.682292e-01
41.184307	1.466459	dec_choice	1.466459	16.000000	n/a	8	2.669271e-01	2.669271e-01
41.184307	1.466459	dec_nonsocial_accept	1.466459	16.000000	n/a	8	2.682292e-01	2.682292e-01
41.184307	1.466459	dec_accept	1.466459	16.000000	n/a	8	2.669271e-01	2.669271e-01
41.184307	1.466459	dec_nonsocial_high	1.466459	16.000000	n/a	8	2.669271e-01	2.669271e-01
41.184307	1.466459	dec_nonsocial_accept_high	1.466459	16.000000	n/a	8	2.669271e-01	2.669271e-01
48.034290	1.549768	dec_social_choice	1.549768	32.000000	n/a	8	1.822917e-02	1.822917e-02
48.034290	1.549768	dec_choice	1.549768	32.000000	n/a	8	1.953125e-02	1.953125e-02
48.034290	1.549768	dec_social_accept	1.549768	32.000000	n/a	8	1.822917e-02	1.822917e-02
48.034290	1.549768	dec_accept	1.549768	32.000000	n/a	8	1.953125e-02	1.953125e-02
48.034290	1.549768	dec_social_accept_high	1.549768	32.000000	n/a	8	1.953125e-02	1.953125e-02
54.883762	1.383753	dec_social_choice	1.383753	16.000000	n/a	1	-1.692708e-01	-1.692708e-01
54.883762	1.383753	dec_choice	1.383753	16.000000	n/a	1	-1.679688e-01	-1.679688e-01
54.883762	1.383753	dec_social_accept	1.383753	16.000000	n/a	1	-1.692708e-01	-1.692708e-01
54.883762	1.383753	dec_accept	1.383753	16.000000	n/a	1	-1.679688e-01	-1.679688e-01
54.883762	1.383753	dec_social_accept_low	1.383753	16.000000	n/a	1	-1.679688e-01	-1.679688e-01
62.533768	0.917016	dec_social_choice	0.917016	32.000000	n/a	2	-1.692708e-01	-1.692708e-01
62.533768	0.917016	dec_choice	0.917016	32.000000	n/a	2	-1.679688e-01	-1.679688e-01
62.533768	0.917016	dec_social_accept	0.917016	32.000000	n/a	2	-1.692708e-01	-1.692708e-01
62.533768	0.917016	dec_accept	0.917016	32.000000	n/a	2	-1.679688e-01	-1.679688e-01
62.533768	0.917016	dec_social_accept_low	0.917016	32.000000	n/a	2	-1.679688e-01	-1.679688e-01
69.383835	1.550305	dec_nonsocial_choice	1.550305	16.000000	n/a	2	-1.067708e-01	-1.067708e-01
69.383835	1.550305	dec_choice	1.550305	16.000000	n/a	2	-1.080729e-01	-1.080729e-01
69.383835	1.550305	dec_nonsocial_accept	1.550305	16.000000	n/a	2	-1.067708e-01	-1.067708e-01
69.383835	1.550305	dec_accept	1.550305	16.000000	n/a	2	-1.080729e-01	-1.080729e-01
69.383835	1.550305	dec_nonsocial_accept_low	1.550305	16.000000	n/a	2	-1.054688e-01	-1.054688e-01
76.234090	1.900035	dec_nonsocial_choice	1.900035	16.000000	n/a	2	-1.067708e-01	-1.067708e-01
76.234090	1.900035	dec_choice	1.900035	16.000000	n/a	2	-1.080729e-01	-1.080729e-01
76.234090	1.900035	dec_nonsocial_accept	1.900035	16.000000	n/a	2	-1.067708e-01	-1.067708e-01
76.234090	1.900035	dec_accept	1.900035	16.000000	n/a	2	-1.080729e-01	-1.080729e-01
76.234090	1.900035	dec_nonsocial_accept_low	1.900035	16.000000	n/a	2	-1.054688e-01	-1.054688e-01
83.084145	1.866350	dec_nonsocial_choice	1.866350	16.000000	n/a	4	1.822917e-02	1.822917e-02
83.084145	1.866350	dec_choice	1.866350	16.000000	n/a	4	1.692708e-02	1.692708e-02
83.084145	1.866350	dec_nonsocial_accept	1.866350	16.000000	n/a	4	1.822917e-02	1.822917e-02
83.084145	1.866350	dec_accept	1.866350	16.000000	n/a	4	1.692708e-02	1.692708e-02
83.084145	1.866350	dec_nonsocial_high	1.866350	16.000000	n/a	4	1.692708e-02	1.692708e-02
83.084145	1.866350	dec_nonsocial_accept_high	1.866350	16.000000	n/a	4	1.692708e-02	1.692708e-02
92.350730	1.683304	dec_social_choice	1.683304	16.000000	n/a	4	1.822917e-02	1.822917e-02
92.350730	1.683304	dec_choice	1.683304	16.000000	n/a	4	1.953125e-02	1.953125e-02
92.350730	1.683304	dec_social_accept	1.683304	16.000000	n/a	4	1.822917e-02	1.822917e-02
92.350730	1.683304	dec_accept	1.683304	16.000000	n/a	4	1.953125e-02	1.953125e-02
92.350730	1.683304	dec_social_high	1.683304	16.000000	n/a	4	1.953125e-02	1.953125e-02
92.350730	1.683304	dec_social_accept_high	1.683304	16.000000	n/a	4	1.953125e-02	1.953125e-02
101.617820	1.166197	dec_nonsocial_choice	1.166197	32.000000	n/a	2	-1.692708e-01	-1.692708e-01
101.617820	1.166197	dec_choice	1.166197	32.000000	n/a	2	-1.705729e-01	-1.705729e-01
101.617820	1.166197	dec_nonsocial_accept	1.166197	32.000000	n/a	2	-1.692708e-01	-1.692708e-01
101.617820	1.166197	dec_accept	1.166197	32.000000	n/a	2	-1.705729e-01	-1.705729e-01
101.617820	1.166197	dec_nonsocial_low	1.166197	32.000000	n/a	2	-1.705729e-01	-1.705729e-01
101.617820	1.166197	dec_nonsocial_accept_low	1.166197	32.000000	n/a	2	-1.705729e-01	-1.705729e-01
108.467360	1.649988	dec_nonsocial_choice	1.649988	16.000000	n/a	8	2.682292e-01	2.682292e-01
108.467360	1.649988	dec_choice	1.649988	16.000000	n/a	8	2.669271e-01	2.669271e-01
108.467360	1.649988	dec_nonsocial_accept	1.649988	16.000000	n/a	8	2.682292e-01	2.682292e-01
108.467360	1.649988	dec_accept	1.649988	16.000000	n/a	8	2.669271e-01	2.669271e-01
108.467360	1.649988	dec_nonsocial_high	1.649988	16.000000	n/a	8	2.669271e-01	2.669271e-01
108.467360	1.649988	dec_nonsocial_accept_high	1.649988	16.000000	n/a	8	2.669271e-01	2.669271e-01
115.317360	1.750034	dec_social_choice	1.750034	16.000000	n/a	8	2.682292e-01	2.682292e-01
115.317360	1.750034	dec_choice	1.750034	16.000000	n/a	8	2.695312e-01	2.695312e-01
115.317360	1.750034	dec_social_accept	1.750034	16.000000	n/a	8	2.682292e-01	2.682292e-01
115.317360	1.750034	dec_accept	1.750034	16.000000	n/a	8	2.695312e-01	2.695312e-01
115.317360	1.750034	dec_social_accept_high	1.750034	16.000000	n/a	8	2.695312e-01	2.695312e-01
122.166720	1.400676	dec_social_choice	1.400676	32.000000	n/a	8	1.822917e-02	1.822917e-02
122.166720	1.400676	dec_choice	1.400676	32.000000	n/a	8	1.953125e-02	1.953125e-02
122.166720	1.400676	dec_social_accept	1.400676	32.000000	n/a	8	1.822917e-02	1.822917e-02
122.166720	1.400676	dec_accept	1.400676	32.000000	n/a	8	1.953125e-02	1.953125e-02
122.166720	1.400676	dec_social_accept_high	1.400676	32.000000	n/a	8	1.953125e-02	1.953125e-02
129.816880	1.083775	dec_social_choice	1.083775	16.000000	n/a	2	-1.067708e-01	-1.067708e-01
129.816880	1.083775	dec_choice	1.083775	16.000000	n/a	2	-1.054688e-01	-1.054688e-01
129.816880	1.083775	dec_social_accept	1.083775	16.000000	n/a	2	-1.067708e-01	-1.067708e-01
129.816880	1.083775	dec_accept	1.083775	16.000000	n/a	2	-1.054688e-01	-1.054688e-01
129.816880	1.083775	dec_social_low	1.083775	16.000000	n/a	2	-1.054688e-01	-1.054688e-01
129.816880	1.083775	dec_social_accept_low	1.083775	16.000000	n/a	2	-1.054688e-01	-1.054688e-01
139.084120	2.232960	dec_social_choice	2.232960	32.000000	n/a	8	1.822917e-02	1.822917e-02
139.084120	2.232960	dec_choice	2.232960	32.000000	n/a	8	1.953125e-02	1.953125e-02
139.084120	2.232960	dec_social_accept	2.232960	32.000000	n/a	8	1.822917e-02	1.822917e-02
139.084120	2.232960	dec_accept	2.232960	32.000000	n/a	8	1.953125e-02	1.953125e-02
139.084120	2.232960	dec_social_accept_high	2.232960	32.000000	n/a	8	1.953125e-02	1.953125e-02
146.733350	1.167306	dec_social_choice	1.167306	32.000000	n/a	16	2.682292e-01	2.682292e-01
146.733350	1.167306	dec_choice	1.167306	32.000000	n/a	16	2.695312e-01	2.695312e-01
146.733350	1.167306	dec_social_accept	1.167306	32.000000	n/a	16	2.682292e-01	2.682292e-01
146.733350	1.167306	dec_accept	1.167306	32.000000	n/a	16	2.695312e-01	2.695312e-01
146.733350	1.167306	dec_social_accept_high	1.167306	32.000000	n/a	16	2.695312e-01	2.695312e-01
153.583790	0.950286	dec_social_choice	0.950286	32.000000	n/a	16	2.682292e-01	2.682292e-01
153.583790	0.950286	dec_choice	0.950286	32.000000	n/a	16	2.695312e-01	2.695312e-01
153.583790	0.950286	dec_social_accept	0.950286	32.000000	n/a	16	2.682292e-01	2.682292e-01
153.583790	0.950286	dec_accept	0.950286	32.000000	n/a	16	2.695312e-01	2.695312e-01
153.583790	0.950286	dec_social_accept_high	0.950286	32.000000	n/a	16	2.695312e-01	2.695312e-01
160.433750	1.583450	dec_social_choice	1.583450	16.000000	n/a	2	-1.067708e-01	-1.067708e-01
160.433750	1.583450	dec_choice	1.583450	16.000000	n/a	2	-1.054688e-01	-1.054688e-01
160.433750	1.583450	dec_social_accept	1.583450	16.000000	n/a	2	-1.067708e-01	-1.067708e-01
160.433750	1.583450	dec_accept	1.583450	16.000000	n/a	2	-1.054688e-01	-1.054688e-01
160.433750	1.583450	dec_social_low	1.583450	16.000000	n/a	2	-1.054688e-01	-1.054688e-01
160.433750	1.583450	dec_social_accept_low	1.583450	16.000000	n/a	2	-1.054688e-01	-1.054688e-01
171.317290	1.433229	dec_nonsocial_choice	1.433229	16.000000	n/a	8	2.682292e-01	2.682292e-01
171.317290	1.433229	dec_choice	1.433229	16.000000	n/a	8	2.669271e-01	2.669271e-01
171.317290	1.433229	dec_nonsocial_accept	1.433229	16.000000	n/a	8	2.682292e-01	2.682292e-01
171.317290	1.433229	dec_accept	1.433229	16.000000	n/a	8	2.669271e-01	2.669271e-01
171.317290	1.433229	dec_nonsocial_high	1.433229	16.000000	n/a	8	2.669271e-01	2.669271e-01
171.317290	1.433229	dec_nonsocial_accept_high	1.433229	16.000000	n/a	8	2.669271e-01	2.669271e-01
180.583680	1.833487	dec_social_choice	1.833487	32.000000	n/a	2	-1.692708e-01	-1.692708e-01
180.583680	1.833487	dec_choice	1.833487	32.000000	n/a	2	-1.679688e-01	-1.679688e-01
180.583680	1.833487	dec_social_accept	1.833487	32.000000	n/a	2	-1.692708e-01	-1.692708e-01
180.583680	1.833487	dec_accept	1.833487	32.000000	n/a	2	-1.679688e-01	-1.679688e-01
180.583680	1.833487	dec_social_low	1.833487	32.000000	n/a	2	-1.679688e-01	-1.679688e-01
180.583680	1.833487	dec_social_accept_low	1.833487	32.000000	n/a	2	-1.679688e-01	-1.679688e-01
188.233810	0.983124	dec_nonsocial_choice	0.983124	16.000000	n/a	4	1.822917e-02	1.822917e-02
188.233810	0.983124	dec_choice	0.983124	16.000000	n/a	4	1.692708e-02	1.692708e-02
188.233810	0.983124	dec_nonsocial_accept	0.983124	16.000000	n/a	4	1.822917e-02	1.822917e-02
188.233810	0.983124	dec_accept	0.983124	16.000000	n/a	4	1.692708e-02	1.692708e-02
188.233810	0.983124	dec_nonsocial_high	0.983124	16.000000	n/a	4	1.692708e-02	1.692708e-02
188.233810	0.983124	dec_nonsocial_accept_high	0.983124	16.000000	n/a	4	1.692708e-02	1.692708e-02
195.883640	1.699961	dec_nonsocial_choice	1.699961	32.000000	n/a	8	1.822917e-02	1.822917e-02
195.883640	1.699961	dec_choice	1.699961	32.000000	n/a	8	1.692708e-02	1.692708e-02
195.883640	1.699961	dec_nonsocial_accept	1.699961	32.000000	n/a	8	1.822917e-02	1.822917e-02
195.883640	1.699961	dec_accept	1.699961	32.000000	n/a	8	1.692708e-02	1.692708e-02
195.883640	1.699961	dec_nonsocial_high	1.699961	32.000000	n/a	8	1.692708e-02	1.692708e-02
195.883640	1.699961	dec_nonsocial_accept_high	1.699961	32.000000	n/a	8	1.692708e-02	1.692708e-02
202.733690	1.016665	dec_nonsocial_choice	1.016665	16.000000	n/a	2	-1.067708e-01	-1.067708e-01
202.733690	1.016665	dec_choice	1.016665	16.000000	n/a	2	-1.080729e-01	-1.080729e-01
202.733690	1.016665	dec_nonsocial_accept	1.016665	16.000000	n/a	2	-1.067708e-01	-1.067708e-01
202.733690	1.016665	dec_accept	1.016665	16.000000	n/a	2	-1.080729e-01	-1.080729e-01
202.733690	1.016665	dec_nonsocial_accept_low	1.016665	16.000000	n/a	2	-1.054688e-01	-1.054688e-01
209.583850	1.983381	dec_nonsocial_choice	1.983381	32.000000	n/a	2	-1.692708e-01	-1.692708e-01
209.583850	1.983381	dec_choice	1.983381	32.000000	n/a	2	-1.705729e-01	-1.705729e-01
209.583850	1.983381	dec_nonsocial_accept	1.983381	32.000000	n/a	2	-1.692708e-01	-1.692708e-01
209.583850	1.983381	dec_accept	1.983381	32.000000	n/a	2	-1.705729e-01	-1.705729e-01
209.583850	1.983381	dec_nonsocial_low	1.983381	32.000000	n/a	2	-1.705729e-01	-1.705729e-01
209.583850	1.983381	dec_nonsocial_accept_low	1.983381	32.000000	n/a	2	-1.705729e-01	-1.705729e-01
217.234770	1.465706	dec_social_choice	1.465706	32.000000	n/a	2	-1.692708e-01	-1.692708e-01
217.234770	1.465706	dec_choice	1.465706	32.000000	n/a	2	-1.679688e-01	-1.679688e-01
217.234770	1.465706	dec_social_accept	1.465706	32.000000	n/a	2	-1.692708e-01	-1.692708e-01
217.234770	1.465706	dec_accept	1.465706	32.000000	n/a	2	-1.679688e-01	-1.679688e-01
217.234770	1.465706	dec_social_low	1.465706	32.000000	n/a	2	-1.679688e-01	-1.679688e-01
217.234770	1.465706	dec_social_accept_low	1.465706	32.000000	n/a	2	-1.679688e-01	-1.679688e-01
224.883960	1.283149	dec_social_choice	1.283149	16.000000	n/a	8	2.682292e-01	2.682292e-01
224.883960	1.283149	dec_choice	1.283149	16.000000	n/a	8	2.695312e-01	2.695312e-01
224.883960	1.283149	dec_social_accept	1.283149	16.000000	n/a	8	2.682292e-01	2.682292e-01
224.883960	1.283149	dec_accept	1.283149	16.000000	n/a	8	2.695312e-01	2.695312e-01
224.883960	1.283149	dec_social_accept_high	1.283149	16.000000	n/a	8	2.695312e-01	2.695312e-01
232.533450	0.967201	dec_nonsocial_choice	0.967201	16.000000	n/a	8	2.682292e-01	2.682292e-01
232.533450	0.967201	dec_choice	0.967201	16.000000	n/a	8	2.669271e-01	2.669271e-01
232.533450	0.967201	dec_nonsocial_accept	0.967201	16.000000	n/a	8	2.682292e-01	2.682292e-01
232.533450	0.967201	dec_accept	0.967201	16.000000	n/a	8	2.669271e-01	2.669271e-01
232.533450	0.967201	dec_nonsocial_accept_high	0.967201	16.000000	n/a	8	2.695312e-01	2.695312e-01
245.034740	0.948957	dec_nonsocial_choice	0.948957	16.000000	n/a	2	-1.067708e-01	-1.067708e-01
245.034740	0.948957	dec_choice	0.948957	16.000000	n/a	2	-1.080729e-01	-1.080729e-01
245.034740	0.948957	dec_nonsocial_accept	0.948957	16.000000	n/a	2	-1.067708e-01	-1.067708e-01
245.034740	0.948957	dec_accept	0.948957	16.000000	n/a	2	-1.080729e-01	-1.080729e-01
245.034740	0.948957	dec_nonsocial_low	0.948957	16.000000	n/a	2	-1.080729e-01	-1.080729e-01
245.034740	0.948957	dec_nonsocial_accept_low	0.948957	16.000000	n/a	2	-1.080729e-01	-1.080729e-01
251.883740	0.933248	dec_social_choice	0.933248	16.000000	n/a	4	1.822917e-02	1.822917e-02
251.883740	0.933248	dec_choice	0.933248	16.000000	n/a	4	1.953125e-02	1.953125e-02
251.883740	0.933248	dec_social_accept	0.933248	16.000000	n/a	4	1.822917e-02	1.822917e-02
251.883740	0.933248	dec_accept	0.933248	16.000000	n/a	4	1.953125e-02	1.953125e-02
251.883740	0.933248	dec_social_high	0.933248	16.000000	n/a	4	1.953125e-02	1.953125e-02
251.883740	0.933248	dec_social_accept_high	0.933248	16.000000	n/a	4	1.953125e-02	1.953125e-02
258.733860	1.849786	dec_social_choice	1.849786	32.000000	n/a	3	-1.380208e-01	-1.380208e-01
258.733860	1.849786	dec_choice	1.849786	32.000000	n/a	3	-1.367188e-01	-1.367188e-01
258.733860	1.849786	dec_social_accept	1.849786	32.000000	n/a	3	-1.380208e-01	-1.380208e-01
258.733860	1.849786	dec_accept	1.849786	32.000000	n/a	3	-1.367188e-01	-1.367188e-01
258.733860	1.849786	dec_social_low	1.849786	32.000000	n/a	3	-1.367188e-01	-1.367188e-01
258.733860	1.849786	dec_social_accept_low	1.849786	32.000000	n/a	3	-1.367188e-01	-1.367188e-01
267.999760	0.967214	dec_nonsocial_choice	0.967214	32.000000	n/a	8	1.822917e-02	1.822917e-02
267.999760	0.967214	dec_choice	0.967214	32.000000	n/a	8	1.692708e-02	1.692708e-02
267.999760	0.967214	dec_nonsocial_accept	0.967214	32.000000	n/a	8	1.822917e-02	1.822917e-02
267.999760	0.967214	dec_accept	0.967214	32.000000	n/a	8	1.692708e-02	1.692708e-02
267.999760	0.967214	dec_nonsocial_high	0.967214	32.000000	n/a	8	1.692708e-02	1.692708e-02
267.999760	0.967214	dec_nonsocial_accept_high	0.967214	32.000000	n/a	8	1.692708e-02	1.692708e-02
275.650850	2.449486	dec_social_choice	2.449486	32.000000	n/a	2	-1.692708e-01	-1.692708e-01
275.650850	2.449486	dec_choice	2.449486	32.000000	n/a	2	-1.679688e-01	-1.679688e-01
275.650850	2.449486	dec_social_accept	2.449486	32.000000	n/a	2	-1.692708e-01	-1.692708e-01
275.650850	2.449486	dec_accept	2.449486	32.000000	n/a	2	-1.679688e-01	-1.679688e-01
275.650850	2.449486	dec_social_accept_low	2.449486	32.000000	n/a	2	-1.679688e-01	-1.679688e-01
284.917080	0.966657	dec_nonsocial_choice	0.966657	16.000000	n/a	1	-1.692708e-01	-1.692708e-01
284.917080	0.966657	dec_choice	0.966657	16.000000	n/a	1	-1.705729e-01	-1.705729e-01
284.917080	0.966657	dec_nonsocial_accept	0.966657	16.000000	n/a	1	-1.692708e-01	-1.692708e-01
284.917080	0.966657	dec_accept	0.966657	16.000000	n/a	1	-1.705729e-01	-1.705729e-01
284.917080	0.966657	dec_nonsocial_low	0.966657	16.000000	n/a	1	-1.705729e-01	-1.705729e-01
284.917080	0.966657	dec_nonsocial_accept_low	0.966657	16.000000	n/a	1	-1.705729e-01	-1.705729e-01
291.767000	2.183193	dec_social_choice	2.183193	32.000000	n/a	8	1.822917e-02	1.822917e-02
291.767000	2.183193	dec_choice	2.183193	32.000000	n/a	8	1.953125e-02	1.953125e-02
291.767000	2.183193	dec_social_accept	2.183193	32.000000	n/a	8	1.822917e-02	1.822917e-02
291.767000	2.183193	dec_accept	2.183193	32.000000	n/a	8	1.953125e-02	1.953125e-02
291.767000	2.183193	dec_social_high	2.183193	32.000000	n/a	8	1.953125e-02	1.953125e-02
291.767000	2.183193	dec_social_accept_high	2.183193	32.000000	n/a	8	1.953125e-02	1.953125e-02
298.616700	1.000255	dec_nonsocial_choice	1.000255	16.000000	n/a	2	-1.067708e-01	-1.067708e-01
298.616700	1.000255	dec_choice	1.000255	16.000000	n/a	2	-1.080729e-01	-1.080729e-01
298.616700	1.000255	dec_nonsocial_accept	1.000255	16.000000	n/a	2	-1.067708e-01	-1.067708e-01
298.616700	1.000255	dec_accept	1.000255	16.000000	n/a	2	-1.080729e-01	-1.080729e-01
298.616700	1.000255	dec_nonsocial_low	1.000255	16.000000	n/a	2	-1.080729e-01	-1.080729e-01
298.616700	1.000255	dec_nonsocial_accept_low	1.000255	16.000000	n/a	2	-1.080729e-01	-1.080729e-01
305.467650	1.899206	dec_social_choice	1.899206	16.000000	n/a	8	2.682292e-01	2.682292e-01
305.467650	1.899206	dec_choice	1.899206	16.000000	n/a	8	2.695312e-01	2.695312e-01
305.467650	1.899206	dec_social_accept	1.899206	16.000000	n/a	8	2.682292e-01	2.682292e-01
305.467650	1.899206	dec_accept	1.899206	16.000000	n/a	8	2.695312e-01	2.695312e-01
305.467650	1.899206	dec_social_high	1.899206	16.000000	n/a	8	2.695312e-01	2.695312e-01
305.467650	1.899206	dec_social_accept_high	1.899206	16.000000	n/a	8	2.695312e-01	2.695312e-01
313.116670	1.017058	dec_nonsocial_choice	1.017058	16.000000	n/a	4	1.822917e-02	1.822917e-02
313.116670	1.017058	dec_choice	1.017058	16.000000	n/a	4	1.692708e-02	1.692708e-02
313.116670	1.017058	dec_nonsocial_accept	1.017058	16.000000	n/a	4	1.822917e-02	1.822917e-02
313.116670	1.017058	dec_accept	1.017058	16.000000	n/a	4	1.692708e-02	1.692708e-02
313.116670	1.017058	dec_nonsocial_accept_high	1.017058	16.000000	n/a	4	1.953125e-02	1.953125e-02
320.767670	1.199120	dec_nonsocial_choice	1.199120	32.000000	n/a	2	-1.692708e-01	-1.692708e-01
320.767670	1.199120	dec_choice	1.199120	32.000000	n/a	2	-1.705729e-01	-1.705729e-01
320.767670	1.199120	dec_nonsocial_accept	1.199120	32.000000	n/a	2	-1.692708e-01	-1.692708e-01
320.767670	1.199120	dec_accept	1.199120	32.000000	n/a	2	-1.705729e-01	-1.705729e-01
320.767670	1.199120	dec_nonsocial_accept_low	1.199120	32.000000	n/a	2	-1.679688e-01	-1.679688e-01
327.617700	1.082596	dec_nonsocial_choice	1.082596	32.000000	n/a	16	2.682292e-01	2.682292e-01
327.617700	1.082596	dec_choice	1.082596	32.000000	n/a	16	2.669271e-01	2.669271e-01
327.617700	1.082596	dec_nonsocial_accept	1.082596	32.000000	n/a	16	2.682292e-01	2.682292e-01
327.617700	1.082596	dec_accept	1.082596	32.000000	n/a	16	2.669271e-01	2.669271e-01
327.617700	1.082596	dec_nonsocial_high	1.082596	32.000000	n/a	16	2.669271e-01	2.669271e-01
327.617700	1.082596	dec_nonsocial_accept_high	1.082596	32.000000	n/a	16	2.669271e-01	2.669271e-01
334.466700	1.500021	dec_nonsocial_choice	1.500021	32.000000	n/a	16	2.682292e-01	2.682292e-01
334.466700	1.500021	dec_choice	1.500021	32.000000	n/a	16	2.669271e-01	2.669271e-01
334.466700	1.500021	dec_nonsocial_accept	1.500021	32.000000	n/a	16	2.682292e-01	2.682292e-01
334.466700	1.500021	dec_accept	1.500021	32.000000	n/a	16	2.669271e-01	2.669271e-01
334.466700	1.500021	dec_nonsocial_accept_high	1.500021	32.000000	n/a	16	2.695312e-01	2.695312e-01
341.316380	1.767059	dec_nonsocial_choice	1.767059	32.000000	n/a	3	-1.380208e-01	-1.380208e-01
341.316380	1.767059	dec_choice	1.767059	32.000000	n/a	3	-1.393229e-01	-1.393229e-01
341.316380	1.767059	dec_nonsocial_accept	1.767059	32.000000	n/a	3	-1.380208e-01	-1.380208e-01
341.316380	1.767059	dec_accept	1.767059	32.000000	n/a	3	-1.393229e-01	-1.393229e-01
341.316380	1.767059	dec_nonsocial_low	1.767059	32.000000	n/a	3	-1.393229e-01	-1.393229e-01
341.316380	1.767059	dec_nonsocial_accept_low	1.767059	32.000000	n/a	3	-1.393229e-01	-1.393229e-01
348.166700	0.866758	dec_social_choice	0.866758	32.000000	n/a	3	-1.380208e-01	-1.380208e-01
348.166700	0.866758	dec_choice	0.866758	32.000000	n/a	3	-1.367188e-01	-1.367188e-01
348.166700	0.866758	dec_social_accept	0.866758	32.000000	n/a	3	-1.380208e-01	-1.380208e-01
348.166700	0.866758	dec_accept	0.866758	32.000000	n/a	3	-1.367188e-01	-1.367188e-01
348.166700	0.866758	dec_social_accept_low	0.866758	32.000000	n/a	3	-1.367188e-01	-1.367188e-01
355.016700	1.300005	dec_nonsocial_choice	1.300005	16.000000	n/a	1	-1.692708e-01	-1.692708e-01
355.016700	1.300005	dec_choice	1.300005	16.000000	n/a	1	-1.705729e-01	-1.705729e-01
355.016700	1.300005	dec_nonsocial_accept	1.300005	16.000000	n/a	1	-1.692708e-01	-1.692708e-01
355.016700	1.300005	dec_accept	1.300005	16.000000	n/a	1	-1.705729e-01	-1.705729e-01
355.016700	1.300005	dec_nonsocial_low	1.300005	16.000000	n/a	1	-1.705729e-01	-1.705729e-01
355.016700	1.300005	dec_nonsocial_accept_low	1.300005	16.000000	n/a	1	-1.705729e-01	-1.705729e-01
362.666700	1.600057	dec_nonsocial_choice	1.600057	32.000000	n/a	8	1.822917e-02	1.822917e-02
362.666700	1.600057	dec_choice	1.600057	32.000000	n/a	8	1.692708e-02	1.692708e-02
362.666700	1.600057	dec_nonsocial_accept	1.600057	32.000000	n/a	8	1.822917e-02	1.822917e-02
362.666700	1.600057	dec_accept	1.600057	32.000000	n/a	8	1.692708e-02	1.692708e-02
362.666700	1.600057	dec_nonsocial_high	1.600057	32.000000	n/a	8	1.692708e-02	1.692708e-02
362.666700	1.600057	dec_nonsocial_accept_high	1.600057	32.000000	n/a	8	1.692708e-02	1.692708e-02
373.549500	0.850480	dec_social_choice	0.850480	16.000000	n/a	1	-1.692708e-01	-1.692708e-01
373.549500	0.850480	dec_choice	0.850480	16.000000	n/a	1	-1.679688e-01	-1.679688e-01
373.549500	0.850480	dec_social_accept	0.850480	16.000000	n/a	1	-1.692708e-01	-1.692708e-01
373.549500	0.850480	dec_accept	0.850480	16.000000	n/a	1	-1.679688e-01	-1.679688e-01
373.549500	0.850480	dec_social_accept_low	0.850480	16.000000	n/a	1	-1.679688e-01	-1.679688e-01
