onset	duration	trial_type	response_time	Endowment	Endowment_pmod	Decision	Decision_pmod	Offer_pmod
4.521221	2	cue_nonsocial	n/a	16	-7	n/a	n/a	n/a
4.521221	2	cue_nonsocial_low	n/a	16	-8	n/a	n/a	n/a
17.166868	2	cue_social	n/a	32	8	n/a	n/a	n/a
17.166868	2	cue_social_high	n/a	32	9	n/a	n/a	n/a
24.816023	2	cue_social	n/a	16	-8	n/a	n/a	n/a
24.816023	2	cue_social_low	n/a	16	-7	n/a	n/a	n/a
31.516330	2	cue_social	n/a	32	8	n/a	n/a	n/a
31.516330	2	cue_social_high	n/a	32	9	n/a	n/a	n/a
38.367233	2	cue_social	n/a	16	-8	n/a	n/a	n/a
38.367233	2	cue_social_low	n/a	16	-7	n/a	n/a	n/a
46.021725	2	cue_nonsocial	n/a	16	-7	n/a	n/a	n/a
46.021725	2	cue_nonsocial_low	n/a	16	-8	n/a	n/a	n/a
52.871780	2	cue_nonsocial	n/a	16	-7	n/a	n/a	n/a
52.871780	2	cue_nonsocial_low	n/a	16	-8	n/a	n/a	n/a
59.824482	2	cue_social	n/a	32	8	n/a	n/a	n/a
59.824482	2	cue_social_high	n/a	32	9	n/a	n/a	n/a
66.571170	2	cue_nonsocial	n/a	32	9	n/a	n/a	n/a
66.571170	2	cue_nonsocial_high	n/a	32	8	n/a	n/a	n/a
74.221060	2	cue_nonsocial	n/a	32	9	n/a	n/a	n/a
74.221060	2	cue_nonsocial_high	n/a	32	8	n/a	n/a	n/a
81.071280	2	cue_nonsocial	n/a	32	9	n/a	n/a	n/a
81.071280	2	cue_nonsocial_high	n/a	32	8	n/a	n/a	n/a
87.921130	2	cue_nonsocial	n/a	16	-7	n/a	n/a	n/a
87.921130	2	cue_nonsocial_low	n/a	16	-8	n/a	n/a	n/a
97.188700	2	cue_social	n/a	32	8	n/a	n/a	n/a
97.188700	2	cue_social_high	n/a	32	9	n/a	n/a	n/a
104.044440	2	cue_social	n/a	32	8	n/a	n/a	n/a
104.044440	2	cue_social_high	n/a	32	9	n/a	n/a	n/a
111.678900	2	cue_social	n/a	16	-8	n/a	n/a	n/a
111.678900	2	cue_social_low	n/a	16	-7	n/a	n/a	n/a
119.337780	2	cue_nonsocial	n/a	16	-7	n/a	n/a	n/a
119.337780	2	cue_nonsocial_low	n/a	16	-8	n/a	n/a	n/a
128.604370	2	cue_nonsocial	n/a	32	9	n/a	n/a	n/a
128.604370	2	cue_nonsocial_high	n/a	32	8	n/a	n/a	n/a
135.454350	2	cue_nonsocial	n/a	16	-7	n/a	n/a	n/a
135.454350	2	cue_nonsocial_low	n/a	16	-8	n/a	n/a	n/a
142.301270	2	cue_social	n/a	16	-8	n/a	n/a	n/a
142.301270	2	cue_social_low	n/a	16	-7	n/a	n/a	n/a
151.571000	2	cue_nonsocial	n/a	32	9	n/a	n/a	n/a
151.571000	2	cue_nonsocial_high	n/a	32	8	n/a	n/a	n/a
159.330150	2	cue_social	n/a	32	8	n/a	n/a	n/a
159.330150	2	cue_social_high	n/a	32	9	n/a	n/a	n/a
166.871410	2	cue_nonsocial	n/a	32	9	n/a	n/a	n/a
166.871410	2	cue_nonsocial_high	n/a	32	8	n/a	n/a	n/a
174.625670	2	cue_social	n/a	16	-8	n/a	n/a	n/a
174.625670	2	cue_social_low	n/a	16	-7	n/a	n/a	n/a
185.404530	2	cue_nonsocial	n/a	16	-7	n/a	n/a	n/a
185.404530	2	cue_nonsocial_low	n/a	16	-8	n/a	n/a	n/a
193.043180	2	cue_social	n/a	32	8	n/a	n/a	n/a
193.043180	2	cue_social_high	n/a	32	9	n/a	n/a	n/a
200.697250	2	cue_social	n/a	32	8	n/a	n/a	n/a
200.697250	2	cue_social_high	n/a	32	9	n/a	n/a	n/a
210.036300	2	cue_social	n/a	16	-8	n/a	n/a	n/a
210.036300	2	cue_social_low	n/a	16	-7	n/a	n/a	n/a
220.850130	2	cue_social	n/a	32	8	n/a	n/a	n/a
220.850130	2	cue_social_high	n/a	32	9	n/a	n/a	n/a
230.121280	2	cue_nonsocial	n/a	32	9	n/a	n/a	n/a
230.121280	2	cue_nonsocial_high	n/a	32	8	n/a	n/a	n/a
236.963670	2	cue_social	n/a	32	8	n/a	n/a	n/a
236.963670	2	cue_social_high	n/a	32	9	n/a	n/a	n/a
244.717030	2	cue_social	n/a	16	-8	n/a	n/a	n/a
244.717030	2	cue_social_low	n/a	16	-7	n/a	n/a	n/a
252.269710	2	cue_nonsocial	n/a	16	-7	n/a	n/a	n/a
252.269710	2	cue_nonsocial_low	n/a	16	-8	n/a	n/a	n/a
259.118960	2	cue_social	n/a	32	8	n/a	n/a	n/a
259.118960	2	cue_social_high	n/a	32	9	n/a	n/a	n/a
265.967440	2	cue_social	n/a	16	-8	n/a	n/a	n/a
265.967440	2	cue_social_low	n/a	16	-7	n/a	n/a	n/a
272.841800	2	cue_social	n/a	32	8	n/a	n/a	n/a
272.841800	2	cue_social_high	n/a	32	9	n/a	n/a	n/a
280.470520	2	cue_nonsocial	n/a	16	-7	n/a	n/a	n/a
280.470520	2	cue_nonsocial_low	n/a	16	-8	n/a	n/a	n/a
287.320830	2	cue_nonsocial	n/a	16	-7	n/a	n/a	n/a
287.320830	2	cue_nonsocial_low	n/a	16	-8	n/a	n/a	n/a
294.170470	2	cue_nonsocial	n/a	32	9	n/a	n/a	n/a
294.170470	2	cue_nonsocial_high	n/a	32	8	n/a	n/a	n/a
303.438930	2	cue_nonsocial	n/a	32	9	n/a	n/a	n/a
303.438930	2	cue_nonsocial_high	n/a	32	8	n/a	n/a	n/a
310.287350	2	cue_nonsocial	n/a	16	-7	n/a	n/a	n/a
310.287350	2	cue_nonsocial_low	n/a	16	-8	n/a	n/a	n/a
317.239620	2	cue_social	n/a	16	-8	n/a	n/a	n/a
317.239620	2	cue_social_low	n/a	16	-7	n/a	n/a	n/a
323.986880	2	cue_nonsocial	n/a	32	9	n/a	n/a	n/a
323.986880	2	cue_nonsocial_high	n/a	32	8	n/a	n/a	n/a
330.837040	2	cue_nonsocial	n/a	16	-7	n/a	n/a	n/a
330.837040	2	cue_nonsocial_low	n/a	16	-8	n/a	n/a	n/a
337.807370	2	cue_social	n/a	16	-8	n/a	n/a	n/a
337.807370	2	cue_social_low	n/a	16	-7	n/a	n/a	n/a
344.662230	2	cue_social	n/a	16	-8	n/a	n/a	n/a
344.662230	2	cue_social_low	n/a	16	-7	n/a	n/a	n/a
355.420530	2	cue_nonsocial	n/a	16	-7	n/a	n/a	n/a
355.420530	2	cue_nonsocial_low	n/a	16	-8	n/a	n/a	n/a
362.396900	2	cue_social	n/a	16	-8	n/a	n/a	n/a
362.396900	2	cue_social_low	n/a	16	-7	n/a	n/a	n/a
369.121600	2	cue_nonsocial	n/a	16	-7	n/a	n/a	n/a
369.121600	2	cue_nonsocial_low	n/a	16	-8	n/a	n/a	n/a
6.527182	1.849986	dec_nonsocial_choice	1.849986	16.000000	n/a	2	-1.061198e-01	-1.061198e-01
6.527182	1.849986	dec_choice	1.849986	16.000000	n/a	2	-1.080729e-01	-1.080729e-01
6.527182	1.849986	dec_nonsocial_accept	1.849986	16.000000	n/a	2	-1.061198e-01	-1.061198e-01
6.527182	1.849986	dec_accept	1.849986	16.000000	n/a	2	-1.080729e-01	-1.080729e-01
6.527182	1.849986	dec_nonsocial_low	1.849986	16.000000	n/a	2	-1.080729e-01	-1.080729e-01
6.527182	1.849986	dec_nonsocial_accept_low	1.849986	16.000000	n/a	2	-1.080729e-01	-1.080729e-01
19.026812	1.916867	dec_social_choice	1.916867	32.000000	n/a	3	-1.373698e-01	-1.373698e-01
19.026812	1.916867	dec_choice	1.916867	32.000000	n/a	3	-1.354167e-01	-1.354167e-01
19.026812	1.916867	dec_social_accept	1.916867	32.000000	n/a	3	-1.373698e-01	-1.373698e-01
19.026812	1.916867	dec_accept	1.916867	32.000000	n/a	3	-1.354167e-01	-1.354167e-01
19.026812	1.916867	dec_social_low	1.916867	32.000000	n/a	3	-1.354167e-01	-1.354167e-01
19.026812	1.916867	dec_social_accept_low	1.916867	32.000000	n/a	3	-1.354167e-01	-1.354167e-01
26.676530	1.400453	dec_social_choice	1.400453	16.000000	n/a	8	2.688802e-01	2.688802e-01
26.676530	1.400453	dec_choice	1.400453	16.000000	n/a	8	2.708333e-01	2.708333e-01
26.676530	1.400453	dec_social_accept	1.400453	16.000000	n/a	8	2.688802e-01	2.688802e-01
26.676530	1.400453	dec_accept	1.400453	16.000000	n/a	8	2.708333e-01	2.708333e-01
26.676530	1.400453	dec_social_high	1.400453	16.000000	n/a	8	2.708333e-01	2.708333e-01
26.676530	1.400453	dec_social_accept_high	1.400453	16.000000	n/a	8	2.708333e-01	2.708333e-01
33.526997	1.266638	dec_social_choice	1.266638	32.000000	n/a	8	1.888021e-02	1.888021e-02
33.526997	1.266638	dec_choice	1.266638	32.000000	n/a	8	2.083333e-02	2.083333e-02
33.526997	1.266638	dec_social_accept	1.266638	32.000000	n/a	8	1.888021e-02	1.888021e-02
33.526997	1.266638	dec_accept	1.266638	32.000000	n/a	8	2.083333e-02	2.083333e-02
33.526997	1.266638	dec_social_high	1.266638	32.000000	n/a	8	2.083333e-02	2.083333e-02
33.526997	1.266638	dec_social_accept_high	1.266638	32.000000	n/a	8	2.083333e-02	2.083333e-02
40.376816	1.600081	dec_social_choice	1.600081	16.000000	n/a	8	2.688802e-01	2.688802e-01
40.376816	1.600081	dec_choice	1.600081	16.000000	n/a	8	2.708333e-01	2.708333e-01
40.376816	1.600081	dec_social_accept	1.600081	16.000000	n/a	8	2.688802e-01	2.688802e-01
40.376816	1.600081	dec_accept	1.600081	16.000000	n/a	8	2.708333e-01	2.708333e-01
40.376816	1.600081	dec_social_high	1.600081	16.000000	n/a	8	2.708333e-01	2.708333e-01
40.376816	1.600081	dec_social_accept_high	1.600081	16.000000	n/a	8	2.708333e-01	2.708333e-01
48.026382	1.417052	dec_nonsocial_choice	1.417052	16.000000	n/a	4	1.888021e-02	1.888021e-02
48.026382	1.417052	dec_choice	1.417052	16.000000	n/a	4	1.692708e-02	1.692708e-02
48.026382	1.417052	dec_nonsocial_accept	1.417052	16.000000	n/a	4	1.888021e-02	1.888021e-02
48.026382	1.417052	dec_accept	1.417052	16.000000	n/a	4	1.692708e-02	1.692708e-02
48.026382	1.417052	dec_nonsocial_high	1.417052	16.000000	n/a	4	1.692708e-02	1.692708e-02
48.026382	1.417052	dec_nonsocial_accept_high	1.417052	16.000000	n/a	4	1.692708e-02	1.692708e-02
54.876507	2.316919	dec_nonsocial_choice	2.316919	16.000000	n/a	8	2.688802e-01	2.688802e-01
54.876507	2.316919	dec_choice	2.316919	16.000000	n/a	8	2.669271e-01	2.669271e-01
54.876507	2.316919	dec_nonsocial_accept	2.316919	16.000000	n/a	8	2.688802e-01	2.688802e-01
54.876507	2.316919	dec_accept	2.316919	16.000000	n/a	8	2.669271e-01	2.669271e-01
54.876507	2.316919	dec_nonsocial_high	2.316919	16.000000	n/a	8	2.669271e-01	2.669271e-01
54.876507	2.316919	dec_nonsocial_accept_high	2.316919	16.000000	n/a	8	2.669271e-01	2.669271e-01
61.726480	0.967171	dec_social_choice	0.967171	32.000000	n/a	16	2.688802e-01	2.688802e-01
61.726480	0.967171	dec_choice	0.967171	32.000000	n/a	16	2.708333e-01	2.708333e-01
61.726480	0.967171	dec_social_accept	0.967171	32.000000	n/a	16	2.688802e-01	2.688802e-01
61.726480	0.967171	dec_accept	0.967171	32.000000	n/a	16	2.708333e-01	2.708333e-01
61.726480	0.967171	dec_social_high	0.967171	32.000000	n/a	16	2.708333e-01	2.708333e-01
61.726480	0.967171	dec_social_accept_high	0.967171	32.000000	n/a	16	2.708333e-01	2.708333e-01
68.577360	1.799533	dec_nonsocial_choice	1.799533	32.000000	n/a	8	1.888021e-02	1.888021e-02
68.577360	1.799533	dec_choice	1.799533	32.000000	n/a	8	1.692708e-02	1.692708e-02
68.577360	1.799533	dec_nonsocial_accept	1.799533	32.000000	n/a	8	1.888021e-02	1.888021e-02
68.577360	1.799533	dec_accept	1.799533	32.000000	n/a	8	1.692708e-02	1.692708e-02
68.577360	1.799533	dec_nonsocial_high	1.799533	32.000000	n/a	8	1.692708e-02	1.692708e-02
68.577360	1.799533	dec_nonsocial_accept_high	1.799533	32.000000	n/a	8	1.692708e-02	1.692708e-02
76.226510	1.350394	dec_nonsocial_choice	1.350394	32.000000	n/a	16	2.688802e-01	2.688802e-01
76.226510	1.350394	dec_choice	1.350394	32.000000	n/a	16	2.669271e-01	2.669271e-01
76.226510	1.350394	dec_nonsocial_accept	1.350394	32.000000	n/a	16	2.688802e-01	2.688802e-01
76.226510	1.350394	dec_accept	1.350394	32.000000	n/a	16	2.669271e-01	2.669271e-01
76.226510	1.350394	dec_nonsocial_high	1.350394	32.000000	n/a	16	2.669271e-01	2.669271e-01
76.226510	1.350394	dec_nonsocial_accept_high	1.350394	32.000000	n/a	16	2.669271e-01	2.669271e-01
83.076980	1.049861	dec_nonsocial_choice	1.049861	32.000000	n/a	8	1.888021e-02	1.888021e-02
83.076980	1.049861	dec_choice	1.049861	32.000000	n/a	8	1.692708e-02	1.692708e-02
83.076980	1.049861	dec_nonsocial_accept	1.049861	32.000000	n/a	8	1.888021e-02	1.888021e-02
83.076980	1.049861	dec_accept	1.049861	32.000000	n/a	8	1.692708e-02	1.692708e-02
83.076980	1.049861	dec_nonsocial_accept_high	1.049861	32.000000	n/a	8	2.083333e-02	2.083333e-02
89.927376	1.015941	dec_nonsocial_choice	1.015941	16.000000	n/a	1	-1.686198e-01	-1.686198e-01
89.927376	1.015941	dec_choice	1.015941	16.000000	n/a	1	-1.705729e-01	-1.705729e-01
89.927376	1.015941	dec_nonsocial_accept	1.015941	16.000000	n/a	1	-1.686198e-01	-1.686198e-01
89.927376	1.015941	dec_accept	1.015941	16.000000	n/a	1	-1.705729e-01	-1.705729e-01
89.927376	1.015941	dec_nonsocial_accept_low	1.015941	16.000000	n/a	1	-1.666667e-01	-1.666667e-01
99.193480	0.800000	dec_social_choice	0.800000	32.000000	n/a	3	-1.373698e-01	-1.373698e-01
99.193480	0.800000	dec_choice	0.800000	32.000000	n/a	3	-1.354167e-01	-1.354167e-01
99.193480	0.800000	dec_social_accept	0.800000	32.000000	n/a	3	-1.373698e-01	-1.373698e-01
99.193480	0.800000	dec_accept	0.800000	32.000000	n/a	3	-1.354167e-01	-1.354167e-01
99.193480	0.800000	dec_social_accept_low	0.800000	32.000000	n/a	3	-1.354167e-01	-1.354167e-01
106.043180	2.683708	dec_social_choice	2.683708	32.000000	n/a	2	-1.686198e-01	-1.686198e-01
106.043180	2.683708	dec_choice	2.683708	32.000000	n/a	2	-1.666667e-01	-1.666667e-01
106.043180	2.683708	dec_social_accept	2.683708	32.000000	n/a	2	-1.686198e-01	-1.686198e-01
106.043180	2.683708	dec_accept	2.683708	32.000000	n/a	2	-1.666667e-01	-1.666667e-01
106.043180	2.683708	dec_social_accept_low	2.683708	32.000000	n/a	2	-1.666667e-01	-1.666667e-01
113.693080	1.633695	dec_social_choice	1.633695	16.000000	n/a	4	1.888021e-02	1.888021e-02
113.693080	1.633695	dec_choice	1.633695	16.000000	n/a	4	2.083333e-02	2.083333e-02
113.693080	1.633695	dec_social_accept	1.633695	16.000000	n/a	4	1.888021e-02	1.888021e-02
113.693080	1.633695	dec_accept	1.633695	16.000000	n/a	4	2.083333e-02	2.083333e-02
113.693080	1.633695	dec_social_high	1.633695	16.000000	n/a	4	2.083333e-02	2.083333e-02
113.693080	1.633695	dec_social_accept_high	1.633695	16.000000	n/a	4	2.083333e-02	2.083333e-02
121.343430	1.499798	dec_nonsocial_choice	1.499798	16.000000	n/a	1	-1.686198e-01	-1.686198e-01
121.343430	1.499798	dec_choice	1.499798	16.000000	n/a	1	-1.705729e-01	-1.705729e-01
121.343430	1.499798	dec_nonsocial_accept	1.499798	16.000000	n/a	1	-1.686198e-01	-1.686198e-01
121.343430	1.499798	dec_accept	1.499798	16.000000	n/a	1	-1.705729e-01	-1.705729e-01
121.343430	1.499798	dec_nonsocial_low	1.499798	16.000000	n/a	1	-1.705729e-01	-1.705729e-01
121.343430	1.499798	dec_nonsocial_accept_low	1.499798	16.000000	n/a	1	-1.705729e-01	-1.705729e-01
130.610340	1.049778	dec_nonsocial_choice	1.049778	32.000000	n/a	8	1.888021e-02	1.888021e-02
130.610340	1.049778	dec_choice	1.049778	32.000000	n/a	8	1.692708e-02	1.692708e-02
130.610340	1.049778	dec_nonsocial_accept	1.049778	32.000000	n/a	8	1.888021e-02	1.888021e-02
130.610340	1.049778	dec_accept	1.049778	32.000000	n/a	8	1.692708e-02	1.692708e-02
130.610340	1.049778	dec_nonsocial_accept_high	1.049778	32.000000	n/a	8	2.083333e-02	2.083333e-02
137.460700	1.299572	dec_nonsocial_choice	1.299572	16.000000	n/a	2	-1.061198e-01	-1.061198e-01
137.460700	1.299572	dec_choice	1.299572	16.000000	n/a	2	-1.080729e-01	-1.080729e-01
137.460700	1.299572	dec_nonsocial_accept	1.299572	16.000000	n/a	2	-1.061198e-01	-1.061198e-01
137.460700	1.299572	dec_accept	1.299572	16.000000	n/a	2	-1.080729e-01	-1.080729e-01
137.460700	1.299572	dec_nonsocial_low	1.299572	16.000000	n/a	2	-1.080729e-01	-1.080729e-01
137.460700	1.299572	dec_nonsocial_accept_low	1.299572	16.000000	n/a	2	-1.080729e-01	-1.080729e-01
144.310100	1.499935	dec_social_choice	1.499935	16.000000	n/a	1	-1.686198e-01	-1.686198e-01
144.310100	1.499935	dec_choice	1.499935	16.000000	n/a	1	-1.666667e-01	-1.666667e-01
144.310100	1.499935	dec_social_accept	1.499935	16.000000	n/a	1	-1.686198e-01	-1.686198e-01
144.310100	1.499935	dec_accept	1.499935	16.000000	n/a	1	-1.666667e-01	-1.666667e-01
144.310100	1.499935	dec_social_accept_low	1.499935	16.000000	n/a	1	-1.666667e-01	-1.666667e-01
153.577160	0.949308	dec_nonsocial_choice	0.949308	32.000000	n/a	3	-1.373698e-01	-1.373698e-01
153.577160	0.949308	dec_choice	0.949308	32.000000	n/a	3	-1.393229e-01	-1.393229e-01
153.577160	0.949308	dec_nonsocial_accept	0.949308	32.000000	n/a	3	-1.373698e-01	-1.373698e-01
153.577160	0.949308	dec_accept	0.949308	32.000000	n/a	3	-1.393229e-01	-1.393229e-01
153.577160	0.949308	dec_nonsocial_accept_low	0.949308	32.000000	n/a	3	-1.354167e-01	-1.354167e-01
161.226800	1.816578	dec_social_choice	1.816578	32.000000	n/a	8	1.888021e-02	1.888021e-02
161.226800	1.816578	dec_choice	1.816578	32.000000	n/a	8	2.083333e-02	2.083333e-02
161.226800	1.816578	dec_social_accept	1.816578	32.000000	n/a	8	1.888021e-02	1.888021e-02
161.226800	1.816578	dec_accept	1.816578	32.000000	n/a	8	2.083333e-02	2.083333e-02
161.226800	1.816578	dec_social_high	1.816578	32.000000	n/a	8	2.083333e-02	2.083333e-02
161.226800	1.816578	dec_social_accept_high	1.816578	32.000000	n/a	8	2.083333e-02	2.083333e-02
168.876400	1.200021	dec_nonsocial_choice	1.200021	32.000000	n/a	16	2.688802e-01	2.688802e-01
168.876400	1.200021	dec_choice	1.200021	32.000000	n/a	16	2.669271e-01	2.669271e-01
168.876400	1.200021	dec_nonsocial_accept	1.200021	32.000000	n/a	16	2.688802e-01	2.688802e-01
168.876400	1.200021	dec_accept	1.200021	32.000000	n/a	16	2.669271e-01	2.669271e-01
168.876400	1.200021	dec_nonsocial_high	1.200021	32.000000	n/a	16	2.669271e-01	2.669271e-01
168.876400	1.200021	dec_nonsocial_accept_high	1.200021	32.000000	n/a	16	2.669271e-01	2.669271e-01
176.526350	0.867236	dec_social_choice	0.867236	16.000000	n/a	8	2.688802e-01	2.688802e-01
176.526350	0.867236	dec_choice	0.867236	16.000000	n/a	8	2.708333e-01	2.708333e-01
176.526350	0.867236	dec_social_accept	0.867236	16.000000	n/a	8	2.688802e-01	2.688802e-01
176.526350	0.867236	dec_accept	0.867236	16.000000	n/a	8	2.708333e-01	2.708333e-01
176.526350	0.867236	dec_social_accept_high	0.867236	16.000000	n/a	8	2.708333e-01	2.708333e-01
187.409600	1.283650	dec_nonsocial_choice	1.283650	16.000000	n/a	1	-1.686198e-01	-1.686198e-01
187.409600	1.283650	dec_choice	1.283650	16.000000	n/a	1	-1.705729e-01	-1.705729e-01
187.409600	1.283650	dec_nonsocial_accept	1.283650	16.000000	n/a	1	-1.686198e-01	-1.686198e-01
187.409600	1.283650	dec_accept	1.283650	16.000000	n/a	1	-1.705729e-01	-1.705729e-01
187.409600	1.283650	dec_nonsocial_accept_low	1.283650	16.000000	n/a	1	-1.666667e-01	-1.666667e-01
195.060560	2.016094	dec_social_choice	2.016094	32.000000	n/a	16	2.688802e-01	2.688802e-01
195.060560	2.016094	dec_choice	2.016094	32.000000	n/a	16	2.708333e-01	2.708333e-01
195.060560	2.016094	dec_social_accept	2.016094	32.000000	n/a	16	2.688802e-01	2.688802e-01
195.060560	2.016094	dec_accept	2.016094	32.000000	n/a	16	2.708333e-01	2.708333e-01
195.060560	2.016094	dec_social_high	2.016094	32.000000	n/a	16	2.708333e-01	2.708333e-01
195.060560	2.016094	dec_social_accept_high	2.016094	32.000000	n/a	16	2.708333e-01	2.708333e-01
202.710420	0.966157	dec_social_choice	0.966157	32.000000	n/a	2	-1.686198e-01	-1.686198e-01
202.710420	0.966157	dec_choice	0.966157	32.000000	n/a	2	-1.666667e-01	-1.666667e-01
202.710420	0.966157	dec_social_accept	0.966157	32.000000	n/a	2	-1.686198e-01	-1.686198e-01
202.710420	0.966157	dec_accept	0.966157	32.000000	n/a	2	-1.666667e-01	-1.666667e-01
202.710420	0.966157	dec_social_accept_low	0.966157	32.000000	n/a	2	-1.666667e-01	-1.666667e-01
211.976430	2.750061	dec_social_choice	2.750061	16.000000	n/a	2	-1.061198e-01	-1.061198e-01
211.976430	2.750061	dec_choice	2.750061	16.000000	n/a	2	-1.041667e-01	-1.041667e-01
211.976430	2.750061	dec_social_accept	2.750061	16.000000	n/a	2	-1.061198e-01	-1.061198e-01
211.976430	2.750061	dec_accept	2.750061	16.000000	n/a	2	-1.041667e-01	-1.041667e-01
211.976430	2.750061	dec_social_accept_low	2.750061	16.000000	n/a	2	-1.041667e-01	-1.041667e-01
222.859800	1.600016	dec_social_choice	1.600016	32.000000	n/a	2	-1.686198e-01	-1.686198e-01
222.859800	1.600016	dec_choice	1.600016	32.000000	n/a	2	-1.666667e-01	-1.666667e-01
222.859800	1.600016	dec_social_accept	1.600016	32.000000	n/a	2	-1.686198e-01	-1.686198e-01
222.859800	1.600016	dec_accept	1.600016	32.000000	n/a	2	-1.666667e-01	-1.666667e-01
222.859800	1.600016	dec_social_low	1.600016	32.000000	n/a	2	-1.666667e-01	-1.666667e-01
222.859800	1.600016	dec_social_accept_low	1.600016	32.000000	n/a	2	-1.666667e-01	-1.666667e-01
232.125950	1.750278	dec_nonsocial_choice	1.750278	32.000000	n/a	8	1.888021e-02	1.888021e-02
232.125950	1.750278	dec_choice	1.750278	32.000000	n/a	8	1.692708e-02	1.692708e-02
232.125950	1.750278	dec_nonsocial_accept	1.750278	32.000000	n/a	8	1.888021e-02	1.888021e-02
232.125950	1.750278	dec_accept	1.750278	32.000000	n/a	8	1.692708e-02	1.692708e-02
232.125950	1.750278	dec_nonsocial_high	1.750278	32.000000	n/a	8	1.692708e-02	1.692708e-02
232.125950	1.750278	dec_nonsocial_accept_high	1.750278	32.000000	n/a	8	1.692708e-02	1.692708e-02
238.977460	1.398951	dec_social_choice	1.398951	32.000000	n/a	3	-1.373698e-01	-1.373698e-01
238.977460	1.398951	dec_choice	1.398951	32.000000	n/a	3	-1.354167e-01	-1.354167e-01
238.977460	1.398951	dec_social_accept	1.398951	32.000000	n/a	3	-1.373698e-01	-1.373698e-01
238.977460	1.398951	dec_accept	1.398951	32.000000	n/a	3	-1.354167e-01	-1.354167e-01
238.977460	1.398951	dec_social_low	1.398951	32.000000	n/a	3	-1.354167e-01	-1.354167e-01
238.977460	1.398951	dec_social_accept_low	1.398951	32.000000	n/a	3	-1.354167e-01	-1.354167e-01
246.626650	1.499816	dec_social_choice	1.499816	16.000000	n/a	8	2.688802e-01	2.688802e-01
246.626650	1.499816	dec_choice	1.499816	16.000000	n/a	8	2.708333e-01	2.708333e-01
246.626650	1.499816	dec_social_accept	1.499816	16.000000	n/a	8	2.688802e-01	2.688802e-01
246.626650	1.499816	dec_accept	1.499816	16.000000	n/a	8	2.708333e-01	2.708333e-01
246.626650	1.499816	dec_social_high	1.499816	16.000000	n/a	8	2.708333e-01	2.708333e-01
246.626650	1.499816	dec_social_accept_high	1.499816	16.000000	n/a	8	2.708333e-01	2.708333e-01
254.276340	1.333430	dec_nonsocial_choice	1.333430	16.000000	n/a	1	-1.686198e-01	-1.686198e-01
254.276340	1.333430	dec_choice	1.333430	16.000000	n/a	1	-1.705729e-01	-1.705729e-01
254.276340	1.333430	dec_nonsocial_accept	1.333430	16.000000	n/a	1	-1.686198e-01	-1.686198e-01
254.276340	1.333430	dec_accept	1.333430	16.000000	n/a	1	-1.705729e-01	-1.705729e-01
254.276340	1.333430	dec_nonsocial_accept_low	1.333430	16.000000	n/a	1	-1.666667e-01	-1.666667e-01
261.125640	1.084101	dec_social_choice	1.084101	32.000000	n/a	8	1.888021e-02	1.888021e-02
261.125640	1.084101	dec_choice	1.084101	32.000000	n/a	8	2.083333e-02	2.083333e-02
261.125640	1.084101	dec_social_accept	1.084101	32.000000	n/a	8	1.888021e-02	1.888021e-02
261.125640	1.084101	dec_accept	1.084101	32.000000	n/a	8	2.083333e-02	2.083333e-02
261.125640	1.084101	dec_social_high	1.084101	32.000000	n/a	8	2.083333e-02	2.083333e-02
261.125640	1.084101	dec_social_accept_high	1.084101	32.000000	n/a	8	2.083333e-02	2.083333e-02
267.975830	2.683895	dec_social_choice	2.683895	16.000000	n/a	1	-1.686198e-01	-1.686198e-01
267.975830	2.683895	dec_choice	2.683895	16.000000	n/a	1	-1.666667e-01	-1.666667e-01
267.975830	2.683895	dec_social_accept	2.683895	16.000000	n/a	1	-1.686198e-01	-1.686198e-01
267.975830	2.683895	dec_accept	2.683895	16.000000	n/a	1	-1.666667e-01	-1.666667e-01
267.975830	2.683895	dec_social_low	2.683895	16.000000	n/a	1	-1.666667e-01	-1.666667e-01
267.975830	2.683895	dec_social_accept_low	2.683895	16.000000	n/a	1	-1.666667e-01	-1.666667e-01
274.826420	0.783240	dec_social_choice	0.783240	32.000000	n/a	3	-1.373698e-01	-1.373698e-01
274.826420	0.783240	dec_choice	0.783240	32.000000	n/a	3	-1.354167e-01	-1.354167e-01
274.826420	0.783240	dec_social_accept	0.783240	32.000000	n/a	3	-1.373698e-01	-1.373698e-01
274.826420	0.783240	dec_accept	0.783240	32.000000	n/a	3	-1.354167e-01	-1.354167e-01
274.826420	0.783240	dec_social_low	0.783240	32.000000	n/a	3	-1.354167e-01	-1.354167e-01
274.826420	0.783240	dec_social_accept_low	0.783240	32.000000	n/a	3	-1.354167e-01	-1.354167e-01
282.476230	0.933262	dec_nonsocial_choice	0.933262	16.000000	n/a	1	-1.686198e-01	-1.686198e-01
282.476230	0.933262	dec_choice	0.933262	16.000000	n/a	1	-1.705729e-01	-1.705729e-01
282.476230	0.933262	dec_nonsocial_accept	0.933262	16.000000	n/a	1	-1.686198e-01	-1.686198e-01
282.476230	0.933262	dec_accept	0.933262	16.000000	n/a	1	-1.705729e-01	-1.705729e-01
282.476230	0.933262	dec_nonsocial_accept_low	0.933262	16.000000	n/a	1	-1.666667e-01	-1.666667e-01
289.326350	1.483235	dec_nonsocial_choice	1.483235	16.000000	n/a	2	-1.061198e-01	-1.061198e-01
289.326350	1.483235	dec_choice	1.483235	16.000000	n/a	2	-1.080729e-01	-1.080729e-01
289.326350	1.483235	dec_nonsocial_accept	1.483235	16.000000	n/a	2	-1.061198e-01	-1.061198e-01
289.326350	1.483235	dec_accept	1.483235	16.000000	n/a	2	-1.080729e-01	-1.080729e-01
289.326350	1.483235	dec_nonsocial_low	1.483235	16.000000	n/a	2	-1.080729e-01	-1.080729e-01
289.326350	1.483235	dec_nonsocial_accept_low	1.483235	16.000000	n/a	2	-1.080729e-01	-1.080729e-01
296.176270	1.466652	dec_nonsocial_choice	1.466652	32.000000	n/a	16	2.688802e-01	2.688802e-01
296.176270	1.466652	dec_choice	1.466652	32.000000	n/a	16	2.669271e-01	2.669271e-01
296.176270	1.466652	dec_nonsocial_accept	1.466652	32.000000	n/a	16	2.688802e-01	2.688802e-01
296.176270	1.466652	dec_accept	1.466652	32.000000	n/a	16	2.669271e-01	2.669271e-01
296.176270	1.466652	dec_nonsocial_high	1.466652	32.000000	n/a	16	2.669271e-01	2.669271e-01
296.176270	1.466652	dec_nonsocial_accept_high	1.466652	32.000000	n/a	16	2.669271e-01	2.669271e-01
305.442230	0.817397	dec_nonsocial_choice	0.817397	32.000000	n/a	16	2.688802e-01	2.688802e-01
305.442230	0.817397	dec_choice	0.817397	32.000000	n/a	16	2.669271e-01	2.669271e-01
305.442230	0.817397	dec_nonsocial_accept	0.817397	32.000000	n/a	16	2.688802e-01	2.688802e-01
305.442230	0.817397	dec_accept	0.817397	32.000000	n/a	16	2.669271e-01	2.669271e-01
305.442230	0.817397	dec_nonsocial_accept_high	0.817397	32.000000	n/a	16	2.708333e-01	2.708333e-01
312.293270	1.232956	dec_nonsocial_choice	1.232956	16.000000	n/a	2	-1.061198e-01	-1.061198e-01
312.293270	1.232956	dec_choice	1.232956	16.000000	n/a	2	-1.080729e-01	-1.080729e-01
312.293270	1.232956	dec_nonsocial_accept	1.232956	16.000000	n/a	2	-1.061198e-01	-1.061198e-01
312.293270	1.232956	dec_accept	1.232956	16.000000	n/a	2	-1.080729e-01	-1.080729e-01
312.293270	1.232956	dec_nonsocial_accept_low	1.232956	16.000000	n/a	2	-1.041667e-01	-1.041667e-01
319.142180	1.417323	dec_social_choice	1.417323	16.000000	n/a	4	1.888021e-02	1.888021e-02
319.142180	1.417323	dec_choice	1.417323	16.000000	n/a	4	2.083333e-02	2.083333e-02
319.142180	1.417323	dec_social_accept	1.417323	16.000000	n/a	4	1.888021e-02	1.888021e-02
319.142180	1.417323	dec_accept	1.417323	16.000000	n/a	4	2.083333e-02	2.083333e-02
319.142180	1.417323	dec_social_accept_high	1.417323	16.000000	n/a	4	2.083333e-02	2.083333e-02
325.992920	2.566621	dec_nonsocial_choice	2.566621	32.000000	n/a	2	-1.686198e-01	-1.686198e-01
325.992920	2.566621	dec_choice	2.566621	32.000000	n/a	2	-1.705729e-01	-1.705729e-01
325.992920	2.566621	dec_nonsocial_accept	2.566621	32.000000	n/a	2	-1.686198e-01	-1.686198e-01
325.992920	2.566621	dec_accept	2.566621	32.000000	n/a	2	-1.705729e-01	-1.705729e-01
325.992920	2.566621	dec_nonsocial_low	2.566621	32.000000	n/a	2	-1.705729e-01	-1.705729e-01
325.992920	2.566621	dec_nonsocial_accept_low	2.566621	32.000000	n/a	2	-1.705729e-01	-1.705729e-01
332.842800	1.083366	dec_nonsocial_choice	1.083366	16.000000	n/a	8	2.688802e-01	2.688802e-01
332.842800	1.083366	dec_choice	1.083366	16.000000	n/a	8	2.669271e-01	2.669271e-01
332.842800	1.083366	dec_nonsocial_accept	1.083366	16.000000	n/a	8	2.688802e-01	2.688802e-01
332.842800	1.083366	dec_accept	1.083366	16.000000	n/a	8	2.669271e-01	2.669271e-01
332.842800	1.083366	dec_nonsocial_accept_high	1.083366	16.000000	n/a	8	2.708333e-01	2.708333e-01
339.692800	1.149965	dec_social_choice	1.149965	16.000000	n/a	2	-1.061198e-01	-1.061198e-01
339.692800	1.149965	dec_choice	1.149965	16.000000	n/a	2	-1.041667e-01	-1.041667e-01
339.692800	1.149965	dec_social_accept	1.149965	16.000000	n/a	2	-1.061198e-01	-1.061198e-01
339.692800	1.149965	dec_accept	1.149965	16.000000	n/a	2	-1.041667e-01	-1.041667e-01
339.692800	1.149965	dec_social_low	1.149965	16.000000	n/a	2	-1.041667e-01	-1.041667e-01
339.692800	1.149965	dec_social_accept_low	1.149965	16.000000	n/a	2	-1.041667e-01	-1.041667e-01
346.542850	1.216718	dec_social_choice	1.216718	16.000000	n/a	4	1.888021e-02	1.888021e-02
346.542850	1.216718	dec_choice	1.216718	16.000000	n/a	4	2.083333e-02	2.083333e-02
346.542850	1.216718	dec_social_accept	1.216718	16.000000	n/a	4	1.888021e-02	1.888021e-02
346.542850	1.216718	dec_accept	1.216718	16.000000	n/a	4	2.083333e-02	2.083333e-02
346.542850	1.216718	dec_social_accept_high	1.216718	16.000000	n/a	4	2.083333e-02	2.083333e-02
357.426000	1.733432	dec_nonsocial_choice	1.733432	16.000000	n/a	4	1.888021e-02	1.888021e-02
357.426000	1.733432	dec_choice	1.733432	16.000000	n/a	4	1.692708e-02	1.692708e-02
357.426000	1.733432	dec_nonsocial_accept	1.733432	16.000000	n/a	4	1.888021e-02	1.888021e-02
357.426000	1.733432	dec_accept	1.733432	16.000000	n/a	4	1.692708e-02	1.692708e-02
357.426000	1.733432	dec_nonsocial_high	1.733432	16.000000	n/a	4	1.692708e-02	1.692708e-02
357.426000	1.733432	dec_nonsocial_accept_high	1.733432	16.000000	n/a	4	1.692708e-02	1.692708e-02
364.275730	0.983645	dec_social_choice	0.983645	16.000000	n/a	1	-1.686198e-01	-1.686198e-01
364.275730	0.983645	dec_choice	0.983645	16.000000	n/a	1	-1.666667e-01	-1.666667e-01
364.275730	0.983645	dec_social_accept	0.983645	16.000000	n/a	1	-1.686198e-01	-1.686198e-01
364.275730	0.983645	dec_accept	0.983645	16.000000	n/a	1	-1.666667e-01	-1.666667e-01
364.275730	0.983645	dec_social_accept_low	0.983645	16.000000	n/a	1	-1.666667e-01	-1.666667e-01
371.126300	1.383017	dec_nonsocial_choice	1.383017	16.000000	n/a	2	-1.061198e-01	-1.061198e-01
371.126300	1.383017	dec_choice	1.383017	16.000000	n/a	2	-1.080729e-01	-1.080729e-01
371.126300	1.383017	dec_nonsocial_accept	1.383017	16.000000	n/a	2	-1.061198e-01	-1.061198e-01
371.126300	1.383017	dec_accept	1.383017	16.000000	n/a	2	-1.080729e-01	-1.080729e-01
371.126300	1.383017	dec_nonsocial_accept_low	1.383017	16.000000	n/a	2	-1.041667e-01	-1.041667e-01
