instrText,stimDoor,stimDoorLure,stimFace,stimFaceLure,Instructions.thisRepN,Instructions.thisTrialN,Instructions.thisN,Instructions.thisIndex,Trials.thisRepN,Trials.thisTrialN,Trials.thisN,Trials.thisIndex,Func,Keys,Text,RespTime,Onset,Offset,SystemTime_Start,SystemTime_Stop,Stim,Lure,Participant*,Age,date,expName,psychopyVersion,frameRate,
"In the earlier Feedback Games, you chose which doors contained a prize, and which peers liked you. 

You then saw positive or negative feedback (green check mark or red X) from the door or peer you selected.

You will now see a series of doors and peers, some of which you saw during the earlier Feedback Games, and some that you have never seen before.

Please press the spacebar to continue.",,,,,0,0,0,0,,,,,instrFunc,space,"In the earlier Feedback Games, you chose which doors contained a prize, and which peers liked you. 

You then saw positive or negative feedback (green check mark or red X) from the door or peer you selected.

You will now see a series of doors and peers, some of which you saw during the earlier Feedback Games, and some that you have never seen before.

Please press the spacebar to continue.",17.023322199936956,19.959168900037184,37.0506382798776,2023-08-31 12:36:59.304666,2023-08-31 12:37:16.391792,,,10804,18-29,2023-08-31_12h36.55.845,Recall,2021.2.3,60.02159575291948,
"For doors/peers that you remember selecting and getting feedback from, your job is to RECALL what feedback you received. 

Press '1' if you recall positive feedback. 

Press '2' if you recall negative feedback

Press the spacebar to continue.",,,,,0,1,1,1,,,,,instrFunc,space,"For doors/peers that you remember selecting and getting feedback from, your job is to RECALL what feedback you received. 

Press '1' if you recall positive feedback. 

Press '2' if you recall negative feedback

Press the spacebar to continue.",13.558046899968758,37.024315000046045,50.63494163006544,2023-08-31 12:37:16.393811,2023-08-31 12:37:29.990457,,,10804,18-29,2023-08-31_12h36.55.845,Recall,2021.2.3,60.02159575291948,
"For doors/peers that you don't remember getting feedback from, your job is to PREDICT what feedback you WOULD HAVE received.

Press '9' if you predict positive feedback.

Press '0' if you predict negative feedback. 

Please press the spacebar to continue.",,,,,0,2,2,2,,,,,instrFunc,space,"For doors/peers that you don't remember getting feedback from, your job is to PREDICT what feedback you WOULD HAVE received.

Press '9' if you predict positive feedback.

Press '0' if you predict negative feedback. 

Please press the spacebar to continue.",9.414942799834535,50.62303259992041,60.101587229873985,2023-08-31 12:37:29.992454,2023-08-31 12:37:39.456384,,,10804,18-29,2023-08-31_12h36.55.845,Recall,2021.2.3,60.02159575291948,
"This task is self-paced, and the prompts will always stay on the screen so that you know which buttons to press.

On the next screen we will show you what those prompts look like, so that you know exactly what to expect. 

You will start with either doors or peers, and then switch halfway through. 

Please press the spacebar to continue.",,,,,0,3,3,3,,,,,instrFunc,space,"This task is self-paced, and the prompts will always stay on the screen so that you know which buttons to press.

On the next screen we will show you what those prompts look like, so that you know exactly what to expect. 

You will start with either doors or peers, and then switch halfway through. 

Please press the spacebar to continue.",18.039828200126067,60.07833279995248,78.17221863009036,2023-08-31 12:37:39.458403,2023-08-31 12:37:57.538415,,,10804,18-29,2023-08-31_12h36.55.845,Recall,2021.2.3,60.02159575291948,
,,,,,,,,,,,,,imgtextFunc,space,"Here is what the screen will look like while you make your ratings.
The green circles remind you to press 1 or 9 for positive feedback.
The red circles remind you to press 2 or 0 for negative feedback.









Please let the experimenter know if you have any questions.

Whenever you're ready, press the spacebar to start the task.",19.21426110016182,78.36022789985873,97.79738312982954,2023-08-31 12:37:57.552622,2023-08-31 12:38:16.987721,,,10804,18-29,2023-08-31_12h36.55.845,Recall,2021.2.3,60.02159575291948,
,DD014.jpg,0,FF014.jpg,0,,,,,0,0,0,13,imgFunc,9,NA,6.884502700064331,97.80987149989232,104.87361021991819,2023-08-31 12:38:17.046947,2023-08-31 12:38:24.103446,FF014.jpg,0,10804,18-29,2023-08-31_12h36.55.845,Recall,2021.2.3,60.02159575291948,
,DD031.jpg,0,FF031.jpg,0,,,,,0,1,1,30,imgFunc,9,NA,5.751554299844429,104.86238149995916,110.77949333004653,2023-08-31 12:38:24.119407,2023-08-31 12:38:30.035560,FF031.jpg,0,10804,18-29,2023-08-31_12h36.55.845,Recall,2021.2.3,60.02159575291948,
,L_DD504.jpg,1,L_FF504.jpg,1,,,,,0,2,2,43,imgFunc,1,NA,2.7518322998657823,110.8066234998405,113.72958725970238,2023-08-31 12:38:30.057504,2023-08-31 12:38:32.969501,L_FF504.jpg,1,10804,18-29,2023-08-31_12h36.55.845,Recall,2021.2.3,60.02159575291948,
,DD005.jpg,0,FF005.jpg,0,,,,,0,3,3,4,imgFunc,2,NA,1.9210587998386472,113.70144629990682,115.75978662981652,2023-08-31 12:38:32.981472,2023-08-31 12:38:35.035773,FF005.jpg,0,10804,18-29,2023-08-31_12h36.55.845,Recall,2021.2.3,60.02159575291948,
,SD015.jpg,0,MF015.jpg,0,,,,,0,4,4,64,imgFunc,0,NA,3.235161199932918,115.76325599988922,119.1372845300939,2023-08-31 12:38:35.048431,2023-08-31 12:38:38.419086,MF015.jpg,0,10804,18-29,2023-08-31_12h36.55.845,Recall,2021.2.3,60.02159575291948,
,DD019.jpg,0,FF019.jpg,0,,,,,0,5,5,18,imgFunc,0,NA,2.3158019999973476,119.16236840002239,121.61694963020273,2023-08-31 12:38:38.433074,2023-08-31 12:38:40.885581,FF019.jpg,0,10804,18-29,2023-08-31_12h36.55.845,Recall,2021.2.3,60.02159575291948,
,SD024.jpg,0,MF024.jpg,0,,,,,0,6,6,73,imgFunc,1,NA,2.084878899855539,121.61758630000986,123.84557185973972,2023-08-31 12:38:40.904555,2023-08-31 12:38:43.118641,MF024.jpg,0,10804,18-29,2023-08-31_12h36.55.845,Recall,2021.2.3,60.02159575291948,
,SD008.jpg,0,MF008.jpg,0,,,,,0,7,7,57,imgFunc,0,NA,1.1061452999711037,123.8439294998534,125.08675002981909,2023-08-31 12:38:43.130612,2023-08-31 12:38:44.368756,MF008.jpg,0,10804,18-29,2023-08-31_12h36.55.845,Recall,2021.2.3,60.02159575291948,
,SD012.jpg,0,MF012.jpg,0,,,,,0,8,8,61,imgFunc,2,NA,3.0774145000614226,125.08909439994022,128.29816242982633,2023-08-31 12:38:44.380727,2023-08-31 12:38:47.584732,MF012.jpg,0,10804,18-29,2023-08-31_12h36.55.845,Recall,2021.2.3,60.02159575291948,
,DD012.jpg,0,FF012.jpg,0,,,,,0,9,9,11,imgFunc,2,NA,1.6955252001062036,128.3108593998477,130.13596242992207,2023-08-31 12:38:47.596727,2023-08-31 12:38:49.418148,FF012.jpg,0,10804,18-29,2023-08-31_12h36.55.845,Recall,2021.2.3,60.02159575291948,
,SD005.jpg,0,MF005.jpg,0,,,,,0,10,10,54,imgFunc,0,NA,4.261896299896762,130.14447659999132,134.53225382999517,2023-08-31 12:38:49.432136,2023-08-31 12:38:53.817765,MF005.jpg,0,10804,18-29,2023-08-31_12h36.55.845,Recall,2021.2.3,60.02159575291948,
,L_SD503.jpg,1,L_MF503.jpg,1,,,,,0,11,11,92,imgFunc,1,NA,1.7326183000113815,134.5613830999937,136.4517486600671,2023-08-31 12:38:53.838713,2023-08-31 12:38:55.717250,L_MF503.jpg,1,10804,18-29,2023-08-31_12h36.55.845,Recall,2021.2.3,60.02159575291948,
,L_SD502.jpg,1,L_MF502.jpg,1,,,,,0,12,12,91,imgFunc,0,NA,2.7236297000199556,136.43496849993244,139.27596802986227,2023-08-31 12:38:55.730241,2023-08-31 12:38:58.568090,L_MF502.jpg,1,10804,18-29,2023-08-31_12h36.55.845,Recall,2021.2.3,60.02159575291948,
,DD038.jpg,0,FF038.jpg,0,,,,,0,13,13,37,imgFunc,9,NA,2.6154547999612987,139.2949818999041,142.05321112973616,2023-08-31 12:38:58.580079,2023-08-31 12:39:01.333563,FF038.jpg,0,10804,18-29,2023-08-31_12h36.55.845,Recall,2021.2.3,60.02159575291948,
,DD011.jpg,0,FF011.jpg,0,,,,,0,14,14,10,imgFunc,1,NA,2.8382070001680404,142.06426379992627,145.03764412971213,2023-08-31 12:39:01.346465,2023-08-31 12:39:04.316774,FF011.jpg,0,10804,18-29,2023-08-31_12h36.55.845,Recall,2021.2.3,60.02159575291948,
,DD040.jpg,0,FF040.jpg,0,,,,,0,15,15,39,imgFunc,1,NA,3.089383800048381,145.06099139992148,148.30098995985463,2023-08-31 12:39:04.338425,2023-08-31 12:39:07.566526,FF040.jpg,0,10804,18-29,2023-08-31_12h36.55.845,Recall,2021.2.3,60.02159575291948,
,SD032.jpg,0,MF032.jpg,0,,,,,0,16,16,81,imgFunc,1,NA,4.601594700012356,148.28479499998502,153.01042142999358,2023-08-31 12:39:07.578497,2023-08-31 12:39:12.299567,MF032.jpg,0,10804,18-29,2023-08-31_12h36.55.845,Recall,2021.2.3,60.02159575291948,
,SD033.jpg,0,MF033.jpg,0,,,,,0,17,17,82,imgFunc,1,NA,3.1963601000607014,153.03406789992005,156.36991702974774,2023-08-31 12:39:12.314541,2023-08-31 12:39:15.649408,MF033.jpg,0,10804,18-29,2023-08-31_12h36.55.845,Recall,2021.2.3,60.02159575291948,
,L_SD505.jpg,1,L_MF505.jpg,1,,,,,0,18,18,94,imgFunc,0,NA,4.80189420003444,156.38818369992077,161.33001683000475,2023-08-31 12:39:15.661379,2023-08-31 12:39:20.599613,L_MF505.jpg,1,10804,18-29,2023-08-31_12h36.55.845,Recall,2021.2.3,60.02159575291948,
,SD039.jpg,0,MF039.jpg,0,,,,,0,19,19,88,imgFunc,0,NA,2.8281863001175225,161.35372779984027,164.35243665985763,2023-08-31 12:39:20.615574,2023-08-31 12:39:23.597966,MF039.jpg,0,10804,18-29,2023-08-31_12h36.55.845,Recall,2021.2.3,60.02159575291948,
,L_DD506.jpg,1,L_FF506.jpg,1,,,,,0,20,20,45,imgFunc,9,NA,2.2210822000633925,164.3608641999308,166.74849615991116,2023-08-31 12:39:23.620866,2023-08-31 12:39:25.998353,L_FF506.jpg,1,10804,18-29,2023-08-31_12h36.55.845,Recall,2021.2.3,60.02159575291948,
,DD016.jpg,0,FF016.jpg,0,,,,,0,21,21,15,imgFunc,1,NA,1.7334373998455703,166.72081650001928,168.57833393011242,2023-08-31 12:39:26.010318,2023-08-31 12:39:27.864487,FF016.jpg,0,10804,18-29,2023-08-31_12h36.55.845,Recall,2021.2.3,60.02159575291948,
,DD023.jpg,0,FF023.jpg,0,,,,,0,22,22,22,imgFunc,2,NA,2.4796402000356466,168.58239899994805,171.19018682977185,2023-08-31 12:39:27.876478,2023-08-31 12:39:30.481227,FF023.jpg,0,10804,18-29,2023-08-31_12h36.55.845,Recall,2021.2.3,60.02159575291948,
,DD001.jpg,0,FF001.jpg,0,,,,,0,23,23,0,imgFunc,1,NA,1.772790899965912,171.2090739000123,173.1173442301806,2023-08-31 12:39:30.493194,2023-08-31 12:39:32.397208,FF001.jpg,0,10804,18-29,2023-08-31_12h36.55.845,Recall,2021.2.3,60.02159575291948,
,L_DD508.jpg,1,L_FF508.jpg,1,,,,,0,24,24,47,imgFunc,0,NA,1.7384766999166459,173.13142329989932,175.00528545980342,2023-08-31 12:39:32.418153,2023-08-31 12:39:34.280241,L_FF508.jpg,1,10804,18-29,2023-08-31_12h36.55.845,Recall,2021.2.3,60.02159575291948,
,SD018.jpg,0,MF018.jpg,0,,,,,0,25,25,67,imgFunc,0,NA,6.805877399863675,175.0080051999539,181.94760562991723,2023-08-31 12:39:34.293205,2023-08-31 12:39:41.229643,MF018.jpg,0,10804,18-29,2023-08-31_12h36.55.845,Recall,2021.2.3,60.02159575291948,
,SD040.jpg,0,MF040.jpg,0,,,,,0,26,26,89,imgFunc,9,NA,4.135851399973035,181.98204969987273,186.27834995975718,2023-08-31 12:39:41.248591,2023-08-31 12:39:45.529480,MF040.jpg,0,10804,18-29,2023-08-31_12h36.55.845,Recall,2021.2.3,60.02159575291948,
,DD027.jpg,0,FF027.jpg,0,,,,,0,27,27,26,imgFunc,1,NA,2.5779117001220584,186.29240619996563,189.02657803008333,2023-08-31 12:39:45.546438,2023-08-31 12:39:48.280364,FF027.jpg,0,10804,18-29,2023-08-31_12h36.55.845,Recall,2021.2.3,60.02159575291948,
,DD021.jpg,0,FF021.jpg,0,,,,,0,28,28,20,imgFunc,1,NA,1.6864009001292288,189.0080160999205,190.83275553002022,2023-08-31 12:39:48.292336,2023-08-31 12:39:50.113042,FF021.jpg,0,10804,18-29,2023-08-31_12h36.55.845,Recall,2021.2.3,60.02159575291948,
,SD003.jpg,0,MF003.jpg,0,,,,,0,29,29,52,imgFunc,2,NA,2.082799500087276,190.85120689985342,193.07246855972335,2023-08-31 12:39:50.134986,2023-08-31 12:39:52.345931,MF003.jpg,0,10804,18-29,2023-08-31_12h36.55.845,Recall,2021.2.3,60.02159575291948,
,SD031.jpg,0,MF031.jpg,0,,,,,0,30,30,80,imgFunc,0,NA,1.734692299971357,193.0715646999888,194.9406863299664,2023-08-31 12:39:52.360896,2023-08-31 12:39:54.229373,MF031.jpg,0,10804,18-29,2023-08-31_12h36.55.845,Recall,2021.2.3,60.02159575291948,
,SD029.jpg,0,MF029.jpg,0,,,,,0,31,31,78,imgFunc,2,NA,3.6819933999795467,194.9483765999321,198.75426163012162,2023-08-31 12:39:54.242363,2023-08-31 12:39:58.045826,MF029.jpg,0,10804,18-29,2023-08-31_12h36.55.845,Recall,2021.2.3,60.02159575291948,
,DD017.jpg,0,FF017.jpg,0,,,,,0,32,32,16,imgFunc,9,NA,3.738175099948421,198.76416999986395,202.62161003006622,2023-08-31 12:39:58.058795,2023-08-31 12:40:01.912553,FF017.jpg,0,10804,18-29,2023-08-31_12h36.55.845,Recall,2021.2.3,60.02159575291948,
,SD034.jpg,0,MF034.jpg,0,,,,,0,33,33,83,imgFunc,9,NA,5.333274099975824,202.64107939996757,208.11739925993606,2023-08-31 12:40:01.932525,2023-08-31 12:40:07.395382,MF034.jpg,0,10804,18-29,2023-08-31_12h36.55.845,Recall,2021.2.3,60.02159575291948,
,L_DD505.jpg,1,L_FF505.jpg,1,,,,,0,34,34,44,imgFunc,0,NA,8.209291600156575,208.11676629981957,216.4507879295852,2023-08-31 12:40:07.410368,2023-08-31 12:40:15.744613,L_FF505.jpg,1,10804,18-29,2023-08-31_12h36.55.845,Recall,2021.2.3,60.02159575291948,
,DD015.jpg,0,FF015.jpg,0,,,,,0,35,35,14,imgFunc,9,NA,3.2308002000208944,216.4870894998312,219.87243452994153,2023-08-31 12:40:15.759595,2023-08-31 12:40:19.143541,FF015.jpg,0,10804,18-29,2023-08-31_12h36.55.845,Recall,2021.2.3,60.02159575291948,
,SD023.jpg,0,MF023.jpg,0,,,,,0,36,36,72,imgFunc,0,NA,1.6171081000939012,219.87680159998126,221.63529293006286,2023-08-31 12:40:19.155509,2023-08-31 12:40:20.910104,MF023.jpg,0,10804,18-29,2023-08-31_12h36.55.845,Recall,2021.2.3,60.02159575291948,
,L_DD502.jpg,1,L_FF502.jpg,1,,,,,0,37,37,41,imgFunc,9,NA,6.560497800121084,221.63773659989238,228.32747933012433,2023-08-31 12:40:20.923039,2023-08-31 12:40:27.609492,L_FF502.jpg,1,10804,18-29,2023-08-31_12h36.55.845,Recall,2021.2.3,60.02159575291948,
,DD009.jpg,0,FF009.jpg,0,,,,,0,38,38,8,imgFunc,1,NA,1.4512044999282807,228.36297499993816,229.96315665962175,2023-08-31 12:40:27.634389,2023-08-31 12:40:29.225785,FF009.jpg,0,10804,18-29,2023-08-31_12h36.55.845,Recall,2021.2.3,60.02159575291948,
,L_DD509.jpg,1,L_FF509.jpg,1,,,,,0,39,39,48,imgFunc,0,NA,2.0639555999077857,229.9421669000294,232.1303299299907,2023-08-31 12:40:29.239770,2023-08-31 12:40:31.426055,L_FF509.jpg,1,10804,18-29,2023-08-31_12h36.55.845,Recall,2021.2.3,60.02159575291948,
,L_SD501.jpg,1,L_MF501.jpg,1,,,,,0,40,40,90,imgFunc,9,NA,4.0853873998858035,232.14495299989358,236.35232243011706,2023-08-31 12:40:31.439019,2023-08-31 12:40:35.642362,L_MF501.jpg,1,10804,18-29,2023-08-31_12h36.55.845,Recall,2021.2.3,60.02159575291948,
,SD016.jpg,0,MF016.jpg,0,,,,,0,41,41,65,imgFunc,9,NA,1.55838489998132,236.36762619996443,238.05578192975372,2023-08-31 12:40:35.656288,2023-08-31 12:40:37.342289,MF016.jpg,0,10804,18-29,2023-08-31_12h36.55.845,Recall,2021.2.3,60.02159575291948,
,DD028.jpg,0,FF028.jpg,0,,,,,0,42,42,27,imgFunc,9,NA,2.698555199895054,238.07561889989302,240.91673395992257,2023-08-31 12:40:37.363218,2023-08-31 12:40:40.191603,FF028.jpg,0,10804,18-29,2023-08-31_12h36.55.845,Recall,2021.2.3,60.02159575291948,
,SD010.jpg,0,MF010.jpg,0,,,,,0,43,43,59,imgFunc,1,NA,2.094150000018999,240.92005439987406,243.1426869300194,2023-08-31 12:40:40.205529,2023-08-31 12:40:42.425631,MF010.jpg,0,10804,18-29,2023-08-31_12h36.55.845,Recall,2021.2.3,60.02159575291948,
,DD036.jpg,0,FF036.jpg,0,,,,,0,44,44,35,imgFunc,0,NA,2.2375476001761854,243.1444071000442,245.5168874298688,2023-08-31 12:40:42.438595,2023-08-31 12:40:44.808505,FF036.jpg,0,10804,18-29,2023-08-31_12h36.55.845,Recall,2021.2.3,60.02159575291948,
,DD033.jpg,0,FF033.jpg,0,,,,,0,45,45,32,imgFunc,9,NA,1.772239499958232,245.52973619988188,247.43709142995067,2023-08-31 12:40:44.821470,2023-08-31 12:40:46.724784,FF033.jpg,0,10804,18-29,2023-08-31_12h36.55.845,Recall,2021.2.3,60.02159575291948,
,L_SD507.jpg,1,L_MF507.jpg,1,,,,,0,46,46,96,imgFunc,0,NA,1.57987489993684,247.45025789993815,249.1579406298697,2023-08-31 12:40:46.737749,2023-08-31 12:40:48.441894,L_MF507.jpg,1,10804,18-29,2023-08-31_12h36.55.845,Recall,2021.2.3,60.02159575291948,
,DD020.jpg,0,FF020.jpg,0,,,,,0,47,47,19,imgFunc,9,NA,1.3743439000099897,249.17565170000307,250.69819436012767,2023-08-31 12:40:48.462861,2023-08-31 12:40:49.974333,FF020.jpg,0,10804,18-29,2023-08-31_12h36.55.845,Recall,2021.2.3,60.02159575291948,
,SD009.jpg,0,MF009.jpg,0,,,,,0,48,48,58,imgFunc,9,NA,2.1496351999230683,250.6884779999964,252.96260882983916,2023-08-31 12:40:49.987259,2023-08-31 12:40:52.257101,MF009.jpg,0,10804,18-29,2023-08-31_12h36.55.845,Recall,2021.2.3,60.02159575291948,
,DD013.jpg,0,FF013.jpg,0,,,,,0,49,49,12,imgFunc,0,NA,1.474077200051397,252.98004499985836,254.58571112970822,2023-08-31 12:40:52.271064,2023-08-31 12:40:53.874257,FF013.jpg,0,10804,18-29,2023-08-31_12h36.55.845,Recall,2021.2.3,60.02159575291948,
,SD013.jpg,0,MF013.jpg,0,,,,,0,50,50,62,imgFunc,1,NA,3.139118699822575,254.59496050002053,257.8695845298935,2023-08-31 12:40:53.887187,2023-08-31 12:40:57.157345,MF013.jpg,0,10804,18-29,2023-08-31_12h36.55.845,Recall,2021.2.3,60.02159575291948,
,SD007.jpg,0,MF007.jpg,0,,,,,0,51,51,56,imgFunc,1,NA,2.8875273999292403,257.88635819987394,260.91096335998736,2023-08-31 12:40:57.178311,2023-08-31 12:41:00.190713,MF007.jpg,0,10804,18-29,2023-08-31_12h36.55.845,Recall,2021.2.3,60.02159575291948,
,L_DD510.jpg,1,L_FF510.jpg,1,,,,,0,52,52,49,imgFunc,1,NA,2.024732899852097,260.90944459987804,263.0646297298372,2023-08-31 12:41:00.204705,2023-08-31 12:41:02.356610,L_FF510.jpg,1,10804,18-29,2023-08-31_12h36.55.845,Recall,2021.2.3,60.02159575291948,
,DD008.jpg,0,FF008.jpg,0,,,,,0,53,53,7,imgFunc,0,NA,1.183394500054419,263.0789295998402,264.3842527298257,2023-08-31 12:41:02.370542,2023-08-31 12:41:03.673792,FF008.jpg,0,10804,18-29,2023-08-31_12h36.55.845,Recall,2021.2.3,60.02159575291948,
,DD026.jpg,0,FF026.jpg,0,,,,,0,54,54,25,imgFunc,9,NA,1.6631344999186695,264.3908200999722,266.18126412993297,2023-08-31 12:41:03.686758,2023-08-31 12:41:05.473586,FF026.jpg,0,10804,18-29,2023-08-31_12h36.55.845,Recall,2021.2.3,60.02159575291948,
,SD030.jpg,0,MF030.jpg,0,,,,,0,55,55,79,imgFunc,9,NA,1.4016048000194132,266.2045165000018,267.7432792298496,2023-08-31 12:41:05.487529,2023-08-31 12:41:07.023245,MF030.jpg,0,10804,18-29,2023-08-31_12h36.55.845,Recall,2021.2.3,60.02159575291948,
,SD022.jpg,0,MF022.jpg,0,,,,,0,56,56,71,imgFunc,9,NA,1.5971029999200255,267.7528239998501,269.49178065988235,2023-08-31 12:41:07.045152,2023-08-31 12:41:08.773371,MF022.jpg,0,10804,18-29,2023-08-31_12h36.55.845,Recall,2021.2.3,60.02159575291948,
,DD034.jpg,0,FF034.jpg,0,,,,,0,57,57,33,imgFunc,0,NA,1.4083075998350978,269.4938081,271.033368229866,2023-08-31 12:41:08.786336,2023-08-31 12:41:10.323380,FF034.jpg,0,10804,18-29,2023-08-31_12h36.55.845,Recall,2021.2.3,60.02159575291948,
,SD037.jpg,0,MF037.jpg,0,,,,,0,58,58,86,imgFunc,1,NA,1.586087099974975,271.04391579981893,272.7670601296704,2023-08-31 12:41:10.336369,2023-08-31 12:41:12.056042,MF037.jpg,0,10804,18-29,2023-08-31_12h36.55.845,Recall,2021.2.3,60.02159575291948,
,L_DD501.jpg,1,L_FF501.jpg,1,,,,,0,59,59,40,imgFunc,0,NA,0.9991383000742644,272.78294599987566,273.9218337298371,2023-08-31 12:41:12.069996,2023-08-31 12:41:13.206813,L_FF501.jpg,1,10804,18-29,2023-08-31_12h36.55.845,Recall,2021.2.3,60.02159575291948,
,L_DD503.jpg,1,L_FF503.jpg,1,,,,,0,60,60,42,imgFunc,9,NA,1.4755277000367641,273.93858389998786,275.5646562599577,2023-08-31 12:41:13.226758,2023-08-31 12:41:14.839890,L_FF503.jpg,1,10804,18-29,2023-08-31_12h36.55.845,Recall,2021.2.3,60.02159575291948,
,DD003.jpg,0,FF003.jpg,0,,,,,0,61,61,2,imgFunc,9,NA,1.3687315999995917,275.5493977998849,277.04064152995124,2023-08-31 12:41:14.851858,2023-08-31 12:41:16.339297,FF003.jpg,0,10804,18-29,2023-08-31_12h36.55.845,Recall,2021.2.3,60.02159575291948,
,DD032.jpg,0,FF032.jpg,0,,,,,0,62,62,31,imgFunc,1,NA,1.3214531000703573,277.0526367998682,278.49493232998066,2023-08-31 12:41:16.351264,2023-08-31 12:41:17.789061,FF032.jpg,0,10804,18-29,2023-08-31_12h36.55.845,Recall,2021.2.3,60.02159575291948,
,DD022.jpg,0,FF022.jpg,0,,,,,0,63,63,21,imgFunc,0,NA,1.3443520998116583,278.5016193999909,279.97456003003754,2023-08-31 12:41:17.801985,2023-08-31 12:41:19.272252,FF022.jpg,0,10804,18-29,2023-08-31_12h36.55.845,Recall,2021.2.3,60.02159575291948,
,SD021.jpg,0,MF021.jpg,0,,,,,0,64,64,70,imgFunc,9,NA,1.7233691001310945,279.9947275999002,281.85293453000486,2023-08-31 12:41:19.284190,2023-08-31 12:41:21.138830,MF021.jpg,0,10804,18-29,2023-08-31_12h36.55.845,Recall,2021.2.3,60.02159575291948,
,DD037.jpg,0,FF037.jpg,0,,,,,0,65,65,36,imgFunc,1,NA,1.2484982998576015,281.87748469994403,283.26631615986116,2023-08-31 12:41:21.160744,2023-08-31 12:41:22.538287,FF037.jpg,0,10804,18-29,2023-08-31_12h36.55.845,Recall,2021.2.3,60.02159575291948,
,DD018.jpg,0,FF018.jpg,0,,,,,0,66,66,17,imgFunc,0,NA,2.51501559978351,283.2509037000127,285.89075573021546,2023-08-31 12:41:22.551252,2023-08-31 12:41:25.187898,FF018.jpg,0,10804,18-29,2023-08-31_12h36.55.845,Recall,2021.2.3,60.02159575291948,
,DD029.jpg,0,FF029.jpg,0,,,,,0,67,67,28,imgFunc,0,NA,1.662242199992761,285.9118565998506,287.69953932985663,2023-08-31 12:41:25.202858,2023-08-31 12:41:26.988171,FF029.jpg,0,10804,18-29,2023-08-31_12h36.55.845,Recall,2021.2.3,60.02159575291948,
,SD017.jpg,0,MF017.jpg,0,,,,,0,68,68,66,imgFunc,9,NA,6.294340099906549,287.711648899829,294.13414542982355,2023-08-31 12:41:27.001140,2023-08-31 12:41:33.420930,MF017.jpg,0,10804,18-29,2023-08-31_12h36.55.845,Recall,2021.2.3,60.02159575291948,
,L_SD510.jpg,1,L_MF510.jpg,1,,,,,0,69,69,99,imgFunc,0,NA,0.9945344000589103,294.163541899994,295.2978822600562,2023-08-31 12:41:33.445823,2023-08-31 12:41:34.571488,L_MF510.jpg,1,10804,18-29,2023-08-31_12h36.55.845,Recall,2021.2.3,60.02159575291948,
,SD027.jpg,0,MF027.jpg,0,,,,,0,70,70,76,imgFunc,9,NA,1.9480045000091195,295.2899263999425,297.3634647298604,2023-08-31 12:41:34.584477,2023-08-31 12:41:36.653945,MF027.jpg,0,10804,18-29,2023-08-31_12h36.55.845,Recall,2021.2.3,60.02159575291948,
,DD025.jpg,0,FF025.jpg,0,,,,,0,71,71,24,imgFunc,9,NA,1.410775699885562,297.3636417000089,298.88487122999504,2023-08-31 12:41:36.668932,2023-08-31 12:41:38.188480,FF025.jpg,0,10804,18-29,2023-08-31_12h36.55.845,Recall,2021.2.3,60.02159575291948,
,SD004.jpg,0,MF004.jpg,0,,,,,0,72,72,53,imgFunc,9,NA,1.5358190000988543,298.90243799984455,300.56105032982305,2023-08-31 12:41:38.200468,2023-08-31 12:41:39.854435,MF004.jpg,0,10804,18-29,2023-08-31_12h36.55.845,Recall,2021.2.3,60.02159575291948,
,DD004.jpg,0,FF004.jpg,0,,,,,0,73,73,3,imgFunc,9,NA,2.187488699797541,300.57065179990605,302.88013002998196,2023-08-31 12:41:39.866406,2023-08-31 12:41:42.171504,FF004.jpg,0,10804,18-29,2023-08-31_12h36.55.845,Recall,2021.2.3,60.02159575291948,
,L_SD508.jpg,1,L_MF508.jpg,1,,,,,0,74,74,97,imgFunc,0,NA,2.150968999834731,302.8954677998554,305.18610425968654,2023-08-31 12:41:42.192473,2023-08-31 12:41:44.471139,L_MF508.jpg,1,10804,18-29,2023-08-31_12h36.55.845,Recall,2021.2.3,60.02159575291948,
,SD014.jpg,0,MF014.jpg,0,,,,,0,75,75,63,imgFunc,0,NA,1.1787936000619084,305.17951969988644,306.48854493000545,2023-08-31 12:41:44.483110,2023-08-31 12:41:45.787144,MF014.jpg,0,10804,18-29,2023-08-31_12h36.55.845,Recall,2021.2.3,60.02159575291948,
,SD019.jpg,0,MF019.jpg,0,,,,,0,76,76,68,imgFunc,9,NA,1.398166400147602,306.4962146000471,308.0215088301338,2023-08-31 12:41:45.799093,2023-08-31 12:41:47.320577,MF019.jpg,0,10804,18-29,2023-08-31_12h36.55.845,Recall,2021.2.3,60.02159575291948,
,DD006.jpg,0,FF006.jpg,0,,,,,0,77,77,5,imgFunc,1,NA,1.646220900118351,308.04019559989683,309.8159179298673,2023-08-31 12:41:47.332548,2023-08-31 12:41:49.103884,FF006.jpg,0,10804,18-29,2023-08-31_12h36.55.845,Recall,2021.2.3,60.02159575291948,
,L_SD506.jpg,1,L_MF506.jpg,1,,,,,0,78,78,95,imgFunc,1,NA,1.8069249999243766,309.8314942000434,311.7767109598499,2023-08-31 12:41:49.122837,2023-08-31 12:41:51.054003,L_MF506.jpg,1,10804,18-29,2023-08-31_12h36.55.845,Recall,2021.2.3,60.02159575291948,
,L_DD507.jpg,1,L_FF507.jpg,1,,,,,0,79,79,46,imgFunc,1,NA,1.679016900015995,311.76746409991756,313.57402182999067,2023-08-31 12:41:51.066971,2023-08-31 12:41:52.870131,L_FF507.jpg,1,10804,18-29,2023-08-31_12h36.55.845,Recall,2021.2.3,60.02159575291948,
,SD025.jpg,0,MF025.jpg,0,,,,,0,80,80,74,imgFunc,0,NA,1.024462000001222,313.57410189998336,314.7170845302753,2023-08-31 12:41:52.882102,2023-08-31 12:41:54.020461,MF025.jpg,0,10804,18-29,2023-08-31_12h36.55.845,Recall,2021.2.3,60.02159575291948,
,DD010.jpg,0,FF010.jpg,0,,,,,0,81,81,9,imgFunc,0,NA,1.3520225998945534,314.7343881998677,316.20988572994247,2023-08-31 12:41:54.032432,2023-08-31 12:41:55.503431,FF010.jpg,0,10804,18-29,2023-08-31_12h36.55.845,Recall,2021.2.3,60.02159575291948,
,L_SD509.jpg,1,L_MF509.jpg,1,,,,,0,82,82,98,imgFunc,9,NA,1.7947553999256343,316.21176610002294,318.12016362999566,2023-08-31 12:41:55.515425,2023-08-31 12:41:57.420147,L_MF509.jpg,1,10804,18-29,2023-08-31_12h36.55.845,Recall,2021.2.3,60.02159575291948,
,SD026.jpg,0,MF026.jpg,0,,,,,0,83,83,75,imgFunc,9,NA,1.3866053000092506,318.13989549991675,319.66025675972924,2023-08-31 12:41:57.442109,2023-08-31 12:41:58.952685,MF026.jpg,0,10804,18-29,2023-08-31_12h36.55.845,Recall,2021.2.3,60.02159575291948,
,L_SD504.jpg,1,L_MF504.jpg,1,,,,,0,84,84,93,imgFunc,9,NA,1.0923288001213223,319.6657718999777,320.8903366299346,2023-08-31 12:41:58.964550,2023-08-31 12:42:00.185887,L_MF504.jpg,1,10804,18-29,2023-08-31_12h36.55.845,Recall,2021.2.3,60.02159575291948,
,DD039.jpg,0,FF039.jpg,0,,,,,0,85,85,38,imgFunc,0,NA,1.0649111000820994,320.89341340004466,322.0858532297425,2023-08-31 12:42:00.197877,2023-08-31 12:42:01.386740,FF039.jpg,0,10804,18-29,2023-08-31_12h36.55.845,Recall,2021.2.3,60.02159575291948,
,DD030.jpg,0,FF030.jpg,0,,,,,0,86,86,29,imgFunc,0,NA,1.6039556998293847,322.09856139984913,323.823982629925,2023-08-31 12:42:01.397714,2023-08-31 12:42:03.119164,FF030.jpg,0,10804,18-29,2023-08-31_12h36.55.845,Recall,2021.2.3,60.02159575291948,
,DD007.jpg,0,FF007.jpg,0,,,,,0,87,87,6,imgFunc,0,NA,1.0678239001426846,323.83441599993967,325.02919516013935,2023-08-31 12:42:03.138116,2023-08-31 12:42:04.319126,FF007.jpg,0,10804,18-29,2023-08-31_12h36.55.845,Recall,2021.2.3,60.02159575291948,
,SD001.jpg,0,MF001.jpg,0,,,,,0,88,88,50,imgFunc,9,NA,1.0578389998991042,325.02832909999415,326.20425972994417,2023-08-31 12:42:04.331097,2023-08-31 12:42:05.502354,MF001.jpg,0,10804,18-29,2023-08-31_12h36.55.845,Recall,2021.2.3,60.02159575291948,
,SD006.jpg,0,MF006.jpg,0,,,,,0,89,89,55,imgFunc,0,NA,1.3035526000894606,326.2067529000342,327.6320127299987,2023-08-31 12:42:05.514346,2023-08-31 12:42:06.935829,MF006.jpg,0,10804,18-29,2023-08-31_12h36.55.845,Recall,2021.2.3,60.02159575291948,
,SD035.jpg,0,MF035.jpg,0,,,,,0,90,90,84,imgFunc,9,NA,1.2578050999436527,327.6443074999843,329.0200560297817,2023-08-31 12:42:06.947799,2023-08-31 12:42:08.318874,MF035.jpg,0,10804,18-29,2023-08-31_12h36.55.845,Recall,2021.2.3,60.02159575291948,
,DD024.jpg,0,FF024.jpg,0,,,,,0,91,91,23,imgFunc,0,NA,0.9401032999157906,329.0343563000206,330.10950283007696,2023-08-31 12:42:08.330867,2023-08-31 12:42:09.401965,FF024.jpg,0,10804,18-29,2023-08-31_12h36.55.845,Recall,2021.2.3,60.02159575291948,
,SD038.jpg,0,MF038.jpg,0,,,,,0,92,92,87,imgFunc,2,NA,1.7650377000682056,330.12953219981864,332.0339590597432,2023-08-31 12:42:09.424929,2023-08-31 12:42:11.318925,MF038.jpg,0,10804,18-29,2023-08-31_12h36.55.845,Recall,2021.2.3,60.02159575291948,
,SD028.jpg,0,MF028.jpg,0,,,,,0,93,93,77,imgFunc,2,NA,1.283133199904114,332.03528989991173,333.4441189300269,2023-08-31 12:42:11.330901,2023-08-31 12:42:12.735370,MF028.jpg,0,10804,18-29,2023-08-31_12h36.55.845,Recall,2021.2.3,60.02159575291948,
,SD002.jpg,0,MF002.jpg,0,,,,,0,94,94,51,imgFunc,0,NA,1.5198005998972803,333.44622589997016,335.0884842299856,2023-08-31 12:42:12.747362,2023-08-31 12:42:14.385082,MF002.jpg,0,10804,18-29,2023-08-31_12h36.55.845,Recall,2021.2.3,60.02159575291948,
,SD036.jpg,0,MF036.jpg,0,,,,,0,95,95,85,imgFunc,0,NA,1.1686971001327038,335.0934236999601,336.3848277297802,2023-08-31 12:42:14.397075,2023-08-31 12:42:15.685033,MF036.jpg,0,10804,18-29,2023-08-31_12h36.55.845,Recall,2021.2.3,60.02159575291948,
,DD035.jpg,0,FF035.jpg,0,,,,,0,96,96,34,imgFunc,9,NA,1.741993899922818,336.4083817000501,338.28597456007265,2023-08-31 12:42:15.704018,2023-08-31 12:42:17.568272,FF035.jpg,0,10804,18-29,2023-08-31_12h36.55.845,Recall,2021.2.3,60.02159575291948,
,SD020.jpg,0,MF020.jpg,0,,,,,0,97,97,69,imgFunc,9,NA,1.0314100000541657,338.2710102000274,339.41339942999184,2023-08-31 12:42:17.580202,2023-08-31 12:42:18.718241,MF020.jpg,0,10804,18-29,2023-08-31_12h36.55.845,Recall,2021.2.3,60.02159575291948,
,DD002.jpg,0,FF002.jpg,0,,,,,0,98,98,1,imgFunc,9,NA,1.5419459999538958,339.44010809995234,341.113764929818,2023-08-31 12:42:18.731249,2023-08-31 12:42:20.400686,FF002.jpg,0,10804,18-29,2023-08-31_12h36.55.845,Recall,2021.2.3,60.02159575291948,
,SD011.jpg,0,MF011.jpg,0,,,,,0,99,99,60,imgFunc,0,NA,0.7953036001417786,341.11471419990994,342.03694233018905,2023-08-31 12:42:20.414616,2023-08-31 12:42:21.334327,MF011.jpg,0,10804,18-29,2023-08-31_12h36.55.845,Recall,2021.2.3,60.02159575291948,
,,,,,,,,,,,,,instrFunc,space,"Great work! 

 Now you will switch to the other image type.

 Press the spacebar whenever you are ready to start.",2.7476049000397325,341.9463023999706,344.74078772985376,2023-08-31 12:42:21.336344,2023-08-31 12:42:24.116079,,,10804,18-29,2023-08-31_12h36.55.845,Recall,2021.2.3,60.02159575291948,
,SD033.jpg,0,MF033.jpg,0,,,,,0,0,0,82,imgFunc,0,NA,4.453896099934354,344.848380099982,349.4061970899347,2023-08-31 12:42:24.162955,2023-08-31 12:42:28.717671,SD033.jpg,0,10804,18-29,2023-08-31_12h36.55.845,Recall,2021.2.3,60.02159575291948,
,SD021.jpg,0,MF021.jpg,0,,,,,0,1,1,70,imgFunc,9,NA,1.9569618001114577,349.4091910000425,351.46586072980426,2023-08-31 12:42:28.730640,2023-08-31 12:42:30.783587,SD021.jpg,0,10804,18-29,2023-08-31_12h36.55.845,Recall,2021.2.3,60.02159575291948,
,DD004.jpg,0,FF004.jpg,0,,,,,0,2,2,3,imgFunc,1,NA,1.244695199886337,351.48176809982397,352.8399238297716,2023-08-31 12:42:30.795581,2023-08-31 12:42:32.150138,DD004.jpg,0,10804,18-29,2023-08-31_12h36.55.845,Recall,2021.2.3,60.02159575291948,
,DD026.jpg,0,FF026.jpg,0,,,,,0,3,3,25,imgFunc,0,NA,1.7186721998732537,352.84758910001256,354.67938695987687,2023-08-31 12:42:32.167118,2023-08-31 12:42:33.983609,DD026.jpg,0,10804,18-29,2023-08-31_12h36.55.845,Recall,2021.2.3,60.02159575291948,
,SD040.jpg,0,MF040.jpg,0,,,,,0,4,4,89,imgFunc,9,NA,2.4844490999821573,354.6740909998771,357.2659097299911,2023-08-31 12:42:33.995580,2023-08-31 12:42:36.582979,SD040.jpg,0,10804,18-29,2023-08-31_12h36.55.845,Recall,2021.2.3,60.02159575291948,
,L_DD502.jpg,1,L_FF502.jpg,1,,,,,0,5,5,41,imgFunc,0,NA,1.8406048999167979,357.2697987998836,359.21129582985304,2023-08-31 12:42:36.595940,2023-08-31 12:42:38.533308,L_DD502.jpg,1,10804,18-29,2023-08-31_12h36.55.845,Recall,2021.2.3,60.02159575291948,
,DD030.jpg,0,FF030.jpg,0,,,,,0,6,6,29,imgFunc,9,NA,4.078742899931967,359.2232444998808,363.41478053014725,2023-08-31 12:42:38.545279,2023-08-31 12:42:42.732909,DD030.jpg,0,10804,18-29,2023-08-31_12h36.55.845,Recall,2021.2.3,60.02159575291948,
,SD037.jpg,0,MF037.jpg,0,,,,,0,7,7,86,imgFunc,2,NA,3.249119299929589,363.42931449995376,366.7855186299421,2023-08-31 12:42:42.745879,2023-08-31 12:42:46.098764,SD037.jpg,0,10804,18-29,2023-08-31_12h36.55.845,Recall,2021.2.3,60.02159575291948,
,DD027.jpg,0,FF027.jpg,0,,,,,0,8,8,26,imgFunc,2,NA,2.797935599926859,366.8085651998408,369.73295865999535,2023-08-31 12:42:46.119736,2023-08-31 12:42:49.032481,DD027.jpg,0,10804,18-29,2023-08-31_12h36.55.845,Recall,2021.2.3,60.02159575291948,
,L_SD509.jpg,1,L_MF509.jpg,1,,,,,0,9,9,98,imgFunc,1,NA,1.2139579998329282,369.7200362998992,371.02875302988105,2023-08-31 12:42:49.044073,2023-08-31 12:42:50.348867,L_SD509.jpg,1,10804,18-29,2023-08-31_12h36.55.845,Recall,2021.2.3,60.02159575291948,
,SD008.jpg,0,MF008.jpg,0,,,,,0,10,10,57,imgFunc,0,NA,0.9681815998628736,371.03812649985775,372.11293092998676,2023-08-31 12:42:50.360863,2023-08-31 12:42:51.432232,SD008.jpg,0,10804,18-29,2023-08-31_12h36.55.845,Recall,2021.2.3,60.02159575291948,
,SD029.jpg,0,MF029.jpg,0,,,,,0,11,11,78,imgFunc,1,NA,1.42009470006451,372.12240529991686,373.6481379298493,2023-08-31 12:42:51.444203,2023-08-31 12:42:52.965414,SD029.jpg,0,10804,18-29,2023-08-31_12h36.55.845,Recall,2021.2.3,60.02159575291948,
,DD034.jpg,0,FF034.jpg,0,,,,,0,12,12,33,imgFunc,1,NA,1.1321475999429822,373.6741557000205,374.93443696014583,2023-08-31 12:42:52.985386,2023-08-31 12:42:54.232159,DD034.jpg,0,10804,18-29,2023-08-31_12h36.55.845,Recall,2021.2.3,60.02159575291948,
,SD023.jpg,0,MF023.jpg,0,,,,,0,13,13,72,imgFunc,1,NA,1.2862710000481457,374.9279712999705,376.31741912988946,2023-08-31 12:42:54.245174,2023-08-31 12:42:55.631799,SD023.jpg,0,10804,18-29,2023-08-31_12h36.55.845,Recall,2021.2.3,60.02159575291948,
,DD005.jpg,0,FF005.jpg,0,,,,,0,14,14,4,imgFunc,0,NA,1.3313587000593543,376.32319559995085,377.7643076297827,2023-08-31 12:42:55.644762,2023-08-31 12:42:57.081883,DD005.jpg,0,10804,18-29,2023-08-31_12h36.55.845,Recall,2021.2.3,60.02159575291948,
,DD033.jpg,0,FF033.jpg,0,,,,,0,15,15,32,imgFunc,0,NA,2.1709091998636723,377.7713344998192,380.0469157299958,2023-08-31 12:42:57.093854,2023-08-31 12:42:59.364727,DD033.jpg,0,10804,18-29,2023-08-31_12h36.55.845,Recall,2021.2.3,60.02159575291948,
,SD005.jpg,0,MF005.jpg,0,,,,,0,16,16,54,imgFunc,9,NA,1.9173665000125766,380.0571298999712,382.0808553302195,2023-08-31 12:42:59.377653,2023-08-31 12:43:01.397910,SD005.jpg,0,10804,18-29,2023-08-31_12h36.55.845,Recall,2021.2.3,60.02159575291948,
,DD035.jpg,0,FF035.jpg,0,,,,,0,17,17,34,imgFunc,2,NA,2.2392361001111567,382.10315069998614,384.4615649599582,2023-08-31 12:43:01.418879,2023-08-31 12:43:03.764576,DD035.jpg,0,10804,18-29,2023-08-31_12h36.55.845,Recall,2021.2.3,60.02159575291948,
,DD009.jpg,0,FF009.jpg,0,,,,,0,18,18,8,imgFunc,1,NA,1.3477427000179887,384.4506161999889,385.89300273009576,2023-08-31 12:43:03.776547,2023-08-31 12:43:05.214391,DD009.jpg,0,10804,18-29,2023-08-31_12h36.55.845,Recall,2021.2.3,60.02159575291948,
,SD022.jpg,0,MF022.jpg,0,,,,,0,19,19,71,imgFunc,1,NA,1.5968687999993563,385.91357910004444,387.6208688300103,2023-08-31 12:43:05.227388,2023-08-31 12:43:06.930901,SD022.jpg,0,10804,18-29,2023-08-31_12h36.55.845,Recall,2021.2.3,60.02159575291948,
,L_DD504.jpg,1,L_FF504.jpg,1,,,,,0,20,20,43,imgFunc,0,NA,0.8312423001043499,387.6232387998607,388.56512452987954,2023-08-31 12:43:06.942893,2023-08-31 12:43:07.880934,L_DD504.jpg,1,10804,18-29,2023-08-31_12h36.55.845,Recall,2021.2.3,60.02159575291948,
,DD036.jpg,0,FF036.jpg,0,,,,,0,21,21,35,imgFunc,1,NA,1.1992675999645144,388.58274420001544,389.9108258599881,2023-08-31 12:43:07.899908,2023-08-31 12:43:09.214149,DD036.jpg,0,10804,18-29,2023-08-31_12h36.55.845,Recall,2021.2.3,60.02159575291948,
,DD025.jpg,0,FF025.jpg,0,,,,,0,22,22,24,imgFunc,0,NA,1.1861499999649823,389.908407199895,391.2004215295892,2023-08-31 12:43:09.226120,2023-08-31 12:43:10.513827,DD025.jpg,0,10804,18-29,2023-08-31_12h36.55.845,Recall,2021.2.3,60.02159575291948,
,SD025.jpg,0,MF025.jpg,0,,,,,0,23,23,74,imgFunc,0,NA,1.3281245999969542,391.2063926998526,392.6484417298343,2023-08-31 12:43:10.525826,2023-08-31 12:43:11.963745,SD025.jpg,0,10804,18-29,2023-08-31_12h36.55.845,Recall,2021.2.3,60.02159575291948,
,DD039.jpg,0,FF039.jpg,0,,,,,0,24,24,38,imgFunc,9,NA,1.0842495001852512,392.65030659991316,393.8428431299981,2023-08-31 12:43:11.975716,2023-08-31 12:43:13.163544,DD039.jpg,0,10804,18-29,2023-08-31_12h36.55.845,Recall,2021.2.3,60.02159575291948,
,DD032.jpg,0,FF032.jpg,0,,,,,0,25,25,31,imgFunc,9,NA,1.7656101000029594,393.87295609992,395.765406929655,2023-08-31 12:43:13.175545,2023-08-31 12:43:15.063816,DD032.jpg,0,10804,18-29,2023-08-31_12h36.55.845,Recall,2021.2.3,60.02159575291948,
,SD014.jpg,0,MF014.jpg,0,,,,,0,26,26,63,imgFunc,9,NA,1.9279294000007212,395.77455609990284,397.829528760165,2023-08-31 12:43:15.085782,2023-08-31 12:43:17.130042,SD014.jpg,0,10804,18-29,2023-08-31_12h36.55.845,Recall,2021.2.3,60.02159575291948,
,DD019.jpg,0,FF019.jpg,0,,,,,0,27,27,18,imgFunc,0,NA,2.761143999872729,397.8208891998511,400.69679682981223,2023-08-31 12:43:17.141929,2023-08-31 12:43:20.013748,DD019.jpg,0,10804,18-29,2023-08-31_12h36.55.845,Recall,2021.2.3,60.02159575291948,
,L_DD503.jpg,1,L_FF503.jpg,1,,,,,0,28,28,42,imgFunc,9,NA,1.4044277998618782,400.71408339985646,402.237655029865,2023-08-31 12:43:20.026717,2023-08-31 12:43:21.546410,L_DD503.jpg,1,10804,18-29,2023-08-31_12h36.55.845,Recall,2021.2.3,60.02159575291948,
,SD015.jpg,0,MF015.jpg,0,,,,,0,29,29,64,imgFunc,9,NA,2.5853930001612753,402.237121099839,404.92763923015445,2023-08-31 12:43:21.559379,2023-08-31 12:43:24.246535,SD015.jpg,0,10804,18-29,2023-08-31_12h36.55.845,Recall,2021.2.3,60.02159575291948,
,DD012.jpg,0,FF012.jpg,0,,,,,0,30,30,11,imgFunc,1,NA,1.6025051998440176,404.94740929990076,406.67193595995195,2023-08-31 12:43:24.266522,2023-08-31 12:43:25.978812,DD012.jpg,0,10804,18-29,2023-08-31_12h36.55.845,Recall,2021.2.3,60.02159575291948,
,SD020.jpg,0,MF020.jpg,0,,,,,0,31,31,69,imgFunc,0,NA,1.825892599998042,406.6924312999472,408.6451103298459,2023-08-31 12:43:25.993772,2023-08-31 12:43:27.945830,SD020.jpg,0,10804,18-29,2023-08-31_12h36.55.845,Recall,2021.2.3,60.02159575291948,
,SD012.jpg,0,MF012.jpg,0,,,,,0,32,32,61,imgFunc,0,NA,1.6424368000589311,408.6358164998237,410.3778419296723,2023-08-31 12:43:27.957668,2023-08-31 12:43:29.695803,SD012.jpg,0,10804,18-29,2023-08-31_12h36.55.845,Recall,2021.2.3,60.02159575291948,
,DD038.jpg,0,FF038.jpg,0,,,,,0,33,33,37,imgFunc,9,NA,3.1862765999976546,410.3882114998996,413.6798608296085,2023-08-31 12:43:29.707710,2023-08-31 12:43:32.995492,DD038.jpg,0,10804,18-29,2023-08-31_12h36.55.845,Recall,2021.2.3,60.02159575291948,
,SD006.jpg,0,MF006.jpg,0,,,,,0,34,34,55,imgFunc,0,NA,2.058333600172773,413.6921528999228,415.8672539300751,2023-08-31 12:43:33.007487,2023-08-31 12:43:35.178818,SD006.jpg,0,10804,18-29,2023-08-31_12h36.55.845,Recall,2021.2.3,60.02159575291948,
,DD037.jpg,0,FF037.jpg,0,,,,,0,35,35,36,imgFunc,0,NA,1.282379399985075,415.8922298999969,417.3012785599567,2023-08-31 12:43:35.198768,2023-08-31 12:43:36.595172,DD037.jpg,0,10804,18-29,2023-08-31_12h36.55.845,Recall,2021.2.3,60.02159575291948,
,SD002.jpg,0,MF002.jpg,0,,,,,0,36,36,51,imgFunc,0,NA,1.4967724001035094,417.27778290002607,418.8708600299433,2023-08-31 12:43:36.606145,2023-08-31 12:43:38.194983,SD002.jpg,0,10804,18-29,2023-08-31_12h36.55.845,Recall,2021.2.3,60.02159575291948,
,L_DD510.jpg,1,L_FF510.jpg,1,,,,,0,37,37,49,imgFunc,0,NA,1.7895434000529349,418.88885649992153,420.79767602984793,2023-08-31 12:43:38.206977,2023-08-31 12:43:40.111844,L_DD510.jpg,1,10804,18-29,2023-08-31_12h36.55.845,Recall,2021.2.3,60.02159575291948,
,DD040.jpg,0,FF040.jpg,0,,,,,0,38,38,39,imgFunc,1,NA,1.4884856999851763,420.8059941998217,422.39779532980174,2023-08-31 12:43:40.123833,2023-08-31 12:43:41.711795,DD040.jpg,0,10804,18-29,2023-08-31_12h36.55.845,Recall,2021.2.3,60.02159575291948,
,L_SD505.jpg,1,L_MF505.jpg,1,,,,,0,39,39,94,imgFunc,1,NA,1.6379879000596702,422.4165449999273,424.1780650599394,2023-08-31 12:43:41.730761,2023-08-31 12:43:43.478117,L_SD505.jpg,1,10804,18-29,2023-08-31_12h36.55.845,Recall,2021.2.3,60.02159575291948,
,SD013.jpg,0,MF013.jpg,0,,,,,0,40,40,62,imgFunc,2,NA,1.5558760000858456,424.16270689992234,425.82175142969936,2023-08-31 12:43:43.490088,2023-08-31 12:43:45.144533,SD013.jpg,0,10804,18-29,2023-08-31_12h36.55.845,Recall,2021.2.3,60.02159575291948,
,L_DD505.jpg,1,L_FF505.jpg,1,,,,,0,41,41,44,imgFunc,0,NA,2.570138700073585,425.83623329992406,428.5118164299056,2023-08-31 12:43:45.156450,2023-08-31 12:43:47.827862,L_DD505.jpg,1,10804,18-29,2023-08-31_12h36.55.845,Recall,2021.2.3,60.02159575291948,
,DD028.jpg,0,FF028.jpg,0,,,,,0,42,42,27,imgFunc,1,NA,1.2571771999355406,428.52533539989963,429.90068912971765,2023-08-31 12:43:47.839833,2023-08-31 12:43:49.211133,DD028.jpg,0,10804,18-29,2023-08-31_12h36.55.845,Recall,2021.2.3,60.02159575291948,
,DD003.jpg,0,FF003.jpg,0,,,,,0,43,43,2,imgFunc,0,NA,1.4897247001063079,429.90878869988956,431.517287530005,2023-08-31 12:43:49.223123,2023-08-31 12:43:50.827421,DD003.jpg,0,10804,18-29,2023-08-31_12h36.55.845,Recall,2021.2.3,60.02159575291948,
,SD038.jpg,0,MF038.jpg,0,,,,,0,44,44,87,imgFunc,0,NA,1.7047296999953687,431.5338001998607,433.3576984598767,2023-08-31 12:43:50.848390,2023-08-31 12:43:52.660292,SD038.jpg,0,10804,18-29,2023-08-31_12h36.55.845,Recall,2021.2.3,60.02159575291948,
,DD017.jpg,0,FF017.jpg,0,,,,,0,45,45,16,imgFunc,1,NA,1.0374141000211239,433.35277969995514,434.49517992977053,2023-08-31 12:43:52.672285,2023-08-31 12:43:53.810687,DD017.jpg,0,10804,18-29,2023-08-31_12h36.55.845,Recall,2021.2.3,60.02159575291948,
,DD023.jpg,0,FF023.jpg,0,,,,,0,46,46,22,imgFunc,2,NA,2.3207519999705255,434.50157779990695,436.9277311298065,2023-08-31 12:43:53.822658,2023-08-31 12:43:56.243739,DD023.jpg,0,10804,18-29,2023-08-31_12h36.55.845,Recall,2021.2.3,60.02159575291948,
,DD021.jpg,0,FF021.jpg,0,,,,,0,47,47,20,imgFunc,0,NA,1.1567720000166446,436.9457393998746,438.22171243000776,2023-08-31 12:43:56.255710,2023-08-31 12:43:57.526783,DD021.jpg,0,10804,18-29,2023-08-31_12h36.55.845,Recall,2021.2.3,60.02159575291948,
,DD014.jpg,0,FF014.jpg,0,,,,,0,48,48,13,imgFunc,0,NA,2.2436265000142157,438.2426928000059,440.61959776026197,2023-08-31 12:43:57.546636,2023-08-31 12:43:59.910146,DD014.jpg,0,10804,18-29,2023-08-31_12h36.55.845,Recall,2021.2.3,60.02159575291948,
,SD035.jpg,0,MF035.jpg,0,,,,,0,49,49,84,imgFunc,1,NA,1.070130500011146,440.6004677999299,441.77519843005575,2023-08-31 12:43:59.922139,2023-08-31 12:44:01.093351,SD035.jpg,0,10804,18-29,2023-08-31_12h36.55.845,Recall,2021.2.3,60.02159575291948,
,L_DD509.jpg,1,L_FF509.jpg,1,,,,,0,50,50,48,imgFunc,1,NA,1.593551800120622,441.7888903999701,443.4975071300287,2023-08-31 12:44:01.105322,2023-08-31 12:44:02.809098,L_DD509.jpg,1,10804,18-29,2023-08-31_12h36.55.845,Recall,2021.2.3,60.02159575291948,
,DD001.jpg,0,FF001.jpg,0,,,,,0,51,51,0,imgFunc,0,NA,1.4202165000606328,443.5142627998721,445.05685822991654,2023-08-31 12:44:02.821077,2023-08-31 12:44:04.359701,DD001.jpg,0,10804,18-29,2023-08-31_12h36.55.845,Recall,2021.2.3,60.02159575291948,
,SD018.jpg,0,MF018.jpg,0,,,,,0,52,52,67,imgFunc,2,NA,1.6940573998726904,445.06444849981926,446.8738619298674,2023-08-31 12:44:04.371672,2023-08-31 12:44:06.176363,SD018.jpg,0,10804,18-29,2023-08-31_12h36.55.845,Recall,2021.2.3,60.02159575291948,
,SD009.jpg,0,MF009.jpg,0,,,,,0,53,53,58,imgFunc,1,NA,1.7991566001437604,446.89528339984827,448.83504865993746,2023-08-31 12:44:06.197310,2023-08-31 12:44:08.126082,SD009.jpg,0,10804,18-29,2023-08-31_12h36.55.845,Recall,2021.2.3,60.02159575291948,
,SD026.jpg,0,MF026.jpg,0,,,,,0,54,54,75,imgFunc,1,NA,1.1410137999337167,448.8172487998381,450.05977062974125,2023-08-31 12:44:08.138053,2023-08-31 12:44:09.376532,SD026.jpg,0,10804,18-29,2023-08-31_12h36.55.845,Recall,2021.2.3,60.02159575291948,
,DD008.jpg,0,FF008.jpg,0,,,,,0,55,55,7,imgFunc,0,NA,1.3778091000858694,450.068437699927,451.55915802996606,2023-08-31 12:44:09.388503,2023-08-31 12:44:10.876001,DD008.jpg,0,10804,18-29,2023-08-31_12h36.55.845,Recall,2021.2.3,60.02159575291948,
,SD017.jpg,0,MF017.jpg,0,,,,,0,56,56,66,imgFunc,2,NA,2.267887399997562,451.57848729984835,453.96955142961815,2023-08-31 12:44:10.888742,2023-08-31 12:44:13.275694,SD017.jpg,0,10804,18-29,2023-08-31_12h36.55.845,Recall,2021.2.3,60.02159575291948,
,L_SD510.jpg,1,L_MF510.jpg,1,,,,,0,57,57,99,imgFunc,0,NA,2.907692299922928,453.9785437998362,457.00537935993634,2023-08-31 12:44:13.294679,2023-08-31 12:44:16.308363,L_SD510.jpg,1,10804,18-29,2023-08-31_12h36.55.845,Recall,2021.2.3,60.02159575291948,
,DD031.jpg,0,FF031.jpg,0,,,,,0,58,58,30,imgFunc,0,NA,2.0324511998333037,457.0140054000076,459.17038212995976,2023-08-31 12:44:16.321329,2023-08-31 12:44:18.475414,DD031.jpg,0,10804,18-29,2023-08-31_12h36.55.845,Recall,2021.2.3,60.02159575291948,
,DD022.jpg,0,FF022.jpg,0,,,,,0,59,59,21,imgFunc,1,NA,1.579682500101626,459.162794200005,460.8550241298508,2023-08-31 12:44:18.487385,2023-08-31 12:44:20.174953,DD022.jpg,0,10804,18-29,2023-08-31_12h36.55.845,Recall,2021.2.3,60.02159575291948,
,DD018.jpg,0,FF018.jpg,0,,,,,0,60,60,17,imgFunc,0,NA,2.619552099844441,460.8749942998402,463.6174761299044,2023-08-31 12:44:20.186924,2023-08-31 12:44:22.924978,DD018.jpg,0,10804,18-29,2023-08-31_12h36.55.845,Recall,2021.2.3,60.02159575291948,
,L_SD506.jpg,1,L_MF506.jpg,1,,,,,0,61,61,95,imgFunc,0,NA,1.3596987000200897,463.62274679983966,465.0981596298516,2023-08-31 12:44:22.936949,2023-08-31 12:44:24.408554,L_SD506.jpg,1,10804,18-29,2023-08-31_12h36.55.845,Recall,2021.2.3,60.02159575291948,
,SD027.jpg,0,MF027.jpg,0,,,,,0,62,62,76,imgFunc,0,NA,1.4881338998675346,465.1100490000099,466.7124439601321,2023-08-31 12:44:24.431497,2023-08-31 12:44:26.023989,SD027.jpg,0,10804,18-29,2023-08-31_12h36.55.845,Recall,2021.2.3,60.02159575291948,
,DD011.jpg,0,FF011.jpg,0,,,,,0,63,63,10,imgFunc,9,NA,0.8555588000454009,466.71840829984285,467.691020129947,2023-08-31 12:44:26.037950,2023-08-31 12:44:27.007590,DD011.jpg,0,10804,18-29,2023-08-31_12h36.55.845,Recall,2021.2.3,60.02159575291948,
,DD029.jpg,0,FF029.jpg,0,,,,,0,64,64,28,imgFunc,9,NA,2.7241559999529272,467.69818529998884,470.51968833012506,2023-08-31 12:44:27.021584,2023-08-31 12:44:29.841485,DD029.jpg,0,10804,18-29,2023-08-31_12h36.55.845,Recall,2021.2.3,60.02159575291948,
,L_SD502.jpg,1,L_MF502.jpg,1,,,,,0,65,65,91,imgFunc,9,NA,1.4809105000458658,470.52550640003756,472.1177705298178,2023-08-31 12:44:29.853456,2023-08-31 12:44:31.441100,L_SD502.jpg,1,10804,18-29,2023-08-31_12h36.55.845,Recall,2021.2.3,60.02159575291948,
,L_SD501.jpg,1,L_MF501.jpg,1,,,,,0,66,66,90,imgFunc,0,NA,2.39473560010083,472.1393911000341,474.64997035986744,2023-08-31 12:44:31.460052,2023-08-31 12:44:33.956936,L_SD501.jpg,1,10804,18-29,2023-08-31_12h36.55.845,Recall,2021.2.3,60.02159575291948,
,SD031.jpg,0,MF031.jpg,0,,,,,0,67,67,80,imgFunc,0,NA,0.8384046000428498,474.64013199997135,475.58174593001604,2023-08-31 12:44:33.968904,2023-08-31 12:44:34.907030,SD031.jpg,0,10804,18-29,2023-08-31_12h36.55.845,Recall,2021.2.3,60.02159575291948,
,SD003.jpg,0,MF003.jpg,0,,,,,0,68,68,52,imgFunc,9,NA,0.8585363999009132,475.5958877999801,476.5546563300304,2023-08-31 12:44:34.919044,2023-08-31 12:44:35.873731,SD003.jpg,0,10804,18-29,2023-08-31_12h36.55.845,Recall,2021.2.3,60.02159575291948,
,DD020.jpg,0,FF020.jpg,0,,,,,0,69,69,19,imgFunc,1,NA,2.000495200045407,476.5658829000313,478.67342242994346,2023-08-31 12:44:35.886628,2023-08-31 12:44:37.990406,DD020.jpg,0,10804,18-29,2023-08-31_12h36.55.845,Recall,2021.2.3,60.02159575291948,
,SD024.jpg,0,MF024.jpg,0,,,,,0,70,70,73,imgFunc,0,NA,1.3225151000078768,478.6836907998659,480.12510062986985,2023-08-31 12:44:38.002398,2023-08-31 12:44:39.440184,SD024.jpg,0,10804,18-29,2023-08-31_12h36.55.845,Recall,2021.2.3,60.02159575291948,
,SD001.jpg,0,MF001.jpg,0,,,,,0,71,71,50,imgFunc,0,NA,1.6882746000774205,480.1422535998281,481.9498784597963,2023-08-31 12:44:39.461154,2023-08-31 12:44:41.256862,SD001.jpg,0,10804,18-29,2023-08-31_12h36.55.845,Recall,2021.2.3,60.02159575291948,
,SD007.jpg,0,MF007.jpg,0,,,,,0,72,72,56,imgFunc,0,NA,1.2900636999402195,481.94823649991304,483.3541411298793,2023-08-31 12:44:41.269854,2023-08-31 12:44:42.673008,SD007.jpg,0,10804,18-29,2023-08-31_12h36.55.845,Recall,2021.2.3,60.02159575291948,
,SD034.jpg,0,MF034.jpg,0,,,,,0,73,73,83,imgFunc,0,NA,0.9187818998470902,483.35952749988064,484.3844783299137,2023-08-31 12:44:42.685693,2023-08-31 12:44:43.706521,SD034.jpg,0,10804,18-29,2023-08-31_12h36.55.845,Recall,2021.2.3,60.02159575291948,
,SD039.jpg,0,MF039.jpg,0,,,,,0,74,74,88,imgFunc,9,NA,1.162660000147298,484.3958511999808,485.67075772979297,2023-08-31 12:44:43.718492,2023-08-31 12:44:44.989389,SD039.jpg,0,10804,18-29,2023-08-31_12h36.55.845,Recall,2021.2.3,60.02159575291948,
,DD002.jpg,0,FF002.jpg,0,,,,,0,75,75,1,imgFunc,0,NA,1.8001343999058008,485.69387039984576,487.6181790297851,2023-08-31 12:44:45.002379,2023-08-31 12:44:46.922410,DD002.jpg,0,10804,18-29,2023-08-31_12h36.55.845,Recall,2021.2.3,60.02159575291948,
,L_SD503.jpg,1,L_MF503.jpg,1,,,,,0,76,76,92,imgFunc,0,NA,1.1298054999206215,487.61250899988227,488.85169392987154,2023-08-31 12:44:46.936352,2023-08-31 12:44:48.172851,L_SD503.jpg,1,10804,18-29,2023-08-31_12h36.55.845,Recall,2021.2.3,60.02159575291948,
,DD010.jpg,0,FF010.jpg,0,,,,,0,77,77,9,imgFunc,0,NA,1.5304914999287575,488.8598670999054,490.50124212983064,2023-08-31 12:44:48.184845,2023-08-31 12:44:49.822762,DD010.jpg,0,10804,18-29,2023-08-31_12h36.55.845,Recall,2021.2.3,60.02159575291948,
,L_DD506.jpg,1,L_FF506.jpg,1,,,,,0,78,78,45,imgFunc,2,NA,1.659841899992898,490.5224695999641,492.29718932998367,2023-08-31 12:44:49.834755,2023-08-31 12:44:51.605953,L_DD506.jpg,1,10804,18-29,2023-08-31_12h36.55.845,Recall,2021.2.3,60.02159575291948,
,SD028.jpg,0,MF028.jpg,0,,,,,0,79,79,77,imgFunc,0,NA,1.676457299850881,492.29757669987157,494.089331229683,2023-08-31 12:44:51.617924,2023-08-31 12:44:53.405786,SD028.jpg,0,10804,18-29,2023-08-31_12h36.55.845,Recall,2021.2.3,60.02159575291948,
,SD011.jpg,0,MF011.jpg,0,,,,,0,80,80,60,imgFunc,1,NA,0.8081503000576049,494.11028759996407,495.03362085996196,2023-08-31 12:44:53.427752,2023-08-31 12:44:54.339570,SD011.jpg,0,10804,18-29,2023-08-31_12h36.55.845,Recall,2021.2.3,60.02159575291948,
,SD032.jpg,0,MF032.jpg,0,,,,,0,81,81,81,imgFunc,0,NA,0.7030708999373019,495.0315163000487,495.8398548301775,2023-08-31 12:44:54.351563,2023-08-31 12:44:55.156118,SD032.jpg,0,10804,18-29,2023-08-31_12h36.55.845,Recall,2021.2.3,60.02159575291948,
,SD016.jpg,0,MF016.jpg,0,,,,,0,82,82,65,imgFunc,0,NA,1.0926618000958115,495.8419305998832,497.034348329762,2023-08-31 12:44:55.168089,2023-08-31 12:44:56.356085,SD016.jpg,0,10804,18-29,2023-08-31_12h36.55.845,Recall,2021.2.3,60.02159575291948,
,SD019.jpg,0,MF019.jpg,0,,,,,0,83,83,68,imgFunc,2,NA,1.4049762000795454,497.049297099933,498.5723821299616,2023-08-31 12:44:56.369076,2023-08-31 12:44:57.888515,SD019.jpg,0,10804,18-29,2023-08-31_12h36.55.845,Recall,2021.2.3,60.02159575291948,
,DD016.jpg,0,FF016.jpg,0,,,,,0,84,84,15,imgFunc,2,NA,1.6253509998787194,498.58917890000157,500.331233730074,2023-08-31 12:44:57.900509,2023-08-31 12:44:59.638562,DD016.jpg,0,10804,18-29,2023-08-31_12h36.55.845,Recall,2021.2.3,60.02159575291948,
,SD004.jpg,0,MF004.jpg,0,,,,,0,85,85,53,imgFunc,2,NA,1.4242559000849724,500.326251699822,501.8527376295533,2023-08-31 12:44:59.650533,2023-08-31 12:45:01.172270,SD004.jpg,0,10804,18-29,2023-08-31_12h36.55.845,Recall,2021.2.3,60.02159575291948,
,L_DD501.jpg,1,L_FF501.jpg,1,,,,,0,86,86,40,imgFunc,0,NA,1.027015300001949,501.85918339993805,503.000602229964,2023-08-31 12:45:01.184241,2023-08-31 12:45:02.321200,L_DD501.jpg,1,10804,18-29,2023-08-31_12h36.55.845,Recall,2021.2.3,60.02159575291948,
,DD015.jpg,0,FF015.jpg,0,,,,,0,87,87,14,imgFunc,9,NA,0.8114388999529183,503.01907159993425,503.9436769299209,2023-08-31 12:45:02.334189,2023-08-31 12:45:03.254878,DD015.jpg,0,10804,18-29,2023-08-31_12h36.55.845,Recall,2021.2.3,60.02159575291948,
,DD024.jpg,0,FF024.jpg,0,,,,,0,88,88,23,imgFunc,9,NA,1.16497560008429,503.9451065999456,505.2208090298809,2023-08-31 12:45:03.266870,2023-08-31 12:45:04.538533,DD024.jpg,0,10804,18-29,2023-08-31_12h36.55.845,Recall,2021.2.3,60.02159575291948,
,SD036.jpg,0,MF036.jpg,0,,,,,0,89,89,85,imgFunc,0,NA,0.6528212998528033,505.2575945998542,506.05131455976516,2023-08-31 12:45:04.557511,2023-08-31 12:45:05.338248,SD036.jpg,0,10804,18-29,2023-08-31_12h36.55.845,Recall,2021.2.3,60.02159575291948,
,L_SD508.jpg,1,L_MF508.jpg,1,,,,,0,90,90,97,imgFunc,0,NA,0.6916790998075157,506.0348433998879,506.84352672984824,2023-08-31 12:45:05.350219,2023-08-31 12:45:06.154978,L_SD508.jpg,1,10804,18-29,2023-08-31_12h36.55.845,Recall,2021.2.3,60.02159575291948,
,L_SD507.jpg,1,L_MF507.jpg,1,,,,,0,91,91,96,imgFunc,0,NA,1.9452010001987219,506.8452673999127,508.90026462986134,2023-08-31 12:45:06.167963,2023-08-31 12:45:08.220758,L_SD507.jpg,1,10804,18-29,2023-08-31_12h36.55.845,Recall,2021.2.3,60.02159575291948,
,SD010.jpg,0,MF010.jpg,0,,,,,0,92,92,59,imgFunc,0,NA,2.7431852999143302,508.91132579999976,511.7688068302814,2023-08-31 12:45:08.233745,2023-08-31 12:45:11.088007,SD010.jpg,0,10804,18-29,2023-08-31_12h36.55.845,Recall,2021.2.3,60.02159575291948,
,DD006.jpg,0,FF006.jpg,0,,,,,0,93,93,5,imgFunc,1,NA,1.4385391999967396,511.7837249999866,513.3423339300789,2023-08-31 12:45:11.099978,2023-08-31 12:45:12.654072,DD006.jpg,0,10804,18-29,2023-08-31_12h36.55.845,Recall,2021.2.3,60.02159575291948,
,SD030.jpg,0,MF030.jpg,0,,,,,0,94,94,79,imgFunc,0,NA,0.9320055001880974,513.3464501998387,514.3887344298419,2023-08-31 12:45:12.666043,2023-08-31 12:45:13.703719,SD030.jpg,0,10804,18-29,2023-08-31_12h36.55.845,Recall,2021.2.3,60.02159575291948,
,L_DD508.jpg,1,L_FF508.jpg,1,,,,,0,95,95,47,imgFunc,2,NA,2.3014135998673737,514.3930625999346,516.8005583300255,2023-08-31 12:45:13.716687,2023-08-31 12:45:16.120406,L_DD508.jpg,1,10804,18-29,2023-08-31_12h36.55.845,Recall,2021.2.3,60.02159575291948,
,L_SD504.jpg,1,L_MF504.jpg,1,,,,,0,96,96,93,imgFunc,0,NA,1.0896624000743032,516.8209042998496,518.0296334295999,2023-08-31 12:45:16.132399,2023-08-31 12:45:17.337227,L_SD504.jpg,1,10804,18-29,2023-08-31_12h36.55.845,Recall,2021.2.3,60.02159575291948,
,DD013.jpg,0,FF013.jpg,0,,,,,0,97,97,12,imgFunc,0,NA,1.2399460999295115,518.0463169999421,519.4220993299969,2023-08-31 12:45:17.349198,2023-08-31 12:45:18.720399,DD013.jpg,0,10804,18-29,2023-08-31_12h36.55.845,Recall,2021.2.3,60.02159575291948,
,L_DD507.jpg,1,L_FF507.jpg,1,,,,,0,98,98,46,imgFunc,9,NA,0.7241919999942183,519.4259096998721,520.2869458596688,2023-08-31 12:45:18.739374,2023-08-31 12:45:19.586914,L_DD507.jpg,1,10804,18-29,2023-08-31_12h36.55.845,Recall,2021.2.3,60.02159575291948,
,DD007.jpg,0,FF007.jpg,0,,,,,0,99,99,6,imgFunc,9,NA,0.7787686001975089,520.2837947998196,521.1767742298543,2023-08-31 12:45:19.598885,2023-08-31 12:45:20.486866,DD007.jpg,0,10804,18-29,2023-08-31_12h36.55.845,Recall,2021.2.3,60.02159575291948,
