onset	duration	trial_type	rt	resp	gender	image_left	image_right
0.624177800025791	3.00146019994281	decision	1.7826155999209732	left	M	MF001.jpg	MF002.jpg
4.1741628999589	1.00004149996676	win	n/a	n/a	n/a	MF001.jpg	MF002.jpg
11.1408974999795	3.00195169996005	decision	1.5326712999958545	right	M	MF003.jpg	MF004.jpg
14.6910214000382	1.0163395999698	loss	n/a	n/a	n/a	MF003.jpg	MF004.jpg
17.4575366999488	3.00113350001629	decision	2.0324414999922737	right	M	MF005.jpg	MF006.jpg
21.0075421000365	1.00000259990338	win	n/a	n/a	n/a	MF005.jpg	MF006.jpg
23.757560399943	3.0010973000899	decision	1.5324514000676572	left	F	FF001.jpg	FF002.jpg
27.3073692999315	1.00032170000486	win	n/a	n/a	n/a	FF001.jpg	FF002.jpg
32.1575948999962	3.00119119998999	decision	1.534309900016524	left	F	FF003.jpg	FF004.jpg
35.7075444000075	1.01649159996305	loss	n/a	n/a	n/a	FF003.jpg	FF004.jpg
42.6741847000085	3.00114399997983	decision	2.2836606999626383	right	M	MF007.jpg	MF008.jpg
46.2241900999798	1.00018700002693	loss	n/a	n/a	n/a	MF007.jpg	MF008.jpg
51.0742161999224	3.00136550003663	decision	2.0326650000642985	right	M	MF009.jpg	MF010.jpg
54.6240774999605	1.00011410005391	win	n/a	n/a	n/a	MF009.jpg	MF010.jpg
59.4741838999325	3.00066170003265	decision	1.783182300045155	right	F	FF005.jpg	FF006.jpg
63.0240980000235	1.0165819999529	loss	n/a	n/a	n/a	FF005.jpg	FF006.jpg
65.7907656999305	3.00212409999222	decision	2.5349012000951916	left	F	FF007.jpg	FF008.jpg
69.3406912999926	1.01674320001621	win	n/a	n/a	n/a	FF007.jpg	FF008.jpg
72.1074584999587	3.00138620007783	decision	1.7827284999657422	left	F	FF009.jpg	FF010.jpg
75.6573752999539	1.01662800007034	win	n/a	n/a	n/a	FF009.jpg	FF010.jpg
78.424138900009	3.00131879991386	decision	2.0337776999222115	right	F	FF011.jpg	FF012.jpg
81.9740662999684	1.00005070003681	loss	n/a	n/a	n/a	FF011.jpg	FF012.jpg
86.8240379999625	3.00150350003969	decision	2.0326496000634506	right	M	MF011.jpg	MF012.jpg
90.3740073000081	1.01671130000614	loss	n/a	n/a	n/a	MF011.jpg	MF012.jpg
93.1406093999976	3.00116139999591	decision	1.5326471999287605	left	M	MF013.jpg	MF014.jpg
96.6906869999366	1.01652400009334	win	n/a	n/a	n/a	MF013.jpg	MF014.jpg
103.65743589995	3.00128590001259	decision	1.783422700013034	left	M	MF015.jpg	MF016.jpg
107.2073599	1.00009969994426	win	n/a	n/a	n/a	MF015.jpg	MF016.jpg
109.957342799986	3.00113250000868	decision	1.7837295000208542	right	F	FF013.jpg	FF014.jpg
113.507340700016	1.01651350001339	win	n/a	n/a	n/a	FF013.jpg	FF014.jpg
120.474009900005	3.0018446999602	decision	2.033870599931106	right	M	MF017.jpg	MF018.jpg
124.023922199965	1.00011789996643	win	n/a	n/a	n/a	MF017.jpg	MF018.jpg
128.873948400025	3.00188769993838	decision	1.7833641999168321	right	F	FF015.jpg	FF016.jpg
132.423905199976	1.00004690000787	win	n/a	n/a	n/a	FF015.jpg	FF016.jpg
137.273930200026	3.00141579995397	decision	1.532887200010009	left	M	MF019.jpg	MF020.jpg
140.824467899976	1.01606769999489	win	n/a	n/a	n/a	MF019.jpg	MF020.jpg
145.690553499968	3.00107260001823	decision	1.7826059999642894	left	F	FF017.jpg	FF018.jpg
149.240514799953	1.0000652000308	win	n/a	n/a	n/a	FF017.jpg	FF018.jpg
162.490549599985	3.00128650001716	decision	1.783272200031206	left	M	MF021.jpg	MF022.jpg
166.040433799964	0.999999099993147	loss	n/a	n/a	n/a	MF021.jpg	MF022.jpg
172.990612599999	3.00082930002827	decision	2.0333096999675035	left	M	MF023.jpg	MF024.jpg
176.540619899984	1.01659280003514	win	n/a	n/a	n/a	MF023.jpg	MF024.jpg
183.507252199925	3.00202110002283	decision	1.7835798000451177	right	M	MF025.jpg	MF026.jpg
187.057118600002	1.00003340002149	loss	n/a	n/a	n/a	MF025.jpg	MF026.jpg
191.907224599971	3.0014864000259	decision	1.7840189000125974	left	M	MF027.jpg	MF028.jpg
195.457043999922	1.00007330009248	loss	n/a	n/a	n/a	MF027.jpg	MF028.jpg
198.207227999927	3.00078140001278	decision	2.282350000110455	right	F	FF019.jpg	FF020.jpg
201.757067000028	1.00006269989535	loss	n/a	n/a	n/a	FF019.jpg	FF020.jpg
204.507092099986	3.00119920005091	decision	1.7825167999835685	left	F	FF021.jpg	FF022.jpg
208.057151200017	1.0165232999716	win	n/a	n/a	n/a	FF021.jpg	FF022.jpg
215.023706299951	3.00075310003012	decision	1.533161100000143	right	M	MF029.jpg	MF030.jpg
218.57366679993	1.01672200008761	loss	n/a	n/a	n/a	MF029.jpg	MF030.jpg
225.540617199964	3.0010326000629	decision	1.7831308000022545	right	M	MF031.jpg	MF032.jpg
229.090451500029	1.01647039991803	win	n/a	n/a	n/a	MF031.jpg	MF032.jpg
233.956938399933	3.00131800002418	decision	1.7826300000306219	right	F	FF023.jpg	FF024.jpg
237.507166899974	1.0164708000375	loss	n/a	n/a	n/a	FF023.jpg	FF024.jpg
240.273682300001	3.00102289998904	decision	2.2831441999878734	right	F	FF025.jpg	FF026.jpg
243.82361750002	1.0000400999561	win	n/a	n/a	n/a	FF025.jpg	FF026.jpg
248.673653000034	3.00184399995487	decision	1.533956400002353	left	F	FF027.jpg	FF028.jpg
252.223572099931	1.01675609999802	loss	n/a	n/a	n/a	FF027.jpg	FF028.jpg
254.990404199925	3.00144430005457	decision	2.5326399001060054	left	M	MF033.jpg	MF034.jpg
258.540359599981	1.01662080001552	loss	n/a	n/a	n/a	MF033.jpg	MF034.jpg
261.306989699951	3.03658690000884	decision-missed	n/a	n/a	M	MF035.jpg	MF036.jpg
264.890337800025	1.00004939991049	loss	n/a	n/a	n/a	MF035.jpg	MF036.jpg
267.640175899956	3.00159360002726	decision	1.0333781000226736	left	M	MF037.jpg	MF038.jpg
271.190286700032	1.01656999997795	win	n/a	n/a	n/a	MF037.jpg	MF038.jpg
278.156824199948	3.00111830001697	decision	1.5326537999790162	right	F	FF029.jpg	FF030.jpg
281.706915699993	1.01653759996407	loss	n/a	n/a	n/a	FF029.jpg	FF030.jpg
284.473631300032	3.0008850999875	decision	1.5331609999993816	right	F	FF031.jpg	FF032.jpg
288.023589399992	1.01663620001636	loss	n/a	n/a	n/a	FF031.jpg	FF032.jpg
292.890299099963	3.00178070005495	decision	1.28348530002404	left	F	FF033.jpg	FF034.jpg
296.44014750002	1.0166427999502	win	n/a	n/a	n/a	FF033.jpg	FF034.jpg
303.406855299952	3.00194890005514	decision	1.2825371000217274	right	M	MF039.jpg	MF040.jpg
306.956732899998	1.00021279999055	loss	n/a	n/a	n/a	MF039.jpg	MF040.jpg
313.906875999994	3.00205879996065	decision	1.282589399954304	left	F	FF035.jpg	FF036.jpg
317.457223900012	1.01620149996597	win	n/a	n/a	n/a	FF035.jpg	FF036.jpg
320.223555000033	3.00103659997694	decision	1.5323741999454796	left	F	FF037.jpg	FF038.jpg
323.773507199949	1.01660329999868	loss	n/a	n/a	n/a	FF037.jpg	FF038.jpg
326.540213400032	3.04997049993835	decision	3.0494632999179885	left	F	FF039.jpg	FF040.jpg
330.140133799985	0.999998899991624	loss	n/a	n/a	n/a	FF039.jpg	FF040.jpg
