onset	duration	trial_type	response_time	Endowment	Endowment_pmod	Decision	Decision_pmod	Offer_pmod
4.579148	2	cue_social	n/a	32	9	n/a	n/a	n/a
4.579148	2	cue_social_high	n/a	32	8	n/a	n/a	n/a
12.201866	2	cue_social	n/a	16	-7	n/a	n/a	n/a
12.201866	2	cue_social_low	n/a	16	-8	n/a	n/a	n/a
19.041190	2	cue_social	n/a	32	9	n/a	n/a	n/a
19.041190	2	cue_social_high	n/a	32	8	n/a	n/a	n/a
25.807962	2	cue_nonsocial	n/a	32	8	n/a	n/a	n/a
25.807962	2	cue_nonsocial_high	n/a	32	9	n/a	n/a	n/a
32.703037	2	cue_social	n/a	16	-7	n/a	n/a	n/a
32.703037	2	cue_social_low	n/a	16	-8	n/a	n/a	n/a
39.474567	2	cue_nonsocial	n/a	16	-8	n/a	n/a	n/a
39.474567	2	cue_nonsocial_low	n/a	16	-7	n/a	n/a	n/a
50.414230	2	cue_social	n/a	16	-7	n/a	n/a	n/a
50.414230	2	cue_social_low	n/a	16	-8	n/a	n/a	n/a
57.991440	2	cue_nonsocial	n/a	32	8	n/a	n/a	n/a
57.991440	2	cue_nonsocial_high	n/a	32	9	n/a	n/a	n/a
65.641200	2	cue_nonsocial	n/a	32	8	n/a	n/a	n/a
65.641200	2	cue_nonsocial_high	n/a	32	9	n/a	n/a	n/a
72.474730	2	cue_nonsocial	n/a	16	-8	n/a	n/a	n/a
72.474730	2	cue_nonsocial_low	n/a	16	-7	n/a	n/a	n/a
80.186560	2	cue_social	n/a	16	-7	n/a	n/a	n/a
80.186560	2	cue_social_low	n/a	16	-8	n/a	n/a	n/a
87.856800	2	cue_social	n/a	16	-7	n/a	n/a	n/a
87.856800	2	cue_social_low	n/a	16	-8	n/a	n/a	n/a
95.407814	2	cue_nonsocial	n/a	32	8	n/a	n/a	n/a
95.407814	2	cue_nonsocial_high	n/a	32	9	n/a	n/a	n/a
102.241430	2	cue_nonsocial	n/a	16	-8	n/a	n/a	n/a
102.241430	2	cue_nonsocial_low	n/a	16	-7	n/a	n/a	n/a
113.137550	2	cue_social	n/a	32	9	n/a	n/a	n/a
113.137550	2	cue_social_high	n/a	32	8	n/a	n/a	n/a
119.941190	2	cue_nonsocial	n/a	16	-8	n/a	n/a	n/a
119.941190	2	cue_nonsocial_low	n/a	16	-7	n/a	n/a	n/a
126.774280	2	cue_nonsocial	n/a	32	8	n/a	n/a	n/a
126.774280	2	cue_nonsocial_high	n/a	32	9	n/a	n/a	n/a
133.607670	2	cue_nonsocial	n/a	32	8	n/a	n/a	n/a
133.607670	2	cue_nonsocial_high	n/a	32	9	n/a	n/a	n/a
140.488860	2	cue_social	n/a	16	-7	n/a	n/a	n/a
140.488860	2	cue_social_low	n/a	16	-8	n/a	n/a	n/a
149.774750	2	cue_social	n/a	16	-7	n/a	n/a	n/a
149.774750	2	cue_social_low	n/a	16	-8	n/a	n/a	n/a
156.592760	2	cue_social	n/a	32	9	n/a	n/a	n/a
156.592760	2	cue_social_high	n/a	32	8	n/a	n/a	n/a
165.858500	2	cue_social	n/a	32	9	n/a	n/a	n/a
165.858500	2	cue_social_high	n/a	32	8	n/a	n/a	n/a
173.441360	2	cue_nonsocial	n/a	16	-8	n/a	n/a	n/a
173.441360	2	cue_nonsocial_low	n/a	16	-7	n/a	n/a	n/a
181.131970	2	cue_social	n/a	16	-7	n/a	n/a	n/a
181.131970	2	cue_social_low	n/a	16	-8	n/a	n/a	n/a
187.968960	2	cue_social	n/a	32	9	n/a	n/a	n/a
187.968960	2	cue_social_high	n/a	32	8	n/a	n/a	n/a
195.540940	2	cue_nonsocial	n/a	32	8	n/a	n/a	n/a
195.540940	2	cue_nonsocial_high	n/a	32	9	n/a	n/a	n/a
203.267090	2	cue_social	n/a	16	-7	n/a	n/a	n/a
203.267090	2	cue_social_low	n/a	16	-8	n/a	n/a	n/a
210.024190	2	cue_nonsocial	n/a	16	-8	n/a	n/a	n/a
210.024190	2	cue_nonsocial_low	n/a	16	-7	n/a	n/a	n/a
219.273800	2	cue_nonsocial	n/a	16	-8	n/a	n/a	n/a
219.273800	2	cue_nonsocial_low	n/a	16	-7	n/a	n/a	n/a
226.177520	2	cue_social	n/a	32	9	n/a	n/a	n/a
226.177520	2	cue_social_high	n/a	32	8	n/a	n/a	n/a
232.940920	2	cue_nonsocial	n/a	32	8	n/a	n/a	n/a
232.940920	2	cue_nonsocial_high	n/a	32	9	n/a	n/a	n/a
239.774230	2	cue_nonsocial	n/a	16	-8	n/a	n/a	n/a
239.774230	2	cue_nonsocial_low	n/a	16	-7	n/a	n/a	n/a
247.424180	2	cue_nonsocial	n/a	16	-8	n/a	n/a	n/a
247.424180	2	cue_nonsocial_low	n/a	16	-7	n/a	n/a	n/a
254.321440	2	cue_social	n/a	32	9	n/a	n/a	n/a
254.321440	2	cue_social_high	n/a	32	8	n/a	n/a	n/a
261.090700	2	cue_nonsocial	n/a	32	8	n/a	n/a	n/a
261.090700	2	cue_nonsocial_high	n/a	32	9	n/a	n/a	n/a
273.574200	2	cue_nonsocial	n/a	32	8	n/a	n/a	n/a
273.574200	2	cue_nonsocial_high	n/a	32	9	n/a	n/a	n/a
284.440920	2	cue_nonsocial	n/a	16	-8	n/a	n/a	n/a
284.440920	2	cue_nonsocial_low	n/a	16	-7	n/a	n/a	n/a
291.358370	2	cue_social	n/a	16	-7	n/a	n/a	n/a
291.358370	2	cue_social_low	n/a	16	-8	n/a	n/a	n/a
298.107200	2	cue_nonsocial	n/a	32	8	n/a	n/a	n/a
298.107200	2	cue_nonsocial_high	n/a	32	9	n/a	n/a	n/a
305.024750	2	cue_social	n/a	16	-7	n/a	n/a	n/a
305.024750	2	cue_social_low	n/a	16	-8	n/a	n/a	n/a
311.850130	2	cue_social	n/a	32	9	n/a	n/a	n/a
311.850130	2	cue_social_high	n/a	32	8	n/a	n/a	n/a
321.120120	2	cue_social	n/a	32	9	n/a	n/a	n/a
321.120120	2	cue_social_high	n/a	32	8	n/a	n/a	n/a
330.307220	2	cue_nonsocial	n/a	32	8	n/a	n/a	n/a
330.307220	2	cue_nonsocial_high	n/a	32	9	n/a	n/a	n/a
337.220250	2	cue_social	n/a	16	-7	n/a	n/a	n/a
337.220250	2	cue_social_low	n/a	16	-8	n/a	n/a	n/a
344.790700	2	cue_nonsocial	n/a	16	-8	n/a	n/a	n/a
344.790700	2	cue_nonsocial_low	n/a	16	-7	n/a	n/a	n/a
354.108730	2	cue_social	n/a	16	-7	n/a	n/a	n/a
354.108730	2	cue_social_low	n/a	16	-8	n/a	n/a	n/a
360.873800	2	cue_nonsocial	n/a	16	-8	n/a	n/a	n/a
360.873800	2	cue_nonsocial_low	n/a	16	-7	n/a	n/a	n/a
368.599730	2	cue_social	n/a	32	9	n/a	n/a	n/a
368.599730	2	cue_social_high	n/a	32	8	n/a	n/a	n/a
6.514043	0.800662	dec_social_choice	0.800662	32.000000	n/a	8	2.127660e-02	2.127660e-02
6.514043	0.800662	dec_choice	0.800662	32.000000	n/a	8	2.213542e-02	2.213542e-02
6.514043	0.800662	dec_social_accept	0.800662	32.000000	n/a	8	-1.278409e-01	-1.278409e-01
6.514043	0.800662	dec_accept	0.800662	32.000000	n/a	8	-1.500000e-01	-1.500000e-01
6.514043	0.800662	dec_social_accept_high	0.800662	32.000000	n/a	8	2.213542e-02	2.213542e-02
14.148171	0.815803	dec_social_choice	0.815803	16.000000	n/a	8	2.712766e-01	2.712766e-01
14.148171	0.815803	dec_choice	0.815803	16.000000	n/a	8	2.721354e-01	2.721354e-01
14.148171	0.815803	dec_social_accept	0.815803	16.000000	n/a	8	1.221591e-01	1.221591e-01
14.148171	0.815803	dec_accept	0.815803	16.000000	n/a	8	1.000000e-01	1.000000e-01
14.148171	0.815803	dec_social_high	0.815803	16.000000	n/a	8	2.721354e-01	2.721354e-01
14.148171	0.815803	dec_social_accept_high	0.815803	16.000000	n/a	8	2.721354e-01	2.721354e-01
20.980980	1.116078	dec_social_choice	1.116078	32.000000	n/a	0	0	-2.287234e-01
20.980980	1.116078	dec_choice	1.116078	32.000000	n/a	0	0	-2.278646e-01
20.980980	1.116078	dec_social_reject	1.116078	32.000000	n/a	0	0	-3.500000e-02
20.980980	1.116078	dec_reject	1.116078	32.000000	n/a	0	0	-4.241071e-02
20.980980	1.116078	dec_social_reject_low	1.116078	32.000000	n/a	2	-1.653646e-01	-2.278646e-01
27.814098	0.933513	dec_nonsocial_choice	0.933513	32.000000	n/a	8	2.127660e-02	2.127660e-02
27.814098	0.933513	dec_choice	0.933513	32.000000	n/a	8	2.038043e-02	2.038043e-02
27.814098	0.933513	dec_nonsocial_accept	0.933513	32.000000	n/a	8	-1.278409e-01	-1.278409e-01
27.814098	0.933513	dec_accept	0.933513	32.000000	n/a	8	-1.093750e-01	-1.093750e-01
27.814098	0.933513	dec_nonsocial_high	0.933513	32.000000	n/a	8	2.038043e-02	2.038043e-02
27.814098	0.933513	dec_nonsocial_accept_high	0.933513	32.000000	n/a	8	-1.093750e-01	-1.093750e-01
34.647310	0.966707	dec_social_choice	0.966707	16.000000	n/a	8	2.712766e-01	2.712766e-01
34.647310	0.966707	dec_choice	0.966707	16.000000	n/a	8	2.721354e-01	2.721354e-01
34.647310	0.966707	dec_social_accept	0.966707	16.000000	n/a	8	1.221591e-01	1.221591e-01
34.647310	0.966707	dec_accept	0.966707	16.000000	n/a	8	1.000000e-01	1.000000e-01
34.647310	0.966707	dec_social_high	0.966707	16.000000	n/a	8	2.721354e-01	2.721354e-01
34.647310	0.966707	dec_social_accept_high	0.966707	16.000000	n/a	8	2.721354e-01	2.721354e-01
41.482056	1.032018	dec_nonsocial_choice	1.032018	16.000000	n/a	0	0	-2.287234e-01
41.482056	1.032018	dec_choice	1.032018	16.000000	n/a	0	0	-2.296196e-01
41.482056	1.032018	dec_nonsocial_reject	1.032018	16.000000	n/a	0	0	-3.500000e-02
41.482056	1.032018	dec_reject	1.032018	16.000000	n/a	0	0	-2.556818e-02
41.482056	1.032018	dec_nonsocial_low	1.032018	16.000000	n/a	0	-2.296196e-01	-2.296196e-01
41.482056	1.032018	dec_nonsocial_reject_low	1.032018	16.000000	n/a	1	-2.556818e-02	-8.806818e-02
52.347233	1.433307	dec_social_choice	1.433307	16.000000	n/a	0	0	-2.287234e-01
52.347233	1.433307	dec_choice	1.433307	16.000000	n/a	0	0	-2.278646e-01
52.347233	1.433307	dec_social_reject	1.433307	16.000000	n/a	0	0	1.525000e-01
52.347233	1.433307	dec_reject	1.433307	16.000000	n/a	0	0	1.450893e-01
52.347233	1.433307	dec_social_reject_low	1.433307	16.000000	n/a	4	2.213542e-02	-2.278646e-01
59.997066	0.833784	dec_nonsocial_choice	0.833784	32.000000	n/a	0	0	-2.287234e-01
59.997066	0.833784	dec_choice	0.833784	32.000000	n/a	0	0	-2.296196e-01
59.997066	0.833784	dec_nonsocial_reject	0.833784	32.000000	n/a	0	0	-3.750000e-03
59.997066	0.833784	dec_reject	0.833784	32.000000	n/a	0	0	5.681818e-03
59.997066	0.833784	dec_nonsocial_reject_low	0.833784	32.000000	n/a	3	-1.116071e-02	-1.049107e-01
67.647760	1.149852	dec_nonsocial_choice	1.149852	32.000000	n/a	0	0	-2.287234e-01
67.647760	1.149852	dec_choice	1.149852	32.000000	n/a	0	0	-2.296196e-01
67.647760	1.149852	dec_nonsocial_reject	1.149852	32.000000	n/a	0	0	-3.500000e-02
67.647760	1.149852	dec_reject	1.149852	32.000000	n/a	0	0	-2.556818e-02
67.647760	1.149852	dec_nonsocial_low	1.149852	32.000000	n/a	0	-2.296196e-01	-2.296196e-01
67.647760	1.149852	dec_nonsocial_reject_low	1.149852	32.000000	n/a	2	-2.556818e-02	-8.806818e-02
74.481150	1.599605	dec_nonsocial_choice	1.599605	16.000000	n/a	8	2.712766e-01	2.712766e-01
74.481150	1.599605	dec_choice	1.599605	16.000000	n/a	8	2.703804e-01	2.703804e-01
74.481150	1.599605	dec_nonsocial_accept	1.599605	16.000000	n/a	8	1.221591e-01	1.221591e-01
74.481150	1.599605	dec_accept	1.599605	16.000000	n/a	8	1.406250e-01	1.406250e-01
74.481150	1.599605	dec_nonsocial_accept_high	1.599605	16.000000	n/a	8	1.000000e-01	1.000000e-01
82.130050	0.984143	dec_social_choice	0.984143	16.000000	n/a	8	2.712766e-01	2.712766e-01
82.130050	0.984143	dec_choice	0.984143	16.000000	n/a	8	2.721354e-01	2.721354e-01
82.130050	0.984143	dec_social_accept	0.984143	16.000000	n/a	8	1.221591e-01	1.221591e-01
82.130050	0.984143	dec_accept	0.984143	16.000000	n/a	8	1.000000e-01	1.000000e-01
82.130050	0.984143	dec_social_accept_high	0.984143	16.000000	n/a	8	2.721354e-01	2.721354e-01
89.764120	0.883399	dec_social_choice	0.883399	16.000000	n/a	0	0	-2.287234e-01
89.764120	0.883399	dec_choice	0.883399	16.000000	n/a	0	0	-2.278646e-01
89.764120	0.883399	dec_social_reject	0.883399	16.000000	n/a	0	0	-3.500000e-02
89.764120	0.883399	dec_reject	0.883399	16.000000	n/a	0	0	-4.241071e-02
89.764120	0.883399	dec_social_reject_low	0.883399	16.000000	n/a	1	-1.653646e-01	-2.278646e-01
97.414400	1.066123	dec_nonsocial_choice	1.066123	32.000000	n/a	16	2.712766e-01	2.712766e-01
97.414400	1.066123	dec_choice	1.066123	32.000000	n/a	16	2.703804e-01	2.703804e-01
97.414400	1.066123	dec_nonsocial_accept	1.066123	32.000000	n/a	16	1.221591e-01	1.221591e-01
97.414400	1.066123	dec_accept	1.066123	32.000000	n/a	16	1.406250e-01	1.406250e-01
97.414400	1.066123	dec_nonsocial_accept_high	1.066123	32.000000	n/a	16	1.000000e-01	1.000000e-01
104.246864	0.883887	dec_nonsocial_choice	0.883887	16.000000	n/a	0	0	-2.287234e-01
104.246864	0.883887	dec_choice	0.883887	16.000000	n/a	0	0	-2.296196e-01
104.246864	0.883887	dec_nonsocial_reject	0.883887	16.000000	n/a	0	0	2.750000e-02
104.246864	0.883887	dec_reject	0.883887	16.000000	n/a	0	0	3.693182e-02
104.246864	0.883887	dec_nonsocial_reject_low	0.883887	16.000000	n/a	2	2.008929e-02	-1.049107e-01
115.114070	0.782879	dec_social_choice	0.782879	32.000000	n/a	0	0	-2.287234e-01
115.114070	0.782879	dec_choice	0.782879	32.000000	n/a	0	0	-2.278646e-01
115.114070	0.782879	dec_social_reject	0.782879	32.000000	n/a	0	0	-3.750000e-03
115.114070	0.782879	dec_reject	0.782879	32.000000	n/a	0	0	-1.116071e-02
115.114070	0.782879	dec_social_reject_low	0.782879	32.000000	n/a	3	-1.341146e-01	-2.278646e-01
121.947914	1.649627	dec_nonsocial_choice	1.649627	16.000000	n/a	4	2.127660e-02	2.127660e-02
121.947914	1.649627	dec_choice	1.649627	16.000000	n/a	4	2.038043e-02	2.038043e-02
121.947914	1.649627	dec_nonsocial_accept	1.649627	16.000000	n/a	4	-1.278409e-01	-1.278409e-01
121.947914	1.649627	dec_accept	1.649627	16.000000	n/a	4	-1.093750e-01	-1.093750e-01
121.947914	1.649627	dec_nonsocial_high	1.649627	16.000000	n/a	4	2.038043e-02	2.038043e-02
121.947914	1.649627	dec_nonsocial_accept_high	1.649627	16.000000	n/a	4	-1.093750e-01	-1.093750e-01
128.781000	1.233139	dec_nonsocial_choice	1.233139	32.000000	n/a	0	0	-2.287234e-01
128.781000	1.233139	dec_choice	1.233139	32.000000	n/a	0	0	-2.296196e-01
128.781000	1.233139	dec_nonsocial_reject	1.233139	32.000000	n/a	0	0	-3.750000e-03
128.781000	1.233139	dec_reject	1.233139	32.000000	n/a	0	0	5.681818e-03
128.781000	1.233139	dec_nonsocial_reject_low	1.233139	32.000000	n/a	3	-1.116071e-02	-1.049107e-01
135.614170	1.266202	dec_nonsocial_choice	1.266202	32.000000	n/a	8	2.127660e-02	2.127660e-02
135.614170	1.266202	dec_choice	1.266202	32.000000	n/a	8	2.038043e-02	2.038043e-02
135.614170	1.266202	dec_nonsocial_accept	1.266202	32.000000	n/a	8	-1.278409e-01	-1.278409e-01
135.614170	1.266202	dec_accept	1.266202	32.000000	n/a	8	-1.093750e-01	-1.093750e-01
135.614170	1.266202	dec_nonsocial_accept_high	1.266202	32.000000	n/a	8	-1.500000e-01	-1.500000e-01
142.447780	1.115816	dec_social_choice	1.115816	16.000000	n/a	8	2.712766e-01	2.712766e-01
142.447780	1.115816	dec_choice	1.115816	16.000000	n/a	8	2.721354e-01	2.721354e-01
142.447780	1.115816	dec_social_accept	1.115816	16.000000	n/a	8	1.221591e-01	1.221591e-01
142.447780	1.115816	dec_accept	1.115816	16.000000	n/a	8	1.000000e-01	1.000000e-01
142.447780	1.115816	dec_social_high	1.115816	16.000000	n/a	8	2.721354e-01	2.721354e-01
142.447780	1.115816	dec_social_accept_high	1.115816	16.000000	n/a	8	2.721354e-01	2.721354e-01
151.713350	1.067018	dec_social_choice	1.067018	16.000000	n/a	0	0	-2.287234e-01
151.713350	1.067018	dec_choice	1.067018	16.000000	n/a	0	0	-2.278646e-01
151.713350	1.067018	dec_social_reject	1.067018	16.000000	n/a	0	0	-3.500000e-02
151.713350	1.067018	dec_reject	1.067018	16.000000	n/a	0	0	-4.241071e-02
151.713350	1.067018	dec_social_low	1.067018	16.000000	n/a	0	-2.278646e-01	-2.278646e-01
151.713350	1.067018	dec_social_reject_low	1.067018	16.000000	n/a	1	-1.653646e-01	-2.278646e-01
158.547160	1.633858	dec_social_choice	1.633858	32.000000	n/a	0	0	-2.287234e-01
158.547160	1.633858	dec_choice	1.633858	32.000000	n/a	0	0	-2.278646e-01
158.547160	1.633858	dec_social_reject	1.633858	32.000000	n/a	0	0	-3.500000e-02
158.547160	1.633858	dec_reject	1.633858	32.000000	n/a	0	0	-4.241071e-02
158.547160	1.633858	dec_social_low	1.633858	32.000000	n/a	0	-2.278646e-01	-2.278646e-01
158.547160	1.633858	dec_social_reject_low	1.633858	32.000000	n/a	2	-1.653646e-01	-2.278646e-01
167.797940	1.182715	dec_social_choice	1.182715	32.000000	n/a	0	0	-2.287234e-01
167.797940	1.182715	dec_choice	1.182715	32.000000	n/a	0	0	-2.278646e-01
167.797940	1.182715	dec_social_reject	1.182715	32.000000	n/a	0	0	-3.750000e-03
167.797940	1.182715	dec_reject	1.182715	32.000000	n/a	0	0	-1.116071e-02
167.797940	1.182715	dec_social_reject_low	1.182715	32.000000	n/a	3	-1.341146e-01	-2.278646e-01
175.447110	1.100464	dec_nonsocial_choice	1.100464	16.000000	n/a	8	2.712766e-01	2.712766e-01
175.447110	1.100464	dec_choice	1.100464	16.000000	n/a	8	2.703804e-01	2.703804e-01
175.447110	1.100464	dec_nonsocial_accept	1.100464	16.000000	n/a	8	1.221591e-01	1.221591e-01
175.447110	1.100464	dec_accept	1.100464	16.000000	n/a	8	1.406250e-01	1.406250e-01
175.447110	1.100464	dec_nonsocial_high	1.100464	16.000000	n/a	8	2.703804e-01	2.703804e-01
175.447110	1.100464	dec_nonsocial_accept_high	1.100464	16.000000	n/a	8	1.406250e-01	1.406250e-01
183.080660	1.283325	dec_social_choice	1.283325	16.000000	n/a	0	0	-2.287234e-01
183.080660	1.283325	dec_choice	1.283325	16.000000	n/a	0	0	-2.278646e-01
183.080660	1.283325	dec_social_reject	1.283325	16.000000	n/a	0	0	-3.500000e-02
183.080660	1.283325	dec_reject	1.283325	16.000000	n/a	0	0	-4.241071e-02
183.080660	1.283325	dec_social_low	1.283325	16.000000	n/a	0	-2.278646e-01	-2.278646e-01
183.080660	1.283325	dec_social_reject_low	1.283325	16.000000	n/a	1	-1.653646e-01	-2.278646e-01
189.914000	1.399641	dec_social_choice	1.399641	32.000000	n/a	8	2.127660e-02	2.127660e-02
189.914000	1.399641	dec_choice	1.399641	32.000000	n/a	8	2.213542e-02	2.213542e-02
189.914000	1.399641	dec_social_accept	1.399641	32.000000	n/a	8	-1.278409e-01	-1.278409e-01
189.914000	1.399641	dec_accept	1.399641	32.000000	n/a	8	-1.500000e-01	-1.500000e-01
189.914000	1.399641	dec_social_accept_high	1.399641	32.000000	n/a	8	2.213542e-02	2.213542e-02
197.547930	1.165888	dec_nonsocial_choice	1.165888	32.000000	n/a	0	0	-2.287234e-01
197.547930	1.165888	dec_choice	1.165888	32.000000	n/a	0	0	-2.296196e-01
197.547930	1.165888	dec_nonsocial_reject	1.165888	32.000000	n/a	0	0	-3.750000e-03
197.547930	1.165888	dec_reject	1.165888	32.000000	n/a	0	0	5.681818e-03
197.547930	1.165888	dec_nonsocial_reject_low	1.165888	32.000000	n/a	3	-1.116071e-02	-1.049107e-01
205.196330	1.483733	dec_social_choice	1.483733	16.000000	n/a	4	2.127660e-02	2.127660e-02
205.196330	1.483733	dec_choice	1.483733	16.000000	n/a	4	2.213542e-02	2.213542e-02
205.196330	1.483733	dec_social_accept	1.483733	16.000000	n/a	4	-1.278409e-01	-1.278409e-01
205.196330	1.483733	dec_accept	1.483733	16.000000	n/a	4	-1.500000e-01	-1.500000e-01
205.196330	1.483733	dec_social_high	1.483733	16.000000	n/a	4	2.213542e-02	2.213542e-02
205.196330	1.483733	dec_social_accept_high	1.483733	16.000000	n/a	4	2.213542e-02	2.213542e-02
212.030080	1.133554	dec_nonsocial_choice	1.133554	16.000000	n/a	0	0	-2.287234e-01
212.030080	1.133554	dec_choice	1.133554	16.000000	n/a	0	0	-2.296196e-01
212.030080	1.133554	dec_nonsocial_reject	1.133554	16.000000	n/a	0	0	2.750000e-02
212.030080	1.133554	dec_reject	1.133554	16.000000	n/a	0	0	3.693182e-02
212.030080	1.133554	dec_nonsocial_reject_low	1.133554	16.000000	n/a	2	2.008929e-02	-1.049107e-01
221.281110	1.049410	dec_nonsocial_choice	1.049410	16.000000	n/a	4	2.127660e-02	2.127660e-02
221.281110	1.049410	dec_choice	1.049410	16.000000	n/a	4	2.038043e-02	2.038043e-02
221.281110	1.049410	dec_nonsocial_accept	1.049410	16.000000	n/a	4	-1.278409e-01	-1.278409e-01
221.281110	1.049410	dec_accept	1.049410	16.000000	n/a	4	-1.093750e-01	-1.093750e-01
221.281110	1.049410	dec_nonsocial_high	1.049410	16.000000	n/a	4	2.038043e-02	2.038043e-02
221.281110	1.049410	dec_nonsocial_accept_high	1.049410	16.000000	n/a	4	-1.093750e-01	-1.093750e-01
228.113920	1.100023	dec_social_choice	1.100023	32.000000	n/a	16	2.712766e-01	2.712766e-01
228.113920	1.100023	dec_choice	1.100023	32.000000	n/a	16	2.721354e-01	2.721354e-01
228.113920	1.100023	dec_social_accept	1.100023	32.000000	n/a	16	1.221591e-01	1.221591e-01
228.113920	1.100023	dec_accept	1.100023	32.000000	n/a	16	1.000000e-01	1.000000e-01
228.113920	1.100023	dec_social_accept_high	1.100023	32.000000	n/a	16	2.721354e-01	2.721354e-01
234.947300	0.999968	dec_nonsocial_choice	0.999968	32.000000	n/a	0	0	-2.287234e-01
234.947300	0.999968	dec_choice	0.999968	32.000000	n/a	0	0	-2.296196e-01
234.947300	0.999968	dec_nonsocial_reject	0.999968	32.000000	n/a	0	0	-3.500000e-02
234.947300	0.999968	dec_reject	0.999968	32.000000	n/a	0	0	-2.556818e-02
234.947300	0.999968	dec_nonsocial_reject_low	0.999968	32.000000	n/a	2	-4.241071e-02	-1.049107e-01
241.780520	1.366309	dec_nonsocial_choice	1.366309	16.000000	n/a	8	2.712766e-01	2.712766e-01
241.780520	1.366309	dec_choice	1.366309	16.000000	n/a	8	2.703804e-01	2.703804e-01
241.780520	1.366309	dec_nonsocial_accept	1.366309	16.000000	n/a	8	1.221591e-01	1.221591e-01
241.780520	1.366309	dec_accept	1.366309	16.000000	n/a	8	1.406250e-01	1.406250e-01
241.780520	1.366309	dec_nonsocial_high	1.366309	16.000000	n/a	8	2.703804e-01	2.703804e-01
241.780520	1.366309	dec_nonsocial_accept_high	1.366309	16.000000	n/a	8	1.406250e-01	1.406250e-01
249.430790	1.133003	dec_nonsocial_choice	1.133003	16.000000	n/a	0	0	-2.287234e-01
249.430790	1.133003	dec_choice	1.133003	16.000000	n/a	0	0	-2.296196e-01
249.430790	1.133003	dec_nonsocial_reject	1.133003	16.000000	n/a	0	0	-3.500000e-02
249.430790	1.133003	dec_reject	1.133003	16.000000	n/a	0	0	-2.556818e-02
249.430790	1.133003	dec_nonsocial_low	1.133003	16.000000	n/a	0	-2.296196e-01	-2.296196e-01
249.430790	1.133003	dec_nonsocial_reject_low	1.133003	16.000000	n/a	1	-2.556818e-02	-8.806818e-02
256.264040	1.033131	dec_social_choice	1.033131	32.000000	n/a	0	0	-2.287234e-01
256.264040	1.033131	dec_choice	1.033131	32.000000	n/a	0	0	-2.278646e-01
256.264040	1.033131	dec_social_reject	1.033131	32.000000	n/a	0	0	-3.750000e-03
256.264040	1.033131	dec_reject	1.033131	32.000000	n/a	0	0	-1.116071e-02
256.264040	1.033131	dec_social_low	1.033131	32.000000	n/a	0	-2.278646e-01	-2.278646e-01
256.264040	1.033131	dec_social_reject_low	1.033131	32.000000	n/a	3	-1.341146e-01	-2.278646e-01
263.098050	1.132469	dec_nonsocial_choice	1.132469	32.000000	n/a	16	2.712766e-01	2.712766e-01
263.098050	1.132469	dec_choice	1.132469	32.000000	n/a	16	2.703804e-01	2.703804e-01
263.098050	1.132469	dec_nonsocial_accept	1.132469	32.000000	n/a	16	1.221591e-01	1.221591e-01
263.098050	1.132469	dec_accept	1.132469	32.000000	n/a	16	1.406250e-01	1.406250e-01
263.098050	1.132469	dec_nonsocial_high	1.132469	32.000000	n/a	16	2.703804e-01	2.703804e-01
263.098050	1.132469	dec_nonsocial_accept_high	1.132469	32.000000	n/a	16	1.406250e-01	1.406250e-01
275.581020	0.932704	dec_nonsocial_choice	0.932704	32.000000	n/a	2	-1.662234e-01	-1.662234e-01
275.581020	0.932704	dec_choice	0.932704	32.000000	n/a	2	-1.671196e-01	-1.671196e-01
275.581020	0.932704	dec_nonsocial_accept	0.932704	32.000000	n/a	2	-3.153409e-01	-3.153409e-01
275.581020	0.932704	dec_accept	0.932704	32.000000	n/a	2	-2.968750e-01	-2.968750e-01
275.581020	0.932704	dec_nonsocial_accept_low	0.932704	32.000000	n/a	2	-3.375000e-01	-3.375000e-01
286.446960	1.033760	dec_nonsocial_choice	1.033760	16.000000	n/a	0	0	-2.287234e-01
286.446960	1.033760	dec_choice	1.033760	16.000000	n/a	0	0	-2.296196e-01
286.446960	1.033760	dec_nonsocial_reject	1.033760	16.000000	n/a	0	0	2.750000e-02
286.446960	1.033760	dec_reject	1.033760	16.000000	n/a	0	0	3.693182e-02
286.446960	1.033760	dec_nonsocial_low	1.033760	16.000000	n/a	0	-2.296196e-01	-2.296196e-01
286.446960	1.033760	dec_nonsocial_reject_low	1.033760	16.000000	n/a	2	3.693182e-02	-8.806818e-02
293.280400	1.216702	dec_social_choice	1.216702	16.000000	n/a	0	0	-2.287234e-01
293.280400	1.216702	dec_choice	1.216702	16.000000	n/a	0	0	-2.278646e-01
293.280400	1.216702	dec_social_reject	1.216702	16.000000	n/a	0	0	-3.500000e-02
293.280400	1.216702	dec_reject	1.216702	16.000000	n/a	0	0	-4.241071e-02
293.280400	1.216702	dec_social_low	1.216702	16.000000	n/a	0	-2.278646e-01	-2.278646e-01
293.280400	1.216702	dec_social_reject_low	1.216702	16.000000	n/a	1	-1.653646e-01	-2.278646e-01
300.114140	3.766946	missed_trial	3.766946	32.000000	n/a	n/a	n/a	n/a
306.964170	1.049230	dec_social_choice	1.049230	16.000000	n/a	0	0	-2.287234e-01
306.964170	1.049230	dec_choice	1.049230	16.000000	n/a	0	0	-2.278646e-01
306.964170	1.049230	dec_social_reject	1.049230	16.000000	n/a	0	0	1.525000e-01
306.964170	1.049230	dec_reject	1.049230	16.000000	n/a	0	0	1.450893e-01
306.964170	1.049230	dec_social_reject_low	1.049230	16.000000	n/a	4	2.213542e-02	-2.278646e-01
313.797030	0.915888	dec_social_choice	0.915888	32.000000	n/a	0	0	-2.287234e-01
313.797030	0.915888	dec_choice	0.915888	32.000000	n/a	0	0	-2.278646e-01
313.797030	0.915888	dec_social_reject	0.915888	32.000000	n/a	0	0	-3.750000e-03
313.797030	0.915888	dec_reject	0.915888	32.000000	n/a	0	0	-1.116071e-02
313.797030	0.915888	dec_social_reject_low	0.915888	32.000000	n/a	3	-1.341146e-01	-2.278646e-01
323.063960	0.965744	dec_social_choice	0.965744	32.000000	n/a	16	2.712766e-01	2.712766e-01
323.063960	0.965744	dec_choice	0.965744	32.000000	n/a	16	2.721354e-01	2.721354e-01
323.063960	0.965744	dec_social_accept	0.965744	32.000000	n/a	16	1.221591e-01	1.221591e-01
323.063960	0.965744	dec_accept	0.965744	32.000000	n/a	16	1.000000e-01	1.000000e-01
323.063960	0.965744	dec_social_accept_high	0.965744	32.000000	n/a	16	2.721354e-01	2.721354e-01
332.313600	1.099930	dec_nonsocial_choice	1.099930	32.000000	n/a	16	2.712766e-01	2.712766e-01
332.313600	1.099930	dec_choice	1.099930	32.000000	n/a	16	2.703804e-01	2.703804e-01
332.313600	1.099930	dec_nonsocial_accept	1.099930	32.000000	n/a	16	1.221591e-01	1.221591e-01
332.313600	1.099930	dec_accept	1.099930	32.000000	n/a	16	1.406250e-01	1.406250e-01
332.313600	1.099930	dec_nonsocial_high	1.099930	32.000000	n/a	16	2.703804e-01	2.703804e-01
332.313600	1.099930	dec_nonsocial_accept_high	1.099930	32.000000	n/a	16	1.406250e-01	1.406250e-01
339.146000	0.933611	dec_social_choice	0.933611	16.000000	n/a	0	0	-2.287234e-01
339.146000	0.933611	dec_choice	0.933611	16.000000	n/a	0	0	-2.278646e-01
339.146000	0.933611	dec_social_reject	0.933611	16.000000	n/a	0	0	2.750000e-02
339.146000	0.933611	dec_reject	0.933611	16.000000	n/a	0	0	2.008929e-02
339.146000	0.933611	dec_social_reject_low	0.933611	16.000000	n/a	2	-1.028646e-01	-2.278646e-01
346.796840	0.966166	dec_nonsocial_choice	0.966166	16.000000	n/a	0	0	-2.287234e-01
346.796840	0.966166	dec_choice	0.966166	16.000000	n/a	0	0	-2.296196e-01
346.796840	0.966166	dec_nonsocial_reject	0.966166	16.000000	n/a	0	0	-3.500000e-02
346.796840	0.966166	dec_reject	0.966166	16.000000	n/a	0	0	-2.556818e-02
346.796840	0.966166	dec_nonsocial_low	0.966166	16.000000	n/a	0	-2.296196e-01	-2.296196e-01
346.796840	0.966166	dec_nonsocial_reject_low	0.966166	16.000000	n/a	1	-2.556818e-02	-8.806818e-02
356.047850	1.148571	dec_social_choice	1.148571	16.000000	n/a	4	2.127660e-02	2.127660e-02
356.047850	1.148571	dec_choice	1.148571	16.000000	n/a	4	2.213542e-02	2.213542e-02
356.047850	1.148571	dec_social_accept	1.148571	16.000000	n/a	4	-1.278409e-01	-1.278409e-01
356.047850	1.148571	dec_accept	1.148571	16.000000	n/a	4	-1.500000e-01	-1.500000e-01
356.047850	1.148571	dec_social_accept_high	1.148571	16.000000	n/a	4	2.213542e-02	2.213542e-02
362.880000	1.500088	dec_nonsocial_choice	1.500088	16.000000	n/a	4	2.127660e-02	2.127660e-02
362.880000	1.500088	dec_choice	1.500088	16.000000	n/a	4	2.038043e-02	2.038043e-02
362.880000	1.500088	dec_nonsocial_accept	1.500088	16.000000	n/a	4	-1.278409e-01	-1.278409e-01
362.880000	1.500088	dec_accept	1.500088	16.000000	n/a	4	-1.093750e-01	-1.093750e-01
362.880000	1.500088	dec_nonsocial_high	1.500088	16.000000	n/a	4	2.038043e-02	2.038043e-02
362.880000	1.500088	dec_nonsocial_accept_high	1.500088	16.000000	n/a	4	-1.093750e-01	-1.093750e-01
370.514000	1.049494	dec_social_choice	1.049494	32.000000	n/a	0	0	-2.287234e-01
370.514000	1.049494	dec_choice	1.049494	32.000000	n/a	0	0	-2.278646e-01
370.514000	1.049494	dec_social_reject	1.049494	32.000000	n/a	0	0	-3.750000e-03
370.514000	1.049494	dec_reject	1.049494	32.000000	n/a	0	0	-1.116071e-02
370.514000	1.049494	dec_social_reject_low	1.049494	32.000000	n/a	3	-1.341146e-01	-2.278646e-01
