onset	duration	trial_type	response_time	Endowment	Endowment_pmod	Decision	Decision_pmod	Offer_pmod
4.517811	2	cue_nonsocial	n/a	32	9	n/a	n/a	n/a
4.517811	2	cue_nonsocial_high	n/a	32	8	n/a	n/a	n/a
13.782740	2	cue_social	n/a	32	8	n/a	n/a	n/a
13.782740	2	cue_social_high	n/a	32	9	n/a	n/a	n/a
20.601145	2	cue_nonsocial	n/a	16	-7	n/a	n/a	n/a
20.601145	2	cue_nonsocial_low	n/a	16	-8	n/a	n/a	n/a
27.433897	2	cue_nonsocial	n/a	32	9	n/a	n/a	n/a
27.433897	2	cue_nonsocial_high	n/a	32	8	n/a	n/a	n/a
35.170322	2	cue_social	n/a	32	8	n/a	n/a	n/a
35.170322	2	cue_social_high	n/a	32	9	n/a	n/a	n/a
42.004425	2	cue_social	n/a	16	-8	n/a	n/a	n/a
42.004425	2	cue_social_low	n/a	16	-7	n/a	n/a	n/a
51.277264	2	cue_social	n/a	32	8	n/a	n/a	n/a
51.277264	2	cue_social_high	n/a	32	9	n/a	n/a	n/a
60.521450	2	cue_social	n/a	16	-8	n/a	n/a	n/a
60.521450	2	cue_social_low	n/a	16	-7	n/a	n/a	n/a
71.361170	2	cue_social	n/a	32	8	n/a	n/a	n/a
71.361170	2	cue_social_high	n/a	32	9	n/a	n/a	n/a
78.117860	2	cue_nonsocial	n/a	16	-7	n/a	n/a	n/a
78.117860	2	cue_nonsocial_low	n/a	16	-8	n/a	n/a	n/a
89.055260	2	cue_social	n/a	32	8	n/a	n/a	n/a
89.055260	2	cue_social_high	n/a	32	9	n/a	n/a	n/a
95.818050	2	cue_nonsocial	n/a	16	-7	n/a	n/a	n/a
95.818050	2	cue_nonsocial_low	n/a	16	-8	n/a	n/a	n/a
108.300600	2	cue_nonsocial	n/a	32	9	n/a	n/a	n/a
108.300600	2	cue_nonsocial_high	n/a	32	8	n/a	n/a	n/a
115.951730	2	cue_nonsocial	n/a	16	-7	n/a	n/a	n/a
115.951730	2	cue_nonsocial_low	n/a	16	-8	n/a	n/a	n/a
123.666954	2	cue_social	n/a	16	-8	n/a	n/a	n/a
123.666954	2	cue_social_low	n/a	16	-7	n/a	n/a	n/a
130.521220	2	cue_social	n/a	32	8	n/a	n/a	n/a
130.521220	2	cue_social_high	n/a	32	9	n/a	n/a	n/a
137.390270	2	cue_social	n/a	16	-8	n/a	n/a	n/a
137.390270	2	cue_social_low	n/a	16	-7	n/a	n/a	n/a
146.517720	2	cue_nonsocial	n/a	32	9	n/a	n/a	n/a
146.517720	2	cue_nonsocial_high	n/a	32	8	n/a	n/a	n/a
153.350800	2	cue_nonsocial	n/a	32	9	n/a	n/a	n/a
153.350800	2	cue_nonsocial_high	n/a	32	8	n/a	n/a	n/a
160.244720	2	cue_social	n/a	32	8	n/a	n/a	n/a
160.244720	2	cue_social_high	n/a	32	9	n/a	n/a	n/a
167.834060	2	cue_nonsocial	n/a	32	9	n/a	n/a	n/a
167.834060	2	cue_nonsocial_high	n/a	32	8	n/a	n/a	n/a
174.667530	2	cue_nonsocial	n/a	16	-7	n/a	n/a	n/a
174.667530	2	cue_nonsocial_low	n/a	16	-8	n/a	n/a	n/a
182.364360	2	cue_social	n/a	32	8	n/a	n/a	n/a
182.364360	2	cue_social_high	n/a	32	9	n/a	n/a	n/a
189.243650	2	cue_social	n/a	32	8	n/a	n/a	n/a
189.243650	2	cue_social_high	n/a	32	9	n/a	n/a	n/a
196.859950	2	cue_social	n/a	16	-8	n/a	n/a	n/a
196.859950	2	cue_social_low	n/a	16	-7	n/a	n/a	n/a
206.050810	2	cue_nonsocial	n/a	16	-7	n/a	n/a	n/a
206.050810	2	cue_nonsocial_low	n/a	16	-8	n/a	n/a	n/a
213.748870	2	cue_social	n/a	16	-8	n/a	n/a	n/a
213.748870	2	cue_social_low	n/a	16	-7	n/a	n/a	n/a
220.533950	2	cue_nonsocial	n/a	16	-7	n/a	n/a	n/a
220.533950	2	cue_nonsocial_low	n/a	16	-8	n/a	n/a	n/a
227.367630	2	cue_nonsocial	n/a	32	9	n/a	n/a	n/a
227.367630	2	cue_nonsocial_high	n/a	32	8	n/a	n/a	n/a
235.017010	2	cue_nonsocial	n/a	16	-7	n/a	n/a	n/a
235.017010	2	cue_nonsocial_low	n/a	16	-8	n/a	n/a	n/a
242.764530	2	cue_social	n/a	32	8	n/a	n/a	n/a
242.764530	2	cue_social_high	n/a	32	9	n/a	n/a	n/a
253.622560	2	cue_social	n/a	16	-8	n/a	n/a	n/a
253.622560	2	cue_social_low	n/a	16	-7	n/a	n/a	n/a
260.367460	2	cue_nonsocial	n/a	16	-7	n/a	n/a	n/a
260.367460	2	cue_nonsocial_low	n/a	16	-8	n/a	n/a	n/a
268.017360	2	cue_nonsocial	n/a	32	9	n/a	n/a	n/a
268.017360	2	cue_nonsocial_high	n/a	32	8	n/a	n/a	n/a
275.667050	2	cue_nonsocial	n/a	32	9	n/a	n/a	n/a
275.667050	2	cue_nonsocial_high	n/a	32	8	n/a	n/a	n/a
282.500000	2	cue_nonsocial	n/a	32	9	n/a	n/a	n/a
282.500000	2	cue_nonsocial_high	n/a	32	8	n/a	n/a	n/a
289.397640	2	cue_social	n/a	16	-8	n/a	n/a	n/a
289.397640	2	cue_social_low	n/a	16	-7	n/a	n/a	n/a
297.047520	2	cue_social	n/a	32	8	n/a	n/a	n/a
297.047520	2	cue_social_high	n/a	32	9	n/a	n/a	n/a
303.875820	2	cue_social	n/a	16	-8	n/a	n/a	n/a
303.875820	2	cue_social_low	n/a	16	-7	n/a	n/a	n/a
310.650480	2	cue_nonsocial	n/a	16	-7	n/a	n/a	n/a
310.650480	2	cue_nonsocial_low	n/a	16	-8	n/a	n/a	n/a
317.542700	2	cue_social	n/a	32	8	n/a	n/a	n/a
317.542700	2	cue_social_high	n/a	32	9	n/a	n/a	n/a
325.195600	2	cue_social	n/a	16	-8	n/a	n/a	n/a
325.195600	2	cue_social_low	n/a	16	-7	n/a	n/a	n/a
331.967500	2	cue_nonsocial	n/a	16	-7	n/a	n/a	n/a
331.967500	2	cue_nonsocial_low	n/a	16	-8	n/a	n/a	n/a
338.800750	2	cue_nonsocial	n/a	16	-7	n/a	n/a	n/a
338.800750	2	cue_nonsocial_low	n/a	16	-8	n/a	n/a	n/a
345.633820	2	cue_nonsocial	n/a	16	-7	n/a	n/a	n/a
345.633820	2	cue_nonsocial_low	n/a	16	-8	n/a	n/a	n/a
354.900450	2	cue_nonsocial	n/a	32	9	n/a	n/a	n/a
354.900450	2	cue_nonsocial_high	n/a	32	8	n/a	n/a	n/a
361.833000	2	cue_social	n/a	16	-8	n/a	n/a	n/a
361.833000	2	cue_social_low	n/a	16	-7	n/a	n/a	n/a
368.684480	2	cue_social	n/a	16	-8	n/a	n/a	n/a
368.684480	2	cue_social_low	n/a	16	-7	n/a	n/a	n/a
6.524262	1.583365	dec_nonsocial_choice	1.583365	32.000000	n/a	16	2.682292e-01	2.682292e-01
6.524262	1.583365	dec_choice	1.583365	32.000000	n/a	16	2.656250e-01	2.656250e-01
6.524262	1.583365	dec_nonsocial_accept	1.583365	32.000000	n/a	16	1.125000e-01	1.125000e-01
6.524262	1.583365	dec_accept	1.583365	32.000000	n/a	16	6.250000e-02	6.250000e-02
6.524262	1.583365	dec_nonsocial_accept_high	1.583365	32.000000	n/a	16	1.458333e-01	1.458333e-01
15.773464	1.401463	dec_social_choice	1.401463	32.000000	n/a	16	2.682292e-01	2.682292e-01
15.773464	1.401463	dec_choice	1.401463	32.000000	n/a	16	2.708333e-01	2.708333e-01
15.773464	1.401463	dec_social_accept	1.401463	32.000000	n/a	16	1.125000e-01	1.125000e-01
15.773464	1.401463	dec_accept	1.401463	32.000000	n/a	16	1.458333e-01	1.458333e-01
15.773464	1.401463	dec_social_high	1.401463	32.000000	n/a	16	2.708333e-01	2.708333e-01
15.773464	1.401463	dec_social_accept_high	1.401463	32.000000	n/a	16	2.708333e-01	2.708333e-01
22.607860	1.750289	dec_nonsocial_choice	1.750289	16.000000	n/a	0	0	-2.317708e-01
22.607860	1.750289	dec_choice	1.750289	16.000000	n/a	0	0	-2.343750e-01
22.607860	1.750289	dec_nonsocial_reject	1.750289	16.000000	n/a	0	0	4.464286e-03
22.607860	1.750289	dec_reject	1.750289	16.000000	n/a	0	0	-7.812500e-03
22.607860	1.750289	dec_nonsocial_low	1.750289	16.000000	n/a	0	-2.343750e-01	-2.343750e-01
22.607860	1.750289	dec_nonsocial_reject_low	1.750289	16.000000	n/a	2	-7.812500e-03	-1.328125e-01
29.441835	1.232380	dec_nonsocial_choice	1.232380	32.000000	n/a	0	0	-2.317708e-01
29.441835	1.232380	dec_choice	1.232380	32.000000	n/a	0	0	-2.343750e-01
29.441835	1.232380	dec_nonsocial_reject	1.232380	32.000000	n/a	0	0	1.294643e-01
29.441835	1.232380	dec_reject	1.232380	32.000000	n/a	0	0	1.171875e-01
29.441835	1.232380	dec_nonsocial_reject_low	1.232380	32.000000	n/a	8	1.458333e-01	-1.041667e-01
37.090570	0.883181	dec_social_choice	0.883181	32.000000	n/a	8	1.822917e-02	1.822917e-02
37.090570	0.883181	dec_choice	0.883181	32.000000	n/a	8	2.083333e-02	2.083333e-02
37.090570	0.883181	dec_social_accept	0.883181	32.000000	n/a	8	-1.375000e-01	-1.375000e-01
37.090570	0.883181	dec_accept	0.883181	32.000000	n/a	8	-1.041667e-01	-1.041667e-01
37.090570	0.883181	dec_social_accept_high	0.883181	32.000000	n/a	8	2.083333e-02	2.083333e-02
43.923790	1.100375	dec_social_choice	1.100375	16.000000	n/a	0	0	-2.317708e-01
43.923790	1.100375	dec_choice	1.100375	16.000000	n/a	0	0	-2.291667e-01
43.923790	1.100375	dec_social_reject	1.100375	16.000000	n/a	0	0	-5.803571e-02
43.923790	1.100375	dec_reject	1.100375	16.000000	n/a	0	0	-4.166667e-02
43.923790	1.100375	dec_social_reject_low	1.100375	16.000000	n/a	1	-1.666667e-01	-2.291667e-01
53.174683	1.732779	dec_social_choice	1.732779	32.000000	n/a	0	0	-2.317708e-01
53.174683	1.732779	dec_choice	1.732779	32.000000	n/a	0	0	-2.291667e-01
53.174683	1.732779	dec_social_reject	1.732779	32.000000	n/a	0	0	-2.678571e-02
53.174683	1.732779	dec_reject	1.732779	32.000000	n/a	0	0	-1.041667e-02
53.174683	1.732779	dec_social_reject_low	1.732779	32.000000	n/a	3	-1.354167e-01	-2.291667e-01
62.423180	1.400928	dec_social_choice	1.400928	16.000000	n/a	2	-1.067708e-01	-1.067708e-01
62.423180	1.400928	dec_choice	1.400928	16.000000	n/a	2	-1.041667e-01	-1.041667e-01
62.423180	1.400928	dec_social_accept	1.400928	16.000000	n/a	2	-2.625000e-01	-2.625000e-01
62.423180	1.400928	dec_accept	1.400928	16.000000	n/a	2	-2.291667e-01	-2.291667e-01
62.423180	1.400928	dec_social_accept_low	1.400928	16.000000	n/a	2	-1.041667e-01	-1.041667e-01
73.289894	0.800847	dec_social_choice	0.800847	32.000000	n/a	16	2.682292e-01	2.682292e-01
73.289894	0.800847	dec_choice	0.800847	32.000000	n/a	16	2.708333e-01	2.708333e-01
73.289894	0.800847	dec_social_accept	0.800847	32.000000	n/a	16	1.125000e-01	1.125000e-01
73.289894	0.800847	dec_accept	0.800847	32.000000	n/a	16	1.458333e-01	1.458333e-01
73.289894	0.800847	dec_social_accept_high	0.800847	32.000000	n/a	16	2.708333e-01	2.708333e-01
80.123770	1.150403	dec_nonsocial_choice	1.150403	16.000000	n/a	8	2.682292e-01	2.682292e-01
80.123770	1.150403	dec_choice	1.150403	16.000000	n/a	8	2.656250e-01	2.656250e-01
80.123770	1.150403	dec_nonsocial_accept	1.150403	16.000000	n/a	8	1.125000e-01	1.125000e-01
80.123770	1.150403	dec_accept	1.150403	16.000000	n/a	8	6.250000e-02	6.250000e-02
80.123770	1.150403	dec_nonsocial_high	1.150403	16.000000	n/a	8	2.656250e-01	2.656250e-01
80.123770	1.150403	dec_nonsocial_accept_high	1.150403	16.000000	n/a	8	6.250000e-02	6.250000e-02
90.989815	1.167155	dec_social_choice	1.167155	32.000000	n/a	8	1.822917e-02	1.822917e-02
90.989815	1.167155	dec_choice	1.167155	32.000000	n/a	8	2.083333e-02	2.083333e-02
90.989815	1.167155	dec_social_accept	1.167155	32.000000	n/a	8	-1.375000e-01	-1.375000e-01
90.989815	1.167155	dec_accept	1.167155	32.000000	n/a	8	-1.041667e-01	-1.041667e-01
90.989815	1.167155	dec_social_high	1.167155	32.000000	n/a	8	2.083333e-02	2.083333e-02
90.989815	1.167155	dec_social_accept_high	1.167155	32.000000	n/a	8	2.083333e-02	2.083333e-02
97.823906	1.383503	dec_nonsocial_choice	1.383503	16.000000	n/a	0	0	-2.317708e-01
97.823906	1.383503	dec_choice	1.383503	16.000000	n/a	0	0	-2.343750e-01
97.823906	1.383503	dec_nonsocial_reject	1.383503	16.000000	n/a	0	0	-5.803571e-02
97.823906	1.383503	dec_reject	1.383503	16.000000	n/a	0	0	-7.031250e-02
97.823906	1.383503	dec_nonsocial_reject_low	1.383503	16.000000	n/a	1	-4.166667e-02	-1.041667e-01
110.307870	1.065657	dec_nonsocial_choice	1.065657	32.000000	n/a	8	1.822917e-02	1.822917e-02
110.307870	1.065657	dec_choice	1.065657	32.000000	n/a	8	1.562500e-02	1.562500e-02
110.307870	1.065657	dec_nonsocial_accept	1.065657	32.000000	n/a	8	-1.375000e-01	-1.375000e-01
110.307870	1.065657	dec_accept	1.065657	32.000000	n/a	8	-1.875000e-01	-1.875000e-01
110.307870	1.065657	dec_nonsocial_high	1.065657	32.000000	n/a	8	1.562500e-02	1.562500e-02
110.307870	1.065657	dec_nonsocial_accept_high	1.065657	32.000000	n/a	8	-1.875000e-01	-1.875000e-01
117.957330	1.050010	dec_nonsocial_choice	1.050010	16.000000	n/a	0	0	-2.317708e-01
117.957330	1.050010	dec_choice	1.050010	16.000000	n/a	0	0	-2.343750e-01
117.957330	1.050010	dec_nonsocial_reject	1.050010	16.000000	n/a	0	0	4.464286e-03
117.957330	1.050010	dec_reject	1.050010	16.000000	n/a	0	0	-7.812500e-03
117.957330	1.050010	dec_nonsocial_reject_low	1.050010	16.000000	n/a	2	2.083333e-02	-1.041667e-01
125.607070	1.016463	dec_social_choice	1.016463	16.000000	n/a	8	2.682292e-01	2.682292e-01
125.607070	1.016463	dec_choice	1.016463	16.000000	n/a	8	2.708333e-01	2.708333e-01
125.607070	1.016463	dec_social_accept	1.016463	16.000000	n/a	8	1.125000e-01	1.125000e-01
125.607070	1.016463	dec_accept	1.016463	16.000000	n/a	8	1.458333e-01	1.458333e-01
125.607070	1.016463	dec_social_accept_high	1.016463	16.000000	n/a	8	2.708333e-01	2.708333e-01
132.439770	1.150593	dec_social_choice	1.150593	32.000000	n/a	0	0	-2.317708e-01
132.439770	1.150593	dec_choice	1.150593	32.000000	n/a	0	0	-2.291667e-01
132.439770	1.150593	dec_social_reject	1.150593	32.000000	n/a	0	0	-2.678571e-02
132.439770	1.150593	dec_reject	1.150593	32.000000	n/a	0	0	-1.041667e-02
132.439770	1.150593	dec_social_low	1.150593	32.000000	n/a	0	-2.291667e-01	-2.291667e-01
132.439770	1.150593	dec_social_reject_low	1.150593	32.000000	n/a	3	-1.354167e-01	-2.291667e-01
139.273730	0.933554	dec_social_choice	0.933554	16.000000	n/a	8	2.682292e-01	2.682292e-01
139.273730	0.933554	dec_choice	0.933554	16.000000	n/a	8	2.708333e-01	2.708333e-01
139.273730	0.933554	dec_social_accept	0.933554	16.000000	n/a	8	1.125000e-01	1.125000e-01
139.273730	0.933554	dec_accept	0.933554	16.000000	n/a	8	1.458333e-01	1.458333e-01
139.273730	0.933554	dec_social_accept_high	0.933554	16.000000	n/a	8	2.708333e-01	2.708333e-01
148.524220	1.049575	dec_nonsocial_choice	1.049575	32.000000	n/a	0	0	-2.317708e-01
148.524220	1.049575	dec_choice	1.049575	32.000000	n/a	0	0	-2.343750e-01
148.524220	1.049575	dec_nonsocial_reject	1.049575	32.000000	n/a	0	0	-5.803571e-02
148.524220	1.049575	dec_reject	1.049575	32.000000	n/a	0	0	-7.031250e-02
148.524220	1.049575	dec_nonsocial_reject_low	1.049575	32.000000	n/a	2	-4.166667e-02	-1.041667e-01
155.357860	1.099323	dec_nonsocial_choice	1.099323	32.000000	n/a	16	2.682292e-01	2.682292e-01
155.357860	1.099323	dec_choice	1.099323	32.000000	n/a	16	2.656250e-01	2.656250e-01
155.357860	1.099323	dec_nonsocial_accept	1.099323	32.000000	n/a	16	1.125000e-01	1.125000e-01
155.357860	1.099323	dec_accept	1.099323	32.000000	n/a	16	6.250000e-02	6.250000e-02
155.357860	1.099323	dec_nonsocial_accept_high	1.099323	32.000000	n/a	16	1.458333e-01	1.458333e-01
162.190100	1.166614	dec_social_choice	1.166614	32.000000	n/a	0	0	-2.317708e-01
162.190100	1.166614	dec_choice	1.166614	32.000000	n/a	0	0	-2.291667e-01
162.190100	1.166614	dec_social_reject	1.166614	32.000000	n/a	0	0	-5.803571e-02
162.190100	1.166614	dec_reject	1.166614	32.000000	n/a	0	0	-4.166667e-02
162.190100	1.166614	dec_social_low	1.166614	32.000000	n/a	0	-2.291667e-01	-2.291667e-01
162.190100	1.166614	dec_social_reject_low	1.166614	32.000000	n/a	2	-1.666667e-01	-2.291667e-01
169.841170	1.049459	dec_nonsocial_choice	1.049459	32.000000	n/a	0	0	-2.317708e-01
169.841170	1.049459	dec_choice	1.049459	32.000000	n/a	0	0	-2.343750e-01
169.841170	1.049459	dec_nonsocial_reject	1.049459	32.000000	n/a	0	0	1.294643e-01
169.841170	1.049459	dec_reject	1.049459	32.000000	n/a	0	0	1.171875e-01
169.841170	1.049459	dec_nonsocial_reject_low	1.049459	32.000000	n/a	8	1.458333e-01	-1.041667e-01
176.673840	1.199911	dec_nonsocial_choice	1.199911	16.000000	n/a	0	0	-2.317708e-01
176.673840	1.199911	dec_choice	1.199911	16.000000	n/a	0	0	-2.343750e-01
176.673840	1.199911	dec_nonsocial_reject	1.199911	16.000000	n/a	0	0	4.464286e-03
176.673840	1.199911	dec_reject	1.199911	16.000000	n/a	0	0	-7.812500e-03
176.673840	1.199911	dec_nonsocial_reject_low	1.199911	16.000000	n/a	2	2.083333e-02	-1.041667e-01
184.323780	1.333304	dec_social_choice	1.333304	32.000000	n/a	8	1.822917e-02	1.822917e-02
184.323780	1.333304	dec_choice	1.333304	32.000000	n/a	8	2.083333e-02	2.083333e-02
184.323780	1.333304	dec_social_accept	1.333304	32.000000	n/a	8	-1.375000e-01	-1.375000e-01
184.323780	1.333304	dec_accept	1.333304	32.000000	n/a	8	-1.041667e-01	-1.041667e-01
184.323780	1.333304	dec_social_high	1.333304	32.000000	n/a	8	2.083333e-02	2.083333e-02
184.323780	1.333304	dec_social_accept_high	1.333304	32.000000	n/a	8	2.083333e-02	2.083333e-02
191.158020	1.282258	dec_social_choice	1.282258	32.000000	n/a	8	1.822917e-02	1.822917e-02
191.158020	1.282258	dec_choice	1.282258	32.000000	n/a	8	2.083333e-02	2.083333e-02
191.158020	1.282258	dec_social_accept	1.282258	32.000000	n/a	8	-1.375000e-01	-1.375000e-01
191.158020	1.282258	dec_accept	1.282258	32.000000	n/a	8	-1.041667e-01	-1.041667e-01
191.158020	1.282258	dec_social_high	1.282258	32.000000	n/a	8	2.083333e-02	2.083333e-02
191.158020	1.282258	dec_social_accept_high	1.282258	32.000000	n/a	8	2.083333e-02	2.083333e-02
198.806730	1.383703	dec_social_choice	1.383703	16.000000	n/a	8	2.682292e-01	2.682292e-01
198.806730	1.383703	dec_choice	1.383703	16.000000	n/a	8	2.708333e-01	2.708333e-01
198.806730	1.383703	dec_social_accept	1.383703	16.000000	n/a	8	1.125000e-01	1.125000e-01
198.806730	1.383703	dec_accept	1.383703	16.000000	n/a	8	1.458333e-01	1.458333e-01
198.806730	1.383703	dec_social_accept_high	1.383703	16.000000	n/a	8	2.708333e-01	2.708333e-01
208.057590	1.149400	dec_nonsocial_choice	1.149400	16.000000	n/a	0	0	-2.317708e-01
208.057590	1.149400	dec_choice	1.149400	16.000000	n/a	0	0	-2.343750e-01
208.057590	1.149400	dec_nonsocial_reject	1.149400	16.000000	n/a	0	0	1.294643e-01
208.057590	1.149400	dec_reject	1.149400	16.000000	n/a	0	0	1.171875e-01
208.057590	1.149400	dec_nonsocial_low	1.149400	16.000000	n/a	0	-2.343750e-01	-2.343750e-01
208.057590	1.149400	dec_nonsocial_reject_low	1.149400	16.000000	n/a	4	1.171875e-01	-1.328125e-01
215.706900	1.149838	dec_social_choice	1.149838	16.000000	n/a	0	0	-2.317708e-01
215.706900	1.149838	dec_choice	1.149838	16.000000	n/a	0	0	-2.291667e-01
215.706900	1.149838	dec_social_reject	1.149838	16.000000	n/a	0	0	1.294643e-01
215.706900	1.149838	dec_reject	1.149838	16.000000	n/a	0	0	1.458333e-01
215.706900	1.149838	dec_social_reject_low	1.149838	16.000000	n/a	4	2.083333e-02	-2.291667e-01
222.540510	1.466116	dec_nonsocial_choice	1.466116	16.000000	n/a	0	0	-2.317708e-01
222.540510	1.466116	dec_choice	1.466116	16.000000	n/a	0	0	-2.343750e-01
222.540510	1.466116	dec_nonsocial_reject	1.466116	16.000000	n/a	0	0	4.464286e-03
222.540510	1.466116	dec_reject	1.466116	16.000000	n/a	0	0	-7.812500e-03
222.540510	1.466116	dec_nonsocial_reject_low	1.466116	16.000000	n/a	2	2.083333e-02	-1.041667e-01
229.373750	1.366334	dec_nonsocial_choice	1.366334	32.000000	n/a	8	1.822917e-02	1.822917e-02
229.373750	1.366334	dec_choice	1.366334	32.000000	n/a	8	1.562500e-02	1.562500e-02
229.373750	1.366334	dec_nonsocial_accept	1.366334	32.000000	n/a	8	-1.375000e-01	-1.375000e-01
229.373750	1.366334	dec_accept	1.366334	32.000000	n/a	8	-1.875000e-01	-1.875000e-01
229.373750	1.366334	dec_nonsocial_accept_high	1.366334	32.000000	n/a	8	-1.041667e-01	-1.041667e-01
237.023650	1.216274	dec_nonsocial_choice	1.216274	16.000000	n/a	8	2.682292e-01	2.682292e-01
237.023650	1.216274	dec_choice	1.216274	16.000000	n/a	8	2.656250e-01	2.656250e-01
237.023650	1.216274	dec_nonsocial_accept	1.216274	16.000000	n/a	8	1.125000e-01	1.125000e-01
237.023650	1.216274	dec_accept	1.216274	16.000000	n/a	8	6.250000e-02	6.250000e-02
237.023650	1.216274	dec_nonsocial_accept_high	1.216274	16.000000	n/a	8	1.458333e-01	1.458333e-01
244.673650	0.749621	dec_social_choice	0.749621	32.000000	n/a	0	0	-2.317708e-01
244.673650	0.749621	dec_choice	0.749621	32.000000	n/a	0	0	-2.291667e-01
244.673650	0.749621	dec_social_reject	0.749621	32.000000	n/a	0	0	-2.678571e-02
244.673650	0.749621	dec_reject	0.749621	32.000000	n/a	0	0	-1.041667e-02
244.673650	0.749621	dec_social_reject_low	0.749621	32.000000	n/a	3	-1.354167e-01	-2.291667e-01
255.540740	0.999727	dec_social_choice	0.999727	16.000000	n/a	0	0	-2.317708e-01
255.540740	0.999727	dec_choice	0.999727	16.000000	n/a	0	0	-2.291667e-01
255.540740	0.999727	dec_social_reject	0.999727	16.000000	n/a	0	0	-5.803571e-02
255.540740	0.999727	dec_reject	0.999727	16.000000	n/a	0	0	-4.166667e-02
255.540740	0.999727	dec_social_reject_low	0.999727	16.000000	n/a	1	-1.666667e-01	-2.291667e-01
262.373840	1.032888	dec_nonsocial_choice	1.032888	16.000000	n/a	0	0	-2.317708e-01
262.373840	1.032888	dec_choice	1.032888	16.000000	n/a	0	0	-2.343750e-01
262.373840	1.032888	dec_nonsocial_reject	1.032888	16.000000	n/a	0	0	-5.803571e-02
262.373840	1.032888	dec_reject	1.032888	16.000000	n/a	0	0	-7.031250e-02
262.373840	1.032888	dec_nonsocial_reject_low	1.032888	16.000000	n/a	1	-4.166667e-02	-1.041667e-01
270.023470	1.083327	dec_nonsocial_choice	1.083327	32.000000	n/a	16	2.682292e-01	2.682292e-01
270.023470	1.083327	dec_choice	1.083327	32.000000	n/a	16	2.656250e-01	2.656250e-01
270.023470	1.083327	dec_nonsocial_accept	1.083327	32.000000	n/a	16	1.125000e-01	1.125000e-01
270.023470	1.083327	dec_accept	1.083327	32.000000	n/a	16	6.250000e-02	6.250000e-02
270.023470	1.083327	dec_nonsocial_accept_high	1.083327	32.000000	n/a	16	1.458333e-01	1.458333e-01
277.673830	0.749700	dec_nonsocial_choice	0.749700	32.000000	n/a	0	0	-2.317708e-01
277.673830	0.749700	dec_choice	0.749700	32.000000	n/a	0	0	-2.343750e-01
277.673830	0.749700	dec_nonsocial_reject	0.749700	32.000000	n/a	0	0	-5.803571e-02
277.673830	0.749700	dec_reject	0.749700	32.000000	n/a	0	0	-7.031250e-02
277.673830	0.749700	dec_nonsocial_reject_low	0.749700	32.000000	n/a	2	-4.166667e-02	-1.041667e-01
284.507450	0.865365	dec_nonsocial_choice	0.865365	32.000000	n/a	0	0	-2.317708e-01
284.507450	0.865365	dec_choice	0.865365	32.000000	n/a	0	0	-2.343750e-01
284.507450	0.865365	dec_nonsocial_reject	0.865365	32.000000	n/a	0	0	-5.803571e-02
284.507450	0.865365	dec_reject	0.865365	32.000000	n/a	0	0	-7.031250e-02
284.507450	0.865365	dec_nonsocial_reject_low	0.865365	32.000000	n/a	2	-4.166667e-02	-1.041667e-01
291.339970	1.450289	dec_social_choice	1.450289	16.000000	n/a	0	0	-2.317708e-01
291.339970	1.450289	dec_choice	1.450289	16.000000	n/a	0	0	-2.291667e-01
291.339970	1.450289	dec_social_reject	1.450289	16.000000	n/a	0	0	-5.803571e-02
291.339970	1.450289	dec_reject	1.450289	16.000000	n/a	0	0	-4.166667e-02
291.339970	1.450289	dec_social_low	1.450289	16.000000	n/a	0	-2.291667e-01	-2.291667e-01
291.339970	1.450289	dec_social_reject_low	1.450289	16.000000	n/a	1	-1.666667e-01	-2.291667e-01
298.989780	1.266649	dec_social_choice	1.266649	32.000000	n/a	0	0	-2.317708e-01
298.989780	1.266649	dec_choice	1.266649	32.000000	n/a	0	0	-2.291667e-01
298.989780	1.266649	dec_social_reject	1.266649	32.000000	n/a	0	0	-2.678571e-02
298.989780	1.266649	dec_reject	1.266649	32.000000	n/a	0	0	-1.041667e-02
298.989780	1.266649	dec_social_low	1.266649	32.000000	n/a	0	-2.291667e-01	-2.291667e-01
298.989780	1.266649	dec_social_reject_low	1.266649	32.000000	n/a	3	-1.354167e-01	-2.291667e-01
305.823240	1.183426	dec_social_choice	1.183426	16.000000	n/a	0	0	-2.317708e-01
305.823240	1.183426	dec_choice	1.183426	16.000000	n/a	0	0	-2.291667e-01
305.823240	1.183426	dec_social_reject	1.183426	16.000000	n/a	0	0	-5.803571e-02
305.823240	1.183426	dec_reject	1.183426	16.000000	n/a	0	0	-4.166667e-02
305.823240	1.183426	dec_social_low	1.183426	16.000000	n/a	0	-2.291667e-01	-2.291667e-01
305.823240	1.183426	dec_social_reject_low	1.183426	16.000000	n/a	1	-1.666667e-01	-2.291667e-01
312.656700	1.233329	dec_nonsocial_choice	1.233329	16.000000	n/a	8	2.682292e-01	2.682292e-01
312.656700	1.233329	dec_choice	1.233329	16.000000	n/a	8	2.656250e-01	2.656250e-01
312.656700	1.233329	dec_nonsocial_accept	1.233329	16.000000	n/a	8	1.125000e-01	1.125000e-01
312.656700	1.233329	dec_accept	1.233329	16.000000	n/a	8	6.250000e-02	6.250000e-02
312.656700	1.233329	dec_nonsocial_accept_high	1.233329	16.000000	n/a	8	1.458333e-01	1.458333e-01
319.490700	0.932753	dec_social_choice	0.932753	32.000000	n/a	0	0	-2.317708e-01
319.490700	0.932753	dec_choice	0.932753	32.000000	n/a	0	0	-2.291667e-01
319.490700	0.932753	dec_social_reject	0.932753	32.000000	n/a	0	0	-5.803571e-02
319.490700	0.932753	dec_reject	0.932753	32.000000	n/a	0	0	-4.166667e-02
319.490700	0.932753	dec_social_low	0.932753	32.000000	n/a	0	-2.291667e-01	-2.291667e-01
319.490700	0.932753	dec_social_reject_low	0.932753	32.000000	n/a	2	-1.666667e-01	-2.291667e-01
327.140660	0.965532	dec_social_choice	0.965532	16.000000	n/a	8	2.682292e-01	2.682292e-01
327.140660	0.965532	dec_choice	0.965532	16.000000	n/a	8	2.708333e-01	2.708333e-01
327.140660	0.965532	dec_social_accept	0.965532	16.000000	n/a	8	1.125000e-01	1.125000e-01
327.140660	0.965532	dec_accept	0.965532	16.000000	n/a	8	1.458333e-01	1.458333e-01
327.140660	0.965532	dec_social_accept_high	0.965532	16.000000	n/a	8	2.708333e-01	2.708333e-01
333.973420	0.916097	dec_nonsocial_choice	0.916097	16.000000	n/a	0	0	-2.317708e-01
333.973420	0.916097	dec_choice	0.916097	16.000000	n/a	0	0	-2.343750e-01
333.973420	0.916097	dec_nonsocial_reject	0.916097	16.000000	n/a	0	0	4.464286e-03
333.973420	0.916097	dec_reject	0.916097	16.000000	n/a	0	0	-7.812500e-03
333.973420	0.916097	dec_nonsocial_low	0.916097	16.000000	n/a	0	-2.343750e-01	-2.343750e-01
333.973420	0.916097	dec_nonsocial_reject_low	0.916097	16.000000	n/a	2	-7.812500e-03	-1.328125e-01
340.806600	1.650186	dec_nonsocial_choice	1.650186	16.000000	n/a	0	0	-2.317708e-01
340.806600	1.650186	dec_choice	1.650186	16.000000	n/a	0	0	-2.343750e-01
340.806600	1.650186	dec_nonsocial_reject	1.650186	16.000000	n/a	0	0	4.464286e-03
340.806600	1.650186	dec_reject	1.650186	16.000000	n/a	0	0	-7.812500e-03
340.806600	1.650186	dec_nonsocial_reject_low	1.650186	16.000000	n/a	2	2.083333e-02	-1.041667e-01
347.640470	1.265461	dec_nonsocial_choice	1.265461	16.000000	n/a	0	0	-2.317708e-01
347.640470	1.265461	dec_choice	1.265461	16.000000	n/a	0	0	-2.343750e-01
347.640470	1.265461	dec_nonsocial_reject	1.265461	16.000000	n/a	0	0	1.294643e-01
347.640470	1.265461	dec_reject	1.265461	16.000000	n/a	0	0	1.171875e-01
347.640470	1.265461	dec_nonsocial_reject_low	1.265461	16.000000	n/a	4	1.458333e-01	-1.041667e-01
356.906800	1.249824	dec_nonsocial_choice	1.249824	32.000000	n/a	0	0	-2.317708e-01
356.906800	1.249824	dec_choice	1.249824	32.000000	n/a	0	0	-2.343750e-01
356.906800	1.249824	dec_nonsocial_reject	1.249824	32.000000	n/a	0	0	-5.803571e-02
356.906800	1.249824	dec_reject	1.249824	32.000000	n/a	0	0	-7.031250e-02
356.906800	1.249824	dec_nonsocial_reject_low	1.249824	32.000000	n/a	2	-4.166667e-02	-1.041667e-01
363.740020	1.599700	dec_social_choice	1.599700	16.000000	n/a	2	-1.067708e-01	-1.067708e-01
363.740020	1.599700	dec_choice	1.599700	16.000000	n/a	2	-1.041667e-01	-1.041667e-01
363.740020	1.599700	dec_social_accept	1.599700	16.000000	n/a	2	-2.625000e-01	-2.625000e-01
363.740020	1.599700	dec_accept	1.599700	16.000000	n/a	2	-2.291667e-01	-2.291667e-01
363.740020	1.599700	dec_social_low	1.599700	16.000000	n/a	2	-1.041667e-01	-1.041667e-01
363.740020	1.599700	dec_social_accept_low	1.599700	16.000000	n/a	2	-1.041667e-01	-1.041667e-01
370.572700	1.233858	dec_social_choice	1.233858	16.000000	n/a	0	0	-2.317708e-01
370.572700	1.233858	dec_choice	1.233858	16.000000	n/a	0	0	-2.291667e-01
370.572700	1.233858	dec_social_reject	1.233858	16.000000	n/a	0	0	1.294643e-01
370.572700	1.233858	dec_reject	1.233858	16.000000	n/a	0	0	1.458333e-01
370.572700	1.233858	dec_social_reject_low	1.233858	16.000000	n/a	4	2.083333e-02	-2.291667e-01
