onset	duration	trial_type	response_time	Endowment	Decision	Offer
4.579148	2	cue_social	n/a	32	n/a	n/a
4.579148	2	cue_social_high	n/a	32	n/a	n/a
6.514043	0.800662	dec_social_high	0.800662	32	n/a	8
6.514043	0.800662	dec_social_high_accept	0.800662	32	accept	8
12.201866	2	cue_social	n/a	16	n/a	n/a
12.201866	2	cue_social_low	n/a	16	n/a	n/a
14.148171	0.815803	dec_social_low	0.815803	16	n/a	8
14.148171	0.815803	dec_social_low_accept	0.815803	16	accept	8
19.041190	2	cue_social	n/a	32	n/a	n/a
19.041190	2	cue_social_high	n/a	32	n/a	n/a
20.980980	1.116078	dec_social_high	1.116078	32	n/a	2
20.980980	1.116078	dec_social_high_reject	1.116078	32	reject	2
25.807962	2	cue_nonsocial	n/a	32	n/a	n/a
25.807962	2	cue_nonsocial_high	n/a	32	n/a	n/a
27.814098	0.933513	dec_nonsocial_high	0.933513	32	n/a	8
27.814098	0.933513	dec_nonsocial_high_accept	0.933513	32	accept	8
32.703037	2	cue_social	n/a	16	n/a	n/a
32.703037	2	cue_social_low	n/a	16	n/a	n/a
34.647310	0.966707	dec_social_low	0.966707	16	n/a	8
34.647310	0.966707	dec_social_low_accept	0.966707	16	accept	8
39.474567	2	cue_nonsocial	n/a	16	n/a	n/a
39.474567	2	cue_nonsocial_low	n/a	16	n/a	n/a
41.482056	1.032018	dec_nonsocial_low	1.032018	16	n/a	1
41.482056	1.032018	dec_nonsocial_low_reject	1.032018	16	reject	1
50.414230	2	cue_social	n/a	16	n/a	n/a
50.414230	2	cue_social_low	n/a	16	n/a	n/a
52.347233	1.433307	dec_social_low	1.433307	16	n/a	4
52.347233	1.433307	dec_social_low_reject	1.433307	16	reject	4
57.991440	2	cue_nonsocial	n/a	32	n/a	n/a
57.991440	2	cue_nonsocial_high	n/a	32	n/a	n/a
59.997066	0.833784	dec_nonsocial_high	0.833784	32	n/a	3
59.997066	0.833784	dec_nonsocial_high_reject	0.833784	32	reject	3
65.641200	2	cue_nonsocial	n/a	32	n/a	n/a
65.641200	2	cue_nonsocial_high	n/a	32	n/a	n/a
67.647760	1.149852	dec_nonsocial_high	1.149852	32	n/a	2
67.647760	1.149852	dec_nonsocial_high_reject	1.149852	32	reject	2
72.474730	2	cue_nonsocial	n/a	16	n/a	n/a
72.474730	2	cue_nonsocial_low	n/a	16	n/a	n/a
74.481150	1.599605	dec_nonsocial_low	1.599605	16	n/a	8
74.481150	1.599605	dec_nonsocial_low_accept	1.599605	16	accept	8
80.186560	2	cue_social	n/a	16	n/a	n/a
80.186560	2	cue_social_low	n/a	16	n/a	n/a
82.130050	0.984143	dec_social_low	0.984143	16	n/a	8
82.130050	0.984143	dec_social_low_accept	0.984143	16	accept	8
87.856800	2	cue_social	n/a	16	n/a	n/a
87.856800	2	cue_social_low	n/a	16	n/a	n/a
89.764120	0.883399	dec_social_low	0.883399	16	n/a	1
89.764120	0.883399	dec_social_low_reject	0.883399	16	reject	1
95.407814	2	cue_nonsocial	n/a	32	n/a	n/a
95.407814	2	cue_nonsocial_high	n/a	32	n/a	n/a
97.414400	1.066123	dec_nonsocial_high	1.066123	32	n/a	16
97.414400	1.066123	dec_nonsocial_high_accept	1.066123	32	accept	16
102.241430	2	cue_nonsocial	n/a	16	n/a	n/a
102.241430	2	cue_nonsocial_low	n/a	16	n/a	n/a
104.246864	0.883887	dec_nonsocial_low	0.883887	16	n/a	2
104.246864	0.883887	dec_nonsocial_low_reject	0.883887	16	reject	2
113.137550	2	cue_social	n/a	32	n/a	n/a
113.137550	2	cue_social_high	n/a	32	n/a	n/a
115.114070	0.782879	dec_social_high	0.782879	32	n/a	3
115.114070	0.782879	dec_social_high_reject	0.782879	32	reject	3
119.941190	2	cue_nonsocial	n/a	16	n/a	n/a
119.941190	2	cue_nonsocial_low	n/a	16	n/a	n/a
121.947914	1.649627	dec_nonsocial_low	1.649627	16	n/a	4
121.947914	1.649627	dec_nonsocial_low_accept	1.649627	16	accept	4
126.774280	2	cue_nonsocial	n/a	32	n/a	n/a
126.774280	2	cue_nonsocial_high	n/a	32	n/a	n/a
128.781000	1.233139	dec_nonsocial_high	1.233139	32	n/a	3
128.781000	1.233139	dec_nonsocial_high_reject	1.233139	32	reject	3
133.607670	2	cue_nonsocial	n/a	32	n/a	n/a
133.607670	2	cue_nonsocial_high	n/a	32	n/a	n/a
135.614170	1.266202	dec_nonsocial_high	1.266202	32	n/a	8
135.614170	1.266202	dec_nonsocial_high_accept	1.266202	32	accept	8
140.488860	2	cue_social	n/a	16	n/a	n/a
140.488860	2	cue_social_low	n/a	16	n/a	n/a
142.447780	1.115816	dec_social_low	1.115816	16	n/a	8
142.447780	1.115816	dec_social_low_accept	1.115816	16	accept	8
149.774750	2	cue_social	n/a	16	n/a	n/a
149.774750	2	cue_social_low	n/a	16	n/a	n/a
151.713350	1.067018	dec_social_low	1.067018	16	n/a	1
151.713350	1.067018	dec_social_low_reject	1.067018	16	reject	1
156.592760	2	cue_social	n/a	32	n/a	n/a
156.592760	2	cue_social_high	n/a	32	n/a	n/a
158.547160	1.633858	dec_social_high	1.633858	32	n/a	2
158.547160	1.633858	dec_social_high_reject	1.633858	32	reject	2
165.858500	2	cue_social	n/a	32	n/a	n/a
165.858500	2	cue_social_high	n/a	32	n/a	n/a
167.797940	1.182715	dec_social_high	1.182715	32	n/a	3
167.797940	1.182715	dec_social_high_reject	1.182715	32	reject	3
173.441360	2	cue_nonsocial	n/a	16	n/a	n/a
173.441360	2	cue_nonsocial_low	n/a	16	n/a	n/a
175.447110	1.100464	dec_nonsocial_low	1.100464	16	n/a	8
175.447110	1.100464	dec_nonsocial_low_accept	1.100464	16	accept	8
181.131970	2	cue_social	n/a	16	n/a	n/a
181.131970	2	cue_social_low	n/a	16	n/a	n/a
183.080660	1.283325	dec_social_low	1.283325	16	n/a	1
183.080660	1.283325	dec_social_low_reject	1.283325	16	reject	1
187.968960	2	cue_social	n/a	32	n/a	n/a
187.968960	2	cue_social_high	n/a	32	n/a	n/a
189.914000	1.399641	dec_social_high	1.399641	32	n/a	8
189.914000	1.399641	dec_social_high_accept	1.399641	32	accept	8
195.540940	2	cue_nonsocial	n/a	32	n/a	n/a
195.540940	2	cue_nonsocial_high	n/a	32	n/a	n/a
197.547930	1.165888	dec_nonsocial_high	1.165888	32	n/a	3
197.547930	1.165888	dec_nonsocial_high_reject	1.165888	32	reject	3
203.267090	2	cue_social	n/a	16	n/a	n/a
203.267090	2	cue_social_low	n/a	16	n/a	n/a
205.196330	1.483733	dec_social_low	1.483733	16	n/a	4
205.196330	1.483733	dec_social_low_accept	1.483733	16	accept	4
210.024190	2	cue_nonsocial	n/a	16	n/a	n/a
210.024190	2	cue_nonsocial_low	n/a	16	n/a	n/a
212.030080	1.133554	dec_nonsocial_low	1.133554	16	n/a	2
212.030080	1.133554	dec_nonsocial_low_reject	1.133554	16	reject	2
219.273800	2	cue_nonsocial	n/a	16	n/a	n/a
219.273800	2	cue_nonsocial_low	n/a	16	n/a	n/a
221.281110	1.049410	dec_nonsocial_low	1.049410	16	n/a	4
221.281110	1.049410	dec_nonsocial_low_accept	1.049410	16	accept	4
226.177520	2	cue_social	n/a	32	n/a	n/a
226.177520	2	cue_social_high	n/a	32	n/a	n/a
228.113920	1.100023	dec_social_high	1.100023	32	n/a	16
228.113920	1.100023	dec_social_high_accept	1.100023	32	accept	16
232.940920	2	cue_nonsocial	n/a	32	n/a	n/a
232.940920	2	cue_nonsocial_high	n/a	32	n/a	n/a
234.947300	0.999968	dec_nonsocial_high	0.999968	32	n/a	2
234.947300	0.999968	dec_nonsocial_high_reject	0.999968	32	reject	2
239.774230	2	cue_nonsocial	n/a	16	n/a	n/a
239.774230	2	cue_nonsocial_low	n/a	16	n/a	n/a
241.780520	1.366309	dec_nonsocial_low	1.366309	16	n/a	8
241.780520	1.366309	dec_nonsocial_low_accept	1.366309	16	accept	8
247.424180	2	cue_nonsocial	n/a	16	n/a	n/a
247.424180	2	cue_nonsocial_low	n/a	16	n/a	n/a
249.430790	1.133003	dec_nonsocial_low	1.133003	16	n/a	1
249.430790	1.133003	dec_nonsocial_low_reject	1.133003	16	reject	1
254.321440	2	cue_social	n/a	32	n/a	n/a
254.321440	2	cue_social_high	n/a	32	n/a	n/a
256.264040	1.033131	dec_social_high	1.033131	32	n/a	3
256.264040	1.033131	dec_social_high_reject	1.033131	32	reject	3
261.090700	2	cue_nonsocial	n/a	32	n/a	n/a
261.090700	2	cue_nonsocial_high	n/a	32	n/a	n/a
263.098050	1.132469	dec_nonsocial_high	1.132469	32	n/a	16
263.098050	1.132469	dec_nonsocial_high_accept	1.132469	32	accept	16
273.574200	2	cue_nonsocial	n/a	32	n/a	n/a
273.574200	2	cue_nonsocial_high	n/a	32	n/a	n/a
275.581020	0.932704	dec_nonsocial_high	0.932704	32	n/a	2
275.581020	0.932704	dec_nonsocial_high_accept	0.932704	32	accept	2
284.440920	2	cue_nonsocial	n/a	16	n/a	n/a
284.440920	2	cue_nonsocial_low	n/a	16	n/a	n/a
286.446960	1.033760	dec_nonsocial_low	1.033760	16	n/a	2
286.446960	1.033760	dec_nonsocial_low_reject	1.033760	16	reject	2
291.358370	2	cue_social	n/a	16	n/a	n/a
291.358370	2	cue_social_low	n/a	16	n/a	n/a
293.280400	1.216702	dec_social_low	1.216702	16	n/a	1
293.280400	1.216702	dec_social_low_reject	1.216702	16	reject	1
298.107200	2	cue_nonsocial	n/a	32	n/a	n/a
298.107200	2	cue_nonsocial_high	n/a	32	n/a	n/a
300.114140	3.766946	missed_trial	n/a	32.000000	n/a	n/a
305.024750	2	cue_social	n/a	16	n/a	n/a
305.024750	2	cue_social_low	n/a	16	n/a	n/a
306.964170	1.049230	dec_social_low	1.049230	16	n/a	4
306.964170	1.049230	dec_social_low_reject	1.049230	16	reject	4
311.850130	2	cue_social	n/a	32	n/a	n/a
311.850130	2	cue_social_high	n/a	32	n/a	n/a
313.797030	0.915888	dec_social_high	0.915888	32	n/a	3
313.797030	0.915888	dec_social_high_reject	0.915888	32	reject	3
321.120120	2	cue_social	n/a	32	n/a	n/a
321.120120	2	cue_social_high	n/a	32	n/a	n/a
323.063960	0.965744	dec_social_high	0.965744	32	n/a	16
323.063960	0.965744	dec_social_high_accept	0.965744	32	accept	16
330.307220	2	cue_nonsocial	n/a	32	n/a	n/a
330.307220	2	cue_nonsocial_high	n/a	32	n/a	n/a
332.313600	1.099930	dec_nonsocial_high	1.099930	32	n/a	16
332.313600	1.099930	dec_nonsocial_high_accept	1.099930	32	accept	16
337.220250	2	cue_social	n/a	16	n/a	n/a
337.220250	2	cue_social_low	n/a	16	n/a	n/a
339.146000	0.933611	dec_social_low	0.933611	16	n/a	2
339.146000	0.933611	dec_social_low_reject	0.933611	16	reject	2
344.790700	2	cue_nonsocial	n/a	16	n/a	n/a
344.790700	2	cue_nonsocial_low	n/a	16	n/a	n/a
346.796840	0.966166	dec_nonsocial_low	0.966166	16	n/a	1
346.796840	0.966166	dec_nonsocial_low_reject	0.966166	16	reject	1
354.108730	2	cue_social	n/a	16	n/a	n/a
354.108730	2	cue_social_low	n/a	16	n/a	n/a
356.047850	1.148571	dec_social_low	1.148571	16	n/a	4
356.047850	1.148571	dec_social_low_accept	1.148571	16	accept	4
360.873800	2	cue_nonsocial	n/a	16	n/a	n/a
360.873800	2	cue_nonsocial_low	n/a	16	n/a	n/a
362.880000	1.500088	dec_nonsocial_low	1.500088	16	n/a	4
362.880000	1.500088	dec_nonsocial_low_accept	1.500088	16	accept	4
368.599730	2	cue_social	n/a	32	n/a	n/a
368.599730	2	cue_social_high	n/a	32	n/a	n/a
370.514000	1.049494	dec_social_high	1.049494	32	n/a	3
370.514000	1.049494	dec_social_high_reject	1.049494	32	reject	3
