instrText,stimDoor,stimDoorLure,stimFace,stimFaceLure,Instructions.thisRepN,Instructions.thisTrialN,Instructions.thisN,Instructions.thisIndex,Trials.thisRepN,Trials.thisTrialN,Trials.thisN,Trials.thisIndex,Func,Keys,Text,RespTime,Onset,Offset,SystemTime_Start,SystemTime_Stop,Stim,Lure,Participant*,Age,date,expName,psychopyVersion,frameRate,
"In the earlier Feedback Games, you chose which doors contained a prize, and which peers liked you. 

You then saw positive or negative feedback (green check mark or red X) from the door or peer you selected.

You will now see a series of doors and peers, some of which you saw during the earlier Feedback Games, and some that you have never seen before.

Please press the spacebar to continue.",,,,,0,0,0,0,,,,,instrFunc,space,"In the earlier Feedback Games, you chose which doors contained a prize, and which peers liked you. 

You then saw positive or negative feedback (green check mark or red X) from the door or peer you selected.

You will now see a series of doors and peers, some of which you saw during the earlier Feedback Games, and some that you have never seen before.

Please press the spacebar to continue.",74.87824069999624,14.05339609994553,89.01716939965263,2023-03-17 17:19:15.587343,2023-03-17 17:20:30.547206,,,10369,30-49,2023-03-17_17h19.12.391,Recall,2021.2.3,60.07979799381466,
"For doors/peers that you remember selecting and getting feedback from, your job is to RECALL what feedback you received. 

Press '1' if you recall positive feedback. 

Press '2' if you recall negative feedback

Press the spacebar to continue.",,,,,0,1,1,1,,,,,instrFunc,space,"For doors/peers that you remember selecting and getting feedback from, your job is to RECALL what feedback you received. 

Press '1' if you recall positive feedback. 

Press '2' if you recall negative feedback

Press the spacebar to continue.",8.914263400016353,88.9692332999548,97.94005319999997,2023-03-17 17:20:30.548207,2023-03-17 17:20:39.503440,,,10369,30-49,2023-03-17_17h19.12.391,Recall,2021.2.3,60.07979799381466,
"For doors/peers that you don't remember getting feedback from, your job is to PREDICT what feedback you WOULD HAVE received.

Press '9' if you predict positive feedback.

Press '0' if you predict negative feedback. 

Please press the spacebar to continue.",,,,,0,2,2,2,,,,,instrFunc,space,"For doors/peers that you don't remember getting feedback from, your job is to PREDICT what feedback you WOULD HAVE received.

Press '9' if you predict positive feedback.

Press '0' if you predict negative feedback. 

Please press the spacebar to continue.",9.009142700000666,97.92257719999179,106.97707239992451,2023-03-17 17:20:39.504440,2023-03-17 17:20:48.543276,,,10369,30-49,2023-03-17_17h19.12.391,Recall,2021.2.3,60.07979799381466,
"This task is self-paced, and the prompts will always stay on the screen so that you know which buttons to press.

On the next screen we will show you what those prompts look like, so that you know exactly what to expect. 

You will start with either doors or peers, and then switch halfway through. 

Please press the spacebar to continue.",,,,,0,3,3,3,,,,,instrFunc,space,"This task is self-paced, and the prompts will always stay on the screen so that you know which buttons to press.

On the next screen we will show you what those prompts look like, so that you know exactly what to expect. 

You will start with either doors or peers, and then switch halfway through. 

Please press the spacebar to continue.",12.707424200023524,106.9602982000215,119.71746750012971,2023-03-17 17:20:48.544277,2023-03-17 17:21:01.285777,,,10369,30-49,2023-03-17_17h19.12.391,Recall,2021.2.3,60.07979799381466,
,,,,,,,,,,,,,imgtextFunc,space,"Here is what the screen will look like while you make your ratings.
The green circles remind you to press 1 or 9 for positive feedback.
The red circles remind you to press 2 or 0 for positive feedback.









Please let the experimenter know if you have any questions.

Whenever you're ready, press the spacebar to start the task.",21.302219700068235,119.82952609995846,141.29099709994625,2023-03-17 17:21:01.295741,2023-03-17 17:21:22.751211,,,10369,30-49,2023-03-17_17h19.12.391,Recall,2021.2.3,60.07979799381466,
,DD021.jpg,0,FF021.jpg,0,,,,,0,0,0,20,imgFunc,2,NA,6.516619200003333,141.31104980001692,147.97064549988136,2023-03-17 17:21:22.790106,2023-03-17 17:21:29.439522,FF021.jpg,0,10369,30-49,2023-03-17_17h19.12.391,Recall,2021.2.3,60.07979799381466,
,L_SD504.jpg,1,L_MF504.jpg,1,,,,,0,1,1,93,imgFunc,9,NA,6.942233700072393,147.95748989994172,155.0279457999859,2023-03-17 17:21:29.448500,2023-03-17 17:21:36.511384,L_MF504.jpg,1,10369,30-49,2023-03-17_17h19.12.391,Recall,2021.2.3,60.07979799381466,
,SD001.jpg,0,MF001.jpg,0,,,,,0,2,2,50,imgFunc,1,NA,5.846232799929567,155.02153050003108,160.98522810009308,2023-03-17 17:21:36.522356,2023-03-17 17:21:42.482227,MF001.jpg,0,10369,30-49,2023-03-17_17h19.12.391,Recall,2021.2.3,60.07979799381466,
,SD011.jpg,0,MF011.jpg,0,,,,,0,3,3,60,imgFunc,2,NA,3.3940776999806985,160.9856446000049,164.4867226999486,2023-03-17 17:21:42.491228,2023-03-17 17:21:45.984802,MF011.jpg,0,10369,30-49,2023-03-17_17h19.12.391,Recall,2021.2.3,60.07979799381466,
,L_SD506.jpg,1,L_MF506.jpg,1,,,,,0,4,4,95,imgFunc,0,NA,8.40914550004527,164.47461499995552,172.98096389998682,2023-03-17 17:21:45.992578,2023-03-17 17:21:54.490799,L_MF506.jpg,1,10369,30-49,2023-03-17_17h19.12.391,Recall,2021.2.3,60.07979799381466,
,L_DD510.jpg,1,L_FF510.jpg,1,,,,,0,5,5,49,imgFunc,2,NA,4.981378399999812,173.00638279994018,178.10827489988878,2023-03-17 17:21:54.499776,2023-03-17 17:21:59.594223,L_FF510.jpg,1,10369,30-49,2023-03-17_17h19.12.391,Recall,2021.2.3,60.07979799381466,
,SD004.jpg,0,MF004.jpg,0,,,,,0,6,6,53,imgFunc,1,NA,3.798316599917598,178.11743490002118,182.04947009996977,2023-03-17 17:21:59.604198,2023-03-17 17:22:03.530571,MF004.jpg,0,10369,30-49,2023-03-17_17h19.12.391,Recall,2021.2.3,60.07979799381466,
,DD027.jpg,0,FF027.jpg,0,,,,,0,7,7,26,imgFunc,1,NA,1.9596388000063598,182.03603960003238,184.10805479995906,2023-03-17 17:22:03.544535,2023-03-17 17:22:05.615453,FF027.jpg,0,10369,30-49,2023-03-17_17h19.12.391,Recall,2021.2.3,60.07979799381466,
,SD008.jpg,0,MF008.jpg,0,,,,,0,8,8,57,imgFunc,2,NA,4.855179699952714,184.1005971999839,189.05516340001486,2023-03-17 17:22:05.622436,2023-03-17 17:22:10.568942,MF008.jpg,0,10369,30-49,2023-03-17_17h19.12.391,Recall,2021.2.3,60.07979799381466,
,DD016.jpg,0,FF016.jpg,0,,,,,0,9,9,15,imgFunc,0,NA,3.993541300063953,189.0662263999693,193.16782079997938,2023-03-17 17:22:10.577920,2023-03-17 17:22:14.671906,FF016.jpg,0,10369,30-49,2023-03-17_17h19.12.391,Recall,2021.2.3,60.07979799381466,
,SD007.jpg,0,MF007.jpg,0,,,,,0,10,10,56,imgFunc,1,NA,8.099425200023688,193.1763613000512,201.40050220000558,2023-03-17 17:22:14.678889,2023-03-17 17:22:22.894610,MF007.jpg,0,10369,30-49,2023-03-17_17h19.12.391,Recall,2021.2.3,60.07979799381466,
,SD028.jpg,0,MF028.jpg,0,,,,,0,11,11,77,imgFunc,1,NA,1.5350889000110328,201.42073020001408,203.0863943999866,2023-03-17 17:22:22.903611,2023-03-17 17:22:24.562176,MF028.jpg,0,10369,30-49,2023-03-17_17h19.12.391,Recall,2021.2.3,60.07979799381466,
,DD017.jpg,0,FF017.jpg,0,,,,,0,12,12,16,imgFunc,1,NA,2.387203799909912,203.04860660003033,205.53556999994908,2023-03-17 17:22:24.569159,2023-03-17 17:22:27.047413,FF017.jpg,0,10369,30-49,2023-03-17_17h19.12.391,Recall,2021.2.3,60.07979799381466,
,SD026.jpg,0,MF026.jpg,0,,,,,0,13,13,75,imgFunc,2,NA,5.305238300003111,205.53832739999052,210.9441084000282,2023-03-17 17:22:27.054396,2023-03-17 17:22:32.451251,MF026.jpg,0,10369,30-49,2023-03-17_17h19.12.391,Recall,2021.2.3,60.07979799381466,
,L_DD509.jpg,1,L_FF509.jpg,1,,,,,0,14,14,48,imgFunc,2,NA,2.562095999950543,210.95370329997968,213.619613799965,2023-03-17 17:22:32.460229,2023-03-17 17:22:35.120166,L_FF509.jpg,1,10369,30-49,2023-03-17_17h19.12.391,Recall,2021.2.3,60.07979799381466,
,L_SD509.jpg,1,L_MF509.jpg,1,,,,,0,15,15,98,imgFunc,9,NA,10.64192159997765,213.61790740001015,224.37649659987073,2023-03-17 17:22:35.127172,2023-03-17 17:22:45.877570,L_MF509.jpg,1,10369,30-49,2023-03-17_17h19.12.391,Recall,2021.2.3,60.07979799381466,
,DD024.jpg,0,FF024.jpg,0,,,,,0,16,16,23,imgFunc,2,NA,4.433768699993379,224.40992270002607,228.99627390003297,2023-03-17 17:22:45.893552,2023-03-17 17:22:50.464054,FF024.jpg,0,10369,30-49,2023-03-17_17h19.12.391,Recall,2021.2.3,60.07979799381466,
,DD009.jpg,0,FF009.jpg,0,,,,,0,17,17,8,imgFunc,2,NA,12.409919300000183,228.96195230004378,241.4851898001507,2023-03-17 17:22:50.473061,2023-03-17 17:23:02.989764,FF009.jpg,0,10369,30-49,2023-03-17_17h19.12.391,Recall,2021.2.3,60.07979799381466,
,DD033.jpg,0,FF033.jpg,0,,,,,0,18,18,32,imgFunc,9,NA,3.454990900005214,241.50069250003435,245.0802655001171,2023-03-17 17:23:03.000744,2023-03-17 17:23:06.575866,FF033.jpg,0,10369,30-49,2023-03-17_17h19.12.391,Recall,2021.2.3,60.07979799381466,
,SD032.jpg,0,MF032.jpg,0,,,,,0,19,19,81,imgFunc,9,NA,5.097406500019133,245.07446509995498,250.27948589983862,2023-03-17 17:23:06.582875,2023-03-17 17:23:11.779436,MF032.jpg,0,10369,30-49,2023-03-17_17h19.12.391,Recall,2021.2.3,60.07979799381466,
,SD021.jpg,0,MF021.jpg,0,,,,,0,20,20,70,imgFunc,1,NA,3.3856934999348596,250.29027600004338,253.79079610004555,2023-03-17 17:23:11.788443,2023-03-17 17:23:15.282111,MF021.jpg,0,10369,30-49,2023-03-17_17h19.12.391,Recall,2021.2.3,60.07979799381466,
,DD028.jpg,0,FF028.jpg,0,,,,,0,21,21,27,imgFunc,0,NA,4.703271299949847,253.78057950001676,258.58796659996733,2023-03-17 17:23:15.296075,2023-03-17 17:23:20.102067,FF028.jpg,0,10369,30-49,2023-03-17_17h19.12.391,Recall,2021.2.3,60.07979799381466,
,DD018.jpg,0,FF018.jpg,0,,,,,0,22,22,17,imgFunc,1,NA,6.410472900024615,258.59325339994393,265.1131769999629,2023-03-17 17:23:20.111045,2023-03-17 17:23:26.623471,FF018.jpg,0,10369,30-49,2023-03-17_17h19.12.391,Recall,2021.2.3,60.07979799381466,
,DD025.jpg,0,FF025.jpg,0,,,,,0,23,23,24,imgFunc,0,NA,5.2897826000116765,265.1381342000095,270.5567795999814,2023-03-17 17:23:26.632455,2023-03-17 17:23:32.043941,FF025.jpg,0,10369,30-49,2023-03-17_17h19.12.391,Recall,2021.2.3,60.07979799381466,
,SD040.jpg,0,MF040.jpg,0,,,,,0,24,24,89,imgFunc,1,NA,9.589820499997586,270.5579057999421,280.27859449980315,2023-03-17 17:23:32.052919,2023-03-17 17:23:41.767584,MF040.jpg,0,10369,30-49,2023-03-17_17h19.12.391,Recall,2021.2.3,60.07979799381466,
,SD027.jpg,0,MF027.jpg,0,,,,,0,25,25,76,imgFunc,9,NA,5.30890070006717,280.2790285999654,285.7143960999092,2023-03-17 17:23:41.776562,2023-03-17 17:23:47.204812,MF027.jpg,0,10369,30-49,2023-03-17_17h19.12.391,Recall,2021.2.3,60.07979799381466,
,SD002.jpg,0,MF002.jpg,0,,,,,0,26,26,51,imgFunc,2,NA,5.563620000029914,285.69630459998734,291.3627539000008,2023-03-17 17:23:47.214787,2023-03-17 17:23:52.875472,MF002.jpg,0,10369,30-49,2023-03-17_17h19.12.391,Recall,2021.2.3,60.07979799381466,
,SD014.jpg,0,MF014.jpg,0,,,,,0,27,27,63,imgFunc,2,NA,4.455157199990936,291.37262419995386,295.94139029993676,2023-03-17 17:23:52.884450,2023-03-17 17:23:57.445598,MF014.jpg,0,10369,30-49,2023-03-17_17h19.12.391,Recall,2021.2.3,60.07979799381466,
,L_SD501.jpg,1,L_MF501.jpg,1,,,,,0,28,28,90,imgFunc,9,NA,8.334945100010373,295.95715819997713,304.4114394999342,2023-03-17 17:23:57.454575,2023-03-17 17:24:05.901547,L_MF501.jpg,1,10369,30-49,2023-03-17_17h19.12.391,Recall,2021.2.3,60.07979799381466,
,SD012.jpg,0,MF012.jpg,0,,,,,0,29,29,61,imgFunc,1,NA,7.722350399941206,304.41772100003436,312.27076290000696,2023-03-17 17:24:05.910524,2023-03-17 17:24:13.757147,MF012.jpg,0,10369,30-49,2023-03-17_17h19.12.391,Recall,2021.2.3,60.07979799381466,
,L_SD502.jpg,1,L_MF502.jpg,1,,,,,0,30,30,91,imgFunc,1,NA,8.546111200004816,312.2819798999699,320.9559980999911,2023-03-17 17:24:13.773106,2023-03-17 17:24:22.446765,L_MF502.jpg,1,10369,30-49,2023-03-17_17h19.12.391,Recall,2021.2.3,60.07979799381466,
,SD029.jpg,0,MF029.jpg,0,,,,,0,31,31,78,imgFunc,1,NA,6.5847145000007,320.9393390000332,327.62553030007984,2023-03-17 17:24:22.455749,2023-03-17 17:24:29.134589,MF029.jpg,0,10369,30-49,2023-03-17_17h19.12.391,Recall,2021.2.3,60.07979799381466,
,DD013.jpg,0,FF013.jpg,0,,,,,0,32,32,12,imgFunc,9,NA,3.4763204000191763,327.6316681000171,331.2157644000836,2023-03-17 17:24:29.143568,2023-03-17 17:24:32.720725,FF013.jpg,0,10369,30-49,2023-03-17_17h19.12.391,Recall,2021.2.3,60.07979799381466,
,SD034.jpg,0,MF034.jpg,0,,,,,0,33,33,83,imgFunc,1,NA,7.452723399968818,331.21537119999994,338.7707608999917,2023-03-17 17:24:32.728706,2023-03-17 17:24:40.276141,MF034.jpg,0,10369,30-49,2023-03-17_17h19.12.391,Recall,2021.2.3,60.07979799381466,
,SD005.jpg,0,MF005.jpg,0,,,,,0,34,34,54,imgFunc,1,NA,3.3744556000456214,338.7896261999849,342.29019559989683,2023-03-17 17:24:40.285119,2023-03-17 17:24:43.778779,MF005.jpg,0,10369,30-49,2023-03-17_17h19.12.391,Recall,2021.2.3,60.07979799381466,
,DD001.jpg,0,FF001.jpg,0,,,,,0,35,35,0,imgFunc,2,NA,3.8948933000210673,342.28511830000207,346.2901972999098,2023-03-17 17:24:43.793764,2023-03-17 17:24:47.798019,FF001.jpg,0,10369,30-49,2023-03-17_17h19.12.391,Recall,2021.2.3,60.07979799381466,
,DD005.jpg,0,FF005.jpg,0,,,,,0,36,36,4,imgFunc,1,NA,5.821517699980177,346.28664249996655,352.20922229997814,2023-03-17 17:24:47.805024,2023-03-17 17:24:53.719381,FF005.jpg,0,10369,30-49,2023-03-17_17h19.12.391,Recall,2021.2.3,60.07979799381466,
,DD032.jpg,0,FF032.jpg,0,,,,,0,37,37,31,imgFunc,1,NA,4.011400300078094,352.20858740003314,356.3259262001375,2023-03-17 17:24:53.728381,2023-03-17 17:24:57.838705,FF032.jpg,0,10369,30-49,2023-03-17_17h19.12.391,Recall,2021.2.3,60.07979799381466,
,DD011.jpg,0,FF011.jpg,0,,,,,0,38,38,10,imgFunc,0,NA,5.264328300021589,356.33956939994823,361.71138419990893,2023-03-17 17:24:57.845710,2023-03-17 17:25:03.209395,FF011.jpg,0,10369,30-49,2023-03-17_17h19.12.391,Recall,2021.2.3,60.07979799381466,
,DD003.jpg,0,FF003.jpg,0,,,,,0,39,39,2,imgFunc,2,NA,7.565064099966548,361.73512830003165,369.43897000001743,2023-03-17 17:25:03.218372,2023-03-17 17:25:10.914718,FF003.jpg,0,10369,30-49,2023-03-17_17h19.12.391,Recall,2021.2.3,60.07979799381466,
,DD031.jpg,0,FF031.jpg,0,,,,,0,40,40,30,imgFunc,0,NA,5.448591999942437,369.4035750000039,374.95525910006836,2023-03-17 17:25:10.923713,2023-03-17 17:25:16.468709,FF031.jpg,0,10369,30-49,2023-03-17_17h19.12.391,Recall,2021.2.3,60.07979799381466,
,DD038.jpg,0,FF038.jpg,0,,,,,0,41,41,37,imgFunc,1,NA,4.426090499968268,374.97003600001335,379.50487170007546,2023-03-17 17:25:16.477687,2023-03-17 17:25:21.005313,FF038.jpg,0,10369,30-49,2023-03-17_17h19.12.391,Recall,2021.2.3,60.07979799381466,
,SD024.jpg,0,MF024.jpg,0,,,,,0,42,42,73,imgFunc,1,NA,2.2600246999645606,379.5280090000015,381.9292894001119,2023-03-17 17:25:21.013293,2023-03-17 17:25:23.407040,MF024.jpg,0,10369,30-49,2023-03-17_17h19.12.391,Recall,2021.2.3,60.07979799381466,
,SD025.jpg,0,MF025.jpg,0,,,,,0,43,43,74,imgFunc,1,NA,7.694879199960269,381.901234799996,389.7085506998701,2023-03-17 17:25:23.414023,2023-03-17 17:25:31.212607,MF025.jpg,0,10369,30-49,2023-03-17_17h19.12.391,Recall,2021.2.3,60.07979799381466,
,DD007.jpg,0,FF007.jpg,0,,,,,0,44,44,6,imgFunc,1,NA,5.673082599998452,389.73889659997076,395.542288199882,2023-03-17 17:25:31.229484,2023-03-17 17:25:37.016481,FF007.jpg,0,10369,30-49,2023-03-17_17h19.12.391,Recall,2021.2.3,60.07979799381466,
,L_DD501.jpg,1,L_FF501.jpg,1,,,,,0,45,45,40,imgFunc,0,NA,6.726508599938825,395.5095454000402,402.34292710002046,2023-03-17 17:25:37.027454,2023-03-17 17:25:43.855026,L_FF501.jpg,1,10369,30-49,2023-03-17_17h19.12.391,Recall,2021.2.3,60.07979799381466,
,L_DD506.jpg,1,L_FF506.jpg,1,,,,,0,46,46,45,imgFunc,2,NA,3.2838863999349996,402.36810510000214,405.76894620014355,2023-03-17 17:25:43.864004,2023-03-17 17:25:47.257591,L_FF506.jpg,1,10369,30-49,2023-03-17_17h19.12.391,Recall,2021.2.3,60.07979799381466,
,SD039.jpg,0,MF039.jpg,0,,,,,0,47,47,88,imgFunc,0,NA,3.4701994000934064,405.75766799994744,409.34459479991347,2023-03-17 17:25:47.264574,2023-03-17 17:25:50.842858,MF039.jpg,0,10369,30-49,2023-03-17_17h19.12.391,Recall,2021.2.3,60.07979799381466,
,DD029.jpg,0,FF029.jpg,0,,,,,0,48,48,28,imgFunc,0,NA,10.353624199982733,409.3465097999433,419.82116769999266,2023-03-17 17:25:50.850864,2023-03-17 17:26:01.317441,FF029.jpg,0,10369,30-49,2023-03-17_17h19.12.391,Recall,2021.2.3,60.07979799381466,
,SD009.jpg,0,MF009.jpg,0,,,,,0,49,49,58,imgFunc,2,NA,7.091770799946971,419.84828819998074,427.0862667999463,2023-03-17 17:26:01.334442,2023-03-17 17:26:08.555935,MF009.jpg,0,10369,30-49,2023-03-17_17h19.12.391,Recall,2021.2.3,60.07979799381466,
,L_DD508.jpg,1,L_FF508.jpg,1,,,,,0,50,50,47,imgFunc,0,NA,6.75513979990501,427.04900190001354,433.9019053998636,2023-03-17 17:26:08.564941,2023-03-17 17:26:15.411033,L_FF508.jpg,1,10369,30-49,2023-03-17_17h19.12.391,Recall,2021.2.3,60.07979799381466,
,DD019.jpg,0,FF019.jpg,0,,,,,0,51,51,18,imgFunc,9,NA,7.827671900042333,433.92048059997614,441.87388580001425,2023-03-17 17:26:15.420010,2023-03-17 17:26:23.366522,FF019.jpg,0,10369,30-49,2023-03-17_17h19.12.391,Recall,2021.2.3,60.07979799381466,
,L_DD504.jpg,1,L_FF504.jpg,1,,,,,0,52,52,43,imgFunc,2,NA,4.059247300028801,441.8728695999598,446.05785680003464,2023-03-17 17:26:23.375499,2023-03-17 17:26:27.552952,L_FF504.jpg,1,10369,30-49,2023-03-17_17h19.12.391,Recall,2021.2.3,60.07979799381466,
,DD010.jpg,0,FF010.jpg,0,,,,,0,53,53,9,imgFunc,9,NA,9.588093200000003,446.0560770999873,455.75966590002645,2023-03-17 17:26:27.562927,2023-03-17 17:26:37.259906,FF010.jpg,0,10369,30-49,2023-03-17_17h19.12.391,Recall,2021.2.3,60.07979799381466,
,DD006.jpg,0,FF006.jpg,0,,,,,0,54,54,5,imgFunc,2,NA,9.917153000016697,455.7510333999526,465.7715365998447,2023-03-17 17:26:37.269480,2023-03-17 17:26:47.283747,FF006.jpg,0,10369,30-49,2023-03-17_17h19.12.391,Recall,2021.2.3,60.07979799381466,
,SD035.jpg,0,MF035.jpg,0,,,,,0,55,55,84,imgFunc,1,NA,5.700123199960217,465.78391160001047,471.60232509986963,2023-03-17 17:26:47.292745,2023-03-17 17:26:53.104584,MF035.jpg,0,10369,30-49,2023-03-17_17h19.12.391,Recall,2021.2.3,60.07979799381466,
,SD003.jpg,0,MF003.jpg,0,,,,,0,56,56,52,imgFunc,0,NA,9.188140699989162,471.6240664999932,480.9428723999299,2023-03-17 17:26:53.114589,2023-03-17 17:27:02.428063,MF003.jpg,0,10369,30-49,2023-03-17_17h19.12.391,Recall,2021.2.3,60.07979799381466,
,DD034.jpg,0,FF034.jpg,0,,,,,0,57,57,33,imgFunc,2,NA,3.296297000022605,480.94787869998254,484.38057490007486,2023-03-17 17:27:02.436991,2023-03-17 17:27:05.863701,FF034.jpg,0,10369,30-49,2023-03-17_17h19.12.391,Recall,2021.2.3,60.07979799381466,
,DD022.jpg,0,FF022.jpg,0,,,,,0,58,58,21,imgFunc,1,NA,5.430822500027716,484.37340269994456,489.9140316999983,2023-03-17 17:27:05.878663,2023-03-17 17:27:11.417697,FF022.jpg,0,10369,30-49,2023-03-17_17h19.12.391,Recall,2021.2.3,60.07979799381466,
,DD002.jpg,0,FF002.jpg,0,,,,,0,59,59,1,imgFunc,0,NA,5.657908099936321,489.9062986000208,495.6583341999212,2023-03-17 17:27:11.426675,2023-03-17 17:27:17.171595,FF002.jpg,0,10369,30-49,2023-03-17_17h19.12.391,Recall,2021.2.3,60.07979799381466,
,L_DD502.jpg,1,L_FF502.jpg,1,,,,,0,60,60,41,imgFunc,1,NA,10.230271099950187,495.67804140003864,506.0344279001001,2023-03-17 17:27:17.180572,2023-03-17 17:27:27.529365,L_FF502.jpg,1,10369,30-49,2023-03-17_17h19.12.391,Recall,2021.2.3,60.07979799381466,
,DD014.jpg,0,FF014.jpg,0,,,,,0,61,61,13,imgFunc,9,NA,3.1674955000635237,506.04481760005,509.34381280001253,2023-03-17 17:27:27.539340,2023-03-17 17:27:30.831540,FF014.jpg,0,10369,30-49,2023-03-17_17h19.12.391,Recall,2021.2.3,60.07979799381466,
,SD033.jpg,0,MF033.jpg,0,,,,,0,62,62,82,imgFunc,9,NA,3.1082464999053627,509.32802240003366,512.5472462000325,2023-03-17 17:27:30.839544,2023-03-17 17:27:34.050563,MF033.jpg,0,10369,30-49,2023-03-17_17h19.12.391,Recall,2021.2.3,60.07979799381466,
,SD038.jpg,0,MF038.jpg,0,,,,,0,63,63,87,imgFunc,9,NA,2.3444233000045642,512.547841200023,514.987021699897,2023-03-17 17:27:34.064527,2023-03-17 17:27:36.502365,MF038.jpg,0,10369,30-49,2023-03-17_17h19.12.391,Recall,2021.2.3,60.07979799381466,
,L_DD507.jpg,1,L_FF507.jpg,1,,,,,0,64,64,46,imgFunc,2,NA,2.328181500080973,514.9881742999423,517.4251948999008,2023-03-17 17:27:36.509348,2023-03-17 17:27:38.937388,L_FF507.jpg,1,10369,30-49,2023-03-17_17h19.12.391,Recall,2021.2.3,60.07979799381466,
,SD010.jpg,0,MF010.jpg,0,,,,,0,65,65,59,imgFunc,0,NA,6.417493500048295,517.4267962999875,523.950104599935,2023-03-17 17:27:38.944372,2023-03-17 17:27:45.458664,MF010.jpg,0,10369,30-49,2023-03-17_17h19.12.391,Recall,2021.2.3,60.07979799381466,
,L_SD505.jpg,1,L_MF505.jpg,1,,,,,0,66,66,94,imgFunc,0,NA,5.578948299982585,523.9613174999831,529.647077200003,2023-03-17 17:27:45.467665,2023-03-17 17:27:51.146295,L_MF505.jpg,1,10369,30-49,2023-03-17_17h19.12.391,Recall,2021.2.3,60.07979799381466,
,SD006.jpg,0,MF006.jpg,0,,,,,0,67,67,55,imgFunc,1,NA,3.5079310999717563,529.6563924000366,533.2907424998702,2023-03-17 17:27:51.155276,2023-03-17 17:27:54.782079,MF006.jpg,0,10369,30-49,2023-03-17_17h19.12.391,Recall,2021.2.3,60.07979799381466,
,SD017.jpg,0,MF017.jpg,0,,,,,0,68,68,66,imgFunc,1,NA,3.953116500051692,533.2671625999501,537.3216399999801,2023-03-17 17:27:54.789062,2023-03-17 17:27:58.834944,MF017.jpg,0,10369,30-49,2023-03-17_17h19.12.391,Recall,2021.2.3,60.07979799381466,
,SD023.jpg,0,MF023.jpg,0,,,,,0,69,69,72,imgFunc,9,NA,6.78959699999541,537.3266506999498,544.2168866998982,2023-03-17 17:27:58.841927,2023-03-17 17:28:05.723345,MF023.jpg,0,10369,30-49,2023-03-17_17h19.12.391,Recall,2021.2.3,60.07979799381466,
,DD036.jpg,0,FF036.jpg,0,,,,,0,70,70,35,imgFunc,9,NA,1.3996549000730738,544.228648899938,545.744521599845,2023-03-17 17:28:05.732323,2023-03-17 17:28:07.240979,FF036.jpg,0,10369,30-49,2023-03-17_17h19.12.391,Recall,2021.2.3,60.07979799381466,
,SD018.jpg,0,MF018.jpg,0,,,,,0,71,71,67,imgFunc,1,NA,1.5495124000590295,545.7508945999434,547.4205153998919,2023-03-17 17:28:07.247962,2023-03-17 17:28:08.908780,MF018.jpg,0,10369,30-49,2023-03-17_17h19.12.391,Recall,2021.2.3,60.07979799381466,
,SD030.jpg,0,MF030.jpg,0,,,,,0,72,72,79,imgFunc,9,NA,4.646533300052397,547.3978072999744,552.1393449999159,2023-03-17 17:28:08.922745,2023-03-17 17:28:13.662220,MF030.jpg,0,10369,30-49,2023-03-17_17h19.12.391,Recall,2021.2.3,60.07979799381466,
,DD026.jpg,0,FF026.jpg,0,,,,,0,73,73,25,imgFunc,0,NA,4.20262920006644,552.1538248000434,556.4552861999255,2023-03-17 17:28:13.671198,2023-03-17 17:28:17.965295,FF026.jpg,0,10369,30-49,2023-03-17_17h19.12.391,Recall,2021.2.3,60.07979799381466,
,DD023.jpg,0,FF023.jpg,0,,,,,0,74,74,22,imgFunc,2,NA,2.7969865000341088,556.4554493000032,559.3580597001128,2023-03-17 17:28:17.973276,2023-03-17 17:28:20.867402,FF023.jpg,0,10369,30-49,2023-03-17_17h19.12.391,Recall,2021.2.3,60.07979799381466,
,L_SD508.jpg,1,L_MF508.jpg,1,,,,,0,75,75,97,imgFunc,0,NA,6.356390500091948,559.3519361000508,565.8080564999254,2023-03-17 17:28:20.874387,2023-03-17 17:28:27.321941,L_MF508.jpg,1,10369,30-49,2023-03-17_17h19.12.391,Recall,2021.2.3,60.07979799381466,
,DD004.jpg,0,FF004.jpg,0,,,,,0,76,76,3,imgFunc,9,NA,5.922999699949287,565.8334276999813,571.8856982999714,2023-03-17 17:28:27.330949,2023-03-17 17:28:33.376362,FF004.jpg,0,10369,30-49,2023-03-17_17h19.12.391,Recall,2021.2.3,60.07979799381466,
,SD031.jpg,0,MF031.jpg,0,,,,,0,77,77,80,imgFunc,1,NA,5.774143200018443,571.8861534999451,577.7746457998874,2023-03-17 17:28:33.392321,2023-03-17 17:28:39.280764,MF031.jpg,0,10369,30-49,2023-03-17_17h19.12.391,Recall,2021.2.3,60.07979799381466,
,SD013.jpg,0,MF013.jpg,0,,,,,0,78,78,62,imgFunc,0,NA,4.378251199959777,577.7859927000245,582.2875178999966,2023-03-17 17:28:39.289742,2023-03-17 17:28:43.783747,MF013.jpg,0,10369,30-49,2023-03-17_17h19.12.391,Recall,2021.2.3,60.07979799381466,
,L_DD505.jpg,1,L_FF505.jpg,1,,,,,0,79,79,44,imgFunc,0,NA,4.989859199966304,582.2704992999788,587.3568804999813,2023-03-17 17:28:43.792652,2023-03-17 17:28:48.870903,L_FF505.jpg,1,10369,30-49,2023-03-17_17h19.12.391,Recall,2021.2.3,60.07979799381466,
,L_SD507.jpg,1,L_MF507.jpg,1,,,,,0,80,80,96,imgFunc,2,NA,4.5711054999846965,587.3853130999487,592.0867780998815,2023-03-17 17:28:48.879881,2023-03-17 17:28:53.574173,L_MF507.jpg,1,10369,30-49,2023-03-17_17h19.12.391,Recall,2021.2.3,60.07979799381466,
,DD039.jpg,0,FF039.jpg,0,,,,,0,81,81,38,imgFunc,2,NA,6.868210099986754,592.0801741000032,599.0670474000508,2023-03-17 17:28:53.583151,2023-03-17 17:29:00.562474,FF039.jpg,0,10369,30-49,2023-03-17_17h19.12.391,Recall,2021.2.3,60.07979799381466,
,SD036.jpg,0,MF036.jpg,0,,,,,0,82,82,85,imgFunc,1,NA,2.988016100018285,599.0484053000109,602.1326578998705,2023-03-17 17:29:00.571452,2023-03-17 17:29:03.648037,MF036.jpg,0,10369,30-49,2023-03-17_17h19.12.391,Recall,2021.2.3,60.07979799381466,
,SD020.jpg,0,MF020.jpg,0,,,,,0,83,83,69,imgFunc,1,NA,1.7309972000075504,602.1451519000111,603.9810738998931,2023-03-17 17:29:03.655020,2023-03-17 17:29:05.481841,MF020.jpg,0,10369,30-49,2023-03-17_17h19.12.391,Recall,2021.2.3,60.07979799381466,
,L_SD503.jpg,1,L_MF503.jpg,1,,,,,0,84,84,92,imgFunc,1,NA,6.247028599958867,603.9814421000192,610.3354500000132,2023-03-17 17:29:05.490838,2023-03-17 17:29:11.837199,L_MF503.jpg,1,10369,30-49,2023-03-17_17h19.12.391,Recall,2021.2.3,60.07979799381466,
,DD008.jpg,0,FF008.jpg,0,,,,,0,85,85,7,imgFunc,1,NA,5.51473050005734,610.3377645999426,615.973501799861,2023-03-17 17:29:11.846178,2023-03-17 17:29:17.474589,FF008.jpg,0,10369,30-49,2023-03-17_17h19.12.391,Recall,2021.2.3,60.07979799381466,
,DD040.jpg,0,FF040.jpg,0,,,,,0,86,86,39,imgFunc,1,NA,3.662547199986875,615.9901593000395,619.7609817000339,2023-03-17 17:29:17.490549,2023-03-17 17:29:21.260392,FF040.jpg,0,10369,30-49,2023-03-17_17h19.12.391,Recall,2021.2.3,60.07979799381466,
,DD012.jpg,0,FF012.jpg,0,,,,,0,87,87,11,imgFunc,9,NA,4.794589899946004,619.7458102999954,624.6344690999249,2023-03-17 17:29:21.267398,2023-03-17 17:29:26.147527,FF012.jpg,0,10369,30-49,2023-03-17_17h19.12.391,Recall,2021.2.3,60.07979799381466,
,DD030.jpg,0,FF030.jpg,0,,,,,0,88,88,29,imgFunc,0,NA,2.764365899958648,624.6401918999618,627.5048934000079,2023-03-17 17:29:26.157353,2023-03-17 17:29:29.016314,FF030.jpg,0,10369,30-49,2023-03-17_17h19.12.391,Recall,2021.2.3,60.07979799381466,
,SD015.jpg,0,MF015.jpg,0,,,,,0,89,89,64,imgFunc,2,NA,2.3471718999790028,627.5131475999951,629.9666657999624,2023-03-17 17:29:29.023297,2023-03-17 17:29:31.467951,MF015.jpg,0,10369,30-49,2023-03-17_17h19.12.391,Recall,2021.2.3,60.07979799381466,
,DD020.jpg,0,FF020.jpg,0,,,,,0,90,90,19,imgFunc,9,NA,3.5868970000883564,629.9775328999385,633.6824140998069,2023-03-17 17:29:31.474934,2023-03-17 17:29:35.170801,FF020.jpg,0,10369,30-49,2023-03-17_17h19.12.391,Recall,2021.2.3,60.07979799381466,
,L_SD510.jpg,1,L_MF510.jpg,1,,,,,0,91,91,99,imgFunc,9,NA,1.5483119999989867,633.672223099973,635.32663149992,2023-03-17 17:29:35.185797,2023-03-17 17:29:36.838491,L_MF510.jpg,1,10369,30-49,2023-03-17_17h19.12.391,Recall,2021.2.3,60.07979799381466,
,DD035.jpg,0,FF035.jpg,0,,,,,0,92,92,34,imgFunc,2,NA,3.0156215999741107,635.3248805999756,638.4448952999664,2023-03-17 17:29:36.845474,2023-03-17 17:29:39.957351,FF035.jpg,0,10369,30-49,2023-03-17_17h19.12.391,Recall,2021.2.3,60.07979799381466,
,SD022.jpg,0,MF022.jpg,0,,,,,0,93,93,71,imgFunc,2,NA,2.1869849999202415,638.4415108000394,640.7282975999406,2023-03-17 17:29:39.964334,2023-03-17 17:29:42.242306,MF022.jpg,0,10369,30-49,2023-03-17_17h19.12.391,Recall,2021.2.3,60.07979799381466,
,L_DD503.jpg,1,L_FF503.jpg,1,,,,,0,94,94,42,imgFunc,0,NA,4.107739300001413,640.728655599989,644.9314383999445,2023-03-17 17:29:42.250184,2023-03-17 17:29:46.445242,L_FF503.jpg,1,10369,30-49,2023-03-17_17h19.12.391,Recall,2021.2.3,60.07979799381466,
,SD019.jpg,0,MF019.jpg,0,,,,,0,95,95,68,imgFunc,2,NA,4.192307000048459,644.9482921999879,649.2516270000488,2023-03-17 17:29:46.453246,2023-03-17 17:29:50.748444,MF019.jpg,0,10369,30-49,2023-03-17_17h19.12.391,Recall,2021.2.3,60.07979799381466,
,DD015.jpg,0,FF015.jpg,0,,,,,0,96,96,14,imgFunc,9,NA,2.1816935000242665,649.2465078999521,651.5494358999422,2023-03-17 17:29:50.755427,2023-03-17 17:29:53.050262,FF015.jpg,0,10369,30-49,2023-03-17_17h19.12.391,Recall,2021.2.3,60.07979799381466,
,SD016.jpg,0,MF016.jpg,0,,,,,0,97,97,65,imgFunc,9,NA,2.0466546999523416,651.5419363999972,653.6949180999072,2023-03-17 17:29:53.057245,2023-03-17 17:29:55.201573,MF016.jpg,0,10369,30-49,2023-03-17_17h19.12.391,Recall,2021.2.3,60.07979799381466,
,SD037.jpg,0,MF037.jpg,0,,,,,0,98,98,86,imgFunc,1,NA,3.1119234999641776,653.6925461000064,656.9136648998829,2023-03-17 17:29:55.208556,2023-03-17 17:29:58.420555,MF037.jpg,0,10369,30-49,2023-03-17_17h19.12.391,Recall,2021.2.3,60.07979799381466,
,DD037.jpg,0,FF037.jpg,0,,,,,0,99,99,36,imgFunc,9,NA,7.172718499903567,656.9198461000342,664.207119199913,2023-03-17 17:29:58.429402,2023-03-17 17:30:05.709210,FF037.jpg,0,10369,30-49,2023-03-17_17h19.12.391,Recall,2021.2.3,60.07979799381466,
,,,,,,,,,,,,,instrFunc,space,"Great work! 

 Now you will switch to the other image type.

 Press the spacebar whenever you are ready to start.",3.23634669999592,664.1201833999949,667.4035079999594,2023-03-17 17:30:05.710211,2023-03-17 17:30:08.977585,,,10369,30-49,2023-03-17_17h19.12.391,Recall,2021.2.3,60.07979799381466,
,SD025.jpg,0,MF025.jpg,0,,,,,0,0,0,74,imgFunc,2,NA,24.384738099994138,667.5078941000393,692.0095734000206,2023-03-17 17:30:09.010499,2023-03-17 17:30:33.512163,SD025.jpg,0,10369,30-49,2023-03-17_17h19.12.391,Recall,2021.2.3,60.07979799381466,
,SD038.jpg,0,MF038.jpg,0,,,,,0,1,1,87,imgFunc,1,NA,4.530240699998103,692.0102934000315,696.6407556000631,2023-03-17 17:30:33.523136,2023-03-17 17:30:38.148828,SD038.jpg,0,10369,30-49,2023-03-17_17h19.12.391,Recall,2021.2.3,60.07979799381466,
,SD035.jpg,0,MF035.jpg,0,,,,,0,2,2,84,imgFunc,9,NA,2.9573164000175893,696.6471478999592,699.714586099959,2023-03-17 17:30:38.157806,2023-03-17 17:30:41.217887,SD035.jpg,0,10369,30-49,2023-03-17_17h19.12.391,Recall,2021.2.3,60.07979799381466,
,SD014.jpg,0,MF014.jpg,0,,,,,0,3,3,63,imgFunc,2,NA,6.416575800045393,699.7000723000383,706.2147646000376,2023-03-17 17:30:41.228860,2023-03-17 17:30:47.739191,SD014.jpg,0,10369,30-49,2023-03-17_17h19.12.391,Recall,2021.2.3,60.07979799381466,
,SD022.jpg,0,MF022.jpg,0,,,,,0,4,4,71,imgFunc,9,NA,2.1705511999316514,706.226017100038,708.4919686000794,2023-03-17 17:30:47.748198,2023-03-17 17:30:50.007472,SD022.jpg,0,10369,30-49,2023-03-17_17h19.12.391,Recall,2021.2.3,60.07979799381466,
,SD037.jpg,0,MF037.jpg,0,,,,,0,5,5,86,imgFunc,9,NA,3.708802599925548,708.4877729000291,712.2926942999475,2023-03-17 17:30:50.014456,2023-03-17 17:30:53.810236,SD037.jpg,0,10369,30-49,2023-03-17_17h19.12.391,Recall,2021.2.3,60.07979799381466,
,SD015.jpg,0,MF015.jpg,0,,,,,0,6,6,64,imgFunc,9,NA,1.9585047999862581,712.2860493999906,714.3395726999734,2023-03-17 17:30:53.817219,2023-03-17 17:30:55.861611,SD015.jpg,0,10369,30-49,2023-03-17_17h19.12.391,Recall,2021.2.3,60.07979799381466,
,L_DD509.jpg,1,L_FF509.jpg,1,,,,,0,7,7,48,imgFunc,1,NA,2.438685299945064,714.3499597000191,716.887138799997,2023-03-17 17:30:55.868594,2023-03-17 17:30:58.396888,L_DD509.jpg,1,10369,30-49,2023-03-17_17h19.12.391,Recall,2021.2.3,60.07979799381466,
,L_DD501.jpg,1,L_FF501.jpg,1,,,,,0,8,8,40,imgFunc,0,NA,11.998546399991028,716.8940569999395,728.9879364998778,2023-03-17 17:30:58.411850,2023-03-17 17:31:10.505418,L_DD501.jpg,1,10369,30-49,2023-03-17_17h19.12.391,Recall,2021.2.3,60.07979799381466,
,DD020.jpg,0,FF020.jpg,0,,,,,0,9,9,19,imgFunc,9,NA,19.052604699973017,729.0160067999968,748.1953338000458,2023-03-17 17:31:10.514396,2023-03-17 17:31:29.685957,DD020.jpg,0,10369,30-49,2023-03-17_17h19.12.391,Recall,2021.2.3,60.07979799381466,
,DD012.jpg,0,FF012.jpg,0,,,,,0,10,10,11,imgFunc,9,NA,6.48252700001467,748.1941265000496,754.7958020999795,2023-03-17 17:31:29.695932,2023-03-17 17:31:36.290612,DD012.jpg,0,10369,30-49,2023-03-17_17h19.12.391,Recall,2021.2.3,60.07979799381466,
,DD040.jpg,0,FF040.jpg,0,,,,,0,11,11,39,imgFunc,1,NA,4.306958900066093,754.7858312999597,759.2032817999134,2023-03-17 17:31:36.299590,2023-03-17 17:31:40.710502,DD040.jpg,0,10369,30-49,2023-03-17_17h19.12.391,Recall,2021.2.3,60.07979799381466,
,SD020.jpg,0,MF020.jpg,0,,,,,0,12,12,69,imgFunc,9,NA,16.145673400023952,759.2029348999495,775.4488452998921,2023-03-17 17:31:40.718482,2023-03-17 17:31:56.955579,SD020.jpg,0,10369,30-49,2023-03-17_17h19.12.391,Recall,2021.2.3,60.07979799381466,
,DD022.jpg,0,FF022.jpg,0,,,,,0,13,13,21,imgFunc,9,NA,8.962527600000612,775.4821045999415,784.5826825998956,2023-03-17 17:31:56.974530,2023-03-17 17:32:06.061961,DD022.jpg,0,10369,30-49,2023-03-17_17h19.12.391,Recall,2021.2.3,60.07979799381466,
,DD024.jpg,0,FF024.jpg,0,,,,,0,14,14,23,imgFunc,9,NA,2.41714699997101,784.5394806000404,787.0401862999424,2023-03-17 17:32:06.070939,2023-03-17 17:32:08.563949,DD024.jpg,0,10369,30-49,2023-03-17_17h19.12.391,Recall,2021.2.3,60.07979799381466,
,DD021.jpg,0,FF021.jpg,0,,,,,0,15,15,20,imgFunc,1,NA,1.7312036000657827,787.0495156999677,788.8859691000544,2023-03-17 17:32:08.570932,2023-03-17 17:32:10.398231,DD021.jpg,0,10369,30-49,2023-03-17_17h19.12.391,Recall,2021.2.3,60.07979799381466,
,SD013.jpg,0,MF013.jpg,0,,,,,0,16,16,62,imgFunc,9,NA,3.0174056000541896,788.8914307999657,792.010925999959,2023-03-17 17:32:10.406233,2023-03-17 17:32:13.517369,SD013.jpg,0,10369,30-49,2023-03-17_17h19.12.391,Recall,2021.2.3,60.07979799381466,
,SD040.jpg,0,MF040.jpg,0,,,,,0,17,17,89,imgFunc,1,NA,1.3944731999654323,792.026207900024,793.5442813000409,2023-03-17 17:32:13.525350,2023-03-17 17:32:15.034998,SD040.jpg,0,10369,30-49,2023-03-17_17h19.12.391,Recall,2021.2.3,60.07979799381466,
,DD025.jpg,0,FF025.jpg,0,,,,,0,18,18,24,imgFunc,0,NA,3.0333512000506744,793.5150405999739,796.6522500999272,2023-03-17 17:32:15.041981,2023-03-17 17:32:18.169717,DD025.jpg,0,10369,30-49,2023-03-17_17h19.12.391,Recall,2021.2.3,60.07979799381466,
,SD024.jpg,0,MF024.jpg,0,,,,,0,19,19,73,imgFunc,9,NA,1.6679730999749154,796.6407177000074,798.3941081999801,2023-03-17 17:32:18.177724,2023-03-17 17:32:19.921839,SD024.jpg,0,10369,30-49,2023-03-17_17h19.12.391,Recall,2021.2.3,60.07979799381466,
,SD012.jpg,0,MF012.jpg,0,,,,,0,20,20,61,imgFunc,1,NA,6.792993700015359,798.4037338000489,805.2942007000092,2023-03-17 17:32:19.928822,2023-03-17 17:32:26.810091,SD012.jpg,0,10369,30-49,2023-03-17_17h19.12.391,Recall,2021.2.3,60.07979799381466,
,DD032.jpg,0,FF032.jpg,0,,,,,0,21,21,31,imgFunc,0,NA,9.250059599988163,805.314581100014,814.6851392999524,2023-03-17 17:32:26.819975,2023-03-17 17:32:36.183593,DD032.jpg,0,10369,30-49,2023-03-17_17h19.12.391,Recall,2021.2.3,60.07979799381466,
,DD005.jpg,0,FF005.jpg,0,,,,,0,22,22,4,imgFunc,9,NA,3.9116244999459013,814.685127099976,818.7076669000089,2023-03-17 17:32:36.198472,2023-03-17 17:32:40.219718,DD005.jpg,0,10369,30-49,2023-03-17_17h19.12.391,Recall,2021.2.3,60.07979799381466,
,DD037.jpg,0,FF037.jpg,0,,,,,0,23,23,36,imgFunc,9,NA,3.570577499922365,818.7061421000399,822.3772658000235,2023-03-17 17:32:40.226724,2023-03-17 17:32:43.889071,DD037.jpg,0,10369,30-49,2023-03-17_17h19.12.391,Recall,2021.2.3,60.07979799381466,
,SD027.jpg,0,MF027.jpg,0,,,,,0,24,24,76,imgFunc,9,NA,3.0574314000550658,822.3630833999487,825.5170875998447,2023-03-17 17:32:43.896054,2023-03-17 17:32:47.041253,SD027.jpg,0,10369,30-49,2023-03-17_17h19.12.391,Recall,2021.2.3,60.07979799381466,
,DD039.jpg,0,FF039.jpg,0,,,,,0,25,25,38,imgFunc,0,NA,3.7294666999951005,825.5231151999906,829.3440592999104,2023-03-17 17:32:47.048144,2023-03-17 17:32:50.860690,DD039.jpg,0,10369,30-49,2023-03-17_17h19.12.391,Recall,2021.2.3,60.07979799381466,
,L_DD507.jpg,1,L_FF507.jpg,1,,,,,0,26,26,46,imgFunc,0,NA,7.3136616999981925,829.3550093999365,836.7787018999225,2023-03-17 17:32:50.867695,2023-03-17 17:32:58.282684,L_DD507.jpg,1,10369,30-49,2023-03-17_17h19.12.391,Recall,2021.2.3,60.07979799381466,
,SD005.jpg,0,MF005.jpg,0,,,,,0,27,27,54,imgFunc,9,NA,3.975811199983582,836.7889127000235,840.8764302000636,2023-03-17 17:32:58.298644,2023-03-17 17:33:02.385619,SD005.jpg,0,10369,30-49,2023-03-17_17h19.12.391,Recall,2021.2.3,60.07979799381466,
,DD031.jpg,0,FF031.jpg,0,,,,,0,28,28,30,imgFunc,1,NA,2.927198400022462,840.869485000032,843.8899884000421,2023-03-17 17:33:02.392602,2023-03-17 17:33:05.404455,DD031.jpg,0,10369,30-49,2023-03-17_17h19.12.391,Recall,2021.2.3,60.07979799381466,
,L_SD502.jpg,1,L_MF502.jpg,1,,,,,0,29,29,91,imgFunc,1,NA,2.087953499983996,843.8848025000188,846.0710685999366,2023-03-17 17:33:05.411438,2023-03-17 17:33:07.589315,L_SD502.jpg,1,10369,30-49,2023-03-17_17h19.12.391,Recall,2021.2.3,60.07979799381466,
,SD010.jpg,0,MF010.jpg,0,,,,,0,30,30,59,imgFunc,0,NA,11.717606500023976,846.0632266999455,857.8737491999054,2023-03-17 17:33:07.596298,2023-03-17 17:33:19.397747,SD010.jpg,0,10369,30-49,2023-03-17_17h19.12.391,Recall,2021.2.3,60.07979799381466,
,SD036.jpg,0,MF036.jpg,0,,,,,0,31,31,85,imgFunc,9,NA,2.7891742000356317,857.9116083999397,860.8280335998861,2023-03-17 17:33:19.406725,2023-03-17 17:33:22.316505,SD036.jpg,0,10369,30-49,2023-03-17_17h19.12.391,Recall,2021.2.3,60.07979799381466,
,DD038.jpg,0,FF038.jpg,0,,,,,0,32,32,37,imgFunc,0,NA,2.239396999939345,860.8054701000219,863.1458882000297,2023-03-17 17:33:22.330469,2023-03-17 17:33:24.668288,DD038.jpg,0,10369,30-49,2023-03-17_17h19.12.391,Recall,2021.2.3,60.07979799381466,
,L_SD504.jpg,1,L_MF504.jpg,1,,,,,0,33,33,93,imgFunc,9,NA,3.689527100068517,863.1472819000483,866.9355699999724,2023-03-17 17:33:24.675271,2023-03-17 17:33:28.454232,L_SD504.jpg,1,10369,30-49,2023-03-17_17h19.12.391,Recall,2021.2.3,60.07979799381466,
,L_DD510.jpg,1,L_FF510.jpg,1,,,,,0,34,34,49,imgFunc,0,NA,1.7851260000606999,866.9316526999464,868.8180136998417,2023-03-17 17:33:28.461677,2023-03-17 17:33:30.338973,L_DD510.jpg,1,10369,30-49,2023-03-17_17h19.12.391,Recall,2021.2.3,60.07979799381466,
,DD027.jpg,0,FF027.jpg,0,,,,,0,35,35,26,imgFunc,9,NA,4.153875199961476,868.8189413000364,873.0738062999444,2023-03-17 17:33:30.345956,2023-03-17 17:33:34.592007,DD027.jpg,0,10369,30-49,2023-03-17_17h19.12.391,Recall,2021.2.3,60.07979799381466,
,DD026.jpg,0,FF026.jpg,0,,,,,0,36,36,25,imgFunc,9,NA,17.7047735999804,873.0840538999764,890.8946854999522,2023-03-17 17:33:34.600984,2023-03-17 17:33:52.404921,DD026.jpg,0,10369,30-49,2023-03-17_17h19.12.391,Recall,2021.2.3,60.07979799381466,
,DD034.jpg,0,FF034.jpg,0,,,,,0,37,37,33,imgFunc,0,NA,7.519322099979036,890.9173844000325,898.5669333999977,2023-03-17 17:33:52.415895,2023-03-17 17:34:00.059183,DD034.jpg,0,10369,30-49,2023-03-17_17h19.12.391,Recall,2021.2.3,60.07979799381466,
,DD001.jpg,0,FF001.jpg,0,,,,,0,38,38,0,imgFunc,0,NA,6.198395500076003,898.5424179999391,904.8293724998366,2023-03-17 17:34:00.068156,2023-03-17 17:34:06.347779,DD001.jpg,0,10369,30-49,2023-03-17_17h19.12.391,Recall,2021.2.3,60.07979799381466,
,DD014.jpg,0,FF014.jpg,0,,,,,0,39,39,13,imgFunc,0,NA,4.733447099919431,904.8554955000291,909.706400000141,2023-03-17 17:34:06.357776,2023-03-17 17:34:11.201499,DD014.jpg,0,10369,30-49,2023-03-17_17h19.12.391,Recall,2021.2.3,60.07979799381466,
,DD002.jpg,0,FF002.jpg,0,,,,,0,40,40,1,imgFunc,0,NA,3.8101543999509886,909.6908315999899,913.6086726000067,2023-03-17 17:34:11.210404,2023-03-17 17:34:15.121052,DD002.jpg,0,10369,30-49,2023-03-17_17h19.12.391,Recall,2021.2.3,60.07979799381466,
,DD007.jpg,0,FF007.jpg,0,,,,,0,41,41,6,imgFunc,9,NA,4.692964699934237,913.615984300035,918.409473799984,2023-03-17 17:34:15.134052,2023-03-17 17:34:19.924453,DD007.jpg,0,10369,30-49,2023-03-17_17h19.12.391,Recall,2021.2.3,60.07979799381466,
,SD009.jpg,0,MF009.jpg,0,,,,,0,42,42,58,imgFunc,9,NA,1.8346011999528855,918.4180095000193,920.3680364999454,2023-03-17 17:34:19.933430,2023-03-17 17:34:21.875875,SD009.jpg,0,10369,30-49,2023-03-17_17h19.12.391,Recall,2021.2.3,60.07979799381466,
,DD028.jpg,0,FF028.jpg,0,,,,,0,43,43,27,imgFunc,1,NA,2.0630344999954104,920.3575721000088,922.527630000026,2023-03-17 17:34:21.882858,2023-03-17 17:34:24.044081,DD028.jpg,0,10369,30-49,2023-03-17_17h19.12.391,Recall,2021.2.3,60.07979799381466,
,SD011.jpg,0,MF011.jpg,0,,,,,0,44,44,60,imgFunc,2,NA,2.576751900021918,922.5319467999507,925.218666800065,2023-03-17 17:34:24.051064,2023-03-17 17:34:26.729085,SD011.jpg,0,10369,30-49,2023-03-17_17h19.12.391,Recall,2021.2.3,60.07979799381466,
,DD003.jpg,0,FF003.jpg,0,,,,,0,45,45,2,imgFunc,0,NA,4.824640900013037,925.2361590999644,930.1907310999231,2023-03-17 17:34:26.736970,2023-03-17 17:34:31.682898,DD003.jpg,0,10369,30-49,2023-03-17_17h19.12.391,Recall,2021.2.3,60.07979799381466,
,L_SD508.jpg,1,L_MF508.jpg,1,,,,,0,46,46,97,imgFunc,0,NA,1.94267229991965,930.1902082000161,932.2427723000292,2023-03-17 17:34:31.698857,2023-03-17 17:34:33.751027,L_SD508.jpg,1,10369,30-49,2023-03-17_17h19.12.391,Recall,2021.2.3,60.07979799381466,
,L_DD505.jpg,1,L_FF505.jpg,1,,,,,0,47,47,44,imgFunc,9,NA,1.6999069000594318,932.2249932000414,934.011624700157,2023-03-17 17:34:33.758010,2023-03-17 17:34:35.535567,L_DD505.jpg,1,10369,30-49,2023-03-17_17h19.12.391,Recall,2021.2.3,60.07979799381466,
,L_SD505.jpg,1,L_MF505.jpg,1,,,,,0,48,48,94,imgFunc,1,NA,2.064094700035639,934.0128077999689,936.1662598999683,2023-03-17 17:34:35.542550,2023-03-17 17:34:37.687127,L_SD505.jpg,1,10369,30-49,2023-03-17_17h19.12.391,Recall,2021.2.3,60.07979799381466,
,DD018.jpg,0,FF018.jpg,0,,,,,0,49,49,17,imgFunc,0,NA,2.1897501000203192,936.1752511999803,938.4773255999899,2023-03-17 17:34:37.695137,2023-03-17 17:34:39.988845,DD018.jpg,0,10369,30-49,2023-03-17_17h19.12.391,Recall,2021.2.3,60.07979799381466,
,DD033.jpg,0,FF033.jpg,0,,,,,0,50,50,32,imgFunc,9,NA,2.791148000047542,938.4697412999813,941.3568510999903,2023-03-17 17:34:39.995828,2023-03-17 17:34:42.874252,DD033.jpg,0,10369,30-49,2023-03-17_17h19.12.391,Recall,2021.2.3,60.07979799381466,
,DD006.jpg,0,FF006.jpg,0,,,,,0,51,51,5,imgFunc,9,NA,2.3479313999414444,941.3770671000239,943.833885799977,2023-03-17 17:34:42.888216,2023-03-17 17:34:45.342648,DD006.jpg,0,10369,30-49,2023-03-17_17h19.12.391,Recall,2021.2.3,60.07979799381466,
,SD030.jpg,0,MF030.jpg,0,,,,,0,52,52,79,imgFunc,9,NA,2.729242500034161,943.8275974999415,946.6650032998296,2023-03-17 17:34:45.349631,2023-03-17 17:34:48.178034,SD030.jpg,0,10369,30-49,2023-03-17_17h19.12.391,Recall,2021.2.3,60.07979799381466,
,L_DD506.jpg,1,L_FF506.jpg,1,,,,,0,53,53,45,imgFunc,0,NA,4.391061499947682,946.6618281999836,951.1494758999906,2023-03-17 17:34:48.185018,2023-03-17 17:34:52.664570,L_DD506.jpg,1,10369,30-49,2023-03-17_17h19.12.391,Recall,2021.2.3,60.07979799381466,
,L_SD506.jpg,1,L_MF506.jpg,1,,,,,0,54,54,95,imgFunc,9,NA,2.7571802999591455,951.1516288999701,954.0033451998606,2023-03-17 17:34:52.672550,2023-03-17 17:34:55.516765,L_SD506.jpg,1,10369,30-49,2023-03-17_17h19.12.391,Recall,2021.2.3,60.07979799381466,
,SD006.jpg,0,MF006.jpg,0,,,,,0,55,55,55,imgFunc,0,NA,4.693216600106098,954.0154782000463,958.818133099936,2023-03-17 17:34:55.524745,2023-03-17 17:35:00.320009,SD006.jpg,0,10369,30-49,2023-03-17_17h19.12.391,Recall,2021.2.3,60.07979799381466,
,DD023.jpg,0,FF023.jpg,0,,,,,0,56,56,22,imgFunc,9,NA,6.020164299989119,958.8009100999916,964.9205578998663,2023-03-17 17:35:00.328987,2023-03-17 17:35:06.441083,DD023.jpg,0,10369,30-49,2023-03-17_17h19.12.391,Recall,2021.2.3,60.07979799381466,
,L_DD504.jpg,1,L_FF504.jpg,1,,,,,0,57,57,43,imgFunc,9,NA,1.3538854999933392,964.9231027000351,966.3721954000648,2023-03-17 17:35:06.450060,2023-03-17 17:35:07.892126,L_DD504.jpg,1,10369,30-49,2023-03-17_17h19.12.391,Recall,2021.2.3,60.07979799381466,
,L_SD510.jpg,1,L_MF510.jpg,1,,,,,0,58,58,99,imgFunc,9,NA,3.6409204000374302,966.3880204999587,970.1428732001223,2023-03-17 17:35:07.899109,2023-03-17 17:35:11.644833,L_SD510.jpg,1,10369,30-49,2023-03-17_17h19.12.391,Recall,2021.2.3,60.07979799381466,
,DD035.jpg,0,FF035.jpg,0,,,,,0,59,59,34,imgFunc,2,NA,1.7718044000212103,970.1531456999946,972.0555244999705,2023-03-17 17:35:11.651816,2023-03-17 17:35:13.546030,DD035.jpg,0,10369,30-49,2023-03-17_17h19.12.391,Recall,2021.2.3,60.07979799381466,
,SD003.jpg,0,MF003.jpg,0,,,,,0,60,60,52,imgFunc,9,NA,3.076408199965954,972.0244668000378,975.183565299958,2023-03-17 17:35:13.559031,2023-03-17 17:35:16.715140,SD003.jpg,0,10369,30-49,2023-03-17_17h19.12.391,Recall,2021.2.3,60.07979799381466,
,DD016.jpg,0,FF016.jpg,0,,,,,0,61,61,15,imgFunc,9,NA,6.732623800053261,975.2004431999521,982.041004100116,2023-03-17 17:35:16.722123,2023-03-17 17:35:23.553277,DD016.jpg,0,10369,30-49,2023-03-17_17h19.12.391,Recall,2021.2.3,60.07979799381466,
,DD004.jpg,0,FF004.jpg,0,,,,,0,62,62,3,imgFunc,1,NA,1.3526716999476776,982.036096900003,983.4853620999493,2023-03-17 17:35:23.562255,2023-03-17 17:35:25.004332,DD004.jpg,0,10369,30-49,2023-03-17_17h19.12.391,Recall,2021.2.3,60.07979799381466,
,SD021.jpg,0,MF021.jpg,0,,,,,0,63,63,70,imgFunc,0,NA,3.5428192999679595,983.478226999985,987.1153827999951,2023-03-17 17:35:25.011315,2023-03-17 17:35:28.640293,SD021.jpg,0,10369,30-49,2023-03-17_17h19.12.391,Recall,2021.2.3,60.07979799381466,
,L_SD507.jpg,1,L_MF507.jpg,1,,,,,0,64,64,96,imgFunc,2,NA,1.9629021999426186,987.121800599969,989.1920918000396,2023-03-17 17:35:28.647276,2023-03-17 17:35:30.708351,L_SD507.jpg,1,10369,30-49,2023-03-17_17h19.12.391,Recall,2021.2.3,60.07979799381466,
,SD028.jpg,0,MF028.jpg,0,,,,,0,65,65,77,imgFunc,0,NA,2.0176691999658942,989.2113052000059,991.3458168000216,2023-03-17 17:35:30.725281,2023-03-17 17:35:32.843460,SD028.jpg,0,10369,30-49,2023-03-17_17h19.12.391,Recall,2021.2.3,60.07979799381466,
,SD008.jpg,0,MF008.jpg,0,,,,,0,66,66,57,imgFunc,9,NA,4.694414300029166,991.3263945999788,996.1133287999546,2023-03-17 17:35:32.851463,2023-03-17 17:35:37.630151,SD008.jpg,0,10369,30-49,2023-03-17_17h19.12.391,Recall,2021.2.3,60.07979799381466,
,SD039.jpg,0,MF039.jpg,0,,,,,0,67,67,88,imgFunc,9,NA,3.630347999976948,996.1106490000384,999.8284255000763,2023-03-17 17:35:37.639129,2023-03-17 17:35:41.349623,SD039.jpg,0,10369,30-49,2023-03-17_17h19.12.391,Recall,2021.2.3,60.07979799381466,
,SD004.jpg,0,MF004.jpg,0,,,,,0,68,68,53,imgFunc,0,NA,5.026014900067821,999.8269870999502,1004.9488361999393,2023-03-17 17:35:41.356606,2023-03-17 17:35:46.469748,SD004.jpg,0,10369,30-49,2023-03-17_17h19.12.391,Recall,2021.2.3,60.07979799381466,
,SD001.jpg,0,MF001.jpg,0,,,,,0,69,69,50,imgFunc,9,NA,2.476149299996905,1004.9688780000433,1007.552664799965,2023-03-17 17:35:46.478726,2023-03-17 17:35:49.054807,SD001.jpg,0,10369,30-49,2023-03-17_17h19.12.391,Recall,2021.2.3,60.07979799381466,
,DD010.jpg,0,FF010.jpg,0,,,,,0,70,70,9,imgFunc,0,NA,4.589910099981353,1007.5510262999451,1012.2402855998371,2023-03-17 17:35:49.069769,2023-03-17 17:35:53.758283,DD010.jpg,0,10369,30-49,2023-03-17_17h19.12.391,Recall,2021.2.3,60.07979799381466,
,SD019.jpg,0,MF019.jpg,0,,,,,0,71,71,68,imgFunc,9,NA,3.0598519999766722,1012.2332430999959,1015.3850779000204,2023-03-17 17:35:53.766263,2023-03-17 17:35:56.910482,SD019.jpg,0,10369,30-49,2023-03-17_17h19.12.391,Recall,2021.2.3,60.07979799381466,
,DD017.jpg,0,FF017.jpg,0,,,,,0,72,72,16,imgFunc,9,NA,5.485185400000773,1015.3918354000198,1020.98087999993,2023-03-17 17:35:56.917465,2023-03-17 17:36:02.497882,DD017.jpg,0,10369,30-49,2023-03-17_17h19.12.391,Recall,2021.2.3,60.07979799381466,
,SD033.jpg,0,MF033.jpg,0,,,,,0,73,73,82,imgFunc,1,NA,2.0389333999482915,1020.9901365999831,1023.140181499999,2023-03-17 17:36:02.506859,2023-03-17 17:36:04.649440,SD033.jpg,0,10369,30-49,2023-03-17_17h19.12.391,Recall,2021.2.3,60.07979799381466,
,DD013.jpg,0,FF013.jpg,0,,,,,0,74,74,12,imgFunc,0,NA,7.069899899885058,1023.1348966000369,1030.3082253000466,2023-03-17 17:36:04.656423,2023-03-17 17:36:11.821253,DD013.jpg,0,10369,30-49,2023-03-17_17h19.12.391,Recall,2021.2.3,60.07979799381466,
,DD019.jpg,0,FF019.jpg,0,,,,,0,75,75,18,imgFunc,9,NA,0.9354704000288621,1030.3015669999877,1031.333401199896,2023-03-17 17:36:11.830263,2023-03-17 17:36:12.855435,DD019.jpg,0,10369,30-49,2023-03-17_17h19.12.391,Recall,2021.2.3,60.07979799381466,
,SD018.jpg,0,MF018.jpg,0,,,,,0,76,76,67,imgFunc,2,NA,2.702578500029631,1031.3345675000455,1034.1384568000212,2023-03-17 17:36:12.862418,2023-03-17 17:36:15.657315,SD018.jpg,0,10369,30-49,2023-03-17_17h19.12.391,Recall,2021.2.3,60.07979799381466,
,SD032.jpg,0,MF032.jpg,0,,,,,0,77,77,81,imgFunc,9,NA,2.2211859000381082,1034.1438660999993,1036.4626770999748,2023-03-17 17:36:15.665295,2023-03-17 17:36:17.975547,SD032.jpg,0,10369,30-49,2023-03-17_17h19.12.391,Recall,2021.2.3,60.07979799381466,
,DD036.jpg,0,FF036.jpg,0,,,,,0,78,78,35,imgFunc,0,NA,3.159170600003563,1036.461840200005,1039.7326202000258,2023-03-17 17:36:17.982530,2023-03-17 17:36:21.244648,DD036.jpg,0,10369,30-49,2023-03-17_17h19.12.391,Recall,2021.2.3,60.07979799381466,
,SD031.jpg,0,MF031.jpg,0,,,,,0,79,79,80,imgFunc,0,NA,2.0682425000704825,1039.728819699958,1041.8866840999108,2023-03-17 17:36:21.257615,2023-03-17 17:36:23.412867,SD031.jpg,0,10369,30-49,2023-03-17_17h19.12.391,Recall,2021.2.3,60.07979799381466,
,SD034.jpg,0,MF034.jpg,0,,,,,0,80,80,83,imgFunc,9,NA,1.7608013999415562,1041.8922632000176,1043.7454474999104,2023-03-17 17:36:23.419850,2023-03-17 17:36:25.264041,SD034.jpg,0,10369,30-49,2023-03-17_17h19.12.391,Recall,2021.2.3,60.07979799381466,
,SD023.jpg,0,MF023.jpg,0,,,,,0,81,81,72,imgFunc,0,NA,5.733031600015238,1043.7364822999807,1049.5596959000686,2023-03-17 17:36:25.271024,2023-03-17 17:36:31.084950,SD023.jpg,0,10369,30-49,2023-03-17_17h19.12.391,Recall,2021.2.3,60.07979799381466,
,SD007.jpg,0,MF007.jpg,0,,,,,0,82,82,56,imgFunc,1,NA,3.9854999999515712,1049.5635453000432,1053.6480622000527,2023-03-17 17:36:31.093928,2023-03-17 17:36:35.171238,SD007.jpg,0,10369,30-49,2023-03-17_17h19.12.391,Recall,2021.2.3,60.07979799381466,
,L_SD501.jpg,1,L_MF501.jpg,1,,,,,0,83,83,90,imgFunc,9,NA,4.800418499973603,1053.6526426000055,1058.5576107000234,2023-03-17 17:36:35.178221,2023-03-17 17:36:40.074783,L_SD501.jpg,1,10369,30-49,2023-03-17_17h19.12.391,Recall,2021.2.3,60.07979799381466,
,DD009.jpg,0,FF009.jpg,0,,,,,0,84,84,8,imgFunc,2,NA,3.3719857999822125,1058.5771014000056,1062.0473716999404,2023-03-17 17:36:40.090742,2023-03-17 17:36:43.560691,DD009.jpg,0,10369,30-49,2023-03-17_17h19.12.391,Recall,2021.2.3,60.07979799381466,
,DD030.jpg,0,FF030.jpg,0,,,,,0,85,85,29,imgFunc,9,NA,2.329007299966179,1062.0360770999687,1064.4564889998874,2023-03-17 17:36:43.567674,2023-03-17 17:36:45.978946,DD030.jpg,0,10369,30-49,2023-03-17_17h19.12.391,Recall,2021.2.3,60.07979799381466,
,L_DD508.jpg,1,L_FF508.jpg,1,,,,,0,86,86,47,imgFunc,0,NA,2.537254700087942,1064.4598423000425,1067.095056299935,2023-03-17 17:36:45.987456,2023-03-17 17:36:48.614265,L_DD508.jpg,1,10369,30-49,2023-03-17_17h19.12.391,Recall,2021.2.3,60.07979799381466,
,SD016.jpg,0,MF016.jpg,0,,,,,0,87,87,65,imgFunc,0,NA,6.916300900047645,1067.0888052999508,1074.0951621000422,2023-03-17 17:36:48.621248,2023-03-17 17:36:55.619084,SD016.jpg,0,10369,30-49,2023-03-17_17h19.12.391,Recall,2021.2.3,60.07979799381466,
,DD029.jpg,0,FF029.jpg,0,,,,,0,88,88,28,imgFunc,9,NA,1.8103303000098094,1074.1147814999567,1076.030758399982,2023-03-17 17:36:55.628091,2023-03-17 17:36:57.537074,DD029.jpg,0,10369,30-49,2023-03-17_17h19.12.391,Recall,2021.2.3,60.07979799381466,
,SD002.jpg,0,MF002.jpg,0,,,,,0,89,89,51,imgFunc,9,NA,3.0515805000904948,1076.033521299949,1079.190338299959,2023-03-17 17:36:57.551038,2023-03-17 17:37:00.706132,SD002.jpg,0,10369,30-49,2023-03-17_17h19.12.391,Recall,2021.2.3,60.07979799381466,
,SD029.jpg,0,MF029.jpg,0,,,,,0,90,90,78,imgFunc,2,NA,2.868093300028704,1079.1850448000478,1082.1554755000398,2023-03-17 17:37:00.713000,2023-03-17 17:37:03.675042,SD029.jpg,0,10369,30-49,2023-03-17_17h19.12.391,Recall,2021.2.3,60.07979799381466,
,SD026.jpg,0,MF026.jpg,0,,,,,0,91,91,75,imgFunc,9,NA,1.6553576999576762,1082.1498901000014,1083.9023938999744,2023-03-17 17:37:03.682027,2023-03-17 17:37:05.426122,SD026.jpg,0,10369,30-49,2023-03-17_17h19.12.391,Recall,2021.2.3,60.07979799381466,
,DD008.jpg,0,FF008.jpg,0,,,,,0,92,92,7,imgFunc,0,NA,5.670393600012176,1083.9027140999679,1089.6750190999592,2023-03-17 17:37:05.433105,2023-03-17 17:37:11.197017,DD008.jpg,0,10369,30-49,2023-03-17_17h19.12.391,Recall,2021.2.3,60.07979799381466,
,DD011.jpg,0,FF011.jpg,0,,,,,0,93,93,10,imgFunc,1,NA,3.9046836000634357,1089.6925116999773,1093.7101924999151,2023-03-17 17:37:11.206026,2023-03-17 17:37:15.216564,DD011.jpg,0,10369,30-49,2023-03-17_17h19.12.391,Recall,2021.2.3,60.07979799381466,
,DD015.jpg,0,FF015.jpg,0,,,,,0,94,94,14,imgFunc,9,NA,3.00856530002784,1093.700403499999,1096.803492300096,2023-03-17 17:37:15.224544,2023-03-17 17:37:18.318959,DD015.jpg,0,10369,30-49,2023-03-17_17h19.12.391,Recall,2021.2.3,60.07979799381466,
,L_DD502.jpg,1,L_FF502.jpg,1,,,,,0,95,95,41,imgFunc,1,NA,2.674914999981411,1096.8020634000422,1099.5689155000728,2023-03-17 17:37:18.327937,2023-03-17 17:37:21.086439,L_DD502.jpg,1,10369,30-49,2023-03-17_17h19.12.391,Recall,2021.2.3,60.07979799381466,
,L_SD503.jpg,1,L_MF503.jpg,1,,,,,0,96,96,92,imgFunc,0,NA,3.091158999945037,1099.562059000018,1102.7482002999168,2023-03-17 17:37:21.095384,2023-03-17 17:37:24.273127,L_SD503.jpg,1,10369,30-49,2023-03-17_17h19.12.391,Recall,2021.2.3,60.07979799381466,
,L_SD509.jpg,1,L_MF509.jpg,1,,,,,0,97,97,98,imgFunc,9,NA,5.706093599903397,1102.763090900029,1108.5684613998746,2023-03-17 17:37:24.280109,2023-03-17 17:37:30.076802,L_SD509.jpg,1,10369,30-49,2023-03-17_17h19.12.391,Recall,2021.2.3,60.07979799381466,
,SD017.jpg,0,MF017.jpg,0,,,,,0,98,98,66,imgFunc,0,NA,9.301183299976401,1108.5917610999895,1118.0182160999393,2023-03-17 17:37:30.091769,2023-03-17 17:37:39.517342,SD017.jpg,0,10369,30-49,2023-03-17_17h19.12.391,Recall,2021.2.3,60.07979799381466,
,L_DD503.jpg,1,L_FF503.jpg,1,,,,,0,99,99,42,imgFunc,9,NA,7.459050499950536,1118.0021377999801,1125.554543999955,2023-03-17 17:37:39.526320,2023-03-17 17:37:47.072676,L_DD503.jpg,1,10369,30-49,2023-03-17_17h19.12.391,Recall,2021.2.3,60.07979799381466,
