onset	duration	trial_type	rt	resp
0.0003974996507167816	0.599600600078702	fixation_1	999	999
0.6000651000067592	3.0009456994012	face	2.0496032992377877	2
3.601048099808395	0.599600600078702	fixation_2	999	999
4.150009199976921	1.0000171000137925	feedback loss	999	999
5.150028499774635	5.316828900016844	ITI	999	999
10.483984199352562	0.6159663004800677	fixation_1	999	999
11.100027799606323	3.0008741999045014	face	2.5343535002321005	1
14.100943599827588	0.6159663004800677	fixation_2	999	999
14.650020999833941	1.0001304997131228	feedback win	999	999
15.650153699330986	5.316864600405097	ITI	999	999
20.970124199986458	0.5964790992438793	fixation_1	999	999
21.566676499322057	3.00131700001657	face	2.5332794999703765	1
24.56803089939058	0.5964790992438793	fixation_2	999	999
25.11678749974817	1.0161477997899055	feedback loss	999	999
26.132937499321997	5.317456500604749	ITI	999	999
31.453525299206376	0.5963178006932139	fixation_1	999	999
32.049908199347556	3.0016285004094243	face	2.5335204005241394	1
35.05158179998398	0.5963178006932139	fixation_2	999	999
35.59983049985021	1.0000733993947506	feedback loss	999	999
36.59990619961172	1.1181073002517223	ITI	999	999
37.72118519991636	0.5949281994253397	fixation_1	999	999
38.31616099923849	3.001743500120938	face	2.5334573006257415	2
41.31794559955597	0.5949281994253397	fixation_2	999	999
41.86608729977161	1.0002239001914859	feedback loss	999	999
42.866313399747014	1.1176471002399921	ITI	999	999
43.98717129975557	0.595762100070715	fixation_1	999	999
44.58299589995295	3.000618999823928	face	2.283058499917388	2
47.58366259932518	0.595762100070715	fixation_2	999	999
48.13275419920683	1.0001501003280282	feedback win	999	999
49.13290669955313	1.118070900440216	ITI	999	999
50.2543801991269	0.5955982003360987	fixation_1	999	999
50.850042399950325	3.001929000020027	face	2.032693199813366	2
53.85200919955969	0.5955982003360987	fixation_2	999	999
54.3997951997444	1.016300800256431	feedback win	999	999
55.4160979995504	3.215874900110066	ITI	999	999
58.63524809945375	0.6145767997950315	fixation_1	999	999
59.2498884992674	3.001122700050473	face	2.532672400586307	1
62.251049499958754	0.6145767997950315	fixation_2	999	999
62.80000689998269	1.0163969993591309	feedback loss	999	999
63.81640619970858	3.2155663995072246	ITI	999	999
67.03525580000132	0.5976219000294805	fixation_1	999	999
67.63296099938452	3.0009872000664473	face	2.2825158005580306	1
70.63398899976164	0.5976219000294805	fixation_2	999	999
71.18288999982178	1.0168581996113062	feedback win	999	999
72.19975049979985	1.1177230002358556	ITI	999	999
73.32080429978669	0.5956076001748443	fixation_1	999	999
73.91647629998624	3.0013974998146296	face	2.784529199823737	2
76.91791279986501	0.5956076001748443	fixation_2	999	999
77.46638709958643	1.0165186002850533	feedback win	999	999
78.4829095993191	3.21693619992584	ITI	999	999
81.70316369924694	0.6129312003031373	fixation_1	999	999
82.31614659912884	3.000887400470674	face	2.2837153002619743	2
85.31707439944148	0.6129312003031373	fixation_2	999	999
85.86636909935623	1.016482500359416	feedback loss	999	999
86.88285389915109	5.316067600622773	ITI	999	999
92.20226019993424	0.5972198992967606	fixation_1	999	999
92.79954619985074	3.050539999268949	face	3.050010900013149	2
95.85011400002986	0.5972198992967606	fixation_2	999	999
96.39968699961901	1.000049900263548	feedback loss	999	999
97.39973939955235	3.216856500133872	ITI	999	999
100.62002659961581	0.5962682999670506	fixation_1	999	999
101.21639669965953	3.001532600261271	face	2.282826400361955	1
104.21796969976276	0.5962682999670506	fixation_2	999	999
104.76618319936097	1.0001595998182893	feedback win	999	999
105.76634509954602	5.316365900449455	ITI	999	999
111.08612799923867	0.5967510007321835	fixation_1	999	999
111.6829490000382	3.000655099749565	face	2.7990515995770693	1
114.6836409997195	0.5967510007321835	fixation_2	999	999
115.23284889943898	1.0001750998198986	feedback win	999	999
116.23302619997412	3.216895599849522	ITI	999	999
119.45339809916914	0.5962036000564694	fixation_1	999	999
120.04969239979982	3.0499829994514585	face	3.049446599557996	2
123.09970369935036	0.5962036000564694	fixation_2	999	999
123.6498273992911	1.0159453004598618	feedback win	999	999
124.66577509976923	1.1170979999005795	ITI	999	999
125.7863451000303	0.5964401997625828	fixation_1	999	999
126.38286419957876	3.0011328998953104	face	2.5329216001555324	2
129.3840343998745	0.5964401997625828	fixation_2	999	999
129.93282839935273	1.0000288002192974	feedback win	999	999
130.93285939935595	1.1170044001191854	ITI	999	999
132.0533244991675	0.6129177007824183	fixation_1	999	999
132.6663336995989	3.0009995996952057	face	2.5323181999847293	1
135.66737089958042	0.6129177007824183	fixation_2	999	999
136.21623879950494	1.000038200058043	feedback loss	999	999
137.2162791993469	1.1186081003397703	ITI	999	999
138.33834459912032	0.594348200596869	fixation_1	999	999
138.932782699354	3.001447300426662	face	2.7848401004448533	2
141.934269499965	0.594348200596869	fixation_2	999	999
142.48286290001124	1.0166539996862411	feedback loss	999	999
143.49951969925314	11.61731110047549	ITI	999	999
155.1205664994195	0.6123301004990935	fixation_1	999	999
155.73298339918256	3.001900000497699	face	2.282870100811124	1
158.73492129985243	0.6123301004990935	fixation_2	999	999
159.28279219940305	1.0164048001170158	feedback loss	999	999
160.29919929988682	3.216633999720216	ITI	999	999
163.51960749924183	0.5965640004724264	fixation_1	999	999
164.1162794996053	3.0016587004065514	face	2.5325154000893235	1
167.11797599960119	0.5965640004724264	fixation_2	999	999
167.66592139936984	1.0002139005810022	feedback win	999	999
168.66613749973476	1.117709199897945	ITI	999	999
169.78750159963965	0.628465199843049	fixation_1	999	999
170.41605969984084	3.0018154997378588	face	2.534732500091195	2
173.41791509930044	0.628465199843049	fixation_2	999	999
173.96591509971768	1.016656999476254	feedback loss	999	999
174.98257459979504	5.3163979994133115	ITI	999	999
180.30267409980297	0.6132712000980973	fixation_1	999	999
180.91603939980268	3.0014451993629336	face	2.282817699946463	1
183.91753389965743	0.6132712000980973	fixation_2	999	999
184.46586649958044	1.0169467004016042	feedback loss	999	999
185.48281579930335	3.2156330002471805	ITI	999	999
188.7022746996954	0.5969118000939488	fixation_1	999	999
189.29927769955248	3.0505483001470566	face	3.0499579003080726	2
192.34985949937254	0.5969118000939488	fixation_2	999	999
192.89935219939798	1.0000368999317288	feedback win	999	999
193.89939139969647	1.1169170001521707	ITI	999	999
195.02007049974054	0.6293509993702173	fixation_1	999	999
195.6495222998783	3.000692999921739	face	2.7992918994277716	1
198.65024499967694	0.6293509993702173	fixation_2	999	999
199.1994180995971	1.0163786998018622	feedback win	999	999
200.21579899918288	5.316205800510943	ITI	999	999
205.5357947992161	0.5970246000215411	fixation_1	999	999
206.1329027991742	3.049422400072217	face	3.048880100250244	2
209.18236669991165	0.5970246000215411	fixation_2	999	999
209.7326500993222	1.0166465006768703	feedback loss	999	999
210.749298799783	5.316542100161314	ITI	999	999
216.0695632994175	0.5962386000901461	fixation_1	999	999
216.66591089963913	3.0016454001888633	face	2.532905699685216	2
219.66759319975972	0.5962386000901461	fixation_2	999	999
220.21600199956447	1.0164232002571225	feedback loss	999	999
221.2324273996055	3.2173699997365475	ITI	999	999
224.45374149922282	0.5954774003475904	fixation_1	999	999
225.04931979998946	3.0014796992763877	face	2.5334796998649836	2
228.0508368993178	0.5954774003475904	fixation_2	999	999
228.59929079934955	1.0163908004760742	feedback loss	999	999
229.61568379960954	1.1190194999799132	ITI	999	999
230.73851369973272	0.6107749994844198	fixation_1	999	999
231.34937069937587	3.0011486001312733	face	2.534422400407493	1
234.35055819991976	0.6107749994844198	fixation_2	999	999
234.89903279952705	1.0002383003011346	feedback loss	999	999
235.89927349984646	5.316494599916041	ITI	999	999
241.2195447999984	0.5960596995428205	fixation_1	999	999
241.8156787995249	3.0006878999993205	face	2.7991537004709244	2
244.81640639994293	0.5960596995428205	fixation_2	999	999
245.3656998993829	1.016800600104034	feedback loss	999	999
246.3825028995052	1.1181260999292135	ITI	999	999
247.50461659952998	0.5946465004235506	fixation_1	999	999
248.09936029929668	3.0014459006488323	face	2.5490192007273436	1
251.10084659978747	0.5946465004235506	fixation_2	999	999
251.64919029921293	1.0000820001587272	feedback win	999	999
252.64927449915558	1.1184838004410267	ITI	999	999
253.77154159918427	0.5942835006862879	fixation_1	999	999
254.3659126991406	3.0008620005100965	face	2.282310700044036	1
257.366813599132	0.5942835006862879	fixation_2	999	999
257.9155116993934	1.0001829005777836	feedback loss	999	999
258.9156967997551	1.1175918001681566	ITI	999	999
260.0372016998008	0.5953219002112746	fixation_1	999	999
260.6326235998422	3.001287999562919	face	2.53318540006876	2
263.63394819945097	0.5953219002112746	fixation_2	999	999
264.1822424000129	1.0001714993268251	feedback win	999	999
265.1824161997065	3.216311000287533	ITI	999	999
268.40262729953974	0.5966093996539712	fixation_1	999	999
268.99932239949703	3.0010695001110435	face	2.7984437998384237	1
272.0004400992766	0.5966093996539712	fixation_2	999	999
272.5494109997526	1.0160882994532585	feedback win	999	999
273.5655015995726	1.1176516003906727	ITI	999	999
274.687074999325	0.5953731006011367	fixation_1	999	999
275.28255859948695	3.001177200116217	face	2.2823494002223015	2
278.28377369977534	0.5953731006011367	fixation_2	999	999
278.8324107993394	1.0000440003350377	feedback win	999	999
279.83245819993317	3.2172624999657273	ITI	999	999
283.05372700002044	0.5953761991113424	fixation_1	999	999
283.6492071999237	3.0009963996708393	face	2.533318699337542	2
286.6502447994426	0.5953761991113424	fixation_2	999	999
287.1990516996011	1.0165887996554375	feedback win	999	999
288.2156427996233	5.316073699854314	ITI	999	999
293.5357584999874	0.5966832991689444	fixation_1	999	999
294.1325455997139	3.0001876996830106	face	2.2831886000931263	1
297.13277349993587	0.5966832991689444	fixation_2	999	999
297.68238759972155	1.016266499646008	feedback win	999	999
298.6986562991515	5.316058200784028	ITI	999	999
304.0187009992078	0.5968738999217749	fixation_1	999	999
304.6156827993691	3.001705000177026	face	2.7845608005300164	2
307.6174257993698	0.5968738999217749	fixation_2	999	999
308.1656671995297	1.0166191002354026	feedback win	999	999
309.18228899966925	1.116580399684608	ITI	999	999
310.303000099957	0.5959494998678565	fixation_1	999	999
310.8990601999685	3.00164179969579	face	2.532676599919796	1
313.9007420996204	0.5959494998678565	fixation_2	999	999
314.4487180998549	1.000114199705422	feedback loss	999	999
315.44883449934423	1.1178517006337643	ITI	999	999
316.57081299927086	0.5945190005004406	fixation_1	999	999
317.16547019965947	3.0012270994484425	face	2.532312300056219	1
320.1667356994003	0.5945190005004406	fixation_2	999	999
320.7153789997101	1.000530899502337	feedback win	999	999
321.7159121995792	3.215854600071907	ITI	999	999
324.93585629947484	0.5965400002896786	fixation_1	999	999
325.5324901994318	3.0012300005182624	face	2.032543900422752	2
328.533758899197	0.5965400002896786	fixation_2	999	999
329.0822251997888	1.0164263993501663	feedback loss	999	999
330.09865389950573	5.3170129004865885	ITI	999	999
