instrText,stimDoor,stimDoorLure,stimFace,stimFaceLure,Instructions.thisRepN,Instructions.thisTrialN,Instructions.thisN,Instructions.thisIndex,Trials.thisRepN,Trials.thisTrialN,Trials.thisN,Trials.thisIndex,Func,Keys,Text,RespTime,Onset,Offset,SystemTime_Start,SystemTime_Stop,Stim,Lure,Participant*,Age,date,expName,psychopyVersion,frameRate,
"In the earlier Feedback Games, you chose which doors contained a prize, and which peers liked you. 

You then saw positive or negative feedback (green check mark or red X) from the door or peer you selected.

You will now see a series of doors and peers, some of which you saw during the earlier Feedback Games, and some that you have never seen before.

Please press the spacebar to continue.",,,,,0,0,0,0,,,,,instrFunc,space,"In the earlier Feedback Games, you chose which doors contained a prize, and which peers liked you. 

You then saw positive or negative feedback (green check mark or red X) from the door or peer you selected.

You will now see a series of doors and peers, some of which you saw during the earlier Feedback Games, and some that you have never seen before.

Please press the spacebar to continue.",34.02840150007978,15.747908500023186,49.83486843993887,2023-03-22 15:34:38.532113,2023-03-22 15:35:12.605239,,,10418,40-69,2023-03-22_15h34.36.152,Recall,2021.2.3,59.92530909805716,
"For doors/peers that you remember selecting and getting feedback from, your job is to RECALL what feedback you received. 

Press '1' if you recall positive feedback. 

Press '2' if you recall negative feedback

Press the spacebar to continue.",,,,,0,1,1,1,,,,,instrFunc,space,"For doors/peers that you remember selecting and getting feedback from, your job is to RECALL what feedback you received. 

Press '1' if you recall positive feedback. 

Press '2' if you recall negative feedback

Press the spacebar to continue.",19.850697899935767,49.797835100092925,69.69297232001554,2023-03-22 15:35:12.606240,2023-03-22 15:35:32.485817,,,10418,40-69,2023-03-22_15h34.36.152,Recall,2021.2.3,59.92530909805716,
"For doors/peers that you don't remember getting feedback from, your job is to PREDICT what feedback you WOULD HAVE received.

Press '9' if you predict positive feedback.

Press '0' if you predict negative feedback. 

Please press the spacebar to continue.",,,,,0,2,2,2,,,,,instrFunc,space,"For doors/peers that you don't remember getting feedback from, your job is to PREDICT what feedback you WOULD HAVE received.

Press '9' if you predict positive feedback.

Press '0' if you predict negative feedback. 

Please press the spacebar to continue.",12.74669159995392,69.67772930010688,82.46820522006601,2023-03-22 15:35:32.486832,2023-03-22 15:35:45.261744,,,10418,40-69,2023-03-22_15h34.36.152,Recall,2021.2.3,59.92530909805716,
"This task is self-paced, and the prompts will always stay on the screen so that you know which buttons to press.

On the next screen we will show you what those prompts look like, so that you know exactly what to expect. 

You will start with either doors or peers, and then switch halfway through. 

Please press the spacebar to continue.",,,,,0,3,3,3,,,,,instrFunc,space,"This task is self-paced, and the prompts will always stay on the screen so that you know which buttons to press.

On the next screen we will show you what those prompts look like, so that you know exactly what to expect. 

You will start with either doors or peers, and then switch halfway through. 

Please press the spacebar to continue.",16.45306219998747,82.45142500009388,98.94451991992537,2023-03-22 15:35:45.262743,2023-03-22 15:36:01.740144,,,10418,40-69,2023-03-22_15h34.36.152,Recall,2021.2.3,59.92530909805716,
,,,,,,,,,,,,,imgtextFunc,space,"Here is what the screen will look like while you make your ratings.
The green circles remind you to press 1 or 9 for positive feedback.
The red circles remind you to press 2 or 0 for positive feedback.









Please let the experimenter know if you have any questions.

Whenever you're ready, press the spacebar to start the task.",17.112074800068513,99.07246440008748,116.35307012009434,2023-03-22 15:36:01.748146,2023-03-22 15:36:19.020135,,,10418,40-69,2023-03-22_15h34.36.152,Recall,2021.2.3,59.92530909805716,
,SD019.jpg,0,MF019.jpg,0,,,,,0,0,0,68,imgFunc,0,NA,25.451970999944024,116.3403796000639,141.91273386008106,2023-03-22 15:36:19.059374,2023-03-22 15:36:44.621309,SD019.jpg,0,10418,40-69,2023-03-22_15h34.36.152,Recall,2021.2.3,59.92530909805716,
,DD003.jpg,0,FF003.jpg,0,,,,,0,1,1,2,imgFunc,1,NA,8.238099599955603,141.90642430004664,150.25495272001717,2023-03-22 15:36:44.633279,2023-03-22 15:36:52.977208,DD003.jpg,0,10418,40-69,2023-03-22_15h34.36.152,Recall,2021.2.3,59.92530909805716,
,SD014.jpg,0,MF014.jpg,0,,,,,0,2,2,63,imgFunc,1,NA,5.83484609995503,150.25358860008419,156.19945452001411,2023-03-22 15:36:52.989579,2023-03-22 15:36:58.931311,SD014.jpg,0,10418,40-69,2023-03-22_15h34.36.152,Recall,2021.2.3,59.92530909805716,
,DD029.jpg,0,FF029.jpg,0,,,,,0,3,3,28,imgFunc,1,NA,2.2133547000121325,156.18718450004235,158.48713841999415,2023-03-22 15:36:58.940289,2023-03-22 15:37:01.232993,DD029.jpg,0,10418,40-69,2023-03-22_15h34.36.152,Recall,2021.2.3,59.92530909805716,
,SD022.jpg,0,MF022.jpg,0,,,,,0,4,4,71,imgFunc,1,NA,1.7160490999231115,158.4924874000717,160.31225021998398,2023-03-22 15:37:01.239976,2023-03-22 15:37:03.051023,SD022.jpg,0,10418,40-69,2023-03-22_15h34.36.152,Recall,2021.2.3,59.92530909805716,
,SD035.jpg,0,MF035.jpg,0,,,,,0,5,5,84,imgFunc,0,NA,4.238294699927792,160.31425320007838,164.65181722003035,2023-03-22 15:37:03.058914,2023-03-22 15:37:07.387440,SD035.jpg,0,10418,40-69,2023-03-22_15h34.36.152,Recall,2021.2.3,59.92530909805716,
,SD010.jpg,0,MF010.jpg,0,,,,,0,6,6,59,imgFunc,9,NA,2.7077437000116333,164.65282690001186,167.45529201987665,2023-03-22 15:37:07.395339,2023-03-22 15:37:10.189751,SD010.jpg,0,10418,40-69,2023-03-22_15h34.36.152,Recall,2021.2.3,59.92530909805716,
,DD030.jpg,0,FF030.jpg,0,,,,,0,7,7,29,imgFunc,2,NA,2.3180697000352666,167.45825060002971,169.8755070399493,2023-03-22 15:37:10.206707,2023-03-22 15:37:12.607856,DD030.jpg,0,10418,40-69,2023-03-22_15h34.36.152,Recall,2021.2.3,59.92530909805716,
,DD021.jpg,0,FF021.jpg,0,,,,,0,8,8,20,imgFunc,2,NA,4.699307300033979,169.8611988000339,174.649862720049,2023-03-22 15:37:12.614839,2023-03-22 15:37:17.394613,DD021.jpg,0,10418,40-69,2023-03-22_15h34.36.152,Recall,2021.2.3,59.92530909805716,
,DD037.jpg,0,FF037.jpg,0,,,,,0,9,9,36,imgFunc,2,NA,2.6617369999876246,174.65868810005486,177.42503751988988,2023-03-22 15:37:17.404166,2023-03-22 15:37:20.163343,DD037.jpg,0,10418,40-69,2023-03-22_15h34.36.152,Recall,2021.2.3,59.92530909805716,
,SD001.jpg,0,MF001.jpg,0,,,,,0,10,10,50,imgFunc,9,NA,5.856640699901618,177.4158309000777,183.3717523200903,2023-03-22 15:37:20.170326,2023-03-22 15:37:26.117598,SD001.jpg,0,10418,40-69,2023-03-22_15h34.36.152,Recall,2021.2.3,59.92530909805716,
,L_SD510.jpg,1,L_MF510.jpg,1,,,,,0,11,11,99,imgFunc,0,NA,2.4629806000739336,183.385302000097,185.95220542000607,2023-03-22 15:37:26.126575,2023-03-22 15:37:28.686205,L_SD510.jpg,1,10418,40-69,2023-03-22_15h34.36.152,Recall,2021.2.3,59.92530909805716,
,SD039.jpg,0,MF039.jpg,0,,,,,0,12,12,88,imgFunc,9,NA,1.562043400015682,185.9424280000385,187.59396552003454,2023-03-22 15:37:28.694185,2023-03-22 15:37:30.337105,SD039.jpg,0,10418,40-69,2023-03-22_15h34.36.152,Recall,2021.2.3,59.92530909805716,
,SD023.jpg,0,MF023.jpg,0,,,,,0,13,13,72,imgFunc,1,NA,3.020024999976158,187.58856960001867,190.6920456199441,2023-03-22 15:37:30.344110,2023-03-22 15:37:33.439399,SD023.jpg,0,10418,40-69,2023-03-22_15h34.36.152,Recall,2021.2.3,59.92530909805716,
,DD028.jpg,0,FF028.jpg,0,,,,,0,14,14,27,imgFunc,2,NA,4.782774799969047,190.68955910007935,195.56110511999577,2023-03-22 15:37:33.446382,2023-03-22 15:37:38.309711,DD028.jpg,0,10418,40-69,2023-03-22_15h34.36.152,Recall,2021.2.3,59.92530909805716,
,DD012.jpg,0,FF012.jpg,0,,,,,0,15,15,11,imgFunc,0,NA,2.1349316999549046,195.57770480006002,197.8112243200885,2023-03-22 15:37:38.318687,2023-03-22 15:37:40.544626,DD012.jpg,0,10418,40-69,2023-03-22_15h34.36.152,Recall,2021.2.3,59.92530909805716,
,SD033.jpg,0,MF033.jpg,0,,,,,0,16,16,82,imgFunc,2,NA,3.534949199995026,197.80974180006888,201.4351527200779,2023-03-22 15:37:40.557593,2023-03-22 15:37:44.180591,SD033.jpg,0,10418,40-69,2023-03-22_15h34.36.152,Recall,2021.2.3,59.92530909805716,
,SD006.jpg,0,MF006.jpg,0,,,,,0,17,17,55,imgFunc,0,NA,4.577529800008051,201.43106380000245,206.1028717198642,2023-03-22 15:37:44.187574,2023-03-22 15:37:48.850605,SD006.jpg,0,10418,40-69,2023-03-22_15h34.36.152,Recall,2021.2.3,59.92530909805716,
,DD011.jpg,0,FF011.jpg,0,,,,,0,18,18,10,imgFunc,1,NA,2.994146499899216,206.11051690008026,209.19354621996172,2023-03-22 15:37:48.859635,2023-03-22 15:37:51.935914,DD011.jpg,0,10418,40-69,2023-03-22_15h34.36.152,Recall,2021.2.3,59.92530909805716,
,DD017.jpg,0,FF017.jpg,0,,,,,0,19,19,16,imgFunc,1,NA,1.5194216999225318,209.2011476000771,210.8196968199918,2023-03-22 15:37:51.943686,2023-03-22 15:37:53.554018,DD017.jpg,0,10418,40-69,2023-03-22_15h34.36.152,Recall,2021.2.3,59.92530909805716,
,SD007.jpg,0,MF007.jpg,0,,,,,0,20,20,56,imgFunc,2,NA,2.501134399906732,210.8273419000907,213.44693042011932,2023-03-22 15:37:53.561002,2023-03-22 15:37:56.172127,SD007.jpg,0,10418,40-69,2023-03-22_15h34.36.152,Recall,2021.2.3,59.92530909805716,
,SD002.jpg,0,MF002.jpg,0,,,,,0,21,21,51,imgFunc,1,NA,2.7277016999432817,213.44064210006036,216.26236252009403,2023-03-22 15:37:56.187089,2023-03-22 15:37:59.007642,SD002.jpg,0,10418,40-69,2023-03-22_15h34.36.152,Recall,2021.2.3,59.92530909805716,
,DD019.jpg,0,FF019.jpg,0,,,,,0,22,22,18,imgFunc,0,NA,2.7458427000092342,216.26273360010237,219.1001177201979,2023-03-22 15:37:59.014656,2023-03-22 15:38:01.843475,DD019.jpg,0,10418,40-69,2023-03-22_15h34.36.152,Recall,2021.2.3,59.92530909805716,
,SD015.jpg,0,MF015.jpg,0,,,,,0,23,23,64,imgFunc,2,NA,3.784815900027752,219.09573770000134,222.9663871199591,2023-03-22 15:38:01.850458,2023-03-22 15:38:05.712653,SD015.jpg,0,10418,40-69,2023-03-22_15h34.36.152,Recall,2021.2.3,59.92530909805716,
,SD040.jpg,0,MF040.jpg,0,,,,,0,24,24,89,imgFunc,2,NA,1.7586432000389323,222.9698695000261,224.82280842005275,2023-03-22 15:38:05.719636,2023-03-22 15:38:07.564006,SD040.jpg,0,10418,40-69,2023-03-22_15h34.36.152,Recall,2021.2.3,59.92530909805716,
,DD009.jpg,0,FF009.jpg,0,,,,,0,25,25,8,imgFunc,2,NA,1.6502018999308348,224.83039590006229,226.58291991997976,2023-03-22 15:38:07.570989,2023-03-22 15:38:09.315231,DD009.jpg,0,10418,40-69,2023-03-22_15h34.36.152,Recall,2021.2.3,59.92530909805716,
,L_SD509.jpg,1,L_MF509.jpg,1,,,,,0,26,26,98,imgFunc,2,NA,1.4274446999188513,226.58122340007685,228.10344052012078,2023-03-22 15:38:09.329196,2023-03-22 15:38:10.849960,L_SD509.jpg,1,10418,40-69,2023-03-22_15h34.36.152,Recall,2021.2.3,59.92530909805716,
,DD026.jpg,0,FF026.jpg,0,,,,,0,27,27,25,imgFunc,2,NA,1.939187299925834,228.10144700005185,230.13583232008386,2023-03-22 15:38:10.857929,2023-03-22 15:38:12.884443,DD026.jpg,0,10418,40-69,2023-03-22_15h34.36.152,Recall,2021.2.3,59.92530909805716,
,SD031.jpg,0,MF031.jpg,0,,,,,0,28,28,80,imgFunc,1,NA,1.0863756999606267,230.13824430003297,231.32377141993493,2023-03-22 15:38:12.891426,2023-03-22 15:38:14.068495,SD031.jpg,0,10418,40-69,2023-03-22_15h34.36.152,Recall,2021.2.3,59.92530909805716,
,SD009.jpg,0,MF009.jpg,0,,,,,0,29,29,58,imgFunc,1,NA,1.8504475000081584,231.32622370007448,233.27951762010343,2023-03-22 15:38:14.075478,2023-03-22 15:38:16.020163,SD009.jpg,0,10418,40-69,2023-03-22_15h34.36.152,Recall,2021.2.3,59.92530909805716,
,SD012.jpg,0,MF012.jpg,0,,,,,0,30,30,61,imgFunc,1,NA,2.35047800000757,233.27388940006495,235.7106897199992,2023-03-22 15:38:16.027146,2023-03-22 15:38:18.455181,SD012.jpg,0,10418,40-69,2023-03-22_15h34.36.152,Recall,2021.2.3,59.92530909805716,
,L_SD504.jpg,1,L_MF504.jpg,1,,,,,0,31,31,93,imgFunc,2,NA,1.5983262000372633,235.7063260000432,237.39235141989775,2023-03-22 15:38:18.462164,2023-03-22 15:38:20.139462,L_SD504.jpg,1,10418,40-69,2023-03-22_15h34.36.152,Recall,2021.2.3,59.92530909805716,
,L_DD504.jpg,1,L_FF504.jpg,1,,,,,0,32,32,43,imgFunc,0,NA,3.484673000057228,237.3957139000995,240.98267022008076,2023-03-22 15:38:20.147465,2023-03-22 15:38:23.725405,L_DD504.jpg,1,10418,40-69,2023-03-22_15h34.36.152,Recall,2021.2.3,59.92530909805716,
,SD020.jpg,0,MF020.jpg,0,,,,,0,33,33,69,imgFunc,1,NA,2.1197557999985293,240.98490060004406,243.20451921992935,2023-03-22 15:38:23.732409,2023-03-22 15:38:25.943780,SD020.jpg,0,10418,40-69,2023-03-22_15h34.36.152,Recall,2021.2.3,59.92530909805716,
,SD004.jpg,0,MF004.jpg,0,,,,,0,34,34,53,imgFunc,1,NA,2.2736719000386074,243.19889190001413,245.56776092003565,2023-03-22 15:38:25.951668,2023-03-22 15:38:28.312107,SD004.jpg,0,10418,40-69,2023-03-22_15h34.36.152,Recall,2021.2.3,59.92530909805716,
,DD015.jpg,0,FF015.jpg,0,,,,,0,35,35,14,imgFunc,1,NA,2.1946952000726014,245.57378400000744,247.86388242000248,2023-03-22 15:38:28.325981,2023-03-22 15:38:30.613805,DD015.jpg,0,10418,40-69,2023-03-22_15h34.36.152,Recall,2021.2.3,59.92530909805716,
,L_SD505.jpg,1,L_MF505.jpg,1,,,,,0,36,36,94,imgFunc,1,NA,4.937740699970163,247.87099980004132,252.90740541997366,2023-03-22 15:38:30.621786,2023-03-22 15:38:35.650539,L_SD505.jpg,1,10418,40-69,2023-03-22_15h34.36.152,Recall,2021.2.3,59.92530909805716,
,DD036.jpg,0,FF036.jpg,0,,,,,0,37,37,35,imgFunc,1,NA,1.6967742000706494,252.91190430009738,254.7113428200828,2023-03-22 15:38:35.659543,2023-03-22 15:38:37.452239,DD036.jpg,0,10418,40-69,2023-03-22_15h34.36.152,Recall,2021.2.3,59.92530909805716,
,L_SD502.jpg,1,L_MF502.jpg,1,,,,,0,38,38,91,imgFunc,1,NA,1.5396395000861958,254.70908510009758,256.3434003201546,2023-03-22 15:38:37.460219,2023-03-22 15:38:39.086633,L_SD502.jpg,1,10418,40-69,2023-03-22_15h34.36.152,Recall,2021.2.3,59.92530909805716,
,L_SD503.jpg,1,L_MF503.jpg,1,,,,,0,39,39,92,imgFunc,2,NA,2.53648309991695,256.35221280006226,258.9887106199749,2023-03-22 15:38:39.093616,2023-03-22 15:38:41.721666,L_SD503.jpg,1,10418,40-69,2023-03-22_15h34.36.152,Recall,2021.2.3,59.92530909805716,
,SD024.jpg,0,MF024.jpg,0,,,,,0,40,40,73,imgFunc,2,NA,1.8195576999569312,258.98909170005936,260.8942449199967,2023-03-22 15:38:41.736627,2023-03-22 15:38:43.639819,SD024.jpg,0,10418,40-69,2023-03-22_15h34.36.152,Recall,2021.2.3,59.92530909805716,
,DD032.jpg,0,FF032.jpg,0,,,,,0,41,41,31,imgFunc,0,NA,1.9646838000044227,260.8920222000452,262.94357981998473,2023-03-22 15:38:43.647799,2023-03-22 15:38:45.691356,DD032.jpg,0,10418,40-69,2023-03-22_15h34.36.152,Recall,2021.2.3,59.92530909805716,
,DD033.jpg,0,FF033.jpg,0,,,,,0,42,42,32,imgFunc,1,NA,2.258924000081606,262.9416564001003,265.29464062000625,2023-03-22 15:38:45.698339,2023-03-22 15:38:48.042996,DD033.jpg,0,10418,40-69,2023-03-22_15h34.36.152,Recall,2021.2.3,59.92530909805716,
,DD013.jpg,0,FF013.jpg,0,,,,,0,43,43,12,imgFunc,0,NA,2.7307562000351027,265.29381699999794,268.1137261199765,2023-03-22 15:38:48.049980,2023-03-22 15:38:50.861459,DD013.jpg,0,10418,40-69,2023-03-22_15h34.36.152,Recall,2021.2.3,59.92530909805716,
,DD006.jpg,0,FF006.jpg,0,,,,,0,44,44,5,imgFunc,1,NA,2.1783147000242025,268.1183350000065,270.38793211989105,2023-03-22 15:38:50.869302,2023-03-22 15:38:53.130022,DD006.jpg,0,10418,40-69,2023-03-22_15h34.36.152,Recall,2021.2.3,59.92530909805716,
,L_DD501.jpg,1,L_FF501.jpg,1,,,,,0,45,45,40,imgFunc,2,NA,2.2144970999797806,270.3941985000856,272.70016962010413,2023-03-22 15:38:53.143987,2023-03-22 15:38:55.448306,L_DD501.jpg,1,10418,40-69,2023-03-22_15h34.36.152,Recall,2021.2.3,59.92530909805716,
,SD027.jpg,0,MF027.jpg,0,,,,,0,46,46,76,imgFunc,2,NA,2.0478014999534935,272.6968670000788,274.8334919201443,2023-03-22 15:38:55.455290,2023-03-22 15:38:57.583271,SD027.jpg,0,10418,40-69,2023-03-22_15h34.36.152,Recall,2021.2.3,59.92530909805716,
,DD010.jpg,0,FF010.jpg,0,,,,,0,47,47,9,imgFunc,0,NA,3.7102589999558404,274.8424593000673,278.6460951199988,2023-03-22 15:38:57.590254,2023-03-22 15:39:01.385765,DD010.jpg,0,10418,40-69,2023-03-22_15h34.36.152,Recall,2021.2.3,59.92530909805716,
,DD027.jpg,0,FF027.jpg,0,,,,,0,48,48,26,imgFunc,9,NA,1.7984345000004396,278.64228980010375,280.52832672011573,2023-03-22 15:39:01.393745,2023-03-22 15:39:03.270797,DD027.jpg,0,10418,40-69,2023-03-22_15h34.36.152,Recall,2021.2.3,59.92530909805716,
,L_DD507.jpg,1,L_FF507.jpg,1,,,,,0,49,49,46,imgFunc,1,NA,2.746189699973911,280.5345405000262,283.3873566200491,2023-03-22 15:39:03.278777,2023-03-22 15:39:06.122636,L_DD507.jpg,1,10418,40-69,2023-03-22_15h34.36.152,Recall,2021.2.3,59.92530909805716,
,DD031.jpg,0,FF031.jpg,0,,,,,0,50,50,30,imgFunc,2,NA,1.668933599954471,283.379853200051,285.1483753200155,2023-03-22 15:39:06.130616,2023-03-22 15:39:07.890691,DD031.jpg,0,10418,40-69,2023-03-22_15h34.36.152,Recall,2021.2.3,59.92530909805716,
,L_DD506.jpg,1,L_FF506.jpg,1,,,,,0,51,51,45,imgFunc,2,NA,2.3887033000355586,285.1559738999931,287.6425009199884,2023-03-22 15:39:07.897674,2023-03-22 15:39:10.375838,L_DD506.jpg,1,10418,40-69,2023-03-22_15h34.36.152,Recall,2021.2.3,59.92530909805716,
,DD020.jpg,0,FF020.jpg,0,,,,,0,52,52,19,imgFunc,2,NA,2.1281579000642523,287.6405917000957,289.87601892009843,2023-03-22 15:39:10.383818,2023-03-22 15:39:12.610478,DD020.jpg,0,10418,40-69,2023-03-22_15h34.36.152,Recall,2021.2.3,59.92530909805716,
,SD032.jpg,0,MF032.jpg,0,,,,,0,53,53,81,imgFunc,2,NA,1.7500908999936655,289.8666253000265,291.7184093199903,2023-03-22 15:39:12.618344,2023-03-22 15:39:14.461585,SD032.jpg,0,10418,40-69,2023-03-22_15h34.36.152,Recall,2021.2.3,59.92530909805716,
,SD038.jpg,0,MF038.jpg,0,,,,,0,54,54,87,imgFunc,0,NA,1.8024869000073522,291.72618850006256,293.61762812011875,2023-03-22 15:39:14.474573,2023-03-22 15:39:16.363408,SD038.jpg,0,10418,40-69,2023-03-22_15h34.36.152,Recall,2021.2.3,59.92530909805716,
,SD016.jpg,0,MF016.jpg,0,,,,,0,55,55,65,imgFunc,0,NA,1.0439822999760509,293.6128088000696,294.7476371200755,2023-03-22 15:39:16.371411,2023-03-22 15:39:17.497458,SD016.jpg,0,10418,40-69,2023-03-22_15h34.36.152,Recall,2021.2.3,59.92530909805716,
,L_DD510.jpg,1,L_FF510.jpg,1,,,,,0,56,56,49,imgFunc,0,NA,1.368884600000456,294.74388960003853,296.1966181199532,2023-03-22 15:39:17.504441,2023-03-22 15:39:18.948503,L_DD510.jpg,1,10418,40-69,2023-03-22_15h34.36.152,Recall,2021.2.3,59.92530909805716,
,DD024.jpg,0,FF024.jpg,0,,,,,0,57,57,23,imgFunc,1,NA,3.3724826000398025,296.2043379000388,299.6738528199494,2023-03-22 15:39:18.956506,2023-03-22 15:39:22.417632,DD024.jpg,0,10418,40-69,2023-03-22_15h34.36.152,Recall,2021.2.3,59.92530909805716,
,SD037.jpg,0,MF037.jpg,0,,,,,0,58,58,86,imgFunc,0,NA,1.2667517999652773,299.677950500045,301.0470313200494,2023-03-22 15:39:22.424615,2023-03-22 15:39:23.785346,SD037.jpg,0,10418,40-69,2023-03-22_15h34.36.152,Recall,2021.2.3,59.92530909805716,
,SD029.jpg,0,MF029.jpg,0,,,,,0,59,59,78,imgFunc,0,NA,3.039670699974522,301.0490690000588,304.17206902010366,2023-03-22 15:39:23.799310,2023-03-22 15:39:26.920828,SD029.jpg,0,10418,40-69,2023-03-22_15h34.36.152,Recall,2021.2.3,59.92530909805716,
,SD030.jpg,0,MF030.jpg,0,,,,,0,60,60,79,imgFunc,0,NA,1.7244922000681981,304.1723340000026,305.9918825200293,2023-03-22 15:39:26.927811,2023-03-22 15:39:28.738847,SD030.jpg,0,10418,40-69,2023-03-22_15h34.36.152,Recall,2021.2.3,59.92530909805716,
,DD025.jpg,0,FF025.jpg,0,,,,,0,61,61,24,imgFunc,0,NA,1.7945302999578416,305.9903144000564,307.87617351999506,2023-03-22 15:39:28.746827,2023-03-22 15:39:30.623666,DD025.jpg,0,10418,40-69,2023-03-22_15h34.36.152,Recall,2021.2.3,59.92530909805716,
,DD039.jpg,0,FF039.jpg,0,,,,,0,62,62,38,imgFunc,0,NA,1.9281360000604764,307.8807148000924,309.9003781201318,2023-03-22 15:39:30.630650,2023-03-22 15:39:32.641622,DD039.jpg,0,10418,40-69,2023-03-22_15h34.36.152,Recall,2021.2.3,59.92530909805716,
,SD011.jpg,0,MF011.jpg,0,,,,,0,63,63,60,imgFunc,9,NA,2.407567400019616,309.89722680009436,312.40008892014157,2023-03-22 15:39:32.649603,2023-03-22 15:39:35.143160,SD011.jpg,0,10418,40-69,2023-03-22_15h34.36.152,Recall,2021.2.3,59.92530909805716,
,SD005.jpg,0,MF005.jpg,0,,,,,0,64,64,54,imgFunc,0,NA,1.7729551999364048,312.41171880008187,314.2823875199538,2023-03-22 15:39:35.158123,2023-03-22 15:39:37.028177,SD005.jpg,0,10418,40-69,2023-03-22_15h34.36.152,Recall,2021.2.3,59.92530909805716,
,L_DD508.jpg,1,L_FF508.jpg,1,,,,,0,65,65,47,imgFunc,9,NA,2.873331999988295,314.2794518000446,317.2492017199984,2023-03-22 15:39:37.035160,2023-03-22 15:39:39.996793,L_DD508.jpg,1,10418,40-69,2023-03-22_15h34.36.152,Recall,2021.2.3,59.92530909805716,
,SD003.jpg,0,MF003.jpg,0,,,,,0,66,66,52,imgFunc,1,NA,2.115150499972515,317.2453248000238,319.44829302001745,2023-03-22 15:39:40.003776,2023-03-22 15:39:42.197957,SD003.jpg,0,10418,40-69,2023-03-22_15h34.36.152,Recall,2021.2.3,59.92530909805716,
,SD013.jpg,0,MF013.jpg,0,,,,,0,67,67,62,imgFunc,0,NA,2.2025509999366477,319.4542438000208,321.75702461996116,2023-03-22 15:39:42.205934,2023-03-22 15:39:44.500064,SD013.jpg,0,10418,40-69,2023-03-22_15h34.36.152,Recall,2021.2.3,59.92530909805716,
,SD025.jpg,0,MF025.jpg,0,,,,,0,68,68,74,imgFunc,1,NA,1.976365500013344,321.76042780000716,323.8298834199086,2023-03-22 15:39:44.507047,2023-03-22 15:39:46.568248,SD025.jpg,0,10418,40-69,2023-03-22_15h34.36.152,Recall,2021.2.3,59.92530909805716,
,DD001.jpg,0,FF001.jpg,0,,,,,0,69,69,0,imgFunc,1,NA,1.8100723000243306,323.8227445000084,325.7259816197911,2023-03-22 15:39:46.575231,2023-03-22 15:39:48.469618,DD001.jpg,0,10418,40-69,2023-03-22_15h34.36.152,Recall,2021.2.3,59.92530909805716,
,DD023.jpg,0,FF023.jpg,0,,,,,0,70,70,22,imgFunc,0,NA,3.5202587000094354,325.72846430004574,329.3493644199334,2023-03-22 15:39:48.476601,2023-03-22 15:39:52.088850,DD023.jpg,0,10418,40-69,2023-03-22_15h34.36.152,Recall,2021.2.3,59.92530909805716,
,DD016.jpg,0,FF016.jpg,0,,,,,0,71,71,15,imgFunc,0,NA,1.387681300053373,329.3490599000361,330.83504802000243,2023-03-22 15:39:52.095833,2023-03-22 15:39:53.573180,DD016.jpg,0,10418,40-69,2023-03-22_15h34.36.152,Recall,2021.2.3,59.92530909805716,
,SD008.jpg,0,MF008.jpg,0,,,,,0,72,72,57,imgFunc,0,NA,1.2922826999565586,330.8285302000586,332.2142674200004,2023-03-22 15:39:53.580163,2023-03-22 15:39:54.957484,SD008.jpg,0,10418,40-69,2023-03-22_15h34.36.152,Recall,2021.2.3,59.92530909805716,
,DD005.jpg,0,FF005.jpg,0,,,,,0,73,73,4,imgFunc,9,NA,2.2994024000363424,332.2212579000043,334.6136679198826,2023-03-22 15:39:54.970451,2023-03-22 15:39:57.359492,DD005.jpg,0,10418,40-69,2023-03-22_15h34.36.152,Recall,2021.2.3,59.92530909805716,
,SD028.jpg,0,MF028.jpg,0,,,,,0,74,74,77,imgFunc,0,NA,2.972100600018166,334.6046263000462,337.65822592005134,2023-03-22 15:39:57.366475,2023-03-22 15:40:00.411593,SD028.jpg,0,10418,40-69,2023-03-22_15h34.36.152,Recall,2021.2.3,59.92530909805716,
,L_DD503.jpg,1,L_FF503.jpg,1,,,,,0,75,75,42,imgFunc,0,NA,2.470550600090064,337.6582839000039,340.2111802200088,2023-03-22 15:40:00.418577,2023-03-22 15:40:02.963292,L_DD503.jpg,1,10418,40-69,2023-03-22_15h34.36.152,Recall,2021.2.3,59.92530909805716,
,L_SD508.jpg,1,L_MF508.jpg,1,,,,,0,76,76,97,imgFunc,0,NA,1.3454453999875113,340.21534480003174,341.6512024200056,2023-03-22 15:40:02.970275,2023-03-22 15:40:04.397724,L_SD508.jpg,1,10418,40-69,2023-03-22_15h34.36.152,Recall,2021.2.3,59.92530909805716,
,SD036.jpg,0,MF036.jpg,0,,,,,0,77,77,85,imgFunc,0,NA,1.416718399967067,341.6480921000475,343.1506075198995,2023-03-22 15:40:04.404707,2023-03-22 15:40:05.898889,SD036.jpg,0,10418,40-69,2023-03-22_15h34.36.152,Recall,2021.2.3,59.92530909805716,
,DD022.jpg,0,FF022.jpg,0,,,,,0,78,78,21,imgFunc,0,NA,1.1631608000025153,343.15756220009644,344.41279962006956,2023-03-22 15:40:05.912853,2023-03-22 15:40:07.166582,DD022.jpg,0,10418,40-69,2023-03-22_15h34.36.152,Recall,2021.2.3,59.92530909805716,
,L_DD502.jpg,1,L_FF502.jpg,1,,,,,0,79,79,41,imgFunc,0,NA,1.2537188999122009,344.4191172000719,345.77007762005087,2023-03-22 15:40:07.174563,2023-03-22 15:40:08.517357,L_DD502.jpg,1,10418,40-69,2023-03-22_15h34.36.152,Recall,2021.2.3,59.92530909805716,
,SD017.jpg,0,MF017.jpg,0,,,,,0,80,80,66,imgFunc,0,NA,0.01790789992082864,345.76676720008254,345.8681563200662,2023-03-22 15:40:08.524361,2023-03-22 15:40:08.617386,SD017.jpg,0,10418,40-69,2023-03-22_15h34.36.152,Recall,2021.2.3,59.92530909805716,
,SD034.jpg,0,MF034.jpg,0,,,,,0,81,81,83,imgFunc,0,NA,1.3133219999726862,345.8635245000478,347.26600401999895,2023-03-22 15:40:08.624369,2023-03-22 15:40:10.018431,SD034.jpg,0,10418,40-69,2023-03-22_15h34.36.152,Recall,2021.2.3,59.92530909805716,
,DD038.jpg,0,FF038.jpg,0,,,,,0,82,82,37,imgFunc,0,NA,1.201697599957697,347.26306640007533,348.5492660199525,2023-03-22 15:40:10.025414,2023-03-22 15:40:11.302698,DD038.jpg,0,10418,40-69,2023-03-22_15h34.36.152,Recall,2021.2.3,59.92530909805716,
,DD004.jpg,0,FF004.jpg,0,,,,,0,83,83,3,imgFunc,1,NA,1.7877417999552563,348.5491094000172,350.4182265198324,2023-03-22 15:40:11.309681,2023-03-22 15:40:13.170688,DD004.jpg,0,10418,40-69,2023-03-22_15h34.36.152,Recall,2021.2.3,59.92530909805716,
,L_DD505.jpg,1,L_FF505.jpg,1,,,,,0,84,84,44,imgFunc,0,NA,2.292969199945219,350.4198800000595,352.80606132012326,2023-03-22 15:40:13.177671,2023-03-22 15:40:15.555727,L_DD505.jpg,1,10418,40-69,2023-03-22_15h34.36.152,Recall,2021.2.3,59.92530909805716,
,L_DD509.jpg,1,L_FF509.jpg,1,,,,,0,85,85,48,imgFunc,0,NA,4.865609099972062,352.79926110000815,357.7544872199651,2023-03-22 15:40:15.562710,2023-03-22 15:40:20.509321,L_DD509.jpg,1,10418,40-69,2023-03-22_15h34.36.152,Recall,2021.2.3,59.92530909805716,
,DD018.jpg,0,FF018.jpg,0,,,,,0,86,86,17,imgFunc,0,NA,2.1752467000624165,357.7613129999954,360.0269589200616,2023-03-22 15:40:20.518298,2023-03-22 15:40:22.777277,DD018.jpg,0,10418,40-69,2023-03-22_15h34.36.152,Recall,2021.2.3,59.92530909805716,
,DD007.jpg,0,FF007.jpg,0,,,,,0,87,87,6,imgFunc,9,NA,1.489259700058028,360.039629100007,361.6128086198587,2023-03-22 15:40:22.791240,2023-03-22 15:40:24.362112,DD007.jpg,0,10418,40-69,2023-03-22_15h34.36.152,Recall,2021.2.3,59.92530909805716,
,SD026.jpg,0,MF026.jpg,0,,,,,0,88,88,75,imgFunc,9,NA,1.336971600074321,361.6157661000034,363.0516258199932,2023-03-22 15:40:24.369095,2023-03-22 15:40:25.796332,SD026.jpg,0,10418,40-69,2023-03-22_15h34.36.152,Recall,2021.2.3,59.92530909805716,
,DD014.jpg,0,FF014.jpg,0,,,,,0,89,89,13,imgFunc,9,NA,2.0703226000769064,363.04257950000465,365.19595182000194,2023-03-22 15:40:25.803315,2023-03-22 15:40:27.947958,DD014.jpg,0,10418,40-69,2023-03-22_15h34.36.152,Recall,2021.2.3,59.92530909805716,
,L_SD507.jpg,1,L_MF507.jpg,1,,,,,0,90,90,96,imgFunc,0,NA,2.8297255999641493,365.19497890002094,368.1149335199734,2023-03-22 15:40:27.954969,2023-03-22 15:40:30.866766,L_SD507.jpg,1,10418,40-69,2023-03-22_15h34.36.152,Recall,2021.2.3,59.92530909805716,
,DD008.jpg,0,FF008.jpg,0,,,,,0,91,91,7,imgFunc,1,NA,1.8393711000680923,368.11350229999516,370.0323858199408,2023-03-22 15:40:30.874747,2023-03-22 15:40:32.784622,DD008.jpg,0,10418,40-69,2023-03-22_15h34.36.152,Recall,2021.2.3,59.92530909805716,
,L_SD501.jpg,1,L_MF501.jpg,1,,,,,0,92,92,90,imgFunc,2,NA,2.709280199953355,370.0433227000758,372.8324621199863,2023-03-22 15:40:32.798586,2023-03-22 15:40:35.586673,L_SD501.jpg,1,10418,40-69,2023-03-22_15h34.36.152,Recall,2021.2.3,59.92530909805716,
,DD040.jpg,0,FF040.jpg,0,,,,,0,93,93,39,imgFunc,2,NA,1.9933869000524282,372.8395490000257,374.92487262003124,2023-03-22 15:40:35.594654,2023-03-22 15:40:37.671165,DD040.jpg,0,10418,40-69,2023-03-22_15h34.36.152,Recall,2021.2.3,59.92530909805716,
,DD002.jpg,0,FF002.jpg,0,,,,,0,94,94,1,imgFunc,2,NA,1.4897210999624804,374.9191602000501,376.4872689199401,2023-03-22 15:40:37.679143,2023-03-22 15:40:39.239455,DD002.jpg,0,10418,40-69,2023-03-22_15h34.36.152,Recall,2021.2.3,59.92530909805716,
,SD018.jpg,0,MF018.jpg,0,,,,,0,95,95,67,imgFunc,0,NA,2.799655899987556,376.4892241000198,379.3752006199211,2023-03-22 15:40:39.247457,2023-03-22 15:40:42.124804,SD018.jpg,0,10418,40-69,2023-03-22_15h34.36.152,Recall,2021.2.3,59.92530909805716,
,DD035.jpg,0,FF035.jpg,0,,,,,0,96,96,34,imgFunc,1,NA,1.4599553999723867,379.3809194000205,380.93282092001755,2023-03-22 15:40:42.132784,2023-03-22 15:40:43.675855,DD035.jpg,0,10418,40-69,2023-03-22_15h34.36.152,Recall,2021.2.3,59.92530909805716,
,DD034.jpg,0,FF034.jpg,0,,,,,0,97,97,33,imgFunc,1,NA,0.9293872000416741,380.935157500091,381.9568837201223,2023-03-22 15:40:43.689820,2023-03-22 15:40:44.709966,DD034.jpg,0,10418,40-69,2023-03-22_15h34.36.152,Recall,2021.2.3,59.92530909805716,
,L_SD506.jpg,1,L_MF506.jpg,1,,,,,0,98,98,95,imgFunc,2,NA,2.972049199976027,381.96483180008363,385.0366174200317,2023-03-22 15:40:44.716890,2023-03-22 15:40:47.780501,L_SD506.jpg,1,10418,40-69,2023-03-22_15h34.36.152,Recall,2021.2.3,59.92530909805716,
,SD021.jpg,0,MF021.jpg,0,,,,,0,99,99,70,imgFunc,2,NA,1.6742957999231294,385.0385521000717,386.80654052004684,2023-03-22 15:40:47.787484,2023-03-22 15:40:49.546750,SD021.jpg,0,10418,40-69,2023-03-22_15h34.36.152,Recall,2021.2.3,59.92530909805716,
,,,,,,,,,,,,,instrFunc,space,"Great work! 

 Now you will switch to the other image type.

 Press the spacebar whenever you are ready to start.",3.7238490999443457,386.73331979999784,390.50057791988365,2023-03-22 15:40:49.547750,2023-03-22 15:40:53.299066,,,10418,40-69,2023-03-22_15h34.36.152,Recall,2021.2.3,59.92530909805716,
,DD006.jpg,0,FF006.jpg,0,,,,,0,0,0,5,imgFunc,1,NA,5.549731299979612,390.57917270006146,396.22527084010653,2023-03-22 15:40:53.327991,2023-03-22 15:40:58.970316,FF006.jpg,0,10418,40-69,2023-03-22_15h34.36.152,Recall,2021.2.3,59.92530909805716,
,DD018.jpg,0,FF018.jpg,0,,,,,0,1,1,17,imgFunc,1,NA,1.4166254999581724,396.23224190005567,397.74809322005603,2023-03-22 15:40:58.979294,2023-03-22 15:41:00.487832,FF018.jpg,0,10418,40-69,2023-03-22_15h34.36.152,Recall,2021.2.3,59.92530909805716,
,SD031.jpg,0,MF031.jpg,0,,,,,0,2,2,80,imgFunc,1,NA,4.261227000039071,397.7556446000235,402.12596662004944,2023-03-22 15:41:00.495835,2023-03-22 15:41:04.857636,MF031.jpg,0,10418,40-69,2023-03-22_15h34.36.152,Recall,2021.2.3,59.92530909805716,
,SD002.jpg,0,MF002.jpg,0,,,,,0,3,3,51,imgFunc,1,NA,2.0759084000019357,402.12499650008976,404.302109119948,2023-03-22 15:41:04.869606,2023-03-22 15:41:07.042636,MF002.jpg,0,10418,40-69,2023-03-22_15h34.36.152,Recall,2021.2.3,59.92530909805716,
,SD017.jpg,0,MF017.jpg,0,,,,,0,4,4,66,imgFunc,1,NA,1.450688200071454,404.30213170009665,405.85434462002013,2023-03-22 15:41:07.049619,2023-03-22 15:41:08.593548,MF017.jpg,0,10418,40-69,2023-03-22_15h34.36.152,Recall,2021.2.3,59.92530909805716,
,DD020.jpg,0,FF020.jpg,0,,,,,0,5,5,19,imgFunc,1,NA,1.1927178000332788,405.8720624000998,407.17104441998526,2023-03-22 15:41:08.602492,2023-03-22 15:41:09.894369,FF020.jpg,0,10418,40-69,2023-03-22_15h34.36.152,Recall,2021.2.3,59.92530909805716,
,L_DD504.jpg,1,L_FF504.jpg,1,,,,,0,6,6,43,imgFunc,2,NA,1.1572295000078157,407.1636560000479,408.4329729200108,2023-03-22 15:41:09.902352,2023-03-22 15:41:11.162272,L_FF504.jpg,1,10418,40-69,2023-03-22_15h34.36.152,Recall,2021.2.3,59.92530909805716,
,SD020.jpg,0,MF020.jpg,0,,,,,0,7,7,69,imgFunc,1,NA,1.4666110000107437,408.4302934000734,409.9997978199972,2023-03-22 15:41:11.169256,2023-03-22 15:41:12.729945,MF020.jpg,0,10418,40-69,2023-03-22_15h34.36.152,Recall,2021.2.3,59.92530909805716,
,L_DD507.jpg,1,L_FF507.jpg,1,,,,,0,8,8,46,imgFunc,2,NA,1.2288515999680385,409.9878174000187,411.3074671198847,2023-03-22 15:41:12.736929,2023-03-22 15:41:14.047424,L_FF507.jpg,1,10418,40-69,2023-03-22_15h34.36.152,Recall,2021.2.3,59.92530909805716,
,DD019.jpg,0,FF019.jpg,0,,,,,0,9,9,18,imgFunc,2,NA,2.160732900025323,411.31210840004496,413.5820797199849,2023-03-22 15:41:14.055391,2023-03-22 15:41:16.316047,FF019.jpg,0,10418,40-69,2023-03-22_15h34.36.152,Recall,2021.2.3,59.92530909805716,
,SD035.jpg,0,MF035.jpg,0,,,,,0,10,10,84,imgFunc,1,NA,1.0993478000164032,413.5735104000196,414.77606271998957,2023-03-22 15:41:16.323029,2023-03-22 15:41:17.516699,MF035.jpg,0,10418,40-69,2023-03-22_15h34.36.152,Recall,2021.2.3,59.92530909805716,
,SD023.jpg,0,MF023.jpg,0,,,,,0,11,11,72,imgFunc,2,NA,1.3441794000100344,414.77659260004293,416.21250271995086,2023-03-22 15:41:17.523682,2023-03-22 15:41:18.951210,MF023.jpg,0,10418,40-69,2023-03-22_15h34.36.152,Recall,2021.2.3,59.92530909805716,
,SD032.jpg,0,MF032.jpg,0,,,,,0,12,12,81,imgFunc,2,NA,1.032562299980782,416.22430270002224,417.36450761999004,2023-03-22 15:41:18.964176,2023-03-22 15:41:20.102065,MF032.jpg,0,10418,40-69,2023-03-22_15h34.36.152,Recall,2021.2.3,59.92530909805716,
,SD028.jpg,0,MF028.jpg,0,,,,,0,13,13,77,imgFunc,1,NA,1.0660252999514341,417.36690770008136,418.5355965200579,2023-03-22 15:41:20.109048,2023-03-22 15:41:21.269459,MF028.jpg,0,10418,40-69,2023-03-22_15h34.36.152,Recall,2021.2.3,59.92530909805716,
,SD039.jpg,0,MF039.jpg,0,,,,,0,14,14,88,imgFunc,2,NA,1.0221000999445096,418.53086020005867,419.6491711201379,2023-03-22 15:41:21.277440,2023-03-22 15:41:22.386994,MF039.jpg,0,10418,40-69,2023-03-22_15h34.36.152,Recall,2021.2.3,59.92530909805716,
,DD037.jpg,0,FF037.jpg,0,,,,,0,15,15,36,imgFunc,2,NA,0.10229219996836036,419.65056950005237,419.8525225199992,2023-03-22 15:41:22.393977,2023-03-22 15:41:22.587079,FF037.jpg,0,10418,40-69,2023-03-22_15h34.36.152,Recall,2021.2.3,59.92530909805716,
,L_SD506.jpg,1,L_MF506.jpg,1,,,,,0,16,16,95,imgFunc,1,NA,2.18406449991744,419.8487603000831,422.13507942005526,2023-03-22 15:41:22.594939,2023-03-22 15:41:24.872052,L_MF506.jpg,1,10418,40-69,2023-03-22_15h34.36.152,Recall,2021.2.3,59.92530909805716,
,SD001.jpg,0,MF001.jpg,0,,,,,0,17,17,50,imgFunc,2,NA,1.7067900999682024,422.14200210000854,423.9458189199213,2023-03-22 15:41:24.887013,2023-03-22 15:41:26.689949,MF001.jpg,0,10418,40-69,2023-03-22_15h34.36.152,Recall,2021.2.3,59.92530909805716,
,SD037.jpg,0,MF037.jpg,0,,,,,0,18,18,86,imgFunc,1,NA,1.16315040003974,423.949669499998,425.21904821996577,2023-03-22 15:41:26.696933,2023-03-22 15:41:27.957738,MF037.jpg,0,10418,40-69,2023-03-22_15h34.36.152,Recall,2021.2.3,59.92530909805716,
,L_DD509.jpg,1,L_FF509.jpg,1,,,,,0,19,19,48,imgFunc,1,NA,1.0500318000558764,425.21478210005444,426.3673664199887,2023-03-22 15:41:27.964721,2023-03-22 15:41:29.108562,L_FF509.jpg,1,10418,40-69,2023-03-22_15h34.36.152,Recall,2021.2.3,59.92530909805716,
,L_SD509.jpg,1,L_MF509.jpg,1,,,,,0,20,20,98,imgFunc,1,NA,1.441548899980262,426.36745460005477,427.90329431998543,2023-03-22 15:41:29.115568,2023-03-22 15:41:30.642987,L_MF509.jpg,1,10418,40-69,2023-03-22_15h34.36.152,Recall,2021.2.3,59.92530909805716,
,SD013.jpg,0,MF013.jpg,0,,,,,0,21,21,62,imgFunc,2,NA,1.3432880999753252,427.90554790000897,429.3580457199132,2023-03-22 15:41:30.649970,2023-03-22 15:41:32.093738,MF013.jpg,0,10418,40-69,2023-03-22_15h34.36.152,Recall,2021.2.3,59.92530909805716,
,DD024.jpg,0,FF024.jpg,0,,,,,0,22,22,23,imgFunc,2,NA,1.2398644000058994,429.3691605000058,430.70623171993066,2023-03-22 15:41:32.108700,2023-03-22 15:41:33.444730,FF024.jpg,0,10418,40-69,2023-03-22_15h34.36.152,Recall,2021.2.3,59.92530909805716,
,L_SD505.jpg,1,L_MF505.jpg,1,,,,,0,23,23,94,imgFunc,2,NA,1.2389581999741495,430.7060636000242,432.0424174199579,2023-03-22 15:41:33.451713,2023-03-22 15:41:34.779165,L_MF505.jpg,1,10418,40-69,2023-03-22_15h34.36.152,Recall,2021.2.3,59.92530909805716,
,DD040.jpg,0,FF040.jpg,0,,,,,0,24,24,39,imgFunc,1,NA,0.9571699999505654,432.03581230004784,433.0882701200899,2023-03-22 15:41:34.786148,2023-03-22 15:41:35.829604,FF040.jpg,0,10418,40-69,2023-03-22_15h34.36.152,Recall,2021.2.3,59.92530909805716,
,DD013.jpg,0,FF013.jpg,0,,,,,0,25,25,12,imgFunc,1,NA,1.1600186999421567,433.0889698000392,434.34103132004384,2023-03-22 15:41:35.837484,2023-03-22 15:41:37.080970,FF013.jpg,0,10418,40-69,2023-03-22_15h34.36.152,Recall,2021.2.3,59.92530909805716,
,SD007.jpg,0,MF007.jpg,0,,,,,0,26,26,56,imgFunc,1,NA,1.0828577999491245,434.3501196000725,435.53607932000887,2023-03-22 15:41:37.087953,2023-03-22 15:41:38.264940,MF007.jpg,0,10418,40-69,2023-03-22_15h34.36.152,Recall,2021.2.3,59.92530909805716,
,SD011.jpg,0,MF011.jpg,0,,,,,0,27,27,60,imgFunc,1,NA,1.8151984999421984,435.52162290003616,437.44158831995446,2023-03-22 15:41:38.271923,2023-03-22 15:41:40.183240,MF011.jpg,0,10418,40-69,2023-03-22_15h34.36.152,Recall,2021.2.3,59.92530909805716,
,DD022.jpg,0,FF022.jpg,0,,,,,0,28,28,21,imgFunc,2,NA,1.5909966999897733,437.44192280003335,439.1280729199061,2023-03-22 15:41:40.190223,2023-03-22 15:41:41.867561,FF022.jpg,0,10418,40-69,2023-03-22_15h34.36.152,Recall,2021.2.3,59.92530909805716,
,DD014.jpg,0,FF014.jpg,0,,,,,0,29,29,13,imgFunc,1,NA,1.076649900060147,439.1324107000837,440.31809442001395,2023-03-22 15:41:41.874544,2023-03-22 15:41:43.051752,FF014.jpg,0,10418,40-69,2023-03-22_15h34.36.152,Recall,2021.2.3,59.92530909805716,
,DD017.jpg,0,FF017.jpg,0,,,,,0,30,30,16,imgFunc,1,NA,1.3177817999385297,440.31523260008544,441.7348320200108,2023-03-22 15:41:43.058735,2023-03-22 15:41:44.469626,FF017.jpg,0,10418,40-69,2023-03-22_15h34.36.152,Recall,2021.2.3,59.92530909805716,
,DD015.jpg,0,FF015.jpg,0,,,,,0,31,31,14,imgFunc,2,NA,1.1100744999712333,441.7468053000048,442.9527019200614,2023-03-22 15:41:44.483590,2023-03-22 15:41:45.686551,FF015.jpg,0,10418,40-69,2023-03-22_15h34.36.152,Recall,2021.2.3,59.92530909805716,
,L_DD505.jpg,1,L_FF505.jpg,1,,,,,0,32,32,44,imgFunc,2,NA,1.4002060999628156,442.94471860001795,444.446974719991,2023-03-22 15:41:45.694553,2023-03-22 15:41:47.187946,L_FF505.jpg,1,10418,40-69,2023-03-22_15h34.36.152,Recall,2021.2.3,59.92530909805716,
,L_SD501.jpg,1,L_MF501.jpg,1,,,,,0,33,33,90,imgFunc,2,NA,1.460513300029561,444.44450930005405,445.9970977200428,2023-03-22 15:41:47.194929,2023-03-22 15:41:48.739104,L_MF501.jpg,1,10418,40-69,2023-03-22_15h34.36.152,Recall,2021.2.3,59.92530909805716,
,DD026.jpg,0,FF026.jpg,0,,,,,0,34,34,25,imgFunc,1,NA,0.9912601000396535,446.00159390002955,447.086986020091,2023-03-22 15:41:48.746992,2023-03-22 15:41:49.823436,FF026.jpg,0,10418,40-69,2023-03-22_15h34.36.152,Recall,2021.2.3,59.92530909805716,
,SD038.jpg,0,MF038.jpg,0,,,,,0,35,35,87,imgFunc,2,NA,1.2015973000088707,447.08738650009036,448.38985322008375,2023-03-22 15:41:49.830416,2023-03-22 15:41:51.124378,MF038.jpg,0,10418,40-69,2023-03-22_15h34.36.152,Recall,2021.2.3,59.92530909805716,
,DD009.jpg,0,FF009.jpg,0,,,,,0,36,36,8,imgFunc,1,NA,1.0623223999282345,448.4026490000542,449.57381871994585,2023-03-22 15:41:51.138342,2023-03-22 15:41:52.308406,FF009.jpg,0,10418,40-69,2023-03-22_15h34.36.152,Recall,2021.2.3,59.92530909805716,
,SD025.jpg,0,MF025.jpg,0,,,,,0,37,37,74,imgFunc,1,NA,1.1913332999683917,449.5776842000196,450.8804077199893,2023-03-22 15:41:52.315389,2023-03-22 15:41:53.609336,MF025.jpg,0,10418,40-69,2023-03-22_15h34.36.152,Recall,2021.2.3,59.92530909805716,
,L_SD508.jpg,1,L_MF508.jpg,1,,,,,0,38,38,97,imgFunc,1,NA,1.7573122999165207,450.86771470005624,452.72000692004804,2023-03-22 15:41:53.617316,2023-03-22 15:41:55.460673,L_MF508.jpg,1,10418,40-69,2023-03-22_15h34.36.152,Recall,2021.2.3,59.92530909805716,
,L_SD502.jpg,1,L_MF502.jpg,1,,,,,0,39,39,91,imgFunc,2,NA,1.0356268999166787,452.7252278000815,453.8610100199003,2023-03-22 15:41:55.467656,2023-03-22 15:41:56.594632,L_MF502.jpg,1,10418,40-69,2023-03-22_15h34.36.152,Recall,2021.2.3,59.92530909805716,
,L_DD506.jpg,1,L_FF506.jpg,1,,,,,0,40,40,45,imgFunc,1,NA,1.1120096000377089,453.85704840009566,455.0757094200235,2023-03-22 15:41:56.602609,2023-03-22 15:41:57.812502,L_FF506.jpg,1,10418,40-69,2023-03-22_15h34.36.152,Recall,2021.2.3,59.92530909805716,
,SD019.jpg,0,MF019.jpg,0,,,,,0,41,41,68,imgFunc,1,NA,1.2061331000877544,455.08287640009075,456.3875827200245,2023-03-22 15:41:57.826466,2023-03-22 15:41:59.129649,MF019.jpg,0,10418,40-69,2023-03-22_15h34.36.152,Recall,2021.2.3,59.92530909805716,
,DD038.jpg,0,FF038.jpg,0,,,,,0,42,42,37,imgFunc,1,NA,1.1058794000418857,456.39111670001876,457.59312251990195,2023-03-22 15:41:59.137624,2023-03-22 15:42:00.330928,FF038.jpg,0,10418,40-69,2023-03-22_15h34.36.152,Recall,2021.2.3,59.92530909805716,
,SD036.jpg,0,MF036.jpg,0,,,,,0,43,43,85,imgFunc,1,NA,1.3904679999686778,457.59457130008377,459.0800772199873,2023-03-22 15:42:00.337911,2023-03-22 15:42:01.814666,MF036.jpg,0,10418,40-69,2023-03-22_15h34.36.152,Recall,2021.2.3,59.92530909805716,
,SD003.jpg,0,MF003.jpg,0,,,,,0,44,44,52,imgFunc,1,NA,1.066182899987325,459.0784904001048,460.2468284200877,2023-03-22 15:42:01.822648,2023-03-22 15:42:02.982537,MF003.jpg,0,10418,40-69,2023-03-22_15h34.36.152,Recall,2021.2.3,59.92530909805716,
,L_SD510.jpg,1,L_MF510.jpg,1,,,,,0,45,45,99,imgFunc,2,NA,1.8356943998951465,460.24533140007406,462.1811408200301,2023-03-22 15:42:02.990517,2023-03-22 15:42:04.917359,L_MF510.jpg,1,10418,40-69,2023-03-22_15h34.36.152,Recall,2021.2.3,59.92530909805716,
,L_SD507.jpg,1,L_MF507.jpg,1,,,,,0,46,46,96,imgFunc,2,NA,1.370612099999562,462.18242290010676,463.6508766200859,2023-03-22 15:42:04.925368,2023-03-22 15:42:06.385139,L_MF507.jpg,1,10418,40-69,2023-03-22_15h34.36.152,Recall,2021.2.3,59.92530909805716,
,DD029.jpg,0,FF029.jpg,0,,,,,0,47,47,28,imgFunc,2,NA,1.6959242000011727,463.64095690008253,465.4264605200151,2023-03-22 15:42:06.393119,2023-03-22 15:42:08.169798,FF029.jpg,0,10418,40-69,2023-03-22_15h34.36.152,Recall,2021.2.3,59.92530909805716,
,DD027.jpg,0,FF027.jpg,0,,,,,0,48,48,26,imgFunc,1,NA,1.0016479999758303,465.4313754000468,466.53433261998,2023-03-22 15:42:08.176781,2023-03-22 15:42:09.270720,FF027.jpg,0,10418,40-69,2023-03-22_15h34.36.152,Recall,2021.2.3,59.92530909805716,
,DD008.jpg,0,FF008.jpg,0,,,,,0,49,49,7,imgFunc,1,NA,1.2364934000652283,466.5405170000158,467.89303711999673,2023-03-22 15:42:09.277700,2023-03-22 15:42:10.621590,FF008.jpg,0,10418,40-69,2023-03-22_15h34.36.152,Recall,2021.2.3,59.92530909805716,
,SD012.jpg,0,MF012.jpg,0,,,,,0,50,50,61,imgFunc,1,NA,2.611215000040829,467.9018043000251,470.624683419941,2023-03-22 15:42:10.635554,2023-03-22 15:42:13.356712,MF012.jpg,0,10418,40-69,2023-03-22_15h34.36.152,Recall,2021.2.3,59.92530909805716,
,L_SD503.jpg,1,L_MF503.jpg,1,,,,,0,51,51,92,imgFunc,2,NA,2.0043634000467137,470.6207196000032,472.72401781985536,2023-03-22 15:42:13.363695,2023-03-22 15:42:15.458362,L_MF503.jpg,1,10418,40-69,2023-03-22_15h34.36.152,Recall,2021.2.3,59.92530909805716,
,DD005.jpg,0,FF005.jpg,0,,,,,0,52,52,4,imgFunc,2,NA,2.093335699988529,472.71573830000125,474.90232451993506,2023-03-22 15:42:15.465345,2023-03-22 15:42:17.643314,FF005.jpg,0,10418,40-69,2023-03-22_15h34.36.152,Recall,2021.2.3,59.92530909805716,
,L_DD503.jpg,1,L_FF503.jpg,1,,,,,0,53,53,42,imgFunc,1,NA,6.399725600029342,474.91320680000354,481.4187450200552,2023-03-22 15:42:17.651294,2023-03-22 15:42:24.148126,L_FF503.jpg,1,10418,40-69,2023-03-22_15h34.36.152,Recall,2021.2.3,59.92530909805716,
,SD024.jpg,0,MF024.jpg,0,,,,,0,54,54,73,imgFunc,1,NA,1.1894946999382228,481.43558480008505,482.74916971998755,2023-03-22 15:42:24.158101,2023-03-22 15:42:25.465466,MF024.jpg,0,10418,40-69,2023-03-22_15h34.36.152,Recall,2021.2.3,59.92530909805716,
,SD006.jpg,0,MF006.jpg,0,,,,,0,55,55,55,imgFunc,2,NA,1.2717179000610486,482.76131550001446,484.1483248200966,2023-03-22 15:42:25.480451,2023-03-22 15:42:26.866529,MF006.jpg,0,10418,40-69,2023-03-22_15h34.36.152,Recall,2021.2.3,59.92530909805716,
,DD004.jpg,0,FF004.jpg,0,,,,,0,56,56,3,imgFunc,2,NA,1.2544137999648228,484.1224969000323,485.4748901199782,2023-03-22 15:42:26.873512,2023-03-22 15:42:28.217542,FF004.jpg,0,10418,40-69,2023-03-22_15h34.36.152,Recall,2021.2.3,59.92530909805716,
,L_SD504.jpg,1,L_MF504.jpg,1,,,,,0,57,57,93,imgFunc,1,NA,1.7558086999924853,485.47710830008145,487.33026771992445,2023-03-22 15:42:28.224526,2023-03-22 15:42:30.069019,L_MF504.jpg,1,10418,40-69,2023-03-22_15h34.36.152,Recall,2021.2.3,59.92530909805716,
,SD010.jpg,0,MF010.jpg,0,,,,,0,58,58,59,imgFunc,1,NA,1.2687760000117123,487.3403082001023,488.72658062004484,2023-03-22 15:42:30.076002,2023-03-22 15:42:31.453422,MF010.jpg,0,10418,40-69,2023-03-22_15h34.36.152,Recall,2021.2.3,59.92530909805716,
,SD021.jpg,0,MF021.jpg,0,,,,,0,59,59,70,imgFunc,1,NA,1.1273291000397876,488.72172730008606,489.95572672004346,2023-03-22 15:42:31.461403,2023-03-22 15:42:32.687225,MF021.jpg,0,10418,40-69,2023-03-22_15h34.36.152,Recall,2021.2.3,59.92530909805716,
,SD034.jpg,0,MF034.jpg,0,,,,,0,60,60,83,imgFunc,1,NA,1.4308182999957353,489.9621360000456,491.50030632002745,2023-03-22 15:42:32.702187,2023-03-22 15:42:34.238550,MF034.jpg,0,10418,40-69,2023-03-22_15h34.36.152,Recall,2021.2.3,59.92530909805716,
,SD008.jpg,0,MF008.jpg,0,,,,,0,61,61,57,imgFunc,2,NA,1.690654799924232,491.4944610000821,493.28050252003595,2023-03-22 15:42:34.245533,2023-03-22 15:42:36.022909,MF008.jpg,0,10418,40-69,2023-03-22_15h34.36.152,Recall,2021.2.3,59.92530909805716,
,DD007.jpg,0,FF007.jpg,0,,,,,0,62,62,6,imgFunc,1,NA,1.535993600031361,493.28094770002645,494.91701612004545,2023-03-22 15:42:36.029894,2023-03-22 15:42:37.657464,FF007.jpg,0,10418,40-69,2023-03-22_15h34.36.152,Recall,2021.2.3,59.92530909805716,
,SD033.jpg,0,MF033.jpg,0,,,,,0,63,63,82,imgFunc,1,NA,1.409483699942939,494.919313600054,496.43878952006344,2023-03-22 15:42:37.664447,2023-03-22 15:42:39.175431,MF033.jpg,0,10418,40-69,2023-03-22_15h34.36.152,Recall,2021.2.3,59.92530909805716,
,SD009.jpg,0,MF009.jpg,0,,,,,0,64,64,58,imgFunc,2,NA,1.5750406000297517,496.449980000034,498.1361351199448,2023-03-22 15:42:39.182414,2023-03-22 15:42:40.859919,MF009.jpg,0,10418,40-69,2023-03-22_15h34.36.152,Recall,2021.2.3,59.92530909805716,
,DD031.jpg,0,FF031.jpg,0,,,,,0,65,65,30,imgFunc,2,NA,1.5157288999762386,498.1253402000293,499.74494112015236,2023-03-22 15:42:40.866902,2023-03-22 15:42:42.477702,FF031.jpg,0,10418,40-69,2023-03-22_15h34.36.152,Recall,2021.2.3,59.92530909805716,
,SD030.jpg,0,MF030.jpg,0,,,,,0,66,66,79,imgFunc,2,NA,1.5508779000956565,499.74590010009706,501.3987214200897,2023-03-22 15:42:42.484685,2023-03-22 15:42:44.128948,MF030.jpg,0,10418,40-69,2023-03-22_15h34.36.152,Recall,2021.2.3,59.92530909805716,
,DD001.jpg,0,FF001.jpg,0,,,,,0,67,67,0,imgFunc,2,NA,1.17344350006897,501.38758070010226,502.6563881201437,2023-03-22 15:42:44.135931,2023-03-22 15:42:45.396317,FF001.jpg,0,10418,40-69,2023-03-22_15h34.36.152,Recall,2021.2.3,59.92530909805716,
,DD032.jpg,0,FF032.jpg,0,,,,,0,68,68,31,imgFunc,1,NA,1.076936800032854,502.6600145000266,503.8461053199135,2023-03-22 15:42:45.403300,2023-03-22 15:42:46.580622,FF032.jpg,0,10418,40-69,2023-03-22_15h34.36.152,Recall,2021.2.3,59.92530909805716,
,DD003.jpg,0,FF003.jpg,0,,,,,0,69,69,2,imgFunc,2,NA,1.4395098999375477,503.85744380007964,505.3973805200076,2023-03-22 15:42:46.594587,2023-03-22 15:42:48.131762,FF003.jpg,0,10418,40-69,2023-03-22_15h34.36.152,Recall,2021.2.3,59.92530909805716,
,DD025.jpg,0,FF025.jpg,0,,,,,0,70,70,24,imgFunc,2,NA,2.336809500004165,505.39202850009315,507.82872182002757,2023-03-22 15:42:48.138745,2023-03-22 15:42:50.566399,FF025.jpg,0,10418,40-69,2023-03-22_15h34.36.152,Recall,2021.2.3,59.92530909805716,
,L_DD510.jpg,1,L_FF510.jpg,1,,,,,0,71,71,49,imgFunc,2,NA,1.2357045999960974,507.8293858000543,509.15714602009393,2023-03-22 15:42:50.578337,2023-03-22 15:42:51.901016,L_FF510.jpg,1,10418,40-69,2023-03-22_15h34.36.152,Recall,2021.2.3,59.92530909805716,
,L_DD508.jpg,1,L_FF508.jpg,1,,,,,0,72,72,47,imgFunc,1,NA,1.055835900013335,509.16124980000313,510.31360161991324,2023-03-22 15:42:51.907923,2023-03-22 15:42:53.051989,L_FF508.jpg,1,10418,40-69,2023-03-22_15h34.36.152,Recall,2021.2.3,59.92530909805716,
,DD035.jpg,0,FF035.jpg,0,,,,,0,73,73,34,imgFunc,1,NA,1.0760675999335945,510.3170913000358,511.50286481995136,2023-03-22 15:42:53.058972,2023-03-22 15:42:54.236255,FF035.jpg,0,10418,40-69,2023-03-22_15h34.36.152,Recall,2021.2.3,59.92530909805716,
,SD015.jpg,0,MF015.jpg,0,,,,,0,74,74,64,imgFunc,1,NA,1.0555939000332728,511.5134210000979,512.6672992199892,2023-03-22 15:42:54.251217,2023-03-22 15:42:55.403671,MF015.jpg,0,10418,40-69,2023-03-22_15h34.36.152,Recall,2021.2.3,59.92530909805716,
,DD034.jpg,0,FF034.jpg,0,,,,,0,75,75,33,imgFunc,1,NA,1.11498329997994,512.6621624000836,513.8812180201057,2023-03-22 15:42:55.410654,2023-03-22 15:42:56.621130,FF034.jpg,0,10418,40-69,2023-03-22_15h34.36.152,Recall,2021.2.3,59.92530909805716,
,DD028.jpg,0,FF028.jpg,0,,,,,0,76,76,27,imgFunc,1,NA,1.6674988000886515,513.8776277001016,515.6467567201471,2023-03-22 15:42:56.629111,2023-03-22 15:42:58.389289,FF028.jpg,0,10418,40-69,2023-03-22_15h34.36.152,Recall,2021.2.3,59.92530909805716,
,SD014.jpg,0,MF014.jpg,0,,,,,0,77,77,63,imgFunc,1,NA,1.2383273000596091,515.6507277000928,516.9865856199758,2023-03-22 15:42:58.396271,2023-03-22 15:42:59.723544,MF014.jpg,0,10418,40-69,2023-03-22_15h34.36.152,Recall,2021.2.3,59.92530909805716,
,DD030.jpg,0,FF030.jpg,0,,,,,0,78,78,29,imgFunc,1,NA,2.1035045000026003,517.0017383000813,519.2215404199669,2023-03-22 15:42:59.730527,2023-03-22 15:43:01.941647,FF030.jpg,0,10418,40-69,2023-03-22_15h34.36.152,Recall,2021.2.3,59.92530909805716,
,DD010.jpg,0,FF010.jpg,0,,,,,0,79,79,9,imgFunc,1,NA,0.8504046000307426,519.1987494000932,520.1503607199993,2023-03-22 15:43:01.949657,2023-03-22 15:43:02.892113,FF010.jpg,0,10418,40-69,2023-03-22_15h34.36.152,Recall,2021.2.3,59.92530909805716,
,SD022.jpg,0,MF022.jpg,0,,,,,0,80,80,71,imgFunc,2,NA,1.6242835000157356,520.1528083001031,521.8722600199981,2023-03-22 15:43:02.899101,2023-03-22 15:43:04.610191,MF022.jpg,0,10418,40-69,2023-03-22_15h34.36.152,Recall,2021.2.3,59.92530909805716,
,SD027.jpg,0,MF027.jpg,0,,,,,0,81,81,76,imgFunc,1,NA,0.990469399956055,521.8745192000642,522.9769175199326,2023-03-22 15:43:04.617174,2023-03-22 15:43:05.710932,MF027.jpg,0,10418,40-69,2023-03-22_15h34.36.152,Recall,2021.2.3,59.92530909805716,
,DD033.jpg,0,FF033.jpg,0,,,,,0,82,82,32,imgFunc,1,NA,1.1289757000049576,522.9760243000928,524.2115703200689,2023-03-22 15:43:05.718797,2023-03-22 15:43:06.945134,FF033.jpg,0,10418,40-69,2023-03-22_15h34.36.152,Recall,2021.2.3,59.92530909805716,
,L_DD501.jpg,1,L_FF501.jpg,1,,,,,0,83,83,40,imgFunc,2,NA,0.981435100082308,524.219658200047,525.3083503199741,2023-03-22 15:43:06.959121,2023-03-22 15:43:08.046073,L_FF501.jpg,1,10418,40-69,2023-03-22_15h34.36.152,Recall,2021.2.3,59.92530909805716,
,DD016.jpg,0,FF016.jpg,0,,,,,0,84,84,15,imgFunc,2,NA,1.2089772999752313,525.3120250999928,526.6305765198776,2023-03-22 15:43:08.054054,2023-03-22 15:43:09.363563,FF016.jpg,0,10418,40-69,2023-03-22_15h34.36.152,Recall,2021.2.3,59.92530909805716,
,SD029.jpg,0,MF029.jpg,0,,,,,0,85,85,78,imgFunc,1,NA,0.9754607999930158,526.6255364000099,527.7113590199733,2023-03-22 15:43:09.370546,2023-03-22 15:43:10.447683,MF029.jpg,0,10418,40-69,2023-03-22_15h34.36.152,Recall,2021.2.3,59.92530909805716,
,L_DD502.jpg,1,L_FF502.jpg,1,,,,,0,86,86,41,imgFunc,1,NA,2.8931134999729693,527.7077458000276,530.6949743200094,2023-03-22 15:43:10.454667,2023-03-22 15:43:13.433520,L_FF502.jpg,1,10418,40-69,2023-03-22_15h34.36.152,Recall,2021.2.3,59.92530909805716,
,SD004.jpg,0,MF004.jpg,0,,,,,0,87,87,53,imgFunc,1,NA,1.0787326999707147,530.6983309000498,531.8840578199597,2023-03-22 15:43:13.440503,2023-03-22 15:43:14.617518,MF004.jpg,0,10418,40-69,2023-03-22_15h34.36.152,Recall,2021.2.3,59.92530909805716,
,DD036.jpg,0,FF036.jpg,0,,,,,0,88,88,35,imgFunc,1,NA,1.051849199924618,531.8931413000682,533.0462070200592,2023-03-22 15:43:14.632516,2023-03-22 15:43:15.784891,FF036.jpg,0,10418,40-69,2023-03-22_15h34.36.152,Recall,2021.2.3,59.92530909805716,
,DD012.jpg,0,FF012.jpg,0,,,,,0,89,89,11,imgFunc,1,NA,1.4129731999710202,533.0441280000377,534.5634118199814,2023-03-22 15:43:15.791874,2023-03-22 15:43:17.302659,FF012.jpg,0,10418,40-69,2023-03-22_15h34.36.152,Recall,2021.2.3,59.92530909805716,
,DD039.jpg,0,FF039.jpg,0,,,,,0,90,90,38,imgFunc,2,NA,1.682286600000225,534.5667100000428,536.3512960199732,2023-03-22 15:43:17.310640,2023-03-22 15:43:19.087305,FF039.jpg,0,10418,40-69,2023-03-22_15h34.36.152,Recall,2021.2.3,59.92530909805716,
,SD005.jpg,0,MF005.jpg,0,,,,,0,91,91,54,imgFunc,2,NA,1.0063712999690324,536.3547364000697,537.4730096200947,2023-03-22 15:43:19.095286,2023-03-22 15:43:20.204637,MF005.jpg,0,10418,40-69,2023-03-22_15h34.36.152,Recall,2021.2.3,59.92530909805716,
,SD016.jpg,0,MF016.jpg,0,,,,,0,92,92,65,imgFunc,2,NA,1.1713416000129655,537.4777844001073,538.7635787200416,2023-03-22 15:43:20.211620,2023-03-22 15:43:21.488997,MF016.jpg,0,10418,40-69,2023-03-22_15h34.36.152,Recall,2021.2.3,59.92530909805716,
,DD021.jpg,0,FF021.jpg,0,,,,,0,93,93,20,imgFunc,1,NA,1.572086500003934,538.7490216000006,540.4186607199954,2023-03-22 15:43:21.495981,2023-03-22 15:43:23.157063,FF021.jpg,0,10418,40-69,2023-03-22_15h34.36.152,Recall,2021.2.3,59.92530909805716,
,DD002.jpg,0,FF002.jpg,0,,,,,0,94,94,1,imgFunc,1,NA,1.0929974999744445,540.4201375000412,541.6223929199623,2023-03-22 15:43:23.164046,2023-03-22 15:43:24.357784,FF002.jpg,0,10418,40-69,2023-03-22_15h34.36.152,Recall,2021.2.3,59.92530909805716,
,DD023.jpg,0,FF023.jpg,0,,,,,0,95,95,22,imgFunc,1,NA,0.9776068000355735,541.6235230000457,542.7092640199699,2023-03-22 15:43:24.364767,2023-03-22 15:43:25.441820,FF023.jpg,0,10418,40-69,2023-03-22_15h34.36.152,Recall,2021.2.3,59.92530909805716,
,SD040.jpg,0,MF040.jpg,0,,,,,0,96,96,89,imgFunc,1,NA,2.2681705999420956,542.7090029000537,545.0786684199702,2023-03-22 15:43:25.448803,2023-03-22 15:43:27.810057,MF040.jpg,0,10418,40-69,2023-03-22_15h34.36.152,Recall,2021.2.3,59.92530909805716,
,DD011.jpg,0,FF011.jpg,0,,,,,0,97,97,10,imgFunc,1,NA,1.2880044999765232,545.0888313000323,546.4791982200695,2023-03-22 15:43:27.823057,2023-03-22 15:43:29.211151,FF011.jpg,0,10418,40-69,2023-03-22_15h34.36.152,Recall,2021.2.3,59.92530909805716,
,SD026.jpg,0,MF026.jpg,0,,,,,0,98,98,75,imgFunc,1,NA,1.5293898999225348,546.4794590000529,548.1130855199881,2023-03-22 15:43:29.219151,2023-03-22 15:43:30.845751,MF026.jpg,0,10418,40-69,2023-03-22_15h34.36.152,Recall,2021.2.3,59.92530909805716,
,SD018.jpg,0,MF018.jpg,0,,,,,0,99,99,67,imgFunc,1,NA,0.8738395000109449,548.1033105000388,549.0721899198834,2023-03-22 15:43:30.852734,2023-03-22 15:43:31.812941,MF018.jpg,0,10418,40-69,2023-03-22_15h34.36.152,Recall,2021.2.3,59.92530909805716,
