onset	duration	trial_type	rt	resp
0.0003824997693300247	0.6416347995400429	fixation_1	999	999
0.6420618994161487	3.001793500036001	face	2.033893200568855	1
3.643894199281931	0.6416347995400429	fixation_2	999	999
4.192296899855137	1.0000749994069338	feedback loss	999	999
5.192374299280345	5.317426500841975	ITI	999	999
10.514880099333823	0.6278306003659964	fixation_1	999	999
11.142770399339497	3.000993300229311	face	1.7820553006604314	1
14.14380419999361	0.6278306003659964	fixation_2	999	999
14.692102699540555	1.0001900000497699	feedback win	999	999
15.69229539949447	5.316559799946845	ITI	999	999
21.012016699649394	0.6299483003094792	fixation_1	999	999
21.642008499242365	3.0011610006913543	face	1.7824175003916025	2
24.643207299523056	0.6299483003094792	fixation_2	999	999
25.191820999607444	1.0004690000787377	feedback loss	999	999
26.192292499355972	5.316463100723922	ITI	999	999
31.512020099908113	0.6299153994768858	fixation_1	999	999
32.14197989925742	3.001736500300467	face	2.0325261000543833	1
35.143756199628115	0.6299153994768858	fixation_2	999	999
35.6919849999249	1.0002488000318408	feedback loss	999	999
36.6922365995124	1.1174868997186422	ITI	999	999
37.813005399890244	0.6292725997045636	fixation_1	999	999
38.44233869947493	3.001338600181043	face	2.0323648005723953	1
41.443717499263585	0.6292725997045636	fixation_2	999	999
41.992089599370956	1.0004317006096244	feedback loss	999	999
42.99252389930189	1.1172742005437613	ITI	999	999
44.11293519940227	0.6296100998297334	fixation_1	999	999
44.74260829947889	3.0014057997614145	face	1.7820815006271005	2
47.74405139964074	0.6296100998297334	fixation_2	999	999
48.29222599975765	1.0000273995101452	feedback win	999	999
49.29225599952042	1.1174991000443697	ITI	999	999
50.412922899238765	0.6292058005928993	fixation_1	999	999
51.04219159949571	3.0015404000878334	face	2.2826602002605796	1
54.04377199988812	0.6292058005928993	fixation_2	999	999
54.59184599947184	1.0000876002013683	feedback win	999	999
55.59193619992584	3.2158220997080207	ITI	999	999
58.81122169923037	0.6309522008523345	fixation_1	999	999
59.44225179962814	3.0005913004279137	face	1.783071200363338	1
62.44287999998778	0.6309522008523345	fixation_2	999	999
62.992194700054824	1.0001268992200494	feedback loss	999	999
63.99232409987599	3.2174066994339228	ITI	999	999
67.21311899926513	0.6289890008047223	fixation_1	999	999
67.84238339960575	3.0018662000074983	face	2.2826775005087256	1
70.84429010003805	0.6289890008047223	fixation_2	999	999
71.3917912999168	1.0003678994253278	feedback win	999	999
72.39216169994324	1.1175544001162052	ITI	999	999
73.51309969928116	0.6287011001259089	fixation_1	999	999
74.14185140002519	3.0018460992723703	face	2.0329304998740554	1
77.14373809937388	0.6287011001259089	fixation_2	999	999
77.69244669936597	1.0159039003774524	feedback win	999	999
78.70835339929909	3.2164457999169827	ITI	999	999
81.92812599986792	0.6305300993844867	fixation_1	999	999
82.55872480012476	2.999957099556923	face	2.0323092993348837	1
85.55872670002282	0.6305300993844867	fixation_2	999	999
86.10834489949048	1.0002399003133178	feedback loss	999	999
87.10858729947358	5.316127900034189	ITI	999	999
92.4279980994761	0.6303385002538562	fixation_1	999	999
93.05839889962226	3.001257600262761	face	2.0332733998075128	1
96.05969649925828	0.6303385002538562	fixation_2	999	999
96.60834969952703	1.0167201003059745	feedback loss	999	999
97.62507219985127	3.217238999903202	ITI	999	999
100.84568929951638	0.6297391001135111	fixation_1	999	999
101.47549939993769	3.002166099846363	face	1.7827754998579621	1
104.4777007997036	0.6297391001135111	fixation_2	999	999
105.02510559931397	1.0002319002524018	feedback win	999	999
106.02533999923617	5.31623120047152	ITI	999	999
111.34496250003576	0.63004419952631	fixation_1	999	999
111.97506240010262	3.00112499948591	face	1.7824552999809384	1
114.97622469998896	0.63004419952631	fixation_2	999	999
115.5250107999891	1.0000200998038054	feedback win	999	999
116.52503329981118	3.216588799841702	ITI	999	999
119.74526289943606	0.6300720004364848	fixation_1	999	999
120.37544109951705	3.0008463002741337	face	2.033122000284493	1
123.37632439937443	0.6300720004364848	fixation_2	999	999
123.9253412000835	1.0166878998279572	feedback win	999	999
124.94203139934689	1.1182675007730722	ITI	999	999
126.0636930000037	0.6282215993851423	fixation_1	999	999
126.6919895997271	3.001544900238514	face	2.0327227003872395	1
129.69357199966908	0.6282215993851423	fixation_2	999	999
130.24174090009183	1.0165561996400356	feedback win	999	999
131.258299799636	1.118270999751985	ITI	999	999
132.38001959957182	0.628570900298655	fixation_1	999	999
133.00868189986795	3.0015238001942635	face	2.0329494001343846	2
136.01024549920112	0.628570900298655	fixation_2	999	999
136.55824830010533	1.0003496995195746	feedback loss	999	999
137.55860160011798	1.117943799123168	ITI	999	999
138.6800464000553	0.6285463999956846	fixation_1	999	999
139.30868479982018	3.001864000223577	face	2.7829296002164483	1
142.31058649998158	0.6285463999956846	fixation_2	999	999
142.85850910004228	1.0166588993743062	feedback loss	999	999
143.8751705000177	11.6164675001055	ITI	999	999
155.49527580011636	0.6297230999916792	fixation_1	999	999
156.1250752992928	3.0012393007054925	face	2.5325715001672506	2
159.1263556992635	0.6297230999916792	fixation_2	999	999
159.67553699947894	1.0161300003528595	feedback loss	999	999
160.6916694995016	3.2158433003351092	ITI	999	999
163.91111509967595	0.6303412998095155	fixation_1	999	999
164.54151859972626	3.0008364003151655	face	1.7831060998141766	2
167.5423967000097	0.6303412998095155	fixation_2	999	999
168.0914495997131	1.0002365997061133	feedback win	999	999
169.09168879967183	1.1189347002655268	ITI	999	999
170.21417149994522	0.627543400041759	fixation_1	999	999
170.84180840011686	3.00179859995842	face	1.7827586997300386	1
173.8436442995444	0.627543400041759	fixation_2	999	999
174.39160609990358	1.0000880993902683	feedback loss	999	999
175.39169679954648	5.3168013002723455	ITI	999	999
180.7121497998014	0.6294203996658325	fixation_1	999	999
181.34166849963367	3.0018977001309395	face	1.7829839996993542	2
184.34360399935395	0.6294203996658325	fixation_2	999	999
184.89158200006932	1.0168117992579937	feedback loss	999	999
185.90839680004865	3.2158096991479397	ITI	999	999
189.12793650012463	0.6307008992880583	fixation_1	999	999
189.75873549934477	3.0007040007039905	face	2.5329698007553816	1
192.75947469938546	0.6307008992880583	fixation_2	999	999
193.30834829993546	1.0167374992743134	feedback win	999	999
194.3250883994624	1.1175166005268693	ITI	999	999
195.44636129960418	0.6283595003187656	fixation_1	999	999
196.07479189988226	3.001858999952674	face	2.282813100144267	1
199.07668939977884	0.6283595003187656	fixation_2	999	999
199.62505690008402	1.000012599863112	feedback win	999	999
200.6250718999654	5.316532099619508	ITI	999	999
205.94535900000483	0.6297086998820305	fixation_1	999	999
206.57515169959515	3.001469699665904	face	2.2823895001783967	1
209.57666089944541	0.6297086998820305	fixation_2	999	999
210.12474259920418	1.000093000009656	feedback loss	999	999
211.1248383000493	5.315938899293542	ITI	999	999
216.44448109995574	0.6305347001180053	fixation_1	999	999
217.07511699944735	3.001140500418842	face	2.032409300096333	1
220.07629609946162	0.6305347001180053	fixation_2	999	999
220.62467759940773	1.0002928003668785	feedback loss	999	999
221.6249728994444	3.216590099968016	ITI	999	999
224.84538479987532	0.629496400244534	fixation_1	999	999
225.4749820996076	3.00155679974705	face	2.5324079003185034	1
228.47657770011574	0.629496400244534	fixation_2	999	999
229.02479799930006	1.0164050003513694	feedback loss	999	999
230.0412053996697	1.1179270995780826	ITI	999	999
231.16288259997964	0.6286630993708968	fixation_1	999	999
231.79164859931916	3.001344700343907	face	1.7828742004930973	1
234.79303009994328	0.6286630993708968	fixation_2	999	999
235.34163429960608	1.0166900996118784	feedback loss	999	999
236.35832689981908	5.316317199729383	ITI	999	999
241.67841279972345	0.6301106000319123	fixation_1	999	999
242.30861159972847	3.001550800167024	face	2.2819333001971245	2
245.31020030006766	0.6301106000319123	fixation_2	999	999
245.85825419984758	1.0000895000994205	feedback loss	999	999
246.85834609996527	1.1172230001538992	ITI	999	999
247.97954179998487	0.6283871997147799	fixation_1	999	999
248.6080005997792	3.0018141996115446	face	2.032544699497521	2
251.6098563997075	0.6283871997147799	fixation_2	999	999
252.15828109998256	1.016589599661529	feedback win	999	999
253.17487329989672	1.1176551999524236	ITI	999	999
254.29648569971323	0.6282225996255875	fixation_1	999	999
254.92480959929526	3.0017762007191777	face	2.0324594005942345	1
257.92662509996444	0.6282225996255875	fixation_2	999	999
258.47479429934174	1.0163444001227617	feedback loss	999	999
259.49114139936864	1.1179102007299662	ITI	999	999
260.6129427999258	0.6285355994477868	fixation_1	999	999
261.24158469960093	3.0022823000326753	face	2.282885800115764	1
264.24390729982406	0.6285355994477868	fixation_2	999	999
264.791117599234	1.0001675002276897	feedback win	999	999
265.7912877993658	3.2166861006990075	ITI	999	999
269.01188059989363	0.6292321002110839	fixation_1	999	999
269.6411854000762	3.0013018995523453	face	2.282702500000596	1
272.6425292994827	0.6292321002110839	fixation_2	999	999
273.1914067994803	1.0000168001279235	feedback win	999	999
274.1914264000952	1.1168943997472525	ITI	999	999
275.3123114993796	0.6289742002263665	fixation_1	999	999
275.9413874996826	3.0011414997279644	face	2.28265929967165	1
278.9425683999434	0.6289742002263665	fixation_2	999	999
279.4914174992591	1.0164116006344557	feedback win	999	999
280.50783149991184	3.2167622996494174	ITI	999	999
283.7287513995543	0.629050699993968	fixation_1	999	999
284.3578920997679	3.0015981001779437	face	2.032968600280583	1
287.35952899977565	0.629050699993968	fixation_2	999	999
287.9081421000883	1.0000075995922089	feedback win	999	999
288.90815229993314	5.3162706000730395	ITI	999	999
294.22855519969016	0.6295919995754957	fixation_1	999	999
294.85827580001205	3.000806599855423	face	2.0322118001058698	2
297.8591193994507	0.6295919995754957	fixation_2	999	999
298.4081007996574	1.0000138003379107	feedback win	999	999
299.40811729989946	5.316238099709153	ITI	999	999
304.72904909960926	0.6290659997612238	fixation_1	999	999
305.3582417992875	3.000717299990356	face	2.7840597005560994	1
308.3589984998107	0.6290659997612238	fixation_2	999	999
308.9078973000869	1.0001627998426557	feedback win	999	999
309.9080636994913	1.118427500128746	ITI	999	999
311.0305977994576	0.6270783003419638	fixation_1	999	999
311.6577568994835	3.000691399909556	face	1.7833524998277426	1
314.6584880994633	0.6270783003419638	fixation_2	999	999
315.2079982999712	1.0000529997050762	feedback loss	999	999
316.2080536996946	1.1174397999420762	ITI	999	999
317.32956979982555	0.6285111997276545	fixation_1	999	999
317.9581933999434	3.0012520998716354	face	2.0322837997227907	1
320.9594845995307	0.6285111997276545	fixation_2	999	999
321.5077246995643	1.0166643997654319	feedback win	999	999
322.5243915999308	3.2169329999014735	ITI	999	999
325.74547469988465	0.6288465997204185	fixation_1	999	999
326.3744128998369	3.0010009994730353	face	2.2834467999637127	1
329.375453799963	0.6288465997204185	fixation_2	999	999
329.9243775000796	1.0000100992619991	feedback loss	999	999
330.92439079936594	5.317530000582337	ITI	999	999
