TrialNumber,Trialn,TrialType,Partner,Feedback,ITI,ISI,ran,order,studyStart,InitFixOnset,decision_onset,resp,resp_onset,rt,ISI_onset,isi_for_trial,ISI_offset,outcome_val,outcome_onset,outcome_offset,trialDuration,ITIonset,ITIoffset,final_fix_offset
1,1,9,3,3,4.037500e+00,2.422500e+00,1.0,0.0,2.4996698e-06,0.010118499,4.0204782,1.0,4.649748,0.6292696,4.750227,4.4932303,9.246039,1.0,9.2461815,9.854762,5.834284,9.854966,13.893975,--
2,2,2,1,2,5.652500e+00,1.615000e+00,1.0,1.0,--,--,13.899248,2.0,14.316269,0.4170208,14.416643,3.8979793,18.315948,5.0,18.316063,18.923435,5.0241866,18.923601,24.577946,--
3,3,1,1,1,8.075000e-01,8.075000e-01,1.0,2.0,--,--,24.57971,1.0,25.21697,0.6372613,25.31732,2.8702388,28.189957,9.0,28.190073,28.797052,4.2173433,28.797201,29.606966,--
4,4,3,1,3,2.422500e+00,1.615000e+00,1.0,3.0,--,--,29.609476,2.0,30.132978,0.5235009,30.233318,3.7914991,34.02697,9.0,34.02708,34.63213,5.0226536,34.632298,37.05671,--
5,5,4,2,1,2.422500e+00,2.422500e+00,1.0,4.0,--,--,37.070335,1.0,38.416847,1.3465127,38.517178,3.7759874,42.29494,7.0,42.29506,42.90107,5.830733,42.90122,45.325928,--
6,6,5,2,2,8.075000e-01,2.422500e+00,1.0,5.0,--,--,45.33621,2.0,45.966305,0.6300965,46.066704,4.4924035,50.56086,5.0,50.56097,51.165634,5.8294244,51.165783,51.975937,--
7,7,3,1,3,8.075000e-01,2.422500e+00,1.0,6.0,--,--,51.97886,1.0,52.716488,0.7376269,52.81682,4.384873,57.203953,3.0,57.204067,57.819027,5.840166,57.81919,58.62858,--
8,8,7,3,1,8.882500e+00,8.075000e-01,1.0,7.0,--,--,58.635963,2.0,59.06628,0.4303176,59.16672,3.0771823,62.246685,3.0,62.24681,62.851955,4.2159915,62.852116,71.73698,--
9,9,4,2,1,8.075000e-01,8.075000e-01,1.0,8.0,--,--,71.748215,1.0,72.89966,1.15144,73.0,2.35606,75.358765,8.0,75.35888,75.96402,4.215806,75.96419,76.77391,--
10,10,1,1,1,8.075000e-01,1.615000e+00,1.0,9.0,--,--,76.77693,2.0,78.43277,1.6558385,78.5331,2.6591616,81.194885,3.0,81.195,81.799576,5.022648,81.79974,82.60989,--
11,11,1,1,1,8.075000e-01,8.075000e-01,1.0,10.0,--,--,82.611694,1.0,83.34962,0.7379206,83.44997,2.7695794,86.221886,7.0,86.22201,86.825676,4.213977,86.825836,87.63502,--
12,12,4,2,1,8.075000e-01,1.615000e+00,1.0,11.0,--,--,87.646095,1.0,88.28301,0.6369164,88.38335,3.6780837,92.06363,9.0,92.06374,92.66841,5.0223155,92.66857,93.4779,--
13,13,8,3,2,2.422500e+00,1.615000e+00,1.0,12.0,--,--,93.48499,1.0,94.93292,1.4479247,95.033264,2.8670752,97.90286,5.0,97.902985,98.50768,5.022689,98.50785,100.93287,--
14,14,7,3,1,8.075000e-01,8.075000e-01,1.0,13.0,--,--,100.93889,2.0,101.36625,0.4273622,101.46661,3.0801377,104.54892,4.0,104.549034,105.15498,4.216098,105.15514,105.96454,--
15,15,3,1,3,2.422500e+00,1.615000e+00,1.0,14.0,--,--,105.967476,1.0,106.59953,0.6320617,106.69989,3.6829383,110.38495,1.0,110.38506,110.990974,5.0235033,110.99114,113.41583,--
16,16,7,3,1,4.037500e+00,8.075000e-01,1.0,15.0,--,--,113.42294,2.0,113.84937,0.4264319,113.949715,3.081068,117.03388,2.0,117.034,117.63991,4.216964,117.64007,121.67985,--
17,17,6,2,3,8.075000e-01,2.422500e+00,1.0,16.0,--,--,121.690834,1.0,122.33277,0.641938,122.43317,4.480562,126.9156,3.0,126.91572,127.52022,5.8293853,127.52039,128.32977,--
18,18,7,3,1,4.037500e+00,2.422500e+00,1.0,17.0,--,--,128.33693,1.0,129.38255,1.0456198,129.4829,4.07688,133.56235,6.0,133.56247,134.17001,5.8330803,134.17017,138.20952,--
19,19,6,2,3,8.075000e-01,2.422500e+00,1.0,18.0,--,--,138.22064,1.0,138.74953,0.5288964,138.84987,4.5936036,143.4455,1.0,143.44562,144.05008,5.8294373,144.05023,144.85983,--
20,20,9,3,3,5.652500e+00,8.075000e-01,1.0,19.0,--,--,144.86711,1.0,146.73244,1.8653207,146.83278,1.6421793,148.47783,1.0,148.47795,149.08195,4.214834,149.0821,154.73683,--
21,21,9,3,3,4.037500e+00,8.075000e-01,1.0,20.0,--,--,154.74326,2.0,155.58276,0.8395185,155.68309,2.6679814,158.35251,8.0,158.35263,158.95583,4.2125707,158.95598,162.9958,--
22,22,6,2,3,4.037500e+00,1.615000e+00,1.0,21.0,--,--,163.00687,1.0,163.63239,0.6255167,163.73274,3.6894834,167.42383,4.0,167.42395,168.02792,5.0210567,168.02808,172.06778,--
23,23,4,2,1,2.422500e+00,8.075000e-01,1.0,22.0,--,--,172.0782,2.0,172.59918,0.5209848,172.69957,2.9865153,175.68779,4.0,175.6879,176.29257,4.2143717,176.29272,178.7172,--
24,24,6,2,3,4.037500e+00,2.422500e+00,1.0,23.0,--,--,178.72845,1.0,179.66588,0.9374223,179.76624,4.1850777,183.9538,3.0,183.9539,184.5646,5.8361487,184.56477,188.60458,--
25,25,5,2,2,8.075000e-01,8.075000e-01,1.0,24.0,--,--,188.61475,2.0,189.24927,0.6345298,189.34962,2.87297,192.22444,5.0,192.22456,192.83089,4.2161374,192.83104,193.64041,--
26,26,7,3,1,8.075000e-01,1.615000e+00,1.0,25.0,--,--,193.64754,1.0,194.38239,0.7348524,194.48273,3.5801475,198.06476,6.0,198.06488,198.66956,5.022018,198.66971,199.47984,--
27,27,6,2,3,8.075000e-01,2.422500e+00,1.0,26.0,--,--,199.49092,2.0,200.01585,0.524924,200.11623,4.597576,204.71571,8.0,204.71584,205.3285,5.837579,205.32866,206.13783,--
28,28,2,1,2,2.422500e+00,1.615000e+00,1.0,27.0,--,--,206.1409,1.0,206.98236,0.8414611,207.0827,3.4735389,210.55876,5.0,210.55888,211.16388,5.022982,211.16405,213.58894,--
29,29,3,1,3,2.422500e+00,2.422500e+00,1.0,28.0,--,--,213.59076,2.0,214.11583,0.5250712,214.21617,4.597429,218.81676,7.0,218.81688,219.42151,5.830745,219.42166,221.84576,--
30,30,4,2,1,8.075000e-01,8.075000e-01,1.0,29.0,--,--,221.85683,1.0,222.28258,0.4257606,222.38293,3.0817394,225.46649,7.0,225.4666,226.07195,4.215124,226.07211,226.88155,--
31,31,6,2,3,7.267500e+00,8.075000e-01,1.0,30.0,--,--,226.8918,2.0,227.51556,0.6237593,227.6159,2.8837407,230.50189,8.0,230.502,231.10767,4.2158623,231.10782,238.37775,--
32,32,9,3,3,8.075000e-01,2.422500e+00,1.0,31.0,--,--,238.38516,1.0,238.8159,0.430735,238.9163,4.691765,243.60954,4.0,243.60966,244.2133,5.8281417,244.21346,245.02274,--
33,33,1,1,1,8.075000e-01,1.615000e+00,1.0,32.0,--,--,245.02565,2.0,245.86584,0.8401917,245.96616,3.4748082,249.44272,4.0,249.44283,250.04799,5.0223293,250.04814,250.85776,--
34,34,3,1,3,2.422500e+00,1.615000e+00,1.0,33.0,--,--,250.85956,1.0,251.48221,0.6226529,251.58255,3.692347,255.27646,2.0,255.27658,255.88187,5.0223,255.88202,258.3067,--
35,35,8,3,2,8.075000e-01,1.615000e+00,1.0,34.0,--,--,258.3138,2.0,259.24878,0.9349679,259.34912,3.380032,262.73184,5.0,262.73196,263.33685,5.023028,263.337,264.1464,--
36,36,1,1,1,8.075000e-01,8.075000e-01,1.0,35.0,--,--,264.14932,1.0,264.78238,0.6330712,264.88272,2.8744287,267.7597,8.0,267.75983,268.3658,4.216481,268.36597,269.17584,--
37,37,7,3,1,5.652500e+00,2.422500e+00,1.0,36.0,--,--,269.18277,2.0,270.7491,1.56633,270.84946,3.55617,274.4087,4.0,274.4088,275.01282,5.8300347,275.01297,280.6678,--
38,38,3,1,3,8.075000e-01,8.075000e-01,1.0,37.0,--,--,280.67065,1.0,281.1987,0.5280685,281.29904,2.9794314,284.28137,4.0,284.2815,284.88614,4.2154846,284.8863,285.69577,--
39,39,9,3,3,2.422500e+00,2.422500e+00,1.0,38.0,--,--,285.70303,2.0,286.23315,0.5301184,286.3336,4.5923815,290.9277,9.0,290.92783,291.5318,5.828788,291.53198,293.95667,--
40,40,3,1,3,8.075000e-01,2.422500e+00,1.0,39.0,--,--,293.95956,1.0,294.482,0.5224301,294.58234,4.60007,299.18466,4.0,299.18475,299.7899,5.8303084,299.79004,300.5997,--
41,41,4,2,1,8.075000e-01,2.422500e+00,1.0,40.0,--,--,300.61072,2.0,301.54883,0.9380987,301.64914,4.1844015,305.8356,2.0,305.83572,306.44095,5.830239,306.4411,307.25052,--
42,42,9,3,3,4.037500e+00,1.615000e+00,1.0,41.0,--,--,307.2577,1.0,308.2986,1.0409207,308.39896,3.2740793,311.67538,1.0,311.6755,312.2808,5.023105,312.28094,316.32068,--
43,43,9,3,3,8.075000e-01,2.422500e+00,1.0,42.0,--,--,316.32684,2.0,316.9655,0.6386631,317.06586,4.483837,321.55228,9.0,321.5524,322.1559,5.8290715,322.15607,322.96558,--
44,44,7,3,1,5.652500e+00,8.075000e-01,1.0,43.0,--,--,322.97174,1.0,323.69968,0.7279226,323.80002,2.7795775,326.58148,6.0,326.5816,327.18875,4.2170124,327.18893,332.84363,--
45,45,9,3,3,2.422500e+00,1.615000e+00,1.0,44.0,--,--,332.84973,2.0,333.38217,0.5324455,333.4825,3.7825544,337.26733,8.0,337.26746,337.87274,5.023012,337.8729,340.29736,--
46,46,1,1,1,8.075000e-01,2.422500e+00,1.0,45.0,--,--,340.30032,1.0,341.032,0.7316954,341.13242,4.390805,345.52548,8.0,345.5256,346.1311,5.830777,346.13126,346.94064,--
47,47,7,3,1,8.075000e-01,1.615000e+00,1.0,46.0,--,--,346.94827,2.0,347.7819,0.8336129,347.88226,3.4813871,351.36664,3.0,351.36673,351.9707,5.022424,351.97086,352.78064,--
48,48,3,1,3,8.075000e-01,2.422500e+00,1.0,47.0,--,--,352.78354,1.0,353.41534,0.6318117,353.5157,4.4906883,358.0085,1.0,358.00864,358.61963,5.836087,358.61975,359.42963,--
49,49,1,1,1,8.075000e-01,8.075000e-01,1.0,48.0,--,--,359.43152,2.0,360.36502,0.9335154,360.46542,2.5739846,363.0405,1.0,363.04062,363.64587,4.2143598,363.64606,364.45618,--
50,50,1,1,1,2.422500e+00,1.615000e+00,1.0,49.0,--,--,364.45807,1.0,367.24872,2.7906406,367.3491,1.5243595,368.87558,8.0,368.8757,369.4797,5.0216413,369.47986,371.90463,--
51,51,4,2,1,7.267500e+00,1.615000e+00,1.0,50.0,--,--,371.91608,2.0,372.44876,0.5326585,372.54913,3.7823415,376.33435,3.0,376.33447,376.9398,5.023694,376.93994,384.20932,--
52,52,6,2,3,2.422500e+00,1.615000e+00,1.0,51.0,--,--,384.2198,1.0,384.74854,0.528757,384.84894,3.786243,388.63757,2.0,388.6377,389.243,5.023243,389.2432,391.6676,--
53,53,4,2,1,2.422500e+00,8.075000e-01,1.0,52.0,--,--,391.6781,2.0,392.41498,0.7368854,392.51538,2.7706146,395.28784,2.0,395.28796,395.89267,4.214565,395.89282,398.31726,--
54,54,6,2,3,8.075000e-01,8.075000e-01,1.0,53.0,--,--,398.32758,1.0,399.1652,0.8375971,399.26556,2.6699028,401.9376,2.0,401.9377,402.54257,4.214997,402.54272,403.3526,412.00034
