onset	duration	trial_type	response_time	Endowment	Endowment_pmod	Decision	Decision_pmod	Offer_pmod
4.586148	2	cue_social	n/a	32	7	n/a	n/a	n/a
4.586148	2	cue_social_high	n/a	32	7	n/a	n/a	n/a
13.841897	2	cue_social	n/a	16	-9	n/a	n/a	n/a
13.841897	2	cue_social_low	n/a	16	-9	n/a	n/a	n/a
21.494446	2	cue_social	n/a	16	-9	n/a	n/a	n/a
21.494446	2	cue_social_low	n/a	16	-9	n/a	n/a	n/a
28.255873	2	cue_nonsocial	n/a	32	7	n/a	n/a	n/a
28.255873	2	cue_nonsocial_high	n/a	32	7	n/a	n/a	n/a
35.969210	2	cue_social	n/a	16	-9	n/a	n/a	n/a
35.969210	2	cue_social_low	n/a	16	-9	n/a	n/a	n/a
43.555264	2	cue_nonsocial	n/a	16	-9	n/a	n/a	n/a
43.555264	2	cue_nonsocial_low	n/a	16	-9	n/a	n/a	n/a
54.421967	2	cue_nonsocial	n/a	32	7	n/a	n/a	n/a
54.421967	2	cue_nonsocial_high	n/a	32	7	n/a	n/a	n/a
65.380905	2	cue_social	n/a	32	7	n/a	n/a	n/a
65.380905	2	cue_social_high	n/a	32	7	n/a	n/a	n/a
74.661270	2	cue_social	n/a	16	-9	n/a	n/a	n/a
74.661270	2	cue_social_low	n/a	16	-9	n/a	n/a	n/a
81.388725	2	cue_nonsocial	n/a	32	7	n/a	n/a	n/a
81.388725	2	cue_nonsocial_high	n/a	32	7	n/a	n/a	n/a
88.222015	2	cue_nonsocial	n/a	32	7	n/a	n/a	n/a
88.222015	2	cue_nonsocial_high	n/a	32	7	n/a	n/a	n/a
95.055210	2	cue_nonsocial	n/a	32	7	n/a	n/a	n/a
95.055210	2	cue_nonsocial_high	n/a	32	7	n/a	n/a	n/a
104.321930	2	cue_nonsocial	n/a	16	-9	n/a	n/a	n/a
104.321930	2	cue_nonsocial_low	n/a	16	-9	n/a	n/a	n/a
111.155210	2	cue_nonsocial	n/a	32	7	n/a	n/a	n/a
111.155210	2	cue_nonsocial_high	n/a	32	7	n/a	n/a	n/a
120.484430	2	cue_social	n/a	32	7	n/a	n/a	n/a
120.484430	2	cue_social_high	n/a	32	7	n/a	n/a	n/a
128.142800	2	cue_social	n/a	32	7	n/a	n/a	n/a
128.142800	2	cue_social_high	n/a	32	7	n/a	n/a	n/a
134.905100	2	cue_nonsocial	n/a	16	-9	n/a	n/a	n/a
134.905100	2	cue_nonsocial_low	n/a	16	-9	n/a	n/a	n/a
142.609070	2	cue_social	n/a	32	7	n/a	n/a	n/a
142.609070	2	cue_social_high	n/a	32	7	n/a	n/a	n/a
151.906050	2	cue_social	n/a	32	7	n/a	n/a	n/a
151.906050	2	cue_social_high	n/a	32	7	n/a	n/a	n/a
158.638350	2	cue_nonsocial	n/a	32	7	n/a	n/a	n/a
158.638350	2	cue_nonsocial_high	n/a	32	7	n/a	n/a	n/a
166.330640	2	cue_social	n/a	16	-9	n/a	n/a	n/a
166.330640	2	cue_social_low	n/a	16	-9	n/a	n/a	n/a
178.754940	2	cue_nonsocial	n/a	16	-9	n/a	n/a	n/a
178.754940	2	cue_nonsocial_low	n/a	16	-9	n/a	n/a	n/a
185.655580	2	cue_social	n/a	16	-9	n/a	n/a	n/a
185.655580	2	cue_social_low	n/a	16	-9	n/a	n/a	n/a
192.421880	2	cue_nonsocial	n/a	16	-9	n/a	n/a	n/a
192.421880	2	cue_nonsocial_low	n/a	16	-9	n/a	n/a	n/a
199.255310	2	cue_nonsocial	n/a	16	-9	n/a	n/a	n/a
199.255310	2	cue_nonsocial_low	n/a	16	-9	n/a	n/a	n/a
206.155560	2	cue_social	n/a	32	7	n/a	n/a	n/a
206.155560	2	cue_social_high	n/a	32	7	n/a	n/a	n/a
213.788270	2	cue_social	n/a	32	7	n/a	n/a	n/a
213.788270	2	cue_social_high	n/a	32	7	n/a	n/a	n/a
220.653520	2	cue_social	n/a	16	-9	n/a	n/a	n/a
220.653520	2	cue_social_low	n/a	16	-9	n/a	n/a	n/a
227.405010	2	cue_nonsocial	n/a	32	7	n/a	n/a	n/a
227.405010	2	cue_nonsocial_high	n/a	32	7	n/a	n/a	n/a
234.238200	2	cue_nonsocial	n/a	32	7	n/a	n/a	n/a
234.238200	2	cue_nonsocial_high	n/a	32	7	n/a	n/a	n/a
241.131740	2	cue_social	n/a	16	-9	n/a	n/a	n/a
241.131740	2	cue_social_low	n/a	16	-9	n/a	n/a	n/a
248.721450	2	cue_nonsocial	n/a	32	7	n/a	n/a	n/a
248.721450	2	cue_nonsocial_high	n/a	32	7	n/a	n/a	n/a
256.371500	2	cue_nonsocial	n/a	16	-9	n/a	n/a	n/a
256.371500	2	cue_nonsocial_low	n/a	16	-9	n/a	n/a	n/a
264.078920	2	cue_social	n/a	32	7	n/a	n/a	n/a
264.078920	2	cue_social_high	n/a	32	7	n/a	n/a	n/a
273.319430	2	cue_social	n/a	32	7	n/a	n/a	n/a
273.319430	2	cue_social_high	n/a	32	7	n/a	n/a	n/a
280.121670	2	cue_nonsocial	n/a	32	7	n/a	n/a	n/a
280.121670	2	cue_nonsocial_high	n/a	32	7	n/a	n/a	n/a
287.014680	2	cue_social	n/a	16	-9	n/a	n/a	n/a
287.014680	2	cue_social_low	n/a	16	-9	n/a	n/a	n/a
293.788060	2	cue_nonsocial	n/a	32	7	n/a	n/a	n/a
293.788060	2	cue_nonsocial_high	n/a	32	7	n/a	n/a	n/a
301.474030	2	cue_social	n/a	32	7	n/a	n/a	n/a
301.474030	2	cue_social_high	n/a	32	7	n/a	n/a	n/a
309.087950	2	cue_nonsocial	n/a	16	-9	n/a	n/a	n/a
309.087950	2	cue_nonsocial_low	n/a	16	-9	n/a	n/a	n/a
316.738000	2	cue_nonsocial	n/a	32	7	n/a	n/a	n/a
316.738000	2	cue_nonsocial_high	n/a	32	7	n/a	n/a	n/a
323.633240	2	cue_social	n/a	32	7	n/a	n/a	n/a
323.633240	2	cue_social_high	n/a	32	7	n/a	n/a	n/a
330.453770	2	cue_social	n/a	16	-9	n/a	n/a	n/a
330.453770	2	cue_social_low	n/a	16	-9	n/a	n/a	n/a
337.237900	2	cue_nonsocial	n/a	16	-9	n/a	n/a	n/a
337.237900	2	cue_nonsocial_low	n/a	16	-9	n/a	n/a	n/a
346.487520	2	cue_nonsocial	n/a	32	7	n/a	n/a	n/a
346.487520	2	cue_nonsocial_high	n/a	32	7	n/a	n/a	n/a
353.369750	2	cue_social	n/a	16	-9	n/a	n/a	n/a
353.369750	2	cue_social_low	n/a	16	-9	n/a	n/a	n/a
360.154600	2	cue_nonsocial	n/a	16	-9	n/a	n/a	n/a
360.154600	2	cue_nonsocial_low	n/a	16	-9	n/a	n/a	n/a
367.052340	2	cue_social	n/a	32	7	n/a	n/a	n/a
367.052340	2	cue_social_high	n/a	32	7	n/a	n/a	n/a
6.511057	1.983659	dec_social_choice	1.983659	32.000000	n/a	0	0	-2.298177e-01
6.511057	1.983659	dec_choice	1.983659	32.000000	n/a	0	0	-2.304688e-01
6.511057	1.983659	dec_social_reject	1.983659	32.000000	n/a	0	0	2.500000e-03
6.511057	1.983659	dec_reject	1.983659	32.000000	n/a	0	0	7.812500e-03
6.511057	1.983659	dec_social_reject_low	1.983659	32.000000	n/a	3	-1.367188e-01	-2.304688e-01
15.779083	1.215368	dec_social_choice	1.215368	16.000000	n/a	8	2.701823e-01	2.701823e-01
15.779083	1.215368	dec_choice	1.215368	16.000000	n/a	8	2.695312e-01	2.695312e-01
15.779083	1.215368	dec_social_accept	1.215368	16.000000	n/a	8	1.195652e-01	1.195652e-01
15.779083	1.215368	dec_accept	1.215368	16.000000	n/a	8	1.250000e-01	1.250000e-01
15.779083	1.215368	dec_social_high	1.215368	16.000000	n/a	8	2.695312e-01	2.695312e-01
15.779083	1.215368	dec_social_accept_high	1.215368	16.000000	n/a	8	2.695312e-01	2.695312e-01
23.428060	1.100465	dec_social_choice	1.100465	16.000000	n/a	0	0	-2.298177e-01
23.428060	1.100465	dec_choice	1.100465	16.000000	n/a	0	0	-2.304688e-01
23.428060	1.100465	dec_social_reject	1.100465	16.000000	n/a	0	0	3.375000e-02
23.428060	1.100465	dec_reject	1.100465	16.000000	n/a	0	0	3.906250e-02
23.428060	1.100465	dec_social_reject_low	1.100465	16.000000	n/a	2	-1.054688e-01	-2.304688e-01
30.262053	1.783138	dec_nonsocial_choice	1.783138	32.000000	n/a	16	2.701823e-01	2.701823e-01
30.262053	1.783138	dec_choice	1.783138	32.000000	n/a	16	2.708333e-01	2.708333e-01
30.262053	1.783138	dec_nonsocial_accept	1.783138	32.000000	n/a	16	1.195652e-01	1.195652e-01
30.262053	1.783138	dec_accept	1.783138	32.000000	n/a	16	1.136364e-01	1.136364e-01
30.262053	1.783138	dec_nonsocial_accept_high	1.783138	32.000000	n/a	16	1.250000e-01	1.250000e-01
37.912693	1.299672	dec_social_choice	1.299672	16.000000	n/a	0	0	-2.298177e-01
37.912693	1.299672	dec_choice	1.299672	16.000000	n/a	0	0	-2.304688e-01
37.912693	1.299672	dec_social_reject	1.299672	16.000000	n/a	0	0	3.375000e-02
37.912693	1.299672	dec_reject	1.299672	16.000000	n/a	0	0	3.906250e-02
37.912693	1.299672	dec_social_low	1.299672	16.000000	n/a	0	-2.304688e-01	-2.304688e-01
37.912693	1.299672	dec_social_reject_low	1.299672	16.000000	n/a	2	-1.054688e-01	-2.304688e-01
45.562042	1.299906	dec_nonsocial_choice	1.299906	16.000000	n/a	0	0	-2.298177e-01
45.562042	1.299906	dec_choice	1.299906	16.000000	n/a	0	0	-2.291667e-01
45.562042	1.299906	dec_nonsocial_reject	1.299906	16.000000	n/a	0	0	3.375000e-02
45.562042	1.299906	dec_reject	1.299906	16.000000	n/a	0	0	2.884615e-02
45.562042	1.299906	dec_nonsocial_low	1.299906	16.000000	n/a	0	-2.291667e-01	-2.291667e-01
45.562042	1.299906	dec_nonsocial_reject_low	1.299906	16.000000	n/a	2	2.884615e-02	-9.615385e-02
56.429016	1.682661	dec_nonsocial_choice	1.682661	32.000000	n/a	0	0	-2.298177e-01
56.429016	1.682661	dec_choice	1.682661	32.000000	n/a	0	0	-2.291667e-01
56.429016	1.682661	dec_nonsocial_reject	1.682661	32.000000	n/a	0	0	-2.875000e-02
56.429016	1.682661	dec_reject	1.682661	32.000000	n/a	0	0	-3.365385e-02
56.429016	1.682661	dec_nonsocial_low	1.682661	32.000000	n/a	0	-2.291667e-01	-2.291667e-01
56.429016	1.682661	dec_nonsocial_reject_low	1.682661	32.000000	n/a	2	-3.365385e-02	-9.615385e-02
67.296005	1.699406	dec_social_choice	1.699406	32.000000	n/a	0	0	-2.298177e-01
67.296005	1.699406	dec_choice	1.699406	32.000000	n/a	0	0	-2.304688e-01
67.296005	1.699406	dec_social_reject	1.699406	32.000000	n/a	0	0	-2.875000e-02
67.296005	1.699406	dec_reject	1.699406	32.000000	n/a	0	0	-2.343750e-02
67.296005	1.699406	dec_social_low	1.699406	32.000000	n/a	0	-2.304688e-01	-2.304688e-01
67.296005	1.699406	dec_social_reject_low	1.699406	32.000000	n/a	2	-1.679688e-01	-2.304688e-01
76.562530	1.582558	dec_social_choice	1.582558	16.000000	n/a	0	0	-2.298177e-01
76.562530	1.582558	dec_choice	1.582558	16.000000	n/a	0	0	-2.304688e-01
76.562530	1.582558	dec_social_reject	1.582558	16.000000	n/a	0	0	-2.875000e-02
76.562530	1.582558	dec_reject	1.582558	16.000000	n/a	0	0	-2.343750e-02
76.562530	1.582558	dec_social_reject_low	1.582558	16.000000	n/a	1	-1.679688e-01	-2.304688e-01
83.394660	1.766164	dec_nonsocial_choice	1.766164	32.000000	n/a	8	2.018229e-02	2.018229e-02
83.394660	1.766164	dec_choice	1.766164	32.000000	n/a	8	2.083333e-02	2.083333e-02
83.394660	1.766164	dec_nonsocial_accept	1.766164	32.000000	n/a	8	-1.304348e-01	-1.304348e-01
83.394660	1.766164	dec_accept	1.766164	32.000000	n/a	8	-1.363636e-01	-1.363636e-01
83.394660	1.766164	dec_nonsocial_high	1.766164	32.000000	n/a	8	2.083333e-02	2.083333e-02
83.394660	1.766164	dec_nonsocial_accept_high	1.766164	32.000000	n/a	8	-1.363636e-01	-1.363636e-01
90.229060	1.149330	dec_nonsocial_choice	1.149330	32.000000	n/a	0	0	-2.298177e-01
90.229060	1.149330	dec_choice	1.149330	32.000000	n/a	0	0	-2.291667e-01
90.229060	1.149330	dec_nonsocial_reject	1.149330	32.000000	n/a	0	0	2.500000e-03
90.229060	1.149330	dec_reject	1.149330	32.000000	n/a	0	0	-2.403846e-03
90.229060	1.149330	dec_nonsocial_reject_low	1.149330	32.000000	n/a	3	7.812500e-03	-8.593750e-02
97.062470	1.282555	dec_nonsocial_choice	1.282555	32.000000	n/a	0	0	-2.298177e-01
97.062470	1.282555	dec_choice	1.282555	32.000000	n/a	0	0	-2.291667e-01
97.062470	1.282555	dec_nonsocial_reject	1.282555	32.000000	n/a	0	0	2.500000e-03
97.062470	1.282555	dec_reject	1.282555	32.000000	n/a	0	0	-2.403846e-03
97.062470	1.282555	dec_nonsocial_reject_low	1.282555	32.000000	n/a	3	7.812500e-03	-8.593750e-02
106.327950	1.200568	dec_nonsocial_choice	1.200568	16.000000	n/a	8	2.701823e-01	2.701823e-01
106.327950	1.200568	dec_choice	1.200568	16.000000	n/a	8	2.708333e-01	2.708333e-01
106.327950	1.200568	dec_nonsocial_accept	1.200568	16.000000	n/a	8	1.195652e-01	1.195652e-01
106.327950	1.200568	dec_accept	1.200568	16.000000	n/a	8	1.136364e-01	1.136364e-01
106.327950	1.200568	dec_nonsocial_high	1.200568	16.000000	n/a	8	2.708333e-01	2.708333e-01
106.327950	1.200568	dec_nonsocial_accept_high	1.200568	16.000000	n/a	8	1.136364e-01	1.136364e-01
113.161260	1.433721	dec_nonsocial_choice	1.433721	32.000000	n/a	8	2.018229e-02	2.018229e-02
113.161260	1.433721	dec_choice	1.433721	32.000000	n/a	8	2.083333e-02	2.083333e-02
113.161260	1.433721	dec_nonsocial_accept	1.433721	32.000000	n/a	8	-1.304348e-01	-1.304348e-01
113.161260	1.433721	dec_accept	1.433721	32.000000	n/a	8	-1.363636e-01	-1.363636e-01
113.161260	1.433721	dec_nonsocial_high	1.433721	32.000000	n/a	8	2.083333e-02	2.083333e-02
113.161260	1.433721	dec_nonsocial_accept_high	1.433721	32.000000	n/a	8	-1.363636e-01	-1.363636e-01
122.428410	1.883235	dec_social_choice	1.883235	32.000000	n/a	8	2.018229e-02	2.018229e-02
122.428410	1.883235	dec_choice	1.883235	32.000000	n/a	8	1.953125e-02	1.953125e-02
122.428410	1.883235	dec_social_accept	1.883235	32.000000	n/a	8	-1.304348e-01	-1.304348e-01
122.428410	1.883235	dec_accept	1.883235	32.000000	n/a	8	-1.250000e-01	-1.250000e-01
122.428410	1.883235	dec_social_accept_high	1.883235	32.000000	n/a	8	1.953125e-02	1.953125e-02
130.077820	1.133414	dec_social_choice	1.133414	32.000000	n/a	16	2.701823e-01	2.701823e-01
130.077820	1.133414	dec_choice	1.133414	32.000000	n/a	16	2.695312e-01	2.695312e-01
130.077820	1.133414	dec_social_accept	1.133414	32.000000	n/a	16	1.195652e-01	1.195652e-01
130.077820	1.133414	dec_accept	1.133414	32.000000	n/a	16	1.250000e-01	1.250000e-01
130.077820	1.133414	dec_social_high	1.133414	32.000000	n/a	16	2.695312e-01	2.695312e-01
130.077820	1.133414	dec_social_accept_high	1.133414	32.000000	n/a	16	2.695312e-01	2.695312e-01
136.911910	1.132975	dec_nonsocial_choice	1.132975	16.000000	n/a	8	2.701823e-01	2.701823e-01
136.911910	1.132975	dec_choice	1.132975	16.000000	n/a	8	2.708333e-01	2.708333e-01
136.911910	1.132975	dec_nonsocial_accept	1.132975	16.000000	n/a	8	1.195652e-01	1.195652e-01
136.911910	1.132975	dec_accept	1.132975	16.000000	n/a	8	1.136364e-01	1.136364e-01
136.911910	1.132975	dec_nonsocial_high	1.132975	16.000000	n/a	8	2.708333e-01	2.708333e-01
136.911910	1.132975	dec_nonsocial_accept_high	1.132975	16.000000	n/a	8	1.136364e-01	1.136364e-01
144.561330	1.100658	dec_social_choice	1.100658	32.000000	n/a	0	0	-2.298177e-01
144.561330	1.100658	dec_choice	1.100658	32.000000	n/a	0	0	-2.304688e-01
144.561330	1.100658	dec_social_reject	1.100658	32.000000	n/a	0	0	-2.875000e-02
144.561330	1.100658	dec_reject	1.100658	32.000000	n/a	0	0	-2.343750e-02
144.561330	1.100658	dec_social_low	1.100658	32.000000	n/a	0	-2.304688e-01	-2.304688e-01
144.561330	1.100658	dec_social_reject_low	1.100658	32.000000	n/a	2	-1.679688e-01	-2.304688e-01
153.811940	1.300024	dec_social_choice	1.300024	32.000000	n/a	8	2.018229e-02	2.018229e-02
153.811940	1.300024	dec_choice	1.300024	32.000000	n/a	8	1.953125e-02	1.953125e-02
153.811940	1.300024	dec_social_accept	1.300024	32.000000	n/a	8	-1.304348e-01	-1.304348e-01
153.811940	1.300024	dec_accept	1.300024	32.000000	n/a	8	-1.250000e-01	-1.250000e-01
153.811940	1.300024	dec_social_high	1.300024	32.000000	n/a	8	1.953125e-02	1.953125e-02
153.811940	1.300024	dec_social_accept_high	1.300024	32.000000	n/a	8	1.953125e-02	1.953125e-02
160.644090	1.084082	dec_nonsocial_choice	1.084082	32.000000	n/a	0	0	-2.298177e-01
160.644090	1.084082	dec_choice	1.084082	32.000000	n/a	0	0	-2.291667e-01
160.644090	1.084082	dec_nonsocial_reject	1.084082	32.000000	n/a	0	0	-2.875000e-02
160.644090	1.084082	dec_reject	1.084082	32.000000	n/a	0	0	-3.365385e-02
160.644090	1.084082	dec_nonsocial_reject_low	1.084082	32.000000	n/a	2	-2.343750e-02	-8.593750e-02
168.278300	1.183431	dec_social_choice	1.183431	16.000000	n/a	8	2.701823e-01	2.701823e-01
168.278300	1.183431	dec_choice	1.183431	16.000000	n/a	8	2.695312e-01	2.695312e-01
168.278300	1.183431	dec_social_accept	1.183431	16.000000	n/a	8	1.195652e-01	1.195652e-01
168.278300	1.183431	dec_accept	1.183431	16.000000	n/a	8	1.250000e-01	1.250000e-01
168.278300	1.183431	dec_social_high	1.183431	16.000000	n/a	8	2.695312e-01	2.695312e-01
168.278300	1.183431	dec_social_accept_high	1.183431	16.000000	n/a	8	2.695312e-01	2.695312e-01
180.762420	2.432928	dec_nonsocial_choice	2.432928	16.000000	n/a	0	0	-2.298177e-01
180.762420	2.432928	dec_choice	2.432928	16.000000	n/a	0	0	-2.291667e-01
180.762420	2.432928	dec_nonsocial_reject	2.432928	16.000000	n/a	0	0	1.587500e-01
180.762420	2.432928	dec_reject	2.432928	16.000000	n/a	0	0	1.538462e-01
180.762420	2.432928	dec_nonsocial_low	2.432928	16.000000	n/a	0	-2.291667e-01	-2.291667e-01
180.762420	2.432928	dec_nonsocial_reject_low	2.432928	16.000000	n/a	4	1.538462e-01	-9.615385e-02
187.595000	1.165978	dec_social_choice	1.165978	16.000000	n/a	0	0	-2.298177e-01
187.595000	1.165978	dec_choice	1.165978	16.000000	n/a	0	0	-2.304688e-01
187.595000	1.165978	dec_social_reject	1.165978	16.000000	n/a	0	0	3.375000e-02
187.595000	1.165978	dec_reject	1.165978	16.000000	n/a	0	0	3.906250e-02
187.595000	1.165978	dec_social_low	1.165978	16.000000	n/a	0	-2.304688e-01	-2.304688e-01
187.595000	1.165978	dec_social_reject_low	1.165978	16.000000	n/a	2	-1.054688e-01	-2.304688e-01
194.428790	1.032588	dec_nonsocial_choice	1.032588	16.000000	n/a	0	0	-2.298177e-01
194.428790	1.032588	dec_choice	1.032588	16.000000	n/a	0	0	-2.291667e-01
194.428790	1.032588	dec_nonsocial_reject	1.032588	16.000000	n/a	0	0	-2.875000e-02
194.428790	1.032588	dec_reject	1.032588	16.000000	n/a	0	0	-3.365385e-02
194.428790	1.032588	dec_nonsocial_low	1.032588	16.000000	n/a	0	-2.291667e-01	-2.291667e-01
194.428790	1.032588	dec_nonsocial_reject_low	1.032588	16.000000	n/a	1	-3.365385e-02	-9.615385e-02
201.261950	1.965085	dec_nonsocial_choice	1.965085	16.000000	n/a	4	2.018229e-02	2.018229e-02
201.261950	1.965085	dec_choice	1.965085	16.000000	n/a	4	2.083333e-02	2.083333e-02
201.261950	1.965085	dec_nonsocial_accept	1.965085	16.000000	n/a	4	-1.304348e-01	-1.304348e-01
201.261950	1.965085	dec_accept	1.965085	16.000000	n/a	4	-1.363636e-01	-1.363636e-01
201.261950	1.965085	dec_nonsocial_high	1.965085	16.000000	n/a	4	2.083333e-02	2.083333e-02
201.261950	1.965085	dec_nonsocial_accept_high	1.965085	16.000000	n/a	4	-1.363636e-01	-1.363636e-01
208.094990	1.283347	dec_social_choice	1.283347	32.000000	n/a	0	0	-2.298177e-01
208.094990	1.283347	dec_choice	1.283347	32.000000	n/a	0	0	-2.304688e-01
208.094990	1.283347	dec_social_reject	1.283347	32.000000	n/a	0	0	-2.875000e-02
208.094990	1.283347	dec_reject	1.283347	32.000000	n/a	0	0	-2.343750e-02
208.094990	1.283347	dec_social_low	1.283347	32.000000	n/a	0	-2.304688e-01	-2.304688e-01
208.094990	1.283347	dec_social_reject_low	1.283347	32.000000	n/a	2	-1.679688e-01	-2.304688e-01
215.744640	1.250561	dec_social_choice	1.250561	32.000000	n/a	16	2.701823e-01	2.701823e-01
215.744640	1.250561	dec_choice	1.250561	32.000000	n/a	16	2.695312e-01	2.695312e-01
215.744640	1.250561	dec_social_accept	1.250561	32.000000	n/a	16	1.195652e-01	1.195652e-01
215.744640	1.250561	dec_accept	1.250561	32.000000	n/a	16	1.250000e-01	1.250000e-01
215.744640	1.250561	dec_social_accept_high	1.250561	32.000000	n/a	16	2.695312e-01	2.695312e-01
222.577270	1.183300	dec_social_choice	1.183300	16.000000	n/a	0	0	-2.298177e-01
222.577270	1.183300	dec_choice	1.183300	16.000000	n/a	0	0	-2.304688e-01
222.577270	1.183300	dec_social_reject	1.183300	16.000000	n/a	0	0	-2.875000e-02
222.577270	1.183300	dec_reject	1.183300	16.000000	n/a	0	0	-2.343750e-02
222.577270	1.183300	dec_social_reject_low	1.183300	16.000000	n/a	1	-1.679688e-01	-2.304688e-01
229.411240	1.183746	dec_nonsocial_choice	1.183746	32.000000	n/a	16	2.701823e-01	2.701823e-01
229.411240	1.183746	dec_choice	1.183746	32.000000	n/a	16	2.708333e-01	2.708333e-01
229.411240	1.183746	dec_nonsocial_accept	1.183746	32.000000	n/a	16	1.195652e-01	1.195652e-01
229.411240	1.183746	dec_accept	1.183746	32.000000	n/a	16	1.136364e-01	1.136364e-01
229.411240	1.183746	dec_nonsocial_accept_high	1.183746	32.000000	n/a	16	1.250000e-01	1.250000e-01
236.243900	1.016739	dec_nonsocial_choice	1.016739	32.000000	n/a	16	2.701823e-01	2.701823e-01
236.243900	1.016739	dec_choice	1.016739	32.000000	n/a	16	2.708333e-01	2.708333e-01
236.243900	1.016739	dec_nonsocial_accept	1.016739	32.000000	n/a	16	1.195652e-01	1.195652e-01
236.243900	1.016739	dec_accept	1.016739	32.000000	n/a	16	1.136364e-01	1.136364e-01
236.243900	1.016739	dec_nonsocial_accept_high	1.016739	32.000000	n/a	16	1.250000e-01	1.250000e-01
243.078340	1.583123	dec_social_choice	1.583123	16.000000	n/a	4	2.018229e-02	2.018229e-02
243.078340	1.583123	dec_choice	1.583123	16.000000	n/a	4	1.953125e-02	1.953125e-02
243.078340	1.583123	dec_social_accept	1.583123	16.000000	n/a	4	-1.304348e-01	-1.304348e-01
243.078340	1.583123	dec_accept	1.583123	16.000000	n/a	4	-1.250000e-01	-1.250000e-01
243.078340	1.583123	dec_social_accept_high	1.583123	16.000000	n/a	4	1.953125e-02	1.953125e-02
250.728870	0.999037	dec_nonsocial_choice	0.999037	32.000000	n/a	16	2.701823e-01	2.701823e-01
250.728870	0.999037	dec_choice	0.999037	32.000000	n/a	16	2.708333e-01	2.708333e-01
250.728870	0.999037	dec_nonsocial_accept	0.999037	32.000000	n/a	16	1.195652e-01	1.195652e-01
250.728870	0.999037	dec_accept	0.999037	32.000000	n/a	16	1.136364e-01	1.136364e-01
250.728870	0.999037	dec_nonsocial_high	0.999037	32.000000	n/a	16	2.708333e-01	2.708333e-01
250.728870	0.999037	dec_nonsocial_accept_high	0.999037	32.000000	n/a	16	1.136364e-01	1.136364e-01
258.378020	1.233544	dec_nonsocial_choice	1.233544	16.000000	n/a	4	2.018229e-02	2.018229e-02
258.378020	1.233544	dec_choice	1.233544	16.000000	n/a	4	2.083333e-02	2.083333e-02
258.378020	1.233544	dec_nonsocial_accept	1.233544	16.000000	n/a	4	-1.304348e-01	-1.304348e-01
258.378020	1.233544	dec_accept	1.233544	16.000000	n/a	4	-1.363636e-01	-1.363636e-01
258.378020	1.233544	dec_nonsocial_high	1.233544	16.000000	n/a	4	2.083333e-02	2.083333e-02
258.378020	1.233544	dec_nonsocial_accept_high	1.233544	16.000000	n/a	4	-1.363636e-01	-1.363636e-01
266.028800	0.964781	dec_social_choice	0.964781	32.000000	n/a	0	0	-2.298177e-01
266.028800	0.964781	dec_choice	0.964781	32.000000	n/a	0	0	-2.304688e-01
266.028800	0.964781	dec_social_reject	0.964781	32.000000	n/a	0	0	2.500000e-03
266.028800	0.964781	dec_reject	0.964781	32.000000	n/a	0	0	7.812500e-03
266.028800	0.964781	dec_social_reject_low	0.964781	32.000000	n/a	3	-1.367188e-01	-2.304688e-01
275.294130	1.600624	dec_social_choice	1.600624	32.000000	n/a	8	2.018229e-02	2.018229e-02
275.294130	1.600624	dec_choice	1.600624	32.000000	n/a	8	1.953125e-02	1.953125e-02
275.294130	1.600624	dec_social_accept	1.600624	32.000000	n/a	8	-1.304348e-01	-1.304348e-01
275.294130	1.600624	dec_accept	1.600624	32.000000	n/a	8	-1.250000e-01	-1.250000e-01
275.294130	1.600624	dec_social_high	1.600624	32.000000	n/a	8	1.953125e-02	1.953125e-02
275.294130	1.600624	dec_social_accept_high	1.600624	32.000000	n/a	8	1.953125e-02	1.953125e-02
282.127800	0.933469	dec_nonsocial_choice	0.933469	32.000000	n/a	0	0	-2.298177e-01
282.127800	0.933469	dec_choice	0.933469	32.000000	n/a	0	0	-2.291667e-01
282.127800	0.933469	dec_nonsocial_reject	0.933469	32.000000	n/a	0	0	-2.875000e-02
282.127800	0.933469	dec_reject	0.933469	32.000000	n/a	0	0	-3.365385e-02
282.127800	0.933469	dec_nonsocial_reject_low	0.933469	32.000000	n/a	2	-2.343750e-02	-8.593750e-02
288.961580	0.982749	dec_social_choice	0.982749	16.000000	n/a	8	2.701823e-01	2.701823e-01
288.961580	0.982749	dec_choice	0.982749	16.000000	n/a	8	2.695312e-01	2.695312e-01
288.961580	0.982749	dec_social_accept	0.982749	16.000000	n/a	8	1.195652e-01	1.195652e-01
288.961580	0.982749	dec_accept	0.982749	16.000000	n/a	8	1.250000e-01	1.250000e-01
288.961580	0.982749	dec_social_high	0.982749	16.000000	n/a	8	2.695312e-01	2.695312e-01
288.961580	0.982749	dec_social_accept_high	0.982749	16.000000	n/a	8	2.695312e-01	2.695312e-01
295.794770	1.099745	dec_nonsocial_choice	1.099745	32.000000	n/a	0	0	-2.298177e-01
295.794770	1.099745	dec_choice	1.099745	32.000000	n/a	0	0	-2.291667e-01
295.794770	1.099745	dec_nonsocial_reject	1.099745	32.000000	n/a	0	0	2.500000e-03
295.794770	1.099745	dec_reject	1.099745	32.000000	n/a	0	0	-2.403846e-03
295.794770	1.099745	dec_nonsocial_low	1.099745	32.000000	n/a	0	-2.291667e-01	-2.291667e-01
295.794770	1.099745	dec_nonsocial_reject_low	1.099745	32.000000	n/a	3	-2.403846e-03	-9.615385e-02
303.443570	1.233359	dec_social_choice	1.233359	32.000000	n/a	8	2.018229e-02	2.018229e-02
303.443570	1.233359	dec_choice	1.233359	32.000000	n/a	8	1.953125e-02	1.953125e-02
303.443570	1.233359	dec_social_accept	1.233359	32.000000	n/a	8	-1.304348e-01	-1.304348e-01
303.443570	1.233359	dec_accept	1.233359	32.000000	n/a	8	-1.250000e-01	-1.250000e-01
303.443570	1.233359	dec_social_high	1.233359	32.000000	n/a	8	1.953125e-02	1.953125e-02
303.443570	1.233359	dec_social_accept_high	1.233359	32.000000	n/a	8	1.953125e-02	1.953125e-02
311.095200	0.999218	dec_nonsocial_choice	0.999218	16.000000	n/a	0	0	-2.298177e-01
311.095200	0.999218	dec_choice	0.999218	16.000000	n/a	0	0	-2.291667e-01
311.095200	0.999218	dec_nonsocial_reject	0.999218	16.000000	n/a	0	0	-2.875000e-02
311.095200	0.999218	dec_reject	0.999218	16.000000	n/a	0	0	-3.365385e-02
311.095200	0.999218	dec_nonsocial_low	0.999218	16.000000	n/a	0	-2.291667e-01	-2.291667e-01
311.095200	0.999218	dec_nonsocial_reject_low	0.999218	16.000000	n/a	1	-3.365385e-02	-9.615385e-02
318.745420	1.082309	dec_nonsocial_choice	1.082309	32.000000	n/a	0	0	-2.298177e-01
318.745420	1.082309	dec_choice	1.082309	32.000000	n/a	0	0	-2.291667e-01
318.745420	1.082309	dec_nonsocial_reject	1.082309	32.000000	n/a	0	0	-2.875000e-02
318.745420	1.082309	dec_reject	1.082309	32.000000	n/a	0	0	-3.365385e-02
318.745420	1.082309	dec_nonsocial_low	1.082309	32.000000	n/a	0	-2.291667e-01	-2.291667e-01
318.745420	1.082309	dec_nonsocial_reject_low	1.082309	32.000000	n/a	2	-3.365385e-02	-9.615385e-02
325.577760	0.949960	dec_social_choice	0.949960	32.000000	n/a	0	0	-2.298177e-01
325.577760	0.949960	dec_choice	0.949960	32.000000	n/a	0	0	-2.304688e-01
325.577760	0.949960	dec_social_reject	0.949960	32.000000	n/a	0	0	2.500000e-03
325.577760	0.949960	dec_reject	0.949960	32.000000	n/a	0	0	7.812500e-03
325.577760	0.949960	dec_social_low	0.949960	32.000000	n/a	0	-2.304688e-01	-2.304688e-01
325.577760	0.949960	dec_social_reject_low	0.949960	32.000000	n/a	3	-1.367188e-01	-2.304688e-01
332.410830	1.000210	dec_social_choice	1.000210	16.000000	n/a	4	2.018229e-02	2.018229e-02
332.410830	1.000210	dec_choice	1.000210	16.000000	n/a	4	1.953125e-02	1.953125e-02
332.410830	1.000210	dec_social_accept	1.000210	16.000000	n/a	4	-1.304348e-01	-1.304348e-01
332.410830	1.000210	dec_accept	1.000210	16.000000	n/a	4	-1.250000e-01	-1.250000e-01
332.410830	1.000210	dec_social_high	1.000210	16.000000	n/a	4	1.953125e-02	1.953125e-02
332.410830	1.000210	dec_social_accept_high	1.000210	16.000000	n/a	4	1.953125e-02	1.953125e-02
339.245300	1.349051	dec_nonsocial_choice	1.349051	16.000000	n/a	4	2.018229e-02	2.018229e-02
339.245300	1.349051	dec_choice	1.349051	16.000000	n/a	4	2.083333e-02	2.083333e-02
339.245300	1.349051	dec_nonsocial_accept	1.349051	16.000000	n/a	4	-1.304348e-01	-1.304348e-01
339.245300	1.349051	dec_accept	1.349051	16.000000	n/a	4	-1.363636e-01	-1.363636e-01
339.245300	1.349051	dec_nonsocial_accept_high	1.349051	16.000000	n/a	4	-1.250000e-01	-1.250000e-01
348.494170	1.400462	dec_nonsocial_choice	1.400462	32.000000	n/a	0	0	-2.298177e-01
348.494170	1.400462	dec_choice	1.400462	32.000000	n/a	0	0	-2.291667e-01
348.494170	1.400462	dec_nonsocial_reject	1.400462	32.000000	n/a	0	0	2.500000e-03
348.494170	1.400462	dec_reject	1.400462	32.000000	n/a	0	0	-2.403846e-03
348.494170	1.400462	dec_nonsocial_reject_low	1.400462	32.000000	n/a	3	7.812500e-03	-8.593750e-02
355.328600	0.998941	dec_social_choice	0.998941	16.000000	n/a	0	0	-2.298177e-01
355.328600	0.998941	dec_choice	0.998941	16.000000	n/a	0	0	-2.304688e-01
355.328600	0.998941	dec_social_reject	0.998941	16.000000	n/a	0	0	-2.875000e-02
355.328600	0.998941	dec_reject	0.998941	16.000000	n/a	0	0	-2.343750e-02
355.328600	0.998941	dec_social_low	0.998941	16.000000	n/a	0	-2.304688e-01	-2.304688e-01
355.328600	0.998941	dec_social_reject_low	0.998941	16.000000	n/a	1	-1.679688e-01	-2.304688e-01
362.160700	1.150522	dec_nonsocial_choice	1.150522	16.000000	n/a	0	0	-2.298177e-01
362.160700	1.150522	dec_choice	1.150522	16.000000	n/a	0	0	-2.291667e-01
362.160700	1.150522	dec_nonsocial_reject	1.150522	16.000000	n/a	0	0	3.375000e-02
362.160700	1.150522	dec_reject	1.150522	16.000000	n/a	0	0	2.884615e-02
362.160700	1.150522	dec_nonsocial_low	1.150522	16.000000	n/a	0	-2.291667e-01	-2.291667e-01
362.160700	1.150522	dec_nonsocial_reject_low	1.150522	16.000000	n/a	2	2.884615e-02	-9.615385e-02
368.993960	1.133650	dec_social_choice	1.133650	32.000000	n/a	16	2.701823e-01	2.701823e-01
368.993960	1.133650	dec_choice	1.133650	32.000000	n/a	16	2.695312e-01	2.695312e-01
368.993960	1.133650	dec_social_accept	1.133650	32.000000	n/a	16	1.195652e-01	1.195652e-01
368.993960	1.133650	dec_accept	1.133650	32.000000	n/a	16	1.250000e-01	1.250000e-01
368.993960	1.133650	dec_social_accept_high	1.133650	32.000000	n/a	16	2.695312e-01	2.695312e-01
