onset	duration	trial_type	rt	resp	gender	image_left	image_right
0.590183299966156	3.00133100058883	decision	1.78254550043494	left	D	DD017.jpg	DD018.jpg
4.14007129985839	1.00003410037607	loss	NaN	n/a	n/a	DD017.jpg	DD018.jpg
11.0901701003313	3.00068890023977	decision	2.28222559951246	left	D	DD035.jpg	DD036.jpg
14.6399868000299	1.00007440056652	win	NaN	n/a	n/a	DD035.jpg	DD036.jpg
21.5570296002552	3.00203269999474	decision	2.03266509994864	right	D	DD021.jpg	DD022.jpg
25.107100199908	1.01655369997025	loss	NaN	n/a	n/a	DD021.jpg	DD022.jpg
32.04041399993	3.00145510025322	decision	2.03269490040839	left	S	SD025.jpg	SD026.jpg
35.5899683004245	1.00044229999185	loss	NaN	n/a	n/a	SD025.jpg	SD026.jpg
38.3069058004767	3.00194709934294	decision	2.53261309955269	right	S	SD027.jpg	SD028.jpg
41.8568381005898	1.00007509998977	loss	NaN	n/a	n/a	SD027.jpg	SD028.jpg
44.5736070005223	3.00222469959408	decision	2.28296570014209	right	S	SD023.jpg	SD024.jpg
48.1235878001899	1.01649620011449	win	NaN	n/a	n/a	SD023.jpg	SD024.jpg
50.8569268006831	3.00090269930661	decision	2.0324292993173	right	D	DD037.jpg	DD038.jpg
54.4068408003077	1.0001266002655	win	NaN	n/a	n/a	DD037.jpg	DD038.jpg
59.2403242997825	3.00145700015128	decision	2.53243750054389	left	S	SD011.jpg	SD012.jpg
62.7901189997792	1.01671210024506	loss	NaN	n/a	n/a	SD011.jpg	SD012.jpg
67.6236212998629	3.00110669992864	decision	2.53355360031128	right	D	DD009.jpg	DD010.jpg
71.1735193002969	1.01653289981186	win	NaN	n/a	n/a	DD009.jpg	DD010.jpg
73.9068701006472	3.00184499938041	decision	2.53285519964993	left	D	DD027.jpg	DD028.jpg
77.4567689998075	1.00003870017827	win	NaN	n/a	n/a	DD027.jpg	DD028.jpg
82.2903115004301	3.00140979979187	decision	2.53421839978546	right	D	DD015.jpg	DD016.jpg
85.8400531997904	1.01670980080962	loss	NaN	n/a	n/a	DD015.jpg	DD016.jpg
92.7735548000783	3.0013179006055	decision	2.03252060059458	left	S	SD029.jpg	SD030.jpg
96.3233067002147	1.01668019965291	loss	NaN	n/a	n/a	SD029.jpg	SD030.jpg
101.156918399967	3.00183530058712	decision	2.28268760070205	left	S	SD015.jpg	SD016.jpg
104.706763500348	1.00002690032125	win	NaN	n/a	n/a	SD015.jpg	SD016.jpg
111.606810600497	3.00145179964602	decision	2.28275049943477	left	S	SD007.jpg	SD008.jpg
115.156698900275	1.0000400999561	win	NaN	n/a	n/a	SD007.jpg	SD008.jpg
119.973408400081	3.00010790023953	decision	2.78400429990143	left	S	SD017.jpg	SD018.jpg
123.523075600155	1.01689739990979	win	NaN	n/a	n/a	SD017.jpg	SD018.jpg
126.273099699989	3.00160920061171	decision	2.53371270000935	right	D	DD033.jpg	DD034.jpg
129.823346400633	1.01621759962291	win	NaN	n/a	n/a	DD033.jpg	DD034.jpg
132.573539500125	3.0011662999168	decision	2.53434799984097	right	D	DD007.jpg	DD008.jpg
136.123219599947	1.01674460060894	loss	NaN	n/a	n/a	DD007.jpg	DD008.jpg
138.856647900306	3.00116360001266	decision	2.53305440023541	right	D	DD023.jpg	DD024.jpg
142.406630800106	1.01626299973577	loss	NaN	n/a	n/a	DD023.jpg	DD024.jpg
155.65664540045	3.00101740006357	decision	1.78301170002669	left	S	SD009.jpg	SD010.jpg
159.206548999995	1.01640330068767	loss	NaN	n/a	n/a	SD009.jpg	SD010.jpg
164.039910200052	3.00176279991865	decision	2.53385839983821	left	D	DD001.jpg	DD002.jpg
167.589941999875	1.01658160053194	win	NaN	n/a	n/a	DD001.jpg	DD002.jpg
170.339960300364	3.00183410011232	decision	2.53498139977455	right	S	SD019.jpg	SD020.jpg
173.889770899899	1.0000384002924	loss	NaN	n/a	n/a	SD019.jpg	SD020.jpg
180.823030100204	3.00126709975302	decision	2.79972730018198	left	D	DD031.jpg	DD032.jpg
184.372923499905	1.0169621007517	loss	NaN	n/a	n/a	DD031.jpg	DD032.jpg
189.206548400223	3.0007784999907	decision	1.78207879979163	left	S	SD005.jpg	SD006.jpg
192.756436800584	1.00001889932901	win	NaN	n/a	n/a	SD005.jpg	SD006.jpg
195.506575500593	3.0011825999245	decision	2.03273649979383	right	D	DD019.jpg	DD020.jpg
199.055997100659	1.00044539943337	win	NaN	n/a	n/a	DD019.jpg	DD020.jpg
205.972948200069	3.00147949997336	decision	2.28275750018656	left	S	SD013.jpg	SD014.jpg
209.522881099954	1.01692700013518	loss	NaN	n/a	n/a	SD013.jpg	SD014.jpg
216.456501600333	3.0021102996543	decision	2.03289250005037	right	S	SD031.jpg	SD032.jpg
220.006414900534	1.01642919983715	loss	NaN	n/a	n/a	SD031.jpg	SD032.jpg
224.839728000574	3.00165050011128	decision	2.53295199945569	left	D	DD039.jpg	DD040.jpg
228.389644700103	1.00009780004621	loss	NaN	n/a	n/a	DD039.jpg	DD040.jpg
231.122980800457	3.05031749978662	decision	3.0497858999297	right	D	DD005.jpg	DD006.jpg
234.722743400373	1.01644709985703	loss	NaN	n/a	n/a	DD005.jpg	DD006.jpg
241.656278400682	3.00210289936513	decision	2.79866619966924	right	S	SD037.jpg	SD038.jpg
245.205688800663	1.01654909923673	loss	NaN	n/a	n/a	SD037.jpg	SD038.jpg
247.939223600551	3.00084419921041	decision	2.53422369994223	left	S	SD039.jpg	SD040.jpg
251.489592100494	1.01649559941143	win	NaN	n/a	n/a	SD039.jpg	SD040.jpg
254.222899099812	3.00123910047114	decision	2.54969110060483	left	S	SD033.jpg	SD034.jpg
257.772714099847	1.00007109995931	loss	NaN	n/a	n/a	SD033.jpg	SD034.jpg
260.489571399987	3.00108090043068	decision	1.78203720040619	right	D	DD013.jpg	DD014.jpg
264.039538400248	1.01666709966958	win	NaN	n/a	n/a	DD013.jpg	DD014.jpg
268.872721499763	3.00106990057975	decision	2.53262220043689	left	S	SD001.jpg	SD002.jpg
272.422732300125	1.00009560026228	win	NaN	n/a	n/a	SD001.jpg	SD002.jpg
275.139225600287	3.00128479953855	decision	2.03355360031128	right	D	DD003.jpg	DD004.jpg
278.689474900253	1.01645429991186	win	NaN	n/a	n/a	DD003.jpg	DD004.jpg
283.52286940068	3.00147819984704	decision	1.53281189966947	right	S	SD003.jpg	SD004.jpg
287.072812800296	1.016566099599	win	NaN	n/a	n/a	SD003.jpg	SD004.jpg
294.006213900633	3.00233189947903	decision	2.28294089995325	right	D	DD025.jpg	DD026.jpg
297.555843099952	1.01677570026368	win	NaN	n/a	n/a	DD025.jpg	DD026.jpg
304.489313100465	3.00120529998094	decision	2.03209669981152	right	S	SD035.jpg	SD036.jpg
308.039337799884	1.00007650069892	win	NaN	n/a	n/a	SD035.jpg	SD036.jpg
310.755855800584	3.00159799959511	decision	2.53368859924376	left	D	DD011.jpg	DD012.jpg
314.305964800529	1.01662279944867	loss	NaN	n/a	n/a	DD011.jpg	DD012.jpg
317.039314799942	3.00123629998416	decision	2.0327334003523	left	S	SD021.jpg	SD022.jpg
320.589349300601	1.01640879921615	win	NaN	n/a	n/a	SD021.jpg	SD022.jpg
325.422740700655	3.00172699987888	decision	2.03288889955729	left	D	DD029.jpg	DD030.jpg
328.972552999854	1.00035400036722	loss	NaN	n/a	n/a	DD029.jpg	DD030.jpg
