onset	duration	trial_type	response_time	Endowment	Endowment_pmod	Decision	Decision_pmod	Offer_pmod
4.519291	2	cue_nonsocial	n/a	32	6	n/a	n/a	n/a
4.519291	2	cue_nonsocial_high	n/a	32	9	n/a	n/a	n/a
11.352615	2	cue_nonsocial	n/a	32	6	n/a	n/a	n/a
11.352615	2	cue_nonsocial_high	n/a	32	9	n/a	n/a	n/a
19.002644	2	cue_nonsocial	n/a	16	-10	n/a	n/a	n/a
19.002644	2	cue_nonsocial_low	n/a	16	-7	n/a	n/a	n/a
25.885693	2	cue_social	n/a	16	-7	n/a	n/a	n/a
25.885693	2	cue_social_low	n/a	16	-10	n/a	n/a	n/a
32.732500	2	cue_social	n/a	16	-7	n/a	n/a	n/a
32.732500	2	cue_social_low	n/a	16	-10	n/a	n/a	n/a
41.919020	2	cue_nonsocial	n/a	32	6	n/a	n/a	n/a
41.919020	2	cue_nonsocial_high	n/a	32	9	n/a	n/a	n/a
49.569190	2	cue_nonsocial	n/a	32	6	n/a	n/a	n/a
49.569190	2	cue_nonsocial_high	n/a	32	9	n/a	n/a	n/a
56.402470	2	cue_nonsocial	n/a	16	-10	n/a	n/a	n/a
56.402470	2	cue_nonsocial_low	n/a	16	-7	n/a	n/a	n/a
65.717380	2	cue_social	n/a	16	-7	n/a	n/a	n/a
65.717380	2	cue_social_low	n/a	16	-10	n/a	n/a	n/a
73.378740	2	cue_social	n/a	32	9	n/a	n/a	n/a
73.378740	2	cue_social_high	n/a	32	6	n/a	n/a	n/a
82.608670	2	cue_social	n/a	16	-7	n/a	n/a	n/a
82.608670	2	cue_social_low	n/a	16	-10	n/a	n/a	n/a
89.385900	2	cue_nonsocial	n/a	32	6	n/a	n/a	n/a
89.385900	2	cue_nonsocial_high	n/a	32	9	n/a	n/a	n/a
96.219030	2	cue_nonsocial	n/a	32	6	n/a	n/a	n/a
96.219030	2	cue_nonsocial_high	n/a	32	9	n/a	n/a	n/a
105.468800	2	cue_nonsocial	n/a	32	6	n/a	n/a	n/a
105.468800	2	cue_nonsocial_high	n/a	32	9	n/a	n/a	n/a
112.302470	2	cue_nonsocial	n/a	32	6	n/a	n/a	n/a
112.302470	2	cue_nonsocial_high	n/a	32	9	n/a	n/a	n/a
121.622314	2	cue_social	n/a	16	-7	n/a	n/a	n/a
121.622314	2	cue_social_low	n/a	16	-10	n/a	n/a	n/a
128.402340	2	cue_nonsocial	n/a	16	-10	n/a	n/a	n/a
128.402340	2	cue_nonsocial_low	n/a	16	-7	n/a	n/a	n/a
139.331400	2	cue_social	n/a	16	-7	n/a	n/a	n/a
139.331400	2	cue_social_low	n/a	16	-10	n/a	n/a	n/a
146.219860	2	cue_social	n/a	32	9	n/a	n/a	n/a
146.219860	2	cue_social_high	n/a	32	6	n/a	n/a	n/a
152.936260	2	cue_nonsocial	n/a	32	6	n/a	n/a	n/a
152.936260	2	cue_nonsocial_high	n/a	32	9	n/a	n/a	n/a
160.645160	2	cue_social	n/a	16	-7	n/a	n/a	n/a
160.645160	2	cue_social_low	n/a	16	-10	n/a	n/a	n/a
168.235700	2	cue_nonsocial	n/a	16	-10	n/a	n/a	n/a
168.235700	2	cue_nonsocial_low	n/a	16	-7	n/a	n/a	n/a
175.158600	2	cue_social	n/a	32	9	n/a	n/a	n/a
175.158600	2	cue_social_high	n/a	32	6	n/a	n/a	n/a
181.964510	2	cue_social	n/a	32	9	n/a	n/a	n/a
181.964510	2	cue_social_high	n/a	32	6	n/a	n/a	n/a
188.827700	2	cue_social	n/a	32	9	n/a	n/a	n/a
188.827700	2	cue_social_high	n/a	32	6	n/a	n/a	n/a
199.602140	2	cue_nonsocial	n/a	32	6	n/a	n/a	n/a
199.602140	2	cue_nonsocial_high	n/a	32	9	n/a	n/a	n/a
207.312120	2	cue_social	n/a	32	9	n/a	n/a	n/a
207.312120	2	cue_social_high	n/a	32	6	n/a	n/a	n/a
214.901720	2	cue_nonsocial	n/a	32	6	n/a	n/a	n/a
214.901720	2	cue_nonsocial_high	n/a	32	9	n/a	n/a	n/a
221.788900	2	cue_social	n/a	16	-7	n/a	n/a	n/a
221.788900	2	cue_social_low	n/a	16	-10	n/a	n/a	n/a
228.650590	2	cue_social	n/a	16	-7	n/a	n/a	n/a
228.650590	2	cue_social_low	n/a	16	-10	n/a	n/a	n/a
235.402130	2	cue_nonsocial	n/a	16	-10	n/a	n/a	n/a
235.402130	2	cue_nonsocial_low	n/a	16	-7	n/a	n/a	n/a
242.304980	2	cue_social	n/a	32	9	n/a	n/a	n/a
242.304980	2	cue_social_high	n/a	32	6	n/a	n/a	n/a
249.943020	2	cue_social	n/a	32	9	n/a	n/a	n/a
249.943020	2	cue_social_high	n/a	32	6	n/a	n/a	n/a
256.768300	2	cue_social	n/a	32	9	n/a	n/a	n/a
256.768300	2	cue_social_high	n/a	32	6	n/a	n/a	n/a
263.552300	2	cue_nonsocial	n/a	32	6	n/a	n/a	n/a
263.552300	2	cue_nonsocial_high	n/a	32	9	n/a	n/a	n/a
272.857030	2	cue_social	n/a	16	-7	n/a	n/a	n/a
272.857030	2	cue_social_low	n/a	16	-10	n/a	n/a	n/a
279.635400	2	cue_nonsocial	n/a	16	-10	n/a	n/a	n/a
279.635400	2	cue_nonsocial_low	n/a	16	-7	n/a	n/a	n/a
286.527900	2	cue_social	n/a	32	9	n/a	n/a	n/a
286.527900	2	cue_social_high	n/a	32	6	n/a	n/a	n/a
294.183400	2	cue_social	n/a	32	9	n/a	n/a	n/a
294.183400	2	cue_social_high	n/a	32	6	n/a	n/a	n/a
306.602080	2	cue_nonsocial	n/a	16	-10	n/a	n/a	n/a
306.602080	2	cue_nonsocial_low	n/a	16	-7	n/a	n/a	n/a
313.435400	2	cue_nonsocial	n/a	16	-10	n/a	n/a	n/a
313.435400	2	cue_nonsocial_low	n/a	16	-7	n/a	n/a	n/a
320.335330	2	cue_social	n/a	16	-7	n/a	n/a	n/a
320.335330	2	cue_social_low	n/a	16	-10	n/a	n/a	n/a
327.918730	2	cue_nonsocial	n/a	16	-10	n/a	n/a	n/a
327.918730	2	cue_nonsocial_low	n/a	16	-7	n/a	n/a	n/a
334.752000	2	cue_nonsocial	n/a	32	6	n/a	n/a	n/a
334.752000	2	cue_nonsocial_high	n/a	32	9	n/a	n/a	n/a
344.018550	2	cue_nonsocial	n/a	32	6	n/a	n/a	n/a
344.018550	2	cue_nonsocial_high	n/a	32	9	n/a	n/a	n/a
354.885220	2	cue_nonsocial	n/a	32	6	n/a	n/a	n/a
354.885220	2	cue_nonsocial_high	n/a	32	9	n/a	n/a	n/a
362.540740	2	cue_social	n/a	16	-7	n/a	n/a	n/a
362.540740	2	cue_social_low	n/a	16	-10	n/a	n/a	n/a
370.254430	2	cue_social	n/a	16	-7	n/a	n/a	n/a
370.254430	2	cue_social_low	n/a	16	-10	n/a	n/a	n/a
6.526100	1.100199	dec_nonsocial_choice	1.100199	32.000000	n/a	16	2.682292e-01	2.682292e-01
6.526100	1.100199	dec_choice	1.100199	32.000000	n/a	16	2.682292e-01	2.682292e-01
6.526100	1.100199	dec_nonsocial_accept	1.100199	32.000000	n/a	16	1.136364e-01	1.136364e-01
6.526100	1.100199	dec_accept	1.100199	32.000000	n/a	16	1.250000e-01	1.250000e-01
6.526100	1.100199	dec_nonsocial_high	1.100199	32.000000	n/a	16	2.682292e-01	2.682292e-01
6.526100	1.100199	dec_nonsocial_accept_high	1.100199	32.000000	n/a	16	1.250000e-01	1.250000e-01
13.360148	1.215520	dec_nonsocial_choice	1.215520	32.000000	n/a	8	1.822917e-02	1.822917e-02
13.360148	1.215520	dec_choice	1.215520	32.000000	n/a	8	1.822917e-02	1.822917e-02
13.360148	1.215520	dec_nonsocial_accept	1.215520	32.000000	n/a	8	-1.363636e-01	-1.363636e-01
13.360148	1.215520	dec_accept	1.215520	32.000000	n/a	8	-1.250000e-01	-1.250000e-01
13.360148	1.215520	dec_nonsocial_accept_high	1.215520	32.000000	n/a	8	-1.500000e-01	-1.500000e-01
21.009033	0.999954	dec_nonsocial_choice	0.999954	16.000000	n/a	0	0	-2.317708e-01
21.009033	0.999954	dec_choice	0.999954	16.000000	n/a	0	0	-2.317708e-01
21.009033	0.999954	dec_nonsocial_reject	0.999954	16.000000	n/a	0	0	2.403846e-02
21.009033	0.999954	dec_reject	0.999954	16.000000	n/a	0	0	3.645833e-02
21.009033	0.999954	dec_nonsocial_reject_low	0.999954	16.000000	n/a	2	1.339286e-02	-1.116071e-01
27.843044	1.365673	dec_social_choice	1.365673	16.000000	n/a	8	2.682292e-01	2.682292e-01
27.843044	1.365673	dec_choice	1.365673	16.000000	n/a	8	2.682292e-01	2.682292e-01
27.843044	1.365673	dec_social_accept	1.365673	16.000000	n/a	8	1.136364e-01	1.136364e-01
27.843044	1.365673	dec_accept	1.365673	16.000000	n/a	8	1.000000e-01	1.000000e-01
27.843044	1.365673	dec_social_accept_high	1.365673	16.000000	n/a	8	2.682292e-01	2.682292e-01
34.676125	1.283428	dec_social_choice	1.283428	16.000000	n/a	8	2.682292e-01	2.682292e-01
34.676125	1.283428	dec_choice	1.283428	16.000000	n/a	8	2.682292e-01	2.682292e-01
34.676125	1.283428	dec_social_accept	1.283428	16.000000	n/a	8	1.136364e-01	1.136364e-01
34.676125	1.283428	dec_accept	1.283428	16.000000	n/a	8	1.000000e-01	1.000000e-01
34.676125	1.283428	dec_social_high	1.283428	16.000000	n/a	8	2.682292e-01	2.682292e-01
34.676125	1.283428	dec_social_accept_high	1.283428	16.000000	n/a	8	2.682292e-01	2.682292e-01
43.927055	1.282155	dec_nonsocial_choice	1.282155	32.000000	n/a	8	1.822917e-02	1.822917e-02
43.927055	1.282155	dec_choice	1.282155	32.000000	n/a	8	1.822917e-02	1.822917e-02
43.927055	1.282155	dec_nonsocial_accept	1.282155	32.000000	n/a	8	-1.363636e-01	-1.363636e-01
43.927055	1.282155	dec_accept	1.282155	32.000000	n/a	8	-1.250000e-01	-1.250000e-01
43.927055	1.282155	dec_nonsocial_high	1.282155	32.000000	n/a	8	1.822917e-02	1.822917e-02
43.927055	1.282155	dec_nonsocial_accept_high	1.282155	32.000000	n/a	8	-1.250000e-01	-1.250000e-01
51.576065	1.066005	dec_nonsocial_choice	1.066005	32.000000	n/a	16	2.682292e-01	2.682292e-01
51.576065	1.066005	dec_choice	1.066005	32.000000	n/a	16	2.682292e-01	2.682292e-01
51.576065	1.066005	dec_nonsocial_accept	1.066005	32.000000	n/a	16	1.136364e-01	1.136364e-01
51.576065	1.066005	dec_accept	1.066005	32.000000	n/a	16	1.250000e-01	1.250000e-01
51.576065	1.066005	dec_nonsocial_high	1.066005	32.000000	n/a	16	2.682292e-01	2.682292e-01
51.576065	1.066005	dec_nonsocial_accept_high	1.066005	32.000000	n/a	16	1.250000e-01	1.250000e-01
58.410046	0.699162	dec_nonsocial_choice	0.699162	16.000000	n/a	0	0	-2.317708e-01
58.410046	0.699162	dec_choice	0.699162	16.000000	n/a	0	0	-2.317708e-01
58.410046	0.699162	dec_nonsocial_reject	0.699162	16.000000	n/a	0	0	2.403846e-02
58.410046	0.699162	dec_reject	0.699162	16.000000	n/a	0	0	3.645833e-02
58.410046	0.699162	dec_nonsocial_reject_low	0.699162	16.000000	n/a	2	1.339286e-02	-1.116071e-01
67.660090	1.165415	dec_social_choice	1.165415	16.000000	n/a	0	0	-2.317708e-01
67.660090	1.165415	dec_choice	1.165415	16.000000	n/a	0	0	-2.317708e-01
67.660090	1.165415	dec_social_reject	1.165415	16.000000	n/a	0	0	2.403846e-02
67.660090	1.165415	dec_reject	1.165415	16.000000	n/a	0	0	1.339286e-02
67.660090	1.165415	dec_social_reject_low	1.165415	16.000000	n/a	2	-1.067708e-01	-2.317708e-01
75.309070	1.266780	dec_social_choice	1.266780	32.000000	n/a	8	1.822917e-02	1.822917e-02
75.309070	1.266780	dec_choice	1.266780	32.000000	n/a	8	1.822917e-02	1.822917e-02
75.309070	1.266780	dec_social_accept	1.266780	32.000000	n/a	8	-1.363636e-01	-1.363636e-01
75.309070	1.266780	dec_accept	1.266780	32.000000	n/a	8	-1.500000e-01	-1.500000e-01
75.309070	1.266780	dec_social_accept_high	1.266780	32.000000	n/a	8	1.822917e-02	1.822917e-02
84.559800	1.365517	dec_social_choice	1.365517	16.000000	n/a	0	0	-2.317708e-01
84.559800	1.365517	dec_choice	1.365517	16.000000	n/a	0	0	-2.317708e-01
84.559800	1.365517	dec_social_reject	1.365517	16.000000	n/a	0	0	2.403846e-02
84.559800	1.365517	dec_reject	1.365517	16.000000	n/a	0	0	1.339286e-02
84.559800	1.365517	dec_social_low	1.365517	16.000000	n/a	0	-2.317708e-01	-2.317708e-01
84.559800	1.365517	dec_social_reject_low	1.365517	16.000000	n/a	2	-1.067708e-01	-2.317708e-01
91.393100	0.915711	dec_nonsocial_choice	0.915711	32.000000	n/a	8	1.822917e-02	1.822917e-02
91.393100	0.915711	dec_choice	0.915711	32.000000	n/a	8	1.822917e-02	1.822917e-02
91.393100	0.915711	dec_nonsocial_accept	0.915711	32.000000	n/a	8	-1.363636e-01	-1.363636e-01
91.393100	0.915711	dec_accept	0.915711	32.000000	n/a	8	-1.250000e-01	-1.250000e-01
91.393100	0.915711	dec_nonsocial_accept_high	0.915711	32.000000	n/a	8	-1.500000e-01	-1.500000e-01
98.226070	0.849803	dec_nonsocial_choice	0.849803	32.000000	n/a	0	0	-2.317708e-01
98.226070	0.849803	dec_choice	0.849803	32.000000	n/a	0	0	-2.317708e-01
98.226070	0.849803	dec_nonsocial_reject	0.849803	32.000000	n/a	0	0	-7.211538e-03
98.226070	0.849803	dec_reject	0.849803	32.000000	n/a	0	0	5.208333e-03
98.226070	0.849803	dec_nonsocial_reject_low	0.849803	32.000000	n/a	3	-1.785714e-02	-1.116071e-01
107.476090	1.249823	dec_nonsocial_choice	1.249823	32.000000	n/a	8	1.822917e-02	1.822917e-02
107.476090	1.249823	dec_choice	1.249823	32.000000	n/a	8	1.822917e-02	1.822917e-02
107.476090	1.249823	dec_nonsocial_accept	1.249823	32.000000	n/a	8	-1.363636e-01	-1.363636e-01
107.476090	1.249823	dec_accept	1.249823	32.000000	n/a	8	-1.250000e-01	-1.250000e-01
107.476090	1.249823	dec_nonsocial_accept_high	1.249823	32.000000	n/a	8	-1.500000e-01	-1.500000e-01
114.309130	1.183530	dec_nonsocial_choice	1.183530	32.000000	n/a	0	0	-2.317708e-01
114.309130	1.183530	dec_choice	1.183530	32.000000	n/a	0	0	-2.317708e-01
114.309130	1.183530	dec_nonsocial_reject	1.183530	32.000000	n/a	0	0	-3.846154e-02
114.309130	1.183530	dec_reject	1.183530	32.000000	n/a	0	0	-2.604167e-02
114.309130	1.183530	dec_nonsocial_low	1.183530	32.000000	n/a	0	-2.317708e-01	-2.317708e-01
114.309130	1.183530	dec_nonsocial_reject_low	1.183530	32.000000	n/a	2	-2.604167e-02	-8.854167e-02
123.577030	1.382167	dec_social_choice	1.382167	16.000000	n/a	8	2.682292e-01	2.682292e-01
123.577030	1.382167	dec_choice	1.382167	16.000000	n/a	8	2.682292e-01	2.682292e-01
123.577030	1.382167	dec_social_accept	1.382167	16.000000	n/a	8	1.136364e-01	1.136364e-01
123.577030	1.382167	dec_accept	1.382167	16.000000	n/a	8	1.000000e-01	1.000000e-01
123.577030	1.382167	dec_social_accept_high	1.382167	16.000000	n/a	8	2.682292e-01	2.682292e-01
130.409130	0.900155	dec_nonsocial_choice	0.900155	16.000000	n/a	8	2.682292e-01	2.682292e-01
130.409130	0.900155	dec_choice	0.900155	16.000000	n/a	8	2.682292e-01	2.682292e-01
130.409130	0.900155	dec_nonsocial_accept	0.900155	16.000000	n/a	8	1.136364e-01	1.136364e-01
130.409130	0.900155	dec_accept	0.900155	16.000000	n/a	8	1.250000e-01	1.250000e-01
130.409130	0.900155	dec_nonsocial_accept_high	0.900155	16.000000	n/a	8	1.000000e-01	1.000000e-01
141.275300	0.816564	dec_social_choice	0.816564	16.000000	n/a	0	0	-2.317708e-01
141.275300	0.816564	dec_choice	0.816564	16.000000	n/a	0	0	-2.317708e-01
141.275300	0.816564	dec_social_reject	0.816564	16.000000	n/a	0	0	2.403846e-02
141.275300	0.816564	dec_reject	0.816564	16.000000	n/a	0	0	1.339286e-02
141.275300	0.816564	dec_social_reject_low	0.816564	16.000000	n/a	2	-1.067708e-01	-2.317708e-01
148.109050	1.415918	dec_social_choice	1.415918	32.000000	n/a	8	1.822917e-02	1.822917e-02
148.109050	1.415918	dec_choice	1.415918	32.000000	n/a	8	1.822917e-02	1.822917e-02
148.109050	1.415918	dec_social_accept	1.415918	32.000000	n/a	8	-1.363636e-01	-1.363636e-01
148.109050	1.415918	dec_accept	1.415918	32.000000	n/a	8	-1.500000e-01	-1.500000e-01
148.109050	1.415918	dec_social_high	1.415918	32.000000	n/a	8	1.822917e-02	1.822917e-02
148.109050	1.415918	dec_social_accept_high	1.415918	32.000000	n/a	8	1.822917e-02	1.822917e-02
154.942230	1.400377	dec_nonsocial_choice	1.400377	32.000000	n/a	8	1.822917e-02	1.822917e-02
154.942230	1.400377	dec_choice	1.400377	32.000000	n/a	8	1.822917e-02	1.822917e-02
154.942230	1.400377	dec_nonsocial_accept	1.400377	32.000000	n/a	8	-1.363636e-01	-1.363636e-01
154.942230	1.400377	dec_accept	1.400377	32.000000	n/a	8	-1.250000e-01	-1.250000e-01
154.942230	1.400377	dec_nonsocial_accept_high	1.400377	32.000000	n/a	8	-1.500000e-01	-1.500000e-01
162.593110	1.432767	dec_social_choice	1.432767	16.000000	n/a	0	0	-2.317708e-01
162.593110	1.432767	dec_choice	1.432767	16.000000	n/a	0	0	-2.317708e-01
162.593110	1.432767	dec_social_reject	1.432767	16.000000	n/a	0	0	-3.846154e-02
162.593110	1.432767	dec_reject	1.432767	16.000000	n/a	0	0	-4.910714e-02
162.593110	1.432767	dec_social_reject_low	1.432767	16.000000	n/a	1	-1.692708e-01	-2.317708e-01
170.242070	0.866703	dec_nonsocial_choice	0.866703	16.000000	n/a	0	0	-2.317708e-01
170.242070	0.866703	dec_choice	0.866703	16.000000	n/a	0	0	-2.317708e-01
170.242070	0.866703	dec_nonsocial_reject	0.866703	16.000000	n/a	0	0	2.403846e-02
170.242070	0.866703	dec_reject	0.866703	16.000000	n/a	0	0	3.645833e-02
170.242070	0.866703	dec_nonsocial_reject_low	0.866703	16.000000	n/a	2	1.339286e-02	-1.116071e-01
177.075090	0.984116	dec_social_choice	0.984116	32.000000	n/a	0	0	-2.317708e-01
177.075090	0.984116	dec_choice	0.984116	32.000000	n/a	0	0	-2.317708e-01
177.075090	0.984116	dec_social_reject	0.984116	32.000000	n/a	0	0	-3.846154e-02
177.075090	0.984116	dec_reject	0.984116	32.000000	n/a	0	0	-4.910714e-02
177.075090	0.984116	dec_social_low	0.984116	32.000000	n/a	0	-2.317708e-01	-2.317708e-01
177.075090	0.984116	dec_social_reject_low	0.984116	32.000000	n/a	2	-1.692708e-01	-2.317708e-01
183.909070	0.949938	dec_social_choice	0.949938	32.000000	n/a	0	0	-2.317708e-01
183.909070	0.949938	dec_choice	0.949938	32.000000	n/a	0	0	-2.317708e-01
183.909070	0.949938	dec_social_reject	0.949938	32.000000	n/a	0	0	-3.846154e-02
183.909070	0.949938	dec_reject	0.949938	32.000000	n/a	0	0	-4.910714e-02
183.909070	0.949938	dec_social_low	0.949938	32.000000	n/a	0	-2.317708e-01	-2.317708e-01
183.909070	0.949938	dec_social_reject_low	0.949938	32.000000	n/a	2	-1.692708e-01	-2.317708e-01
190.743040	1.333087	dec_social_choice	1.333087	32.000000	n/a	16	2.682292e-01	2.682292e-01
190.743040	1.333087	dec_choice	1.333087	32.000000	n/a	16	2.682292e-01	2.682292e-01
190.743040	1.333087	dec_social_accept	1.333087	32.000000	n/a	16	1.136364e-01	1.136364e-01
190.743040	1.333087	dec_accept	1.333087	32.000000	n/a	16	1.000000e-01	1.000000e-01
190.743040	1.333087	dec_social_high	1.333087	32.000000	n/a	16	2.682292e-01	2.682292e-01
190.743040	1.333087	dec_social_accept_high	1.333087	32.000000	n/a	16	2.682292e-01	2.682292e-01
201.610060	1.015055	dec_nonsocial_choice	1.015055	32.000000	n/a	16	2.682292e-01	2.682292e-01
201.610060	1.015055	dec_choice	1.015055	32.000000	n/a	16	2.682292e-01	2.682292e-01
201.610060	1.015055	dec_nonsocial_accept	1.015055	32.000000	n/a	16	1.136364e-01	1.136364e-01
201.610060	1.015055	dec_accept	1.015055	32.000000	n/a	16	1.250000e-01	1.250000e-01
201.610060	1.015055	dec_nonsocial_high	1.015055	32.000000	n/a	16	2.682292e-01	2.682292e-01
201.610060	1.015055	dec_nonsocial_accept_high	1.015055	32.000000	n/a	16	1.250000e-01	1.250000e-01
209.259080	1.150045	dec_social_choice	1.150045	32.000000	n/a	0	0	-2.317708e-01
209.259080	1.150045	dec_choice	1.150045	32.000000	n/a	0	0	-2.317708e-01
209.259080	1.150045	dec_social_reject	1.150045	32.000000	n/a	0	0	-7.211538e-03
209.259080	1.150045	dec_reject	1.150045	32.000000	n/a	0	0	-1.785714e-02
209.259080	1.150045	dec_social_reject_low	1.150045	32.000000	n/a	3	-1.380208e-01	-2.317708e-01
216.909070	0.932812	dec_nonsocial_choice	0.932812	32.000000	n/a	0	0	-2.317708e-01
216.909070	0.932812	dec_choice	0.932812	32.000000	n/a	0	0	-2.317708e-01
216.909070	0.932812	dec_nonsocial_reject	0.932812	32.000000	n/a	0	0	-3.846154e-02
216.909070	0.932812	dec_reject	0.932812	32.000000	n/a	0	0	-2.604167e-02
216.909070	0.932812	dec_nonsocial_reject_low	0.932812	32.000000	n/a	2	-4.910714e-02	-1.116071e-01
223.742070	0.900165	dec_social_choice	0.900165	16.000000	n/a	0	0	-2.317708e-01
223.742070	0.900165	dec_choice	0.900165	16.000000	n/a	0	0	-2.317708e-01
223.742070	0.900165	dec_social_reject	0.900165	16.000000	n/a	0	0	2.403846e-02
223.742070	0.900165	dec_reject	0.900165	16.000000	n/a	0	0	1.339286e-02
223.742070	0.900165	dec_social_low	0.900165	16.000000	n/a	0	-2.317708e-01	-2.317708e-01
223.742070	0.900165	dec_social_reject_low	0.900165	16.000000	n/a	2	-1.067708e-01	-2.317708e-01
230.575780	1.016350	dec_social_choice	1.016350	16.000000	n/a	8	2.682292e-01	2.682292e-01
230.575780	1.016350	dec_choice	1.016350	16.000000	n/a	8	2.682292e-01	2.682292e-01
230.575780	1.016350	dec_social_accept	1.016350	16.000000	n/a	8	1.136364e-01	1.136364e-01
230.575780	1.016350	dec_accept	1.016350	16.000000	n/a	8	1.000000e-01	1.000000e-01
230.575780	1.016350	dec_social_high	1.016350	16.000000	n/a	8	2.682292e-01	2.682292e-01
230.575780	1.016350	dec_social_accept_high	1.016350	16.000000	n/a	8	2.682292e-01	2.682292e-01
237.409070	1.883156	dec_nonsocial_choice	1.883156	16.000000	n/a	4	1.822917e-02	1.822917e-02
237.409070	1.883156	dec_choice	1.883156	16.000000	n/a	4	1.822917e-02	1.822917e-02
237.409070	1.883156	dec_nonsocial_accept	1.883156	16.000000	n/a	4	-1.363636e-01	-1.363636e-01
237.409070	1.883156	dec_accept	1.883156	16.000000	n/a	4	-1.250000e-01	-1.250000e-01
237.409070	1.883156	dec_nonsocial_accept_high	1.883156	16.000000	n/a	4	-1.500000e-01	-1.500000e-01
244.243070	0.849081	dec_social_choice	0.849081	32.000000	n/a	8	1.822917e-02	1.822917e-02
244.243070	0.849081	dec_choice	0.849081	32.000000	n/a	8	1.822917e-02	1.822917e-02
244.243070	0.849081	dec_social_accept	0.849081	32.000000	n/a	8	-1.363636e-01	-1.363636e-01
244.243070	0.849081	dec_accept	0.849081	32.000000	n/a	8	-1.500000e-01	-1.500000e-01
244.243070	0.849081	dec_social_accept_high	0.849081	32.000000	n/a	8	1.822917e-02	1.822917e-02
251.892100	2.266443	dec_social_choice	2.266443	32.000000	n/a	0	0	-2.317708e-01
251.892100	2.266443	dec_choice	2.266443	32.000000	n/a	0	0	-2.317708e-01
251.892100	2.266443	dec_social_reject	2.266443	32.000000	n/a	0	0	-3.846154e-02
251.892100	2.266443	dec_reject	2.266443	32.000000	n/a	0	0	-4.910714e-02
251.892100	2.266443	dec_social_reject_low	2.266443	32.000000	n/a	2	-1.692708e-01	-2.317708e-01
258.726070	2.082907	dec_social_choice	2.082907	32.000000	n/a	8	1.822917e-02	1.822917e-02
258.726070	2.082907	dec_choice	2.082907	32.000000	n/a	8	1.822917e-02	1.822917e-02
258.726070	2.082907	dec_social_accept	2.082907	32.000000	n/a	8	-1.363636e-01	-1.363636e-01
258.726070	2.082907	dec_accept	2.082907	32.000000	n/a	8	-1.500000e-01	-1.500000e-01
258.726070	2.082907	dec_social_accept_high	2.082907	32.000000	n/a	8	1.822917e-02	1.822917e-02
265.559100	1.050246	dec_nonsocial_choice	1.050246	32.000000	n/a	0	0	-2.317708e-01
265.559100	1.050246	dec_choice	1.050246	32.000000	n/a	0	0	-2.317708e-01
265.559100	1.050246	dec_nonsocial_reject	1.050246	32.000000	n/a	0	0	-3.846154e-02
265.559100	1.050246	dec_reject	1.050246	32.000000	n/a	0	0	-2.604167e-02
265.559100	1.050246	dec_nonsocial_reject_low	1.050246	32.000000	n/a	2	-4.910714e-02	-1.116071e-01
274.809020	1.466074	dec_social_choice	1.466074	16.000000	n/a	0	0	-2.317708e-01
274.809020	1.466074	dec_choice	1.466074	16.000000	n/a	0	0	-2.317708e-01
274.809020	1.466074	dec_social_reject	1.466074	16.000000	n/a	0	0	1.490385e-01
274.809020	1.466074	dec_reject	1.466074	16.000000	n/a	0	0	1.383929e-01
274.809020	1.466074	dec_social_reject_low	1.466074	16.000000	n/a	4	1.822917e-02	-2.317708e-01
281.642060	1.066372	dec_nonsocial_choice	1.066372	16.000000	n/a	8	2.682292e-01	2.682292e-01
281.642060	1.066372	dec_choice	1.066372	16.000000	n/a	8	2.682292e-01	2.682292e-01
281.642060	1.066372	dec_nonsocial_accept	1.066372	16.000000	n/a	8	1.136364e-01	1.136364e-01
281.642060	1.066372	dec_accept	1.066372	16.000000	n/a	8	1.250000e-01	1.250000e-01
281.642060	1.066372	dec_nonsocial_high	1.066372	16.000000	n/a	8	2.682292e-01	2.682292e-01
281.642060	1.066372	dec_nonsocial_accept_high	1.066372	16.000000	n/a	8	1.250000e-01	1.250000e-01
288.476230	1.165309	dec_social_choice	1.165309	32.000000	n/a	0	0	-2.317708e-01
288.476230	1.165309	dec_choice	1.165309	32.000000	n/a	0	0	-2.317708e-01
288.476230	1.165309	dec_social_reject	1.165309	32.000000	n/a	0	0	-3.846154e-02
288.476230	1.165309	dec_reject	1.165309	32.000000	n/a	0	0	-4.910714e-02
288.476230	1.165309	dec_social_low	1.165309	32.000000	n/a	0	-2.317708e-01	-2.317708e-01
288.476230	1.165309	dec_social_reject_low	1.165309	32.000000	n/a	2	-1.692708e-01	-2.317708e-01
296.125060	1.216445	dec_social_choice	1.216445	32.000000	n/a	0	0	-2.317708e-01
296.125060	1.216445	dec_choice	1.216445	32.000000	n/a	0	0	-2.317708e-01
296.125060	1.216445	dec_social_reject	1.216445	32.000000	n/a	0	0	-7.211538e-03
296.125060	1.216445	dec_reject	1.216445	32.000000	n/a	0	0	-1.785714e-02
296.125060	1.216445	dec_social_low	1.216445	32.000000	n/a	0	-2.317708e-01	-2.317708e-01
296.125060	1.216445	dec_social_reject_low	1.216445	32.000000	n/a	3	-1.380208e-01	-2.317708e-01
308.609070	0.833187	dec_nonsocial_choice	0.833187	16.000000	n/a	8	2.682292e-01	2.682292e-01
308.609070	0.833187	dec_choice	0.833187	16.000000	n/a	8	2.682292e-01	2.682292e-01
308.609070	0.833187	dec_nonsocial_accept	0.833187	16.000000	n/a	8	1.136364e-01	1.136364e-01
308.609070	0.833187	dec_accept	0.833187	16.000000	n/a	8	1.250000e-01	1.250000e-01
308.609070	0.833187	dec_nonsocial_high	0.833187	16.000000	n/a	8	2.682292e-01	2.682292e-01
308.609070	0.833187	dec_nonsocial_accept_high	0.833187	16.000000	n/a	8	1.250000e-01	1.250000e-01
315.442140	0.882912	dec_nonsocial_choice	0.882912	16.000000	n/a	0	0	-2.317708e-01
315.442140	0.882912	dec_choice	0.882912	16.000000	n/a	0	0	-2.317708e-01
315.442140	0.882912	dec_nonsocial_reject	0.882912	16.000000	n/a	0	0	2.403846e-02
315.442140	0.882912	dec_reject	0.882912	16.000000	n/a	0	0	3.645833e-02
315.442140	0.882912	dec_nonsocial_reject_low	0.882912	16.000000	n/a	2	1.339286e-02	-1.116071e-01
322.276120	1.265597	dec_social_choice	1.265597	16.000000	n/a	8	2.682292e-01	2.682292e-01
322.276120	1.265597	dec_choice	1.265597	16.000000	n/a	8	2.682292e-01	2.682292e-01
322.276120	1.265597	dec_social_accept	1.265597	16.000000	n/a	8	1.136364e-01	1.136364e-01
322.276120	1.265597	dec_accept	1.265597	16.000000	n/a	8	1.000000e-01	1.000000e-01
322.276120	1.265597	dec_social_high	1.265597	16.000000	n/a	8	2.682292e-01	2.682292e-01
322.276120	1.265597	dec_social_accept_high	1.265597	16.000000	n/a	8	2.682292e-01	2.682292e-01
329.926120	1.265201	dec_nonsocial_choice	1.265201	16.000000	n/a	0	0	-2.317708e-01
329.926120	1.265201	dec_choice	1.265201	16.000000	n/a	0	0	-2.317708e-01
329.926120	1.265201	dec_nonsocial_reject	1.265201	16.000000	n/a	0	0	-3.846154e-02
329.926120	1.265201	dec_reject	1.265201	16.000000	n/a	0	0	-2.604167e-02
329.926120	1.265201	dec_nonsocial_low	1.265201	16.000000	n/a	0	-2.317708e-01	-2.317708e-01
329.926120	1.265201	dec_nonsocial_reject_low	1.265201	16.000000	n/a	1	-2.604167e-02	-8.854167e-02
336.758180	1.033977	dec_nonsocial_choice	1.033977	32.000000	n/a	0	0	-2.317708e-01
336.758180	1.033977	dec_choice	1.033977	32.000000	n/a	0	0	-2.317708e-01
336.758180	1.033977	dec_nonsocial_reject	1.033977	32.000000	n/a	0	0	-3.846154e-02
336.758180	1.033977	dec_reject	1.033977	32.000000	n/a	0	0	-2.604167e-02
336.758180	1.033977	dec_nonsocial_low	1.033977	32.000000	n/a	0	-2.317708e-01	-2.317708e-01
336.758180	1.033977	dec_nonsocial_reject_low	1.033977	32.000000	n/a	2	-2.604167e-02	-8.854167e-02
346.025120	0.933590	dec_nonsocial_choice	0.933590	32.000000	n/a	0	0	-2.317708e-01
346.025120	0.933590	dec_choice	0.933590	32.000000	n/a	0	0	-2.317708e-01
346.025120	0.933590	dec_nonsocial_reject	0.933590	32.000000	n/a	0	0	-7.211538e-03
346.025120	0.933590	dec_reject	0.933590	32.000000	n/a	0	0	5.208333e-03
346.025120	0.933590	dec_nonsocial_low	0.933590	32.000000	n/a	0	-2.317708e-01	-2.317708e-01
346.025120	0.933590	dec_nonsocial_reject_low	0.933590	32.000000	n/a	3	5.208333e-03	-8.854167e-02
356.892120	0.883074	dec_nonsocial_choice	0.883074	32.000000	n/a	0	0	-2.317708e-01
356.892120	0.883074	dec_choice	0.883074	32.000000	n/a	0	0	-2.317708e-01
356.892120	0.883074	dec_nonsocial_reject	0.883074	32.000000	n/a	0	0	-3.846154e-02
356.892120	0.883074	dec_reject	0.883074	32.000000	n/a	0	0	-2.604167e-02
356.892120	0.883074	dec_nonsocial_low	0.883074	32.000000	n/a	0	-2.317708e-01	-2.317708e-01
356.892120	0.883074	dec_nonsocial_reject_low	0.883074	32.000000	n/a	2	-2.604167e-02	-8.854167e-02
364.542660	1.965362	dec_social_choice	1.965362	16.000000	n/a	0	0	-2.317708e-01
364.542660	1.965362	dec_choice	1.965362	16.000000	n/a	0	0	-2.317708e-01
364.542660	1.965362	dec_social_reject	1.965362	16.000000	n/a	0	0	1.490385e-01
364.542660	1.965362	dec_reject	1.965362	16.000000	n/a	0	0	1.383929e-01
364.542660	1.965362	dec_social_reject_low	1.965362	16.000000	n/a	4	1.822917e-02	-2.317708e-01
372.192100	1.049951	dec_social_choice	1.049951	16.000000	n/a	0	0	-2.317708e-01
372.192100	1.049951	dec_choice	1.049951	16.000000	n/a	0	0	-2.317708e-01
372.192100	1.049951	dec_social_reject	1.049951	16.000000	n/a	0	0	-3.846154e-02
372.192100	1.049951	dec_reject	1.049951	16.000000	n/a	0	0	-4.910714e-02
372.192100	1.049951	dec_social_low	1.049951	16.000000	n/a	0	-2.317708e-01	-2.317708e-01
372.192100	1.049951	dec_social_reject_low	1.049951	16.000000	n/a	1	-1.692708e-01	-2.317708e-01
