onset	duration	trial_type	response_time	Endowment	Endowment_pmod	Decision	Decision_pmod	Offer_pmod
4.584797	2	cue_social	n/a	32	8	n/a	n/a	n/a
4.584797	2	cue_social_high	n/a	32	7	n/a	n/a	n/a
13.803336	2	cue_social	n/a	32	8	n/a	n/a	n/a
13.803336	2	cue_social_high	n/a	32	7	n/a	n/a	n/a
20.607030	2	cue_nonsocial	n/a	16	-9	n/a	n/a	n/a
20.607030	2	cue_nonsocial_low	n/a	16	-8	n/a	n/a	n/a
27.563267	2	cue_social	n/a	16	-8	n/a	n/a	n/a
27.563267	2	cue_social_low	n/a	16	-9	n/a	n/a	n/a
34.366142	2	cue_social	n/a	32	8	n/a	n/a	n/a
34.366142	2	cue_social_high	n/a	32	7	n/a	n/a	n/a
41.923750	2	cue_nonsocial	n/a	32	7	n/a	n/a	n/a
41.923750	2	cue_nonsocial_high	n/a	32	8	n/a	n/a	n/a
52.897045	2	cue_social	n/a	32	8	n/a	n/a	n/a
52.897045	2	cue_social_high	n/a	32	7	n/a	n/a	n/a
59.623646	2	cue_nonsocial	n/a	16	-9	n/a	n/a	n/a
59.623646	2	cue_nonsocial_low	n/a	16	-8	n/a	n/a	n/a
68.890310	2	cue_nonsocial	n/a	32	7	n/a	n/a	n/a
68.890310	2	cue_nonsocial_high	n/a	32	8	n/a	n/a	n/a
75.807915	2	cue_social	n/a	32	8	n/a	n/a	n/a
75.807915	2	cue_social_high	n/a	32	7	n/a	n/a	n/a
84.990190	2	cue_nonsocial	n/a	16	-9	n/a	n/a	n/a
84.990190	2	cue_nonsocial_low	n/a	16	-8	n/a	n/a	n/a
91.823784	2	cue_nonsocial	n/a	16	-9	n/a	n/a	n/a
91.823784	2	cue_nonsocial_low	n/a	16	-8	n/a	n/a	n/a
98.741730	2	cue_social	n/a	32	8	n/a	n/a	n/a
98.741730	2	cue_social_high	n/a	32	7	n/a	n/a	n/a
107.906900	2	cue_nonsocial	n/a	32	7	n/a	n/a	n/a
107.906900	2	cue_nonsocial_high	n/a	32	8	n/a	n/a	n/a
115.556880	2	cue_nonsocial	n/a	32	7	n/a	n/a	n/a
115.556880	2	cue_nonsocial_high	n/a	32	8	n/a	n/a	n/a
122.455880	2	cue_social	n/a	32	8	n/a	n/a	n/a
122.455880	2	cue_social_high	n/a	32	7	n/a	n/a	n/a
130.090470	2	cue_social	n/a	16	-8	n/a	n/a	n/a
130.090470	2	cue_social_low	n/a	16	-9	n/a	n/a	n/a
137.753940	2	cue_social	n/a	32	8	n/a	n/a	n/a
137.753940	2	cue_social_high	n/a	32	7	n/a	n/a	n/a
144.523470	2	cue_nonsocial	n/a	32	7	n/a	n/a	n/a
144.523470	2	cue_nonsocial_high	n/a	32	8	n/a	n/a	n/a
151.356830	2	cue_nonsocial	n/a	32	7	n/a	n/a	n/a
151.356830	2	cue_nonsocial_high	n/a	32	8	n/a	n/a	n/a
158.189910	2	cue_nonsocial	n/a	32	7	n/a	n/a	n/a
158.189910	2	cue_nonsocial_high	n/a	32	8	n/a	n/a	n/a
169.122090	2	cue_social	n/a	16	-8	n/a	n/a	n/a
169.122090	2	cue_social_low	n/a	16	-9	n/a	n/a	n/a
176.772110	2	cue_social	n/a	16	-8	n/a	n/a	n/a
176.772110	2	cue_social_low	n/a	16	-9	n/a	n/a	n/a
183.626650	2	cue_social	n/a	32	8	n/a	n/a	n/a
183.626650	2	cue_social_high	n/a	32	7	n/a	n/a	n/a
191.189960	2	cue_nonsocial	n/a	16	-9	n/a	n/a	n/a
191.189960	2	cue_nonsocial_low	n/a	16	-8	n/a	n/a	n/a
198.082820	2	cue_social	n/a	16	-8	n/a	n/a	n/a
198.082820	2	cue_social_low	n/a	16	-9	n/a	n/a	n/a
205.673020	2	cue_nonsocial	n/a	32	7	n/a	n/a	n/a
205.673020	2	cue_nonsocial_high	n/a	32	8	n/a	n/a	n/a
212.559200	2	cue_social	n/a	16	-8	n/a	n/a	n/a
212.559200	2	cue_social_low	n/a	16	-9	n/a	n/a	n/a
219.339940	2	cue_nonsocial	n/a	16	-9	n/a	n/a	n/a
219.339940	2	cue_nonsocial_low	n/a	16	-8	n/a	n/a	n/a
231.823210	2	cue_nonsocial	n/a	16	-9	n/a	n/a	n/a
231.823210	2	cue_nonsocial_low	n/a	16	-8	n/a	n/a	n/a
241.090070	2	cue_nonsocial	n/a	32	7	n/a	n/a	n/a
241.090070	2	cue_nonsocial_high	n/a	32	8	n/a	n/a	n/a
248.740000	2	cue_nonsocial	n/a	16	-9	n/a	n/a	n/a
248.740000	2	cue_nonsocial_low	n/a	16	-8	n/a	n/a	n/a
255.573180	2	cue_nonsocial	n/a	32	7	n/a	n/a	n/a
255.573180	2	cue_nonsocial_high	n/a	32	8	n/a	n/a	n/a
262.406800	2	cue_nonsocial	n/a	32	7	n/a	n/a	n/a
262.406800	2	cue_nonsocial_high	n/a	32	8	n/a	n/a	n/a
270.099850	2	cue_social	n/a	32	8	n/a	n/a	n/a
270.099850	2	cue_social_high	n/a	32	7	n/a	n/a	n/a
276.889920	2	cue_nonsocial	n/a	16	-9	n/a	n/a	n/a
276.889920	2	cue_nonsocial_low	n/a	16	-8	n/a	n/a	n/a
283.776550	2	cue_social	n/a	16	-8	n/a	n/a	n/a
283.776550	2	cue_social_low	n/a	16	-9	n/a	n/a	n/a
293.038500	2	cue_social	n/a	16	-8	n/a	n/a	n/a
293.038500	2	cue_social_low	n/a	16	-9	n/a	n/a	n/a
299.806550	2	cue_nonsocial	n/a	16	-9	n/a	n/a	n/a
299.806550	2	cue_nonsocial_low	n/a	16	-8	n/a	n/a	n/a
310.770870	2	cue_social	n/a	16	-8	n/a	n/a	n/a
310.770870	2	cue_social_low	n/a	16	-9	n/a	n/a	n/a
317.505900	2	cue_nonsocial	n/a	32	7	n/a	n/a	n/a
317.505900	2	cue_nonsocial_high	n/a	32	8	n/a	n/a	n/a
326.820070	2	cue_social	n/a	32	8	n/a	n/a	n/a
326.820070	2	cue_social_high	n/a	32	7	n/a	n/a	n/a
334.422970	2	cue_nonsocial	n/a	32	7	n/a	n/a	n/a
334.422970	2	cue_nonsocial_high	n/a	32	8	n/a	n/a	n/a
342.108220	2	cue_social	n/a	32	8	n/a	n/a	n/a
342.108220	2	cue_social_high	n/a	32	7	n/a	n/a	n/a
349.000150	2	cue_social	n/a	16	-8	n/a	n/a	n/a
349.000150	2	cue_social_low	n/a	16	-9	n/a	n/a	n/a
355.739320	2	cue_nonsocial	n/a	32	7	n/a	n/a	n/a
355.739320	2	cue_nonsocial_high	n/a	32	8	n/a	n/a	n/a
363.443080	2	cue_social	n/a	16	-8	n/a	n/a	n/a
363.443080	2	cue_social_low	n/a	16	-9	n/a	n/a	n/a
370.293330	2	cue_social	n/a	16	-8	n/a	n/a	n/a
370.293330	2	cue_social_low	n/a	16	-9	n/a	n/a	n/a
6.513544	1.733178	dec_social_choice	1.733178	32.000000	n/a	16	2.682292e-01	2.682292e-01
6.513544	1.733178	dec_choice	1.733178	32.000000	n/a	16	2.682292e-01	2.682292e-01
6.513544	1.733178	dec_social_accept	1.733178	32.000000	n/a	16	8.272059e-02	8.272059e-02
6.513544	1.733178	dec_accept	1.733178	32.000000	n/a	16	1.006944e-01	1.006944e-01
6.513544	1.733178	dec_social_high	1.733178	32.000000	n/a	16	2.682292e-01	2.682292e-01
6.513544	1.733178	dec_social_accept_high	1.733178	32.000000	n/a	16	2.682292e-01	2.682292e-01
15.780104	1.100129	dec_social_choice	1.100129	32.000000	n/a	0	0	-2.317708e-01
15.780104	1.100129	dec_choice	1.100129	32.000000	n/a	0	0	-2.317708e-01
15.780104	1.100129	dec_social_reject	1.100129	32.000000	n/a	0	0	-3.629032e-02
15.780104	1.100129	dec_reject	1.100129	32.000000	n/a	0	0	-3.750000e-02
15.780104	1.100129	dec_social_reject_low	1.100129	32.000000	n/a	3	-1.380208e-01	-2.317708e-01
22.613104	1.183870	dec_nonsocial_choice	1.183870	16.000000	n/a	8	2.682292e-01	2.682292e-01
22.613104	1.183870	dec_choice	1.183870	16.000000	n/a	8	2.682292e-01	2.682292e-01
22.613104	1.183870	dec_nonsocial_accept	1.183870	16.000000	n/a	8	8.272059e-02	8.272059e-02
22.613104	1.183870	dec_accept	1.183870	16.000000	n/a	8	6.250000e-02	6.250000e-02
22.613104	1.183870	dec_nonsocial_high	1.183870	16.000000	n/a	8	2.682292e-01	2.682292e-01
22.613104	1.183870	dec_nonsocial_accept_high	1.183870	16.000000	n/a	8	6.250000e-02	6.250000e-02
29.447039	0.782786	dec_social_choice	0.782786	16.000000	n/a	0	0	-2.317708e-01
29.447039	0.782786	dec_choice	0.782786	16.000000	n/a	0	0	-2.317708e-01
29.447039	0.782786	dec_social_reject	0.782786	16.000000	n/a	0	0	-5.040323e-03
29.447039	0.782786	dec_reject	0.782786	16.000000	n/a	0	0	-6.250000e-03
29.447039	0.782786	dec_social_reject_low	0.782786	16.000000	n/a	2	-1.067708e-01	-2.317708e-01
36.280190	0.983729	dec_social_choice	0.983729	32.000000	n/a	16	2.682292e-01	2.682292e-01
36.280190	0.983729	dec_choice	0.983729	32.000000	n/a	16	2.682292e-01	2.682292e-01
36.280190	0.983729	dec_social_accept	0.983729	32.000000	n/a	16	8.272059e-02	8.272059e-02
36.280190	0.983729	dec_accept	0.983729	32.000000	n/a	16	1.006944e-01	1.006944e-01
36.280190	0.983729	dec_social_high	0.983729	32.000000	n/a	16	2.682292e-01	2.682292e-01
36.280190	0.983729	dec_social_accept_high	0.983729	32.000000	n/a	16	2.682292e-01	2.682292e-01
43.931065	2.532666	dec_nonsocial_choice	2.532666	32.000000	n/a	0	0	-2.317708e-01
43.931065	2.532666	dec_choice	2.532666	32.000000	n/a	0	0	-2.317708e-01
43.931065	2.532666	dec_nonsocial_reject	2.532666	32.000000	n/a	0	0	1.199597e-01
43.931065	2.532666	dec_reject	2.532666	32.000000	n/a	0	0	1.210938e-01
43.931065	2.532666	dec_nonsocial_reject_low	2.532666	32.000000	n/a	8	1.187500e-01	-1.312500e-01
54.797080	0.733178	dec_social_choice	0.733178	32.000000	n/a	16	2.682292e-01	2.682292e-01
54.797080	0.733178	dec_choice	0.733178	32.000000	n/a	16	2.682292e-01	2.682292e-01
54.797080	0.733178	dec_social_accept	0.733178	32.000000	n/a	16	8.272059e-02	8.272059e-02
54.797080	0.733178	dec_accept	0.733178	32.000000	n/a	16	1.006944e-01	1.006944e-01
54.797080	0.733178	dec_social_high	0.733178	32.000000	n/a	16	2.682292e-01	2.682292e-01
54.797080	0.733178	dec_social_accept_high	0.733178	32.000000	n/a	16	2.682292e-01	2.682292e-01
61.630060	1.483217	dec_nonsocial_choice	1.483217	16.000000	n/a	0	0	-2.317708e-01
61.630060	1.483217	dec_choice	1.483217	16.000000	n/a	0	0	-2.317708e-01
61.630060	1.483217	dec_nonsocial_reject	1.483217	16.000000	n/a	0	0	-5.040323e-03
61.630060	1.483217	dec_reject	1.483217	16.000000	n/a	0	0	-3.906250e-03
61.630060	1.483217	dec_nonsocial_reject_low	1.483217	16.000000	n/a	2	-6.250000e-03	-1.312500e-01
70.897100	1.549692	dec_nonsocial_choice	1.549692	32.000000	n/a	0	0	-2.317708e-01
70.897100	1.549692	dec_choice	1.549692	32.000000	n/a	0	0	-2.317708e-01
70.897100	1.549692	dec_nonsocial_reject	1.549692	32.000000	n/a	0	0	-6.754032e-02
70.897100	1.549692	dec_reject	1.549692	32.000000	n/a	0	0	-6.640625e-02
70.897100	1.549692	dec_nonsocial_reject_low	1.549692	32.000000	n/a	2	-6.875000e-02	-1.312500e-01
77.730095	0.883238	dec_social_choice	0.883238	32.000000	n/a	3	-1.380208e-01	-1.380208e-01
77.730095	0.883238	dec_choice	0.883238	32.000000	n/a	3	-1.380208e-01	-1.380208e-01
77.730095	0.883238	dec_social_accept	0.883238	32.000000	n/a	3	-3.235294e-01	-3.235294e-01
77.730095	0.883238	dec_accept	0.883238	32.000000	n/a	3	-3.055556e-01	-3.055556e-01
77.730095	0.883238	dec_social_accept_low	0.883238	32.000000	n/a	3	-1.380208e-01	-1.380208e-01
86.997090	1.233106	dec_nonsocial_choice	1.233106	16.000000	n/a	0	0	-2.317708e-01
86.997090	1.233106	dec_choice	1.233106	16.000000	n/a	0	0	-2.317708e-01
86.997090	1.233106	dec_nonsocial_reject	1.233106	16.000000	n/a	0	0	-5.040323e-03
86.997090	1.233106	dec_reject	1.233106	16.000000	n/a	0	0	-3.906250e-03
86.997090	1.233106	dec_nonsocial_low	1.233106	16.000000	n/a	0	-2.317708e-01	-2.317708e-01
86.997090	1.233106	dec_nonsocial_reject_low	1.233106	16.000000	n/a	2	-3.906250e-03	-1.289062e-01
93.830080	1.483773	dec_nonsocial_choice	1.483773	16.000000	n/a	8	2.682292e-01	2.682292e-01
93.830080	1.483773	dec_choice	1.483773	16.000000	n/a	8	2.682292e-01	2.682292e-01
93.830080	1.483773	dec_nonsocial_accept	1.483773	16.000000	n/a	8	8.272059e-02	8.272059e-02
93.830080	1.483773	dec_accept	1.483773	16.000000	n/a	8	6.250000e-02	6.250000e-02
93.830080	1.483773	dec_nonsocial_accept_high	1.483773	16.000000	n/a	8	1.006944e-01	1.006944e-01
100.663040	0.566952	dec_social_choice	0.566952	32.000000	n/a	0	0	-2.317708e-01
100.663040	0.566952	dec_choice	0.566952	32.000000	n/a	0	0	-2.317708e-01
100.663040	0.566952	dec_social_reject	0.566952	32.000000	n/a	0	0	-6.754032e-02
100.663040	0.566952	dec_reject	0.566952	32.000000	n/a	0	0	-6.875000e-02
100.663040	0.566952	dec_social_low	0.566952	32.000000	n/a	0	-2.317708e-01	-2.317708e-01
100.663040	0.566952	dec_social_reject_low	0.566952	32.000000	n/a	2	-1.692708e-01	-2.317708e-01
109.913150	1.184004	dec_nonsocial_choice	1.184004	32.000000	n/a	0	0	-2.317708e-01
109.913150	1.184004	dec_choice	1.184004	32.000000	n/a	0	0	-2.317708e-01
109.913150	1.184004	dec_nonsocial_reject	1.184004	32.000000	n/a	0	0	-6.754032e-02
109.913150	1.184004	dec_reject	1.184004	32.000000	n/a	0	0	-6.640625e-02
109.913150	1.184004	dec_nonsocial_reject_low	1.184004	32.000000	n/a	2	-6.875000e-02	-1.312500e-01
117.564100	1.683030	dec_nonsocial_choice	1.683030	32.000000	n/a	16	2.682292e-01	2.682292e-01
117.564100	1.683030	dec_choice	1.683030	32.000000	n/a	16	2.682292e-01	2.682292e-01
117.564100	1.683030	dec_nonsocial_accept	1.683030	32.000000	n/a	16	8.272059e-02	8.272059e-02
117.564100	1.683030	dec_accept	1.683030	32.000000	n/a	16	6.250000e-02	6.250000e-02
117.564100	1.683030	dec_nonsocial_high	1.683030	32.000000	n/a	16	2.682292e-01	2.682292e-01
117.564100	1.683030	dec_nonsocial_accept_high	1.683030	32.000000	n/a	16	6.250000e-02	6.250000e-02
124.397170	2.299769	dec_social_choice	2.299769	32.000000	n/a	0	0	-2.317708e-01
124.397170	2.299769	dec_choice	2.299769	32.000000	n/a	0	0	-2.317708e-01
124.397170	2.299769	dec_social_reject	2.299769	32.000000	n/a	0	0	1.199597e-01
124.397170	2.299769	dec_reject	2.299769	32.000000	n/a	0	0	1.187500e-01
124.397170	2.299769	dec_social_low	2.299769	32.000000	n/a	0	-2.317708e-01	-2.317708e-01
124.397170	2.299769	dec_social_reject_low	2.299769	32.000000	n/a	8	1.822917e-02	-2.317708e-01
132.047070	2.315720	dec_social_choice	2.315720	16.000000	n/a	0	0	-2.317708e-01
132.047070	2.315720	dec_choice	2.315720	16.000000	n/a	0	0	-2.317708e-01
132.047070	2.315720	dec_social_reject	2.315720	16.000000	n/a	0	0	1.199597e-01
132.047070	2.315720	dec_reject	2.315720	16.000000	n/a	0	0	1.187500e-01
132.047070	2.315720	dec_social_reject_low	2.315720	16.000000	n/a	4	1.822917e-02	-2.317708e-01
139.698070	1.849077	dec_social_choice	1.849077	32.000000	n/a	16	2.682292e-01	2.682292e-01
139.698070	1.849077	dec_choice	1.849077	32.000000	n/a	16	2.682292e-01	2.682292e-01
139.698070	1.849077	dec_social_accept	1.849077	32.000000	n/a	16	8.272059e-02	8.272059e-02
139.698070	1.849077	dec_accept	1.849077	32.000000	n/a	16	1.006944e-01	1.006944e-01
139.698070	1.849077	dec_social_high	1.849077	32.000000	n/a	16	2.682292e-01	2.682292e-01
139.698070	1.849077	dec_social_accept_high	1.849077	32.000000	n/a	16	2.682292e-01	2.682292e-01
146.530080	1.616628	dec_nonsocial_choice	1.616628	32.000000	n/a	0	0	-2.317708e-01
146.530080	1.616628	dec_choice	1.616628	32.000000	n/a	0	0	-2.317708e-01
146.530080	1.616628	dec_nonsocial_reject	1.616628	32.000000	n/a	0	0	-6.754032e-02
146.530080	1.616628	dec_reject	1.616628	32.000000	n/a	0	0	-6.640625e-02
146.530080	1.616628	dec_nonsocial_low	1.616628	32.000000	n/a	0	-2.317708e-01	-2.317708e-01
146.530080	1.616628	dec_nonsocial_reject_low	1.616628	32.000000	n/a	2	-6.640625e-02	-1.289062e-01
153.364120	1.549554	dec_nonsocial_choice	1.549554	32.000000	n/a	8	1.822917e-02	1.822917e-02
153.364120	1.549554	dec_choice	1.549554	32.000000	n/a	8	1.822917e-02	1.822917e-02
153.364120	1.549554	dec_nonsocial_accept	1.549554	32.000000	n/a	8	-1.672794e-01	-1.672794e-01
153.364120	1.549554	dec_accept	1.549554	32.000000	n/a	8	-1.875000e-01	-1.875000e-01
153.364120	1.549554	dec_nonsocial_high	1.549554	32.000000	n/a	8	1.822917e-02	1.822917e-02
153.364120	1.549554	dec_nonsocial_accept_high	1.549554	32.000000	n/a	8	-1.875000e-01	-1.875000e-01
160.196330	1.733870	dec_nonsocial_choice	1.733870	32.000000	n/a	0	0	-2.317708e-01
160.196330	1.733870	dec_choice	1.733870	32.000000	n/a	0	0	-2.317708e-01
160.196330	1.733870	dec_nonsocial_reject	1.733870	32.000000	n/a	0	0	-3.629032e-02
160.196330	1.733870	dec_reject	1.733870	32.000000	n/a	0	0	-3.515625e-02
160.196330	1.733870	dec_nonsocial_low	1.733870	32.000000	n/a	0	-2.317708e-01	-2.317708e-01
160.196330	1.733870	dec_nonsocial_reject_low	1.733870	32.000000	n/a	3	-3.515625e-02	-1.289062e-01
171.064090	0.899054	dec_social_choice	0.899054	16.000000	n/a	0	0	-2.317708e-01
171.064090	0.899054	dec_choice	0.899054	16.000000	n/a	0	0	-2.317708e-01
171.064090	0.899054	dec_social_reject	0.899054	16.000000	n/a	0	0	-5.040323e-03
171.064090	0.899054	dec_reject	0.899054	16.000000	n/a	0	0	-6.250000e-03
171.064090	0.899054	dec_social_reject_low	0.899054	16.000000	n/a	2	-1.067708e-01	-2.317708e-01
178.713900	1.566155	dec_social_choice	1.566155	16.000000	n/a	8	2.682292e-01	2.682292e-01
178.713900	1.566155	dec_choice	1.566155	16.000000	n/a	8	2.682292e-01	2.682292e-01
178.713900	1.566155	dec_social_accept	1.566155	16.000000	n/a	8	8.272059e-02	8.272059e-02
178.713900	1.566155	dec_accept	1.566155	16.000000	n/a	8	1.006944e-01	1.006944e-01
178.713900	1.566155	dec_social_accept_high	1.566155	16.000000	n/a	8	2.682292e-01	2.682292e-01
185.546070	1.550636	dec_social_choice	1.550636	32.000000	n/a	0	0	-2.317708e-01
185.546070	1.550636	dec_choice	1.550636	32.000000	n/a	0	0	-2.317708e-01
185.546070	1.550636	dec_social_reject	1.550636	32.000000	n/a	0	0	-6.754032e-02
185.546070	1.550636	dec_reject	1.550636	32.000000	n/a	0	0	-6.875000e-02
185.546070	1.550636	dec_social_reject_low	1.550636	32.000000	n/a	2	-1.692708e-01	-2.317708e-01
193.197620	2.282606	dec_nonsocial_choice	2.282606	16.000000	n/a	0	0	-2.317708e-01
193.197620	2.282606	dec_choice	2.282606	16.000000	n/a	0	0	-2.317708e-01
193.197620	2.282606	dec_nonsocial_reject	2.282606	16.000000	n/a	0	0	1.199597e-01
193.197620	2.282606	dec_reject	2.282606	16.000000	n/a	0	0	1.210938e-01
193.197620	2.282606	dec_nonsocial_low	2.282606	16.000000	n/a	0	-2.317708e-01	-2.317708e-01
193.197620	2.282606	dec_nonsocial_reject_low	2.282606	16.000000	n/a	4	1.210938e-01	-1.289062e-01
200.031110	1.149069	dec_social_choice	1.149069	16.000000	n/a	0	0	-2.317708e-01
200.031110	1.149069	dec_choice	1.149069	16.000000	n/a	0	0	-2.317708e-01
200.031110	1.149069	dec_social_reject	1.149069	16.000000	n/a	0	0	-6.754032e-02
200.031110	1.149069	dec_reject	1.149069	16.000000	n/a	0	0	-6.875000e-02
200.031110	1.149069	dec_social_reject_low	1.149069	16.000000	n/a	1	-1.692708e-01	-2.317708e-01
207.680100	1.166285	dec_nonsocial_choice	1.166285	32.000000	n/a	16	2.682292e-01	2.682292e-01
207.680100	1.166285	dec_choice	1.166285	32.000000	n/a	16	2.682292e-01	2.682292e-01
207.680100	1.166285	dec_nonsocial_accept	1.166285	32.000000	n/a	16	8.272059e-02	8.272059e-02
207.680100	1.166285	dec_accept	1.166285	32.000000	n/a	16	6.250000e-02	6.250000e-02
207.680100	1.166285	dec_nonsocial_high	1.166285	32.000000	n/a	16	2.682292e-01	2.682292e-01
207.680100	1.166285	dec_nonsocial_accept_high	1.166285	32.000000	n/a	16	6.250000e-02	6.250000e-02
214.514130	1.049068	dec_social_choice	1.049068	16.000000	n/a	0	0	-2.317708e-01
214.514130	1.049068	dec_choice	1.049068	16.000000	n/a	0	0	-2.317708e-01
214.514130	1.049068	dec_social_reject	1.049068	16.000000	n/a	0	0	-5.040323e-03
214.514130	1.049068	dec_reject	1.049068	16.000000	n/a	0	0	-6.250000e-03
214.514130	1.049068	dec_social_low	1.049068	16.000000	n/a	0	-2.317708e-01	-2.317708e-01
214.514130	1.049068	dec_social_reject_low	1.049068	16.000000	n/a	2	-1.067708e-01	-2.317708e-01
221.347150	1.599543	dec_nonsocial_choice	1.599543	16.000000	n/a	0	0	-2.317708e-01
221.347150	1.599543	dec_choice	1.599543	16.000000	n/a	0	0	-2.317708e-01
221.347150	1.599543	dec_nonsocial_reject	1.599543	16.000000	n/a	0	0	-5.040323e-03
221.347150	1.599543	dec_reject	1.599543	16.000000	n/a	0	0	-3.906250e-03
221.347150	1.599543	dec_nonsocial_reject_low	1.599543	16.000000	n/a	2	-6.250000e-03	-1.312500e-01
233.830120	1.116176	dec_nonsocial_choice	1.116176	16.000000	n/a	0	0	-2.317708e-01
233.830120	1.116176	dec_choice	1.116176	16.000000	n/a	0	0	-2.317708e-01
233.830120	1.116176	dec_nonsocial_reject	1.116176	16.000000	n/a	0	0	-6.754032e-02
233.830120	1.116176	dec_reject	1.116176	16.000000	n/a	0	0	-6.640625e-02
233.830120	1.116176	dec_nonsocial_low	1.116176	16.000000	n/a	0	-2.317708e-01	-2.317708e-01
233.830120	1.116176	dec_nonsocial_reject_low	1.116176	16.000000	n/a	1	-6.640625e-02	-1.289062e-01
243.097090	0.915641	dec_nonsocial_choice	0.915641	32.000000	n/a	0	0	-2.317708e-01
243.097090	0.915641	dec_choice	0.915641	32.000000	n/a	0	0	-2.317708e-01
243.097090	0.915641	dec_nonsocial_reject	0.915641	32.000000	n/a	0	0	-6.754032e-02
243.097090	0.915641	dec_reject	0.915641	32.000000	n/a	0	0	-6.640625e-02
243.097090	0.915641	dec_nonsocial_low	0.915641	32.000000	n/a	0	-2.317708e-01	-2.317708e-01
243.097090	0.915641	dec_nonsocial_reject_low	0.915641	32.000000	n/a	2	-6.640625e-02	-1.289062e-01
250.747100	1.599895	dec_nonsocial_choice	1.599895	16.000000	n/a	0	0	-2.317708e-01
250.747100	1.599895	dec_choice	1.599895	16.000000	n/a	0	0	-2.317708e-01
250.747100	1.599895	dec_nonsocial_reject	1.599895	16.000000	n/a	0	0	-5.040323e-03
250.747100	1.599895	dec_reject	1.599895	16.000000	n/a	0	0	-3.906250e-03
250.747100	1.599895	dec_nonsocial_low	1.599895	16.000000	n/a	0	-2.317708e-01	-2.317708e-01
250.747100	1.599895	dec_nonsocial_reject_low	1.599895	16.000000	n/a	2	-3.906250e-03	-1.289062e-01
257.580380	0.865693	dec_nonsocial_choice	0.865693	32.000000	n/a	0	0	-2.317708e-01
257.580380	0.865693	dec_choice	0.865693	32.000000	n/a	0	0	-2.317708e-01
257.580380	0.865693	dec_nonsocial_reject	0.865693	32.000000	n/a	0	0	-3.629032e-02
257.580380	0.865693	dec_reject	0.865693	32.000000	n/a	0	0	-3.515625e-02
257.580380	0.865693	dec_nonsocial_reject_low	0.865693	32.000000	n/a	3	-3.750000e-02	-1.312500e-01
264.414120	1.398934	dec_nonsocial_choice	1.398934	32.000000	n/a	0	0	-2.317708e-01
264.414120	1.398934	dec_choice	1.398934	32.000000	n/a	0	0	-2.317708e-01
264.414120	1.398934	dec_nonsocial_reject	1.398934	32.000000	n/a	0	0	-6.754032e-02
264.414120	1.398934	dec_reject	1.398934	32.000000	n/a	0	0	-6.640625e-02
264.414120	1.398934	dec_nonsocial_low	1.398934	32.000000	n/a	0	-2.317708e-01	-2.317708e-01
264.414120	1.398934	dec_nonsocial_reject_low	1.398934	32.000000	n/a	2	-6.640625e-02	-1.289062e-01
272.063100	0.883571	dec_social_choice	0.883571	32.000000	n/a	0	0	-2.317708e-01
272.063100	0.883571	dec_choice	0.883571	32.000000	n/a	0	0	-2.317708e-01
272.063100	0.883571	dec_social_reject	0.883571	32.000000	n/a	0	0	-6.754032e-02
272.063100	0.883571	dec_reject	0.883571	32.000000	n/a	0	0	-6.875000e-02
272.063100	0.883571	dec_social_reject_low	0.883571	32.000000	n/a	2	-1.692708e-01	-2.317708e-01
278.897100	1.398928	dec_nonsocial_choice	1.398928	16.000000	n/a	0	0	-2.317708e-01
278.897100	1.398928	dec_choice	1.398928	16.000000	n/a	0	0	-2.317708e-01
278.897100	1.398928	dec_nonsocial_reject	1.398928	16.000000	n/a	0	0	1.199597e-01
278.897100	1.398928	dec_reject	1.398928	16.000000	n/a	0	0	1.210938e-01
278.897100	1.398928	dec_nonsocial_low	1.398928	16.000000	n/a	0	-2.317708e-01	-2.317708e-01
278.897100	1.398928	dec_nonsocial_reject_low	1.398928	16.000000	n/a	4	1.210938e-01	-1.289062e-01
285.730160	1.199841	dec_social_choice	1.199841	16.000000	n/a	0	0	-2.317708e-01
285.730160	1.199841	dec_choice	1.199841	16.000000	n/a	0	0	-2.317708e-01
285.730160	1.199841	dec_social_reject	1.199841	16.000000	n/a	0	0	1.199597e-01
285.730160	1.199841	dec_reject	1.199841	16.000000	n/a	0	0	1.187500e-01
285.730160	1.199841	dec_social_low	1.199841	16.000000	n/a	0	-2.317708e-01	-2.317708e-01
285.730160	1.199841	dec_social_reject_low	1.199841	16.000000	n/a	4	1.822917e-02	-2.317708e-01
294.980100	2.049917	dec_social_choice	2.049917	16.000000	n/a	4	1.822917e-02	1.822917e-02
294.980100	2.049917	dec_choice	2.049917	16.000000	n/a	4	1.822917e-02	1.822917e-02
294.980100	2.049917	dec_social_accept	2.049917	16.000000	n/a	4	-1.672794e-01	-1.672794e-01
294.980100	2.049917	dec_accept	2.049917	16.000000	n/a	4	-1.493056e-01	-1.493056e-01
294.980100	2.049917	dec_social_accept_high	2.049917	16.000000	n/a	4	1.822917e-02	1.822917e-02
301.814120	1.749150	dec_nonsocial_choice	1.749150	16.000000	n/a	0	0	-2.317708e-01
301.814120	1.749150	dec_choice	1.749150	16.000000	n/a	0	0	-2.317708e-01
301.814120	1.749150	dec_nonsocial_reject	1.749150	16.000000	n/a	0	0	1.199597e-01
301.814120	1.749150	dec_reject	1.749150	16.000000	n/a	0	0	1.210938e-01
301.814120	1.749150	dec_nonsocial_reject_low	1.749150	16.000000	n/a	4	1.187500e-01	-1.312500e-01
312.679900	0.983167	dec_social_choice	0.983167	16.000000	n/a	0	0	-2.317708e-01
312.679900	0.983167	dec_choice	0.983167	16.000000	n/a	0	0	-2.317708e-01
312.679900	0.983167	dec_social_reject	0.983167	16.000000	n/a	0	0	-6.754032e-02
312.679900	0.983167	dec_reject	0.983167	16.000000	n/a	0	0	-6.875000e-02
312.679900	0.983167	dec_social_low	0.983167	16.000000	n/a	0	-2.317708e-01	-2.317708e-01
312.679900	0.983167	dec_social_reject_low	0.983167	16.000000	n/a	1	-1.692708e-01	-2.317708e-01
319.514130	2.848827	dec_nonsocial_choice	2.848827	32.000000	n/a	8	1.822917e-02	1.822917e-02
319.514130	2.848827	dec_choice	2.848827	32.000000	n/a	8	1.822917e-02	1.822917e-02
319.514130	2.848827	dec_nonsocial_accept	2.848827	32.000000	n/a	8	-1.672794e-01	-1.672794e-01
319.514130	2.848827	dec_accept	2.848827	32.000000	n/a	8	-1.875000e-01	-1.875000e-01
319.514130	2.848827	dec_nonsocial_accept_high	2.848827	32.000000	n/a	8	-1.493056e-01	-1.493056e-01
328.780150	0.783470	dec_social_choice	0.783470	32.000000	n/a	8	1.822917e-02	1.822917e-02
328.780150	0.783470	dec_choice	0.783470	32.000000	n/a	8	1.822917e-02	1.822917e-02
328.780150	0.783470	dec_social_accept	0.783470	32.000000	n/a	8	-1.672794e-01	-1.672794e-01
328.780150	0.783470	dec_accept	0.783470	32.000000	n/a	8	-1.493056e-01	-1.493056e-01
328.780150	0.783470	dec_social_accept_high	0.783470	32.000000	n/a	8	1.822917e-02	1.822917e-02
336.429750	1.116227	dec_nonsocial_choice	1.116227	32.000000	n/a	16	2.682292e-01	2.682292e-01
336.429750	1.116227	dec_choice	1.116227	32.000000	n/a	16	2.682292e-01	2.682292e-01
336.429750	1.116227	dec_nonsocial_accept	1.116227	32.000000	n/a	16	8.272059e-02	8.272059e-02
336.429750	1.116227	dec_accept	1.116227	32.000000	n/a	16	6.250000e-02	6.250000e-02
336.429750	1.116227	dec_nonsocial_accept_high	1.116227	32.000000	n/a	16	1.006944e-01	1.006944e-01
344.080140	1.133066	dec_social_choice	1.133066	32.000000	n/a	0	0	-2.317708e-01
344.080140	1.133066	dec_choice	1.133066	32.000000	n/a	0	0	-2.317708e-01
344.080140	1.133066	dec_social_reject	1.133066	32.000000	n/a	0	0	-6.754032e-02
344.080140	1.133066	dec_reject	1.133066	32.000000	n/a	0	0	-6.875000e-02
344.080140	1.133066	dec_social_low	1.133066	32.000000	n/a	0	-2.317708e-01	-2.317708e-01
344.080140	1.133066	dec_social_reject_low	1.133066	32.000000	n/a	2	-1.692708e-01	-2.317708e-01
350.913120	0.866261	dec_social_choice	0.866261	16.000000	n/a	0	0	-2.317708e-01
350.913120	0.866261	dec_choice	0.866261	16.000000	n/a	0	0	-2.317708e-01
350.913120	0.866261	dec_social_reject	0.866261	16.000000	n/a	0	0	1.199597e-01
350.913120	0.866261	dec_reject	0.866261	16.000000	n/a	0	0	1.187500e-01
350.913120	0.866261	dec_social_reject_low	0.866261	16.000000	n/a	4	1.822917e-02	-2.317708e-01
357.746150	1.466539	dec_nonsocial_choice	1.466539	32.000000	n/a	16	2.682292e-01	2.682292e-01
357.746150	1.466539	dec_choice	1.466539	32.000000	n/a	16	2.682292e-01	2.682292e-01
357.746150	1.466539	dec_nonsocial_accept	1.466539	32.000000	n/a	16	8.272059e-02	8.272059e-02
357.746150	1.466539	dec_accept	1.466539	32.000000	n/a	16	6.250000e-02	6.250000e-02
357.746150	1.466539	dec_nonsocial_high	1.466539	32.000000	n/a	16	2.682292e-01	2.682292e-01
357.746150	1.466539	dec_nonsocial_accept_high	1.466539	32.000000	n/a	16	6.250000e-02	6.250000e-02
365.396120	1.300420	dec_social_choice	1.300420	16.000000	n/a	0	0	-2.317708e-01
365.396120	1.300420	dec_choice	1.300420	16.000000	n/a	0	0	-2.317708e-01
365.396120	1.300420	dec_social_reject	1.300420	16.000000	n/a	0	0	-5.040323e-03
365.396120	1.300420	dec_reject	1.300420	16.000000	n/a	0	0	-6.250000e-03
365.396120	1.300420	dec_social_low	1.300420	16.000000	n/a	0	-2.317708e-01	-2.317708e-01
365.396120	1.300420	dec_social_reject_low	1.300420	16.000000	n/a	2	-1.067708e-01	-2.317708e-01
372.229900	2.649743	dec_social_choice	2.649743	16.000000	n/a	8	2.682292e-01	2.682292e-01
372.229900	2.649743	dec_choice	2.649743	16.000000	n/a	8	2.682292e-01	2.682292e-01
372.229900	2.649743	dec_social_accept	2.649743	16.000000	n/a	8	8.272059e-02	8.272059e-02
372.229900	2.649743	dec_accept	2.649743	16.000000	n/a	8	1.006944e-01	1.006944e-01
372.229900	2.649743	dec_social_accept_high	2.649743	16.000000	n/a	8	2.682292e-01	2.682292e-01
