onset	duration	trial_type	response_time	Endowment	Endowment_pmod	Decision	Decision_pmod	Offer_pmod
4.505109	2	cue_nonsocial	n/a	32	9	n/a	n/a	n/a
4.505109	2	cue_nonsocial_high	n/a	32	9	n/a	n/a	n/a
12.219362	2	cue_social	n/a	16	-7	n/a	n/a	n/a
12.219362	2	cue_social_low	n/a	16	-7	n/a	n/a	n/a
19.827010	2	cue_social	n/a	32	9	n/a	n/a	n/a
19.827010	2	cue_social_high	n/a	32	9	n/a	n/a	n/a
26.690817	2	cue_social	n/a	32	9	n/a	n/a	n/a
26.690817	2	cue_social_high	n/a	32	9	n/a	n/a	n/a
33.510770	2	cue_social	n/a	32	9	n/a	n/a	n/a
33.510770	2	cue_social_high	n/a	32	9	n/a	n/a	n/a
41.105354	2	cue_nonsocial	n/a	16	-7	n/a	n/a	n/a
41.105354	2	cue_nonsocial_low	n/a	16	-7	n/a	n/a	n/a
47.938667	2	cue_nonsocial	n/a	16	-7	n/a	n/a	n/a
47.938667	2	cue_nonsocial_low	n/a	16	-7	n/a	n/a	n/a
57.205310	2	cue_nonsocial	n/a	32	9	n/a	n/a	n/a
57.205310	2	cue_nonsocial_high	n/a	32	9	n/a	n/a	n/a
66.547880	2	cue_social	n/a	16	-7	n/a	n/a	n/a
66.547880	2	cue_social_low	n/a	16	-7	n/a	n/a	n/a
73.305740	2	cue_nonsocial	n/a	32	9	n/a	n/a	n/a
73.305740	2	cue_nonsocial_high	n/a	32	9	n/a	n/a	n/a
80.189390	2	cue_social	n/a	16	-7	n/a	n/a	n/a
80.189390	2	cue_social_low	n/a	16	-7	n/a	n/a	n/a
87.008640	2	cue_social	n/a	16	-7	n/a	n/a	n/a
87.008640	2	cue_social_low	n/a	16	-7	n/a	n/a	n/a
96.279960	2	cue_social	n/a	16	-7	n/a	n/a	n/a
96.279960	2	cue_social_low	n/a	16	-7	n/a	n/a	n/a
103.054660	2	cue_nonsocial	n/a	16	-7	n/a	n/a	n/a
103.054660	2	cue_nonsocial_low	n/a	16	-7	n/a	n/a	n/a
112.321160	2	cue_nonsocial	n/a	32	9	n/a	n/a	n/a
112.321160	2	cue_nonsocial_high	n/a	32	9	n/a	n/a	n/a
119.155000	2	cue_nonsocial	n/a	32	9	n/a	n/a	n/a
119.155000	2	cue_nonsocial_high	n/a	32	9	n/a	n/a	n/a
128.464190	2	cue_social	n/a	32	9	n/a	n/a	n/a
128.464190	2	cue_social_high	n/a	32	9	n/a	n/a	n/a
135.323400	2	cue_social	n/a	32	9	n/a	n/a	n/a
135.323400	2	cue_social_high	n/a	32	9	n/a	n/a	n/a
142.904510	2	cue_nonsocial	n/a	16	-7	n/a	n/a	n/a
142.904510	2	cue_nonsocial_low	n/a	16	-7	n/a	n/a	n/a
155.387770	2	cue_nonsocial	n/a	16	-7	n/a	n/a	n/a
155.387770	2	cue_nonsocial_low	n/a	16	-7	n/a	n/a	n/a
162.263210	2	cue_social	n/a	16	-7	n/a	n/a	n/a
162.263210	2	cue_social_low	n/a	16	-7	n/a	n/a	n/a
169.871000	2	cue_nonsocial	n/a	32	9	n/a	n/a	n/a
169.871000	2	cue_nonsocial_high	n/a	32	9	n/a	n/a	n/a
177.539410	2	cue_social	n/a	16	-7	n/a	n/a	n/a
177.539410	2	cue_social_low	n/a	16	-7	n/a	n/a	n/a
184.354540	2	cue_nonsocial	n/a	16	-7	n/a	n/a	n/a
184.354540	2	cue_nonsocial_low	n/a	16	-7	n/a	n/a	n/a
191.187800	2	cue_nonsocial	n/a	16	-7	n/a	n/a	n/a
191.187800	2	cue_nonsocial_low	n/a	16	-7	n/a	n/a	n/a
198.078320	2	cue_social	n/a	32	9	n/a	n/a	n/a
198.078320	2	cue_social_high	n/a	32	9	n/a	n/a	n/a
205.698800	2	cue_social	n/a	32	9	n/a	n/a	n/a
205.698800	2	cue_social_high	n/a	32	9	n/a	n/a	n/a
214.965730	2	cue_social	n/a	16	-7	n/a	n/a	n/a
214.965730	2	cue_social_low	n/a	16	-7	n/a	n/a	n/a
221.806000	2	cue_social	n/a	32	9	n/a	n/a	n/a
221.806000	2	cue_social_high	n/a	32	9	n/a	n/a	n/a
229.433000	2	cue_social	n/a	16	-7	n/a	n/a	n/a
229.433000	2	cue_social_low	n/a	16	-7	n/a	n/a	n/a
237.054600	2	cue_nonsocial	n/a	16	-7	n/a	n/a	n/a
237.054600	2	cue_nonsocial_low	n/a	16	-7	n/a	n/a	n/a
244.687760	2	cue_nonsocial	n/a	16	-7	n/a	n/a	n/a
244.687760	2	cue_nonsocial_low	n/a	16	-7	n/a	n/a	n/a
252.337860	2	cue_nonsocial	n/a	32	9	n/a	n/a	n/a
252.337860	2	cue_nonsocial_high	n/a	32	9	n/a	n/a	n/a
263.204380	2	cue_nonsocial	n/a	32	9	n/a	n/a	n/a
263.204380	2	cue_nonsocial_high	n/a	32	9	n/a	n/a	n/a
270.854300	2	cue_nonsocial	n/a	32	9	n/a	n/a	n/a
270.854300	2	cue_nonsocial_high	n/a	32	9	n/a	n/a	n/a
281.764770	2	cue_social	n/a	16	-7	n/a	n/a	n/a
281.764770	2	cue_social_low	n/a	16	-7	n/a	n/a	n/a
288.594940	2	cue_social	n/a	16	-7	n/a	n/a	n/a
288.594940	2	cue_social_low	n/a	16	-7	n/a	n/a	n/a
297.804230	2	cue_nonsocial	n/a	16	-7	n/a	n/a	n/a
297.804230	2	cue_nonsocial_low	n/a	16	-7	n/a	n/a	n/a
304.637270	2	cue_nonsocial	n/a	16	-7	n/a	n/a	n/a
304.637270	2	cue_nonsocial_low	n/a	16	-7	n/a	n/a	n/a
311.526200	2	cue_social	n/a	16	-7	n/a	n/a	n/a
311.526200	2	cue_social_low	n/a	16	-7	n/a	n/a	n/a
322.337500	2	cue_nonsocial	n/a	16	-7	n/a	n/a	n/a
322.337500	2	cue_nonsocial_low	n/a	16	-7	n/a	n/a	n/a
329.206670	2	cue_social	n/a	32	9	n/a	n/a	n/a
329.206670	2	cue_social_high	n/a	32	9	n/a	n/a	n/a
336.932740	2	cue_social	n/a	16	-7	n/a	n/a	n/a
336.932740	2	cue_social_low	n/a	16	-7	n/a	n/a	n/a
343.654080	2	cue_nonsocial	n/a	32	9	n/a	n/a	n/a
343.654080	2	cue_nonsocial_high	n/a	32	9	n/a	n/a	n/a
350.487800	2	cue_nonsocial	n/a	16	-7	n/a	n/a	n/a
350.487800	2	cue_nonsocial_low	n/a	16	-7	n/a	n/a	n/a
357.382600	2	cue_social	n/a	32	9	n/a	n/a	n/a
357.382600	2	cue_social_high	n/a	32	9	n/a	n/a	n/a
364.154330	2	cue_nonsocial	n/a	16	-7	n/a	n/a	n/a
364.154330	2	cue_nonsocial_low	n/a	16	-7	n/a	n/a	n/a
371.055400	2	cue_social	n/a	16	-7	n/a	n/a	n/a
371.055400	2	cue_social_low	n/a	16	-7	n/a	n/a	n/a
6.512145	2.016222	dec_nonsocial_choice	2.016222	32.000000	n/a	0	0	-2.304688e-01
6.512145	2.016222	dec_choice	2.016222	32.000000	n/a	0	0	-2.304688e-01
6.512145	2.016222	dec_nonsocial_reject	2.016222	32.000000	n/a	0	0	-3.348214e-02
6.512145	2.016222	dec_reject	2.016222	32.000000	n/a	0	0	-2.403846e-02
6.512145	2.016222	dec_nonsocial_reject_low	2.016222	32.000000	n/a	3	-4.166667e-02	-1.354167e-01
14.162001	1.383433	dec_social_choice	1.383433	16.000000	n/a	0	0	-2.304688e-01
14.162001	1.383433	dec_choice	1.383433	16.000000	n/a	0	0	-2.304688e-01
14.162001	1.383433	dec_social_reject	1.383433	16.000000	n/a	0	0	-6.473214e-02
14.162001	1.383433	dec_reject	1.383433	16.000000	n/a	0	0	-7.291667e-02
14.162001	1.383433	dec_social_low	1.383433	16.000000	n/a	0	-2.304688e-01	-2.304688e-01
14.162001	1.383433	dec_social_reject_low	1.383433	16.000000	n/a	1	-1.679688e-01	-2.304688e-01
21.795023	1.133857	dec_social_choice	1.133857	32.000000	n/a	0	0	-2.304688e-01
21.795023	1.133857	dec_choice	1.133857	32.000000	n/a	0	0	-2.304688e-01
21.795023	1.133857	dec_social_reject	1.133857	32.000000	n/a	0	0	-6.473214e-02
21.795023	1.133857	dec_reject	1.133857	32.000000	n/a	0	0	-7.291667e-02
21.795023	1.133857	dec_social_low	1.133857	32.000000	n/a	0	-2.304688e-01	-2.304688e-01
21.795023	1.133857	dec_social_reject_low	1.133857	32.000000	n/a	2	-1.679688e-01	-2.304688e-01
28.628054	1.201060	dec_social_choice	1.201060	32.000000	n/a	0	0	-2.304688e-01
28.628054	1.201060	dec_choice	1.201060	32.000000	n/a	0	0	-2.304688e-01
28.628054	1.201060	dec_social_reject	1.201060	32.000000	n/a	0	0	-3.348214e-02
28.628054	1.201060	dec_reject	1.201060	32.000000	n/a	0	0	-4.166667e-02
28.628054	1.201060	dec_social_reject_low	1.201060	32.000000	n/a	3	-1.367188e-01	-2.304688e-01
35.462933	1.082600	dec_social_choice	1.082600	32.000000	n/a	0	0	-2.304688e-01
35.462933	1.082600	dec_choice	1.082600	32.000000	n/a	0	0	-2.304688e-01
35.462933	1.082600	dec_social_reject	1.082600	32.000000	n/a	0	0	-3.348214e-02
35.462933	1.082600	dec_reject	1.082600	32.000000	n/a	0	0	-4.166667e-02
35.462933	1.082600	dec_social_low	1.082600	32.000000	n/a	0	-2.304688e-01	-2.304688e-01
35.462933	1.082600	dec_social_reject_low	1.082600	32.000000	n/a	3	-1.367188e-01	-2.304688e-01
43.111430	1.234246	dec_nonsocial_choice	1.234246	16.000000	n/a	4	1.953125e-02	1.953125e-02
43.111430	1.234246	dec_choice	1.234246	16.000000	n/a	4	1.953125e-02	1.953125e-02
43.111430	1.234246	dec_nonsocial_accept	1.234246	16.000000	n/a	4	-1.250000e-01	-1.250000e-01
43.111430	1.234246	dec_accept	1.234246	16.000000	n/a	4	-1.136364e-01	-1.136364e-01
43.111430	1.234246	dec_nonsocial_high	1.234246	16.000000	n/a	4	1.953125e-02	1.953125e-02
43.111430	1.234246	dec_nonsocial_accept_high	1.234246	16.000000	n/a	4	-1.136364e-01	-1.136364e-01
49.945858	1.099482	dec_nonsocial_choice	1.099482	16.000000	n/a	0	0	-2.304688e-01
49.945858	1.099482	dec_choice	1.099482	16.000000	n/a	0	0	-2.304688e-01
49.945858	1.099482	dec_nonsocial_reject	1.099482	16.000000	n/a	0	0	-6.473214e-02
49.945858	1.099482	dec_reject	1.099482	16.000000	n/a	0	0	-5.528846e-02
49.945858	1.099482	dec_nonsocial_reject_low	1.099482	16.000000	n/a	1	-7.291667e-02	-1.354167e-01
59.212254	1.349930	dec_nonsocial_choice	1.349930	32.000000	n/a	16	2.695312e-01	2.695312e-01
59.212254	1.349930	dec_choice	1.349930	32.000000	n/a	16	2.695312e-01	2.695312e-01
59.212254	1.349930	dec_nonsocial_accept	1.349930	32.000000	n/a	16	1.250000e-01	1.250000e-01
59.212254	1.349930	dec_accept	1.349930	32.000000	n/a	16	1.363636e-01	1.363636e-01
59.212254	1.349930	dec_nonsocial_high	1.349930	32.000000	n/a	16	2.695312e-01	2.695312e-01
59.212254	1.349930	dec_nonsocial_accept_high	1.349930	32.000000	n/a	16	1.363636e-01	1.363636e-01
68.479030	0.915999	dec_social_choice	0.915999	16.000000	n/a	4	1.953125e-02	1.953125e-02
68.479030	0.915999	dec_choice	0.915999	16.000000	n/a	4	1.953125e-02	1.953125e-02
68.479030	0.915999	dec_social_accept	0.915999	16.000000	n/a	4	-1.250000e-01	-1.250000e-01
68.479030	0.915999	dec_accept	0.915999	16.000000	n/a	4	-1.388889e-01	-1.388889e-01
68.479030	0.915999	dec_social_high	0.915999	16.000000	n/a	4	1.953125e-02	1.953125e-02
68.479030	0.915999	dec_social_accept_high	0.915999	16.000000	n/a	4	1.953125e-02	1.953125e-02
75.311890	1.350024	dec_nonsocial_choice	1.350024	32.000000	n/a	0	0	-2.304688e-01
75.311890	1.350024	dec_choice	1.350024	32.000000	n/a	0	0	-2.304688e-01
75.311890	1.350024	dec_nonsocial_reject	1.350024	32.000000	n/a	0	0	-3.348214e-02
75.311890	1.350024	dec_reject	1.350024	32.000000	n/a	0	0	-2.403846e-02
75.311890	1.350024	dec_nonsocial_low	1.350024	32.000000	n/a	0	-2.304688e-01	-2.304688e-01
75.311890	1.350024	dec_nonsocial_reject_low	1.350024	32.000000	n/a	3	-2.403846e-02	-1.177885e-01
82.145065	1.316394	dec_social_choice	1.316394	16.000000	n/a	0	0	-2.304688e-01
82.145065	1.316394	dec_choice	1.316394	16.000000	n/a	0	0	-2.304688e-01
82.145065	1.316394	dec_social_reject	1.316394	16.000000	n/a	0	0	1.227679e-01
82.145065	1.316394	dec_reject	1.316394	16.000000	n/a	0	0	1.145833e-01
82.145065	1.316394	dec_social_low	1.316394	16.000000	n/a	0	-2.304688e-01	-2.304688e-01
82.145065	1.316394	dec_social_reject_low	1.316394	16.000000	n/a	4	1.953125e-02	-2.304688e-01
88.977770	1.017237	dec_social_choice	1.017237	16.000000	n/a	8	2.695312e-01	2.695312e-01
88.977770	1.017237	dec_choice	1.017237	16.000000	n/a	8	2.695312e-01	2.695312e-01
88.977770	1.017237	dec_social_accept	1.017237	16.000000	n/a	8	1.250000e-01	1.250000e-01
88.977770	1.017237	dec_accept	1.017237	16.000000	n/a	8	1.111111e-01	1.111111e-01
88.977770	1.017237	dec_social_high	1.017237	16.000000	n/a	8	2.695312e-01	2.695312e-01
88.977770	1.017237	dec_social_accept_high	1.017237	16.000000	n/a	8	2.695312e-01	2.695312e-01
98.229774	1.064937	dec_social_choice	1.064937	16.000000	n/a	0	0	-2.304688e-01
98.229774	1.064937	dec_choice	1.064937	16.000000	n/a	0	0	-2.304688e-01
98.229774	1.064937	dec_social_reject	1.064937	16.000000	n/a	0	0	-2.232143e-03
98.229774	1.064937	dec_reject	1.064937	16.000000	n/a	0	0	-1.041667e-02
98.229774	1.064937	dec_social_reject_low	1.064937	16.000000	n/a	2	-1.054688e-01	-2.304688e-01
105.062880	1.048676	dec_nonsocial_choice	1.048676	16.000000	n/a	8	2.695312e-01	2.695312e-01
105.062880	1.048676	dec_choice	1.048676	16.000000	n/a	8	2.695312e-01	2.695312e-01
105.062880	1.048676	dec_nonsocial_accept	1.048676	16.000000	n/a	8	1.250000e-01	1.250000e-01
105.062880	1.048676	dec_accept	1.048676	16.000000	n/a	8	1.363636e-01	1.363636e-01
105.062880	1.048676	dec_nonsocial_high	1.048676	16.000000	n/a	8	2.695312e-01	2.695312e-01
105.062880	1.048676	dec_nonsocial_accept_high	1.048676	16.000000	n/a	8	1.363636e-01	1.363636e-01
114.328370	1.083456	dec_nonsocial_choice	1.083456	32.000000	n/a	16	2.695312e-01	2.695312e-01
114.328370	1.083456	dec_choice	1.083456	32.000000	n/a	16	2.695312e-01	2.695312e-01
114.328370	1.083456	dec_nonsocial_accept	1.083456	32.000000	n/a	16	1.250000e-01	1.250000e-01
114.328370	1.083456	dec_accept	1.083456	32.000000	n/a	16	1.363636e-01	1.363636e-01
114.328370	1.083456	dec_nonsocial_high	1.083456	32.000000	n/a	16	2.695312e-01	2.695312e-01
114.328370	1.083456	dec_nonsocial_accept_high	1.083456	32.000000	n/a	16	1.363636e-01	1.363636e-01
121.163025	1.431909	dec_nonsocial_choice	1.431909	32.000000	n/a	8	1.953125e-02	1.953125e-02
121.163025	1.431909	dec_choice	1.431909	32.000000	n/a	8	1.953125e-02	1.953125e-02
121.163025	1.431909	dec_nonsocial_accept	1.431909	32.000000	n/a	8	-1.250000e-01	-1.250000e-01
121.163025	1.431909	dec_accept	1.431909	32.000000	n/a	8	-1.136364e-01	-1.136364e-01
121.163025	1.431909	dec_nonsocial_accept_high	1.431909	32.000000	n/a	8	-1.388889e-01	-1.388889e-01
130.429050	0.982718	dec_social_choice	0.982718	32.000000	n/a	8	1.953125e-02	1.953125e-02
130.429050	0.982718	dec_choice	0.982718	32.000000	n/a	8	1.953125e-02	1.953125e-02
130.429050	0.982718	dec_social_accept	0.982718	32.000000	n/a	8	-1.250000e-01	-1.250000e-01
130.429050	0.982718	dec_accept	0.982718	32.000000	n/a	8	-1.388889e-01	-1.388889e-01
130.429050	0.982718	dec_social_high	0.982718	32.000000	n/a	8	1.953125e-02	1.953125e-02
130.429050	0.982718	dec_social_accept_high	0.982718	32.000000	n/a	8	1.953125e-02	1.953125e-02
137.261810	1.516122	dec_social_choice	1.516122	32.000000	n/a	16	2.695312e-01	2.695312e-01
137.261810	1.516122	dec_choice	1.516122	32.000000	n/a	16	2.695312e-01	2.695312e-01
137.261810	1.516122	dec_social_accept	1.516122	32.000000	n/a	16	1.250000e-01	1.250000e-01
137.261810	1.516122	dec_accept	1.516122	32.000000	n/a	16	1.111111e-01	1.111111e-01
137.261810	1.516122	dec_social_high	1.516122	32.000000	n/a	16	2.695312e-01	2.695312e-01
137.261810	1.516122	dec_social_accept_high	1.516122	32.000000	n/a	16	2.695312e-01	2.695312e-01
144.912060	1.582857	dec_nonsocial_choice	1.582857	16.000000	n/a	8	2.695312e-01	2.695312e-01
144.912060	1.582857	dec_choice	1.582857	16.000000	n/a	8	2.695312e-01	2.695312e-01
144.912060	1.582857	dec_nonsocial_accept	1.582857	16.000000	n/a	8	1.250000e-01	1.250000e-01
144.912060	1.582857	dec_accept	1.582857	16.000000	n/a	8	1.363636e-01	1.363636e-01
144.912060	1.582857	dec_nonsocial_high	1.582857	16.000000	n/a	8	2.695312e-01	2.695312e-01
144.912060	1.582857	dec_nonsocial_accept_high	1.582857	16.000000	n/a	8	1.363636e-01	1.363636e-01
157.395020	1.083473	dec_nonsocial_choice	1.083473	16.000000	n/a	0	0	-2.304688e-01
157.395020	1.083473	dec_choice	1.083473	16.000000	n/a	0	0	-2.304688e-01
157.395020	1.083473	dec_nonsocial_reject	1.083473	16.000000	n/a	0	0	-2.232143e-03
157.395020	1.083473	dec_reject	1.083473	16.000000	n/a	0	0	7.211538e-03
157.395020	1.083473	dec_nonsocial_reject_low	1.083473	16.000000	n/a	2	-1.041667e-02	-1.354167e-01
164.228850	1.150000	dec_social_choice	1.150000	16.000000	n/a	0	0	-2.304688e-01
164.228850	1.150000	dec_choice	1.150000	16.000000	n/a	0	0	-2.304688e-01
164.228850	1.150000	dec_social_reject	1.150000	16.000000	n/a	0	0	-6.473214e-02
164.228850	1.150000	dec_reject	1.150000	16.000000	n/a	0	0	-7.291667e-02
164.228850	1.150000	dec_social_low	1.150000	16.000000	n/a	0	-2.304688e-01	-2.304688e-01
164.228850	1.150000	dec_social_reject_low	1.150000	16.000000	n/a	1	-1.679688e-01	-2.304688e-01
171.878140	1.416348	dec_nonsocial_choice	1.416348	32.000000	n/a	0	0	-2.304688e-01
171.878140	1.416348	dec_choice	1.416348	32.000000	n/a	0	0	-2.304688e-01
171.878140	1.416348	dec_nonsocial_reject	1.416348	32.000000	n/a	0	0	-3.348214e-02
171.878140	1.416348	dec_reject	1.416348	32.000000	n/a	0	0	-2.403846e-02
171.878140	1.416348	dec_nonsocial_low	1.416348	32.000000	n/a	0	-2.304688e-01	-2.304688e-01
171.878140	1.416348	dec_nonsocial_reject_low	1.416348	32.000000	n/a	3	-2.403846e-02	-1.177885e-01
179.527680	1.400740	dec_social_choice	1.400740	16.000000	n/a	0	0	-2.304688e-01
179.527680	1.400740	dec_choice	1.400740	16.000000	n/a	0	0	-2.304688e-01
179.527680	1.400740	dec_social_reject	1.400740	16.000000	n/a	0	0	-2.232143e-03
179.527680	1.400740	dec_reject	1.400740	16.000000	n/a	0	0	-1.041667e-02
179.527680	1.400740	dec_social_reject_low	1.400740	16.000000	n/a	2	-1.054688e-01	-2.304688e-01
186.362200	2.432582	dec_nonsocial_choice	2.432582	16.000000	n/a	0	0	-2.304688e-01
186.362200	2.432582	dec_choice	2.432582	16.000000	n/a	0	0	-2.304688e-01
186.362200	2.432582	dec_nonsocial_reject	2.432582	16.000000	n/a	0	0	-6.473214e-02
186.362200	2.432582	dec_reject	2.432582	16.000000	n/a	0	0	-5.528846e-02
186.362200	2.432582	dec_nonsocial_low	2.432582	16.000000	n/a	0	-2.304688e-01	-2.304688e-01
186.362200	2.432582	dec_nonsocial_reject_low	2.432582	16.000000	n/a	1	-5.528846e-02	-1.177885e-01
193.195040	1.250158	dec_nonsocial_choice	1.250158	16.000000	n/a	0	0	-2.304688e-01
193.195040	1.250158	dec_choice	1.250158	16.000000	n/a	0	0	-2.304688e-01
193.195040	1.250158	dec_nonsocial_reject	1.250158	16.000000	n/a	0	0	-2.232143e-03
193.195040	1.250158	dec_reject	1.250158	16.000000	n/a	0	0	7.211538e-03
193.195040	1.250158	dec_nonsocial_low	1.250158	16.000000	n/a	0	-2.304688e-01	-2.304688e-01
193.195040	1.250158	dec_nonsocial_reject_low	1.250158	16.000000	n/a	2	7.211538e-03	-1.177885e-01
200.028080	1.116457	dec_social_choice	1.116457	32.000000	n/a	8	1.953125e-02	1.953125e-02
200.028080	1.116457	dec_choice	1.116457	32.000000	n/a	8	1.953125e-02	1.953125e-02
200.028080	1.116457	dec_social_accept	1.116457	32.000000	n/a	8	-1.250000e-01	-1.250000e-01
200.028080	1.116457	dec_accept	1.116457	32.000000	n/a	8	-1.388889e-01	-1.388889e-01
200.028080	1.116457	dec_social_accept_high	1.116457	32.000000	n/a	8	1.953125e-02	1.953125e-02
207.678160	2.183077	dec_social_choice	2.183077	32.000000	n/a	0	0	-2.304688e-01
207.678160	2.183077	dec_choice	2.183077	32.000000	n/a	0	0	-2.304688e-01
207.678160	2.183077	dec_social_reject	2.183077	32.000000	n/a	0	0	-6.473214e-02
207.678160	2.183077	dec_reject	2.183077	32.000000	n/a	0	0	-7.291667e-02
207.678160	2.183077	dec_social_reject_low	2.183077	32.000000	n/a	2	-1.679688e-01	-2.304688e-01
216.928850	3.032874	dec_social_choice	3.032874	16.000000	n/a	0	0	-2.304688e-01
216.928850	3.032874	dec_choice	3.032874	16.000000	n/a	0	0	-2.304688e-01
216.928850	3.032874	dec_social_reject	3.032874	16.000000	n/a	0	0	1.227679e-01
216.928850	3.032874	dec_reject	3.032874	16.000000	n/a	0	0	1.145833e-01
216.928850	3.032874	dec_social_reject_low	3.032874	16.000000	n/a	4	1.953125e-02	-2.304688e-01
223.761180	1.200452	dec_social_choice	1.200452	32.000000	n/a	0	0	-2.304688e-01
223.761180	1.200452	dec_choice	1.200452	32.000000	n/a	0	0	-2.304688e-01
223.761180	1.200452	dec_social_reject	1.200452	32.000000	n/a	0	0	-6.473214e-02
223.761180	1.200452	dec_reject	1.200452	32.000000	n/a	0	0	-7.291667e-02
223.761180	1.200452	dec_social_low	1.200452	32.000000	n/a	0	-2.304688e-01	-2.304688e-01
223.761180	1.200452	dec_social_reject_low	1.200452	32.000000	n/a	2	-1.679688e-01	-2.304688e-01
231.411120	1.200461	dec_social_choice	1.200461	16.000000	n/a	0	0	-2.304688e-01
231.411120	1.200461	dec_choice	1.200461	16.000000	n/a	0	0	-2.304688e-01
231.411120	1.200461	dec_social_reject	1.200461	16.000000	n/a	0	0	-2.232143e-03
231.411120	1.200461	dec_reject	1.200461	16.000000	n/a	0	0	-1.041667e-02
231.411120	1.200461	dec_social_reject_low	1.200461	16.000000	n/a	2	-1.054688e-01	-2.304688e-01
239.061330	0.950103	dec_nonsocial_choice	0.950103	16.000000	n/a	0	0	-2.304688e-01
239.061330	0.950103	dec_choice	0.950103	16.000000	n/a	0	0	-2.304688e-01
239.061330	0.950103	dec_nonsocial_reject	0.950103	16.000000	n/a	0	0	-6.473214e-02
239.061330	0.950103	dec_reject	0.950103	16.000000	n/a	0	0	-5.528846e-02
239.061330	0.950103	dec_nonsocial_reject_low	0.950103	16.000000	n/a	1	-7.291667e-02	-1.354167e-01
246.695040	0.599793	dec_nonsocial_choice	0.599793	16.000000	n/a	0	0	-2.304688e-01
246.695040	0.599793	dec_choice	0.599793	16.000000	n/a	0	0	-2.304688e-01
246.695040	0.599793	dec_nonsocial_reject	0.599793	16.000000	n/a	0	0	3.727679e-01
246.695040	0.599793	dec_reject	0.599793	16.000000	n/a	0	0	3.822115e-01
246.695040	0.599793	dec_nonsocial_low	0.599793	16.000000	n/a	0	-2.304688e-01	-2.304688e-01
246.695040	0.599793	dec_nonsocial_reject_low	0.599793	16.000000	n/a	8	3.822115e-01	-1.177885e-01
254.345250	1.082930	dec_nonsocial_choice	1.082930	32.000000	n/a	8	1.953125e-02	1.953125e-02
254.345250	1.082930	dec_choice	1.082930	32.000000	n/a	8	1.953125e-02	1.953125e-02
254.345250	1.082930	dec_nonsocial_accept	1.082930	32.000000	n/a	8	-1.250000e-01	-1.250000e-01
254.345250	1.082930	dec_accept	1.082930	32.000000	n/a	8	-1.136364e-01	-1.136364e-01
254.345250	1.082930	dec_nonsocial_high	1.082930	32.000000	n/a	8	1.953125e-02	1.953125e-02
254.345250	1.082930	dec_nonsocial_accept_high	1.082930	32.000000	n/a	8	-1.136364e-01	-1.136364e-01
265.211880	1.000001	dec_nonsocial_choice	1.000001	32.000000	n/a	0	0	-2.304688e-01
265.211880	1.000001	dec_choice	1.000001	32.000000	n/a	0	0	-2.304688e-01
265.211880	1.000001	dec_nonsocial_reject	1.000001	32.000000	n/a	0	0	-6.473214e-02
265.211880	1.000001	dec_reject	1.000001	32.000000	n/a	0	0	-5.528846e-02
265.211880	1.000001	dec_nonsocial_reject_low	1.000001	32.000000	n/a	2	-7.291667e-02	-1.354167e-01
272.861880	1.550020	dec_nonsocial_choice	1.550020	32.000000	n/a	0	0	-2.304688e-01
272.861880	1.550020	dec_choice	1.550020	32.000000	n/a	0	0	-2.304688e-01
272.861880	1.550020	dec_nonsocial_reject	1.550020	32.000000	n/a	0	0	-6.473214e-02
272.861880	1.550020	dec_reject	1.550020	32.000000	n/a	0	0	-5.528846e-02
272.861880	1.550020	dec_nonsocial_low	1.550020	32.000000	n/a	0	-2.304688e-01	-2.304688e-01
272.861880	1.550020	dec_nonsocial_reject_low	1.550020	32.000000	n/a	2	-5.528846e-02	-1.177885e-01
283.728120	1.266265	dec_social_choice	1.266265	16.000000	n/a	8	2.695312e-01	2.695312e-01
283.728120	1.266265	dec_choice	1.266265	16.000000	n/a	8	2.695312e-01	2.695312e-01
283.728120	1.266265	dec_social_accept	1.266265	16.000000	n/a	8	1.250000e-01	1.250000e-01
283.728120	1.266265	dec_accept	1.266265	16.000000	n/a	8	1.111111e-01	1.111111e-01
283.728120	1.266265	dec_social_high	1.266265	16.000000	n/a	8	2.695312e-01	2.695312e-01
283.728120	1.266265	dec_social_accept_high	1.266265	16.000000	n/a	8	2.695312e-01	2.695312e-01
290.560760	2.734032	dec_social_choice	2.734032	16.000000	n/a	4	1.953125e-02	1.953125e-02
290.560760	2.734032	dec_choice	2.734032	16.000000	n/a	4	1.953125e-02	1.953125e-02
290.560760	2.734032	dec_social_accept	2.734032	16.000000	n/a	4	-1.250000e-01	-1.250000e-01
290.560760	2.734032	dec_accept	2.734032	16.000000	n/a	4	-1.388889e-01	-1.388889e-01
290.560760	2.734032	dec_social_accept_high	2.734032	16.000000	n/a	4	1.953125e-02	1.953125e-02
299.811400	0.916106	dec_nonsocial_choice	0.916106	16.000000	n/a	0	0	-2.304688e-01
299.811400	0.916106	dec_choice	0.916106	16.000000	n/a	0	0	-2.304688e-01
299.811400	0.916106	dec_nonsocial_reject	0.916106	16.000000	n/a	0	0	-6.473214e-02
299.811400	0.916106	dec_reject	0.916106	16.000000	n/a	0	0	-5.528846e-02
299.811400	0.916106	dec_nonsocial_reject_low	0.916106	16.000000	n/a	1	-7.291667e-02	-1.354167e-01
306.645260	1.016080	dec_nonsocial_choice	1.016080	16.000000	n/a	0	0	-2.304688e-01
306.645260	1.016080	dec_choice	1.016080	16.000000	n/a	0	0	-2.304688e-01
306.645260	1.016080	dec_nonsocial_reject	1.016080	16.000000	n/a	0	0	-2.232143e-03
306.645260	1.016080	dec_reject	1.016080	16.000000	n/a	0	0	7.211538e-03
306.645260	1.016080	dec_nonsocial_low	1.016080	16.000000	n/a	0	-2.304688e-01	-2.304688e-01
306.645260	1.016080	dec_nonsocial_reject_low	1.016080	16.000000	n/a	2	7.211538e-03	-1.177885e-01
313.478030	0.916323	dec_social_choice	0.916323	16.000000	n/a	8	2.695312e-01	2.695312e-01
313.478030	0.916323	dec_choice	0.916323	16.000000	n/a	8	2.695312e-01	2.695312e-01
313.478030	0.916323	dec_social_accept	0.916323	16.000000	n/a	8	1.250000e-01	1.250000e-01
313.478030	0.916323	dec_accept	0.916323	16.000000	n/a	8	1.111111e-01	1.111111e-01
313.478030	0.916323	dec_social_high	0.916323	16.000000	n/a	8	2.695312e-01	2.695312e-01
313.478030	0.916323	dec_social_accept_high	0.916323	16.000000	n/a	8	2.695312e-01	2.695312e-01
324.346040	1.148722	dec_nonsocial_choice	1.148722	16.000000	n/a	4	1.953125e-02	1.953125e-02
324.346040	1.148722	dec_choice	1.148722	16.000000	n/a	4	1.953125e-02	1.953125e-02
324.346040	1.148722	dec_nonsocial_accept	1.148722	16.000000	n/a	4	-1.250000e-01	-1.250000e-01
324.346040	1.148722	dec_accept	1.148722	16.000000	n/a	4	-1.136364e-01	-1.136364e-01
324.346040	1.148722	dec_nonsocial_accept_high	1.148722	16.000000	n/a	4	-1.388889e-01	-1.388889e-01
331.177200	1.768008	dec_social_choice	1.768008	32.000000	n/a	0	0	-2.304688e-01
331.177200	1.768008	dec_choice	1.768008	32.000000	n/a	0	0	-2.304688e-01
331.177200	1.768008	dec_social_reject	1.768008	32.000000	n/a	0	0	-6.473214e-02
331.177200	1.768008	dec_reject	1.768008	32.000000	n/a	0	0	-7.291667e-02
331.177200	1.768008	dec_social_reject_low	1.768008	32.000000	n/a	2	-1.679688e-01	-2.304688e-01
338.827940	1.716492	dec_social_choice	1.716492	16.000000	n/a	8	2.695312e-01	2.695312e-01
338.827940	1.716492	dec_choice	1.716492	16.000000	n/a	8	2.695312e-01	2.695312e-01
338.827940	1.716492	dec_social_accept	1.716492	16.000000	n/a	8	1.250000e-01	1.250000e-01
338.827940	1.716492	dec_accept	1.716492	16.000000	n/a	8	1.111111e-01	1.111111e-01
338.827940	1.716492	dec_social_high	1.716492	16.000000	n/a	8	2.695312e-01	2.695312e-01
338.827940	1.716492	dec_social_accept_high	1.716492	16.000000	n/a	8	2.695312e-01	2.695312e-01
345.661560	1.015843	dec_nonsocial_choice	1.015843	32.000000	n/a	8	1.953125e-02	1.953125e-02
345.661560	1.015843	dec_choice	1.015843	32.000000	n/a	8	1.953125e-02	1.953125e-02
345.661560	1.015843	dec_nonsocial_accept	1.015843	32.000000	n/a	8	-1.250000e-01	-1.250000e-01
345.661560	1.015843	dec_accept	1.015843	32.000000	n/a	8	-1.136364e-01	-1.136364e-01
345.661560	1.015843	dec_nonsocial_high	1.015843	32.000000	n/a	8	1.953125e-02	1.953125e-02
345.661560	1.015843	dec_nonsocial_accept_high	1.015843	32.000000	n/a	8	-1.136364e-01	-1.136364e-01
352.494660	1.433029	dec_nonsocial_choice	1.433029	16.000000	n/a	8	2.695312e-01	2.695312e-01
352.494660	1.433029	dec_choice	1.433029	16.000000	n/a	8	2.695312e-01	2.695312e-01
352.494660	1.433029	dec_nonsocial_accept	1.433029	16.000000	n/a	8	1.250000e-01	1.250000e-01
352.494660	1.433029	dec_accept	1.433029	16.000000	n/a	8	1.363636e-01	1.363636e-01
352.494660	1.433029	dec_nonsocial_high	1.433029	16.000000	n/a	8	2.695312e-01	2.695312e-01
352.494660	1.433029	dec_nonsocial_accept_high	1.433029	16.000000	n/a	8	1.363636e-01	1.363636e-01
359.327120	1.400766	dec_social_choice	1.400766	32.000000	n/a	0	0	-2.304688e-01
359.327120	1.400766	dec_choice	1.400766	32.000000	n/a	0	0	-2.304688e-01
359.327120	1.400766	dec_social_reject	1.400766	32.000000	n/a	0	0	-3.348214e-02
359.327120	1.400766	dec_reject	1.400766	32.000000	n/a	0	0	-4.166667e-02
359.327120	1.400766	dec_social_low	1.400766	32.000000	n/a	0	-2.304688e-01	-2.304688e-01
359.327120	1.400766	dec_social_reject_low	1.400766	32.000000	n/a	3	-1.367188e-01	-2.304688e-01
366.161100	0.950168	dec_nonsocial_choice	0.950168	16.000000	n/a	4	1.953125e-02	1.953125e-02
366.161100	0.950168	dec_choice	0.950168	16.000000	n/a	4	1.953125e-02	1.953125e-02
366.161100	0.950168	dec_nonsocial_accept	0.950168	16.000000	n/a	4	-1.250000e-01	-1.250000e-01
366.161100	0.950168	dec_accept	0.950168	16.000000	n/a	4	-1.136364e-01	-1.136364e-01
366.161100	0.950168	dec_nonsocial_high	0.950168	16.000000	n/a	4	1.953125e-02	1.953125e-02
366.161100	0.950168	dec_nonsocial_accept_high	0.950168	16.000000	n/a	4	-1.136364e-01	-1.136364e-01
372.994870	0.932954	dec_social_choice	0.932954	16.000000	n/a	0	0	-2.304688e-01
372.994870	0.932954	dec_choice	0.932954	16.000000	n/a	0	0	-2.304688e-01
372.994870	0.932954	dec_social_reject	0.932954	16.000000	n/a	0	0	3.727679e-01
372.994870	0.932954	dec_reject	0.932954	16.000000	n/a	0	0	3.645833e-01
372.994870	0.932954	dec_social_low	0.932954	16.000000	n/a	0	-2.304688e-01	-2.304688e-01
372.994870	0.932954	dec_social_reject_low	0.932954	16.000000	n/a	8	2.695312e-01	-2.304688e-01
