onset	duration	trial_type	response_time	Endowment	Endowment_pmod	Decision	Decision_pmod	Offer_pmod
4.510699	2	cue_nonsocial	n/a	32	9	n/a	n/a	n/a
4.510699	2	cue_nonsocial_high	n/a	32	8	n/a	n/a	n/a
12.160157	2	cue_nonsocial	n/a	16	-7	n/a	n/a	n/a
12.160157	2	cue_nonsocial_low	n/a	16	-8	n/a	n/a	n/a
19.810667	2	cue_nonsocial	n/a	32	9	n/a	n/a	n/a
19.810667	2	cue_nonsocial_high	n/a	32	8	n/a	n/a	n/a
27.460247	2	cue_nonsocial	n/a	32	9	n/a	n/a	n/a
27.460247	2	cue_nonsocial_high	n/a	32	8	n/a	n/a	n/a
35.156033	2	cue_social	n/a	32	8	n/a	n/a	n/a
35.156033	2	cue_social_high	n/a	32	9	n/a	n/a	n/a
41.985260	2	cue_social	n/a	16	-8	n/a	n/a	n/a
41.985260	2	cue_social_low	n/a	16	-7	n/a	n/a	n/a
52.794025	2	cue_nonsocial	n/a	16	-7	n/a	n/a	n/a
52.794025	2	cue_nonsocial_low	n/a	16	-8	n/a	n/a	n/a
59.626945	2	cue_nonsocial	n/a	16	-7	n/a	n/a	n/a
59.626945	2	cue_nonsocial_low	n/a	16	-8	n/a	n/a	n/a
68.987830	2	cue_social	n/a	16	-8	n/a	n/a	n/a
68.987830	2	cue_social_low	n/a	16	-7	n/a	n/a	n/a
79.743480	2	cue_nonsocial	n/a	16	-7	n/a	n/a	n/a
79.743480	2	cue_nonsocial_low	n/a	16	-8	n/a	n/a	n/a
87.460100	2	cue_social	n/a	32	8	n/a	n/a	n/a
87.460100	2	cue_social_high	n/a	32	9	n/a	n/a	n/a
94.311745	2	cue_social	n/a	16	-8	n/a	n/a	n/a
94.311745	2	cue_social_low	n/a	16	-7	n/a	n/a	n/a
101.163420	2	cue_social	n/a	32	8	n/a	n/a	n/a
101.163420	2	cue_social_high	n/a	32	9	n/a	n/a	n/a
107.956985	2	cue_social	n/a	32	8	n/a	n/a	n/a
107.956985	2	cue_social_high	n/a	32	9	n/a	n/a	n/a
114.788660	2	cue_social	n/a	16	-8	n/a	n/a	n/a
114.788660	2	cue_social_low	n/a	16	-7	n/a	n/a	n/a
121.663925	2	cue_social	n/a	16	-8	n/a	n/a	n/a
121.663925	2	cue_social_low	n/a	16	-7	n/a	n/a	n/a
128.482320	2	cue_social	n/a	32	8	n/a	n/a	n/a
128.482320	2	cue_social_high	n/a	32	9	n/a	n/a	n/a
135.229640	2	cue_nonsocial	n/a	16	-7	n/a	n/a	n/a
135.229640	2	cue_nonsocial_low	n/a	16	-8	n/a	n/a	n/a
142.141140	2	cue_social	n/a	32	8	n/a	n/a	n/a
142.141140	2	cue_social_high	n/a	32	9	n/a	n/a	n/a
148.893400	2	cue_nonsocial	n/a	16	-7	n/a	n/a	n/a
148.893400	2	cue_nonsocial_low	n/a	16	-8	n/a	n/a	n/a
161.462420	2	cue_social	n/a	32	8	n/a	n/a	n/a
161.462420	2	cue_social_high	n/a	32	9	n/a	n/a	n/a
168.210340	2	cue_nonsocial	n/a	16	-7	n/a	n/a	n/a
168.210340	2	cue_nonsocial_low	n/a	16	-8	n/a	n/a	n/a
177.460080	2	cue_nonsocial	n/a	32	9	n/a	n/a	n/a
177.460080	2	cue_nonsocial_high	n/a	32	8	n/a	n/a	n/a
185.175230	2	cue_social	n/a	16	-8	n/a	n/a	n/a
185.175230	2	cue_social_low	n/a	16	-7	n/a	n/a	n/a
192.759800	2	cue_nonsocial	n/a	16	-7	n/a	n/a	n/a
192.759800	2	cue_nonsocial_low	n/a	16	-8	n/a	n/a	n/a
200.410200	2	cue_nonsocial	n/a	32	9	n/a	n/a	n/a
200.410200	2	cue_nonsocial_high	n/a	32	8	n/a	n/a	n/a
207.243650	2	cue_nonsocial	n/a	16	-7	n/a	n/a	n/a
207.243650	2	cue_nonsocial_low	n/a	16	-8	n/a	n/a	n/a
214.143300	2	cue_social	n/a	16	-8	n/a	n/a	n/a
214.143300	2	cue_social_low	n/a	16	-7	n/a	n/a	n/a
220.976410	2	cue_social	n/a	32	8	n/a	n/a	n/a
220.976410	2	cue_social_high	n/a	32	9	n/a	n/a	n/a
228.607420	2	cue_social	n/a	32	8	n/a	n/a	n/a
228.607420	2	cue_social_high	n/a	32	9	n/a	n/a	n/a
235.394640	2	cue_nonsocial	n/a	32	9	n/a	n/a	n/a
235.394640	2	cue_nonsocial_high	n/a	32	8	n/a	n/a	n/a
244.643620	2	cue_nonsocial	n/a	32	9	n/a	n/a	n/a
244.643620	2	cue_nonsocial_high	n/a	32	8	n/a	n/a	n/a
253.909870	2	cue_nonsocial	n/a	16	-7	n/a	n/a	n/a
253.909870	2	cue_nonsocial_low	n/a	16	-8	n/a	n/a	n/a
261.560300	2	cue_nonsocial	n/a	32	9	n/a	n/a	n/a
261.560300	2	cue_nonsocial_high	n/a	32	8	n/a	n/a	n/a
269.209960	2	cue_nonsocial	n/a	16	-7	n/a	n/a	n/a
269.209960	2	cue_nonsocial_low	n/a	16	-8	n/a	n/a	n/a
276.110170	2	cue_social	n/a	16	-8	n/a	n/a	n/a
276.110170	2	cue_social_low	n/a	16	-7	n/a	n/a	n/a
283.693360	2	cue_nonsocial	n/a	32	9	n/a	n/a	n/a
283.693360	2	cue_nonsocial_high	n/a	32	8	n/a	n/a	n/a
290.616400	2	cue_social	n/a	16	-8	n/a	n/a	n/a
290.616400	2	cue_social_low	n/a	16	-7	n/a	n/a	n/a
297.359900	2	cue_nonsocial	n/a	16	-7	n/a	n/a	n/a
297.359900	2	cue_nonsocial_low	n/a	16	-8	n/a	n/a	n/a
306.686980	2	cue_social	n/a	32	8	n/a	n/a	n/a
306.686980	2	cue_social_high	n/a	32	9	n/a	n/a	n/a
313.459750	2	cue_nonsocial	n/a	32	9	n/a	n/a	n/a
313.459750	2	cue_nonsocial_high	n/a	32	8	n/a	n/a	n/a
320.293240	2	cue_nonsocial	n/a	32	9	n/a	n/a	n/a
320.293240	2	cue_nonsocial_high	n/a	32	8	n/a	n/a	n/a
329.542820	2	cue_nonsocial	n/a	16	-7	n/a	n/a	n/a
329.542820	2	cue_nonsocial_low	n/a	16	-8	n/a	n/a	n/a
336.453160	2	cue_social	n/a	32	8	n/a	n/a	n/a
336.453160	2	cue_social_high	n/a	32	9	n/a	n/a	n/a
344.022340	2	cue_social	n/a	16	-8	n/a	n/a	n/a
344.022340	2	cue_social_low	n/a	16	-7	n/a	n/a	n/a
350.961120	2	cue_social	n/a	32	8	n/a	n/a	n/a
350.961120	2	cue_social_high	n/a	32	9	n/a	n/a	n/a
361.786100	2	cue_social	n/a	16	-8	n/a	n/a	n/a
361.786100	2	cue_social_low	n/a	16	-7	n/a	n/a	n/a
368.659240	2	cue_social	n/a	16	-8	n/a	n/a	n/a
368.659240	2	cue_social_low	n/a	16	-7	n/a	n/a	n/a
6.516595	1.883305	dec_nonsocial_choice	1.883305	32.000000	n/a	8	1.953125e-02	1.953125e-02
6.516595	1.883305	dec_choice	1.883305	32.000000	n/a	8	1.822917e-02	1.822917e-02
6.516595	1.883305	dec_nonsocial_accept	1.883305	32.000000	n/a	8	-1.578947e-01	-1.578947e-01
6.516595	1.883305	dec_accept	1.883305	32.000000	n/a	8	-1.500000e-01	-1.500000e-01
6.516595	1.883305	dec_nonsocial_accept_high	1.883305	32.000000	n/a	8	-1.666667e-01	-1.666667e-01
14.166552	1.233219	dec_nonsocial_choice	1.233219	16.000000	n/a	0	0	-2.304688e-01
14.166552	1.233219	dec_choice	1.233219	16.000000	n/a	0	0	-2.317708e-01
14.166552	1.233219	dec_nonsocial_reject	1.233219	16.000000	n/a	0	0	-5.172414e-02
14.166552	1.233219	dec_reject	1.233219	16.000000	n/a	0	0	-4.910714e-02
14.166552	1.233219	dec_nonsocial_low	1.233219	16.000000	n/a	0	-2.317708e-01	-2.317708e-01
14.166552	1.233219	dec_nonsocial_reject_low	1.233219	16.000000	n/a	1	-4.910714e-02	-1.116071e-01
21.816600	1.799704	dec_nonsocial_choice	1.799704	32.000000	n/a	8	1.953125e-02	1.953125e-02
21.816600	1.799704	dec_choice	1.799704	32.000000	n/a	8	1.822917e-02	1.822917e-02
21.816600	1.799704	dec_nonsocial_accept	1.799704	32.000000	n/a	8	-1.578947e-01	-1.578947e-01
21.816600	1.799704	dec_accept	1.799704	32.000000	n/a	8	-1.500000e-01	-1.500000e-01
21.816600	1.799704	dec_nonsocial_accept_high	1.799704	32.000000	n/a	8	-1.666667e-01	-1.666667e-01
29.465897	1.300691	dec_nonsocial_choice	1.300691	32.000000	n/a	0	0	-2.304688e-01
29.465897	1.300691	dec_choice	1.300691	32.000000	n/a	0	0	-2.317708e-01
29.465897	1.300691	dec_nonsocial_reject	1.300691	32.000000	n/a	0	0	-2.047414e-02
29.465897	1.300691	dec_reject	1.300691	32.000000	n/a	0	0	-1.785714e-02
29.465897	1.300691	dec_nonsocial_low	1.300691	32.000000	n/a	0	-2.317708e-01	-2.317708e-01
29.465897	1.300691	dec_nonsocial_reject_low	1.300691	32.000000	n/a	3	-1.785714e-02	-1.116071e-01
37.099934	1.249880	dec_social_choice	1.249880	32.000000	n/a	0	0	-2.304688e-01
37.099934	1.249880	dec_choice	1.249880	32.000000	n/a	0	0	-2.291667e-01
37.099934	1.249880	dec_social_reject	1.249880	32.000000	n/a	0	0	-5.172414e-02
37.099934	1.249880	dec_reject	1.249880	32.000000	n/a	0	0	-5.416667e-02
37.099934	1.249880	dec_social_low	1.249880	32.000000	n/a	0	-2.291667e-01	-2.291667e-01
37.099934	1.249880	dec_social_reject_low	1.249880	32.000000	n/a	2	-1.666667e-01	-2.291667e-01
43.933147	1.016246	dec_social_choice	1.016246	16.000000	n/a	8	2.695312e-01	2.695312e-01
43.933147	1.016246	dec_choice	1.016246	16.000000	n/a	8	2.708333e-01	2.708333e-01
43.933147	1.016246	dec_social_accept	1.016246	16.000000	n/a	8	9.210526e-02	9.210526e-02
43.933147	1.016246	dec_accept	1.016246	16.000000	n/a	8	8.333333e-02	8.333333e-02
43.933147	1.016246	dec_social_accept_high	1.016246	16.000000	n/a	8	2.708333e-01	2.708333e-01
54.800205	1.015844	dec_nonsocial_choice	1.015844	16.000000	n/a	8	2.695312e-01	2.695312e-01
54.800205	1.015844	dec_choice	1.015844	16.000000	n/a	8	2.682292e-01	2.682292e-01
54.800205	1.015844	dec_nonsocial_accept	1.015844	16.000000	n/a	8	9.210526e-02	9.210526e-02
54.800205	1.015844	dec_accept	1.015844	16.000000	n/a	8	1.000000e-01	1.000000e-01
54.800205	1.015844	dec_nonsocial_accept_high	1.015844	16.000000	n/a	8	8.333333e-02	8.333333e-02
61.633370	0.915979	dec_nonsocial_choice	0.915979	16.000000	n/a	8	2.695312e-01	2.695312e-01
61.633370	0.915979	dec_choice	0.915979	16.000000	n/a	8	2.682292e-01	2.682292e-01
61.633370	0.915979	dec_nonsocial_accept	0.915979	16.000000	n/a	8	9.210526e-02	9.210526e-02
61.633370	0.915979	dec_accept	0.915979	16.000000	n/a	8	1.000000e-01	1.000000e-01
61.633370	0.915979	dec_nonsocial_accept_high	0.915979	16.000000	n/a	8	8.333333e-02	8.333333e-02
70.883310	1.666037	dec_social_choice	1.666037	16.000000	n/a	0	0	-2.304688e-01
70.883310	1.666037	dec_choice	1.666037	16.000000	n/a	0	0	-2.291667e-01
70.883310	1.666037	dec_social_reject	1.666037	16.000000	n/a	0	0	-5.172414e-02
70.883310	1.666037	dec_reject	1.666037	16.000000	n/a	0	0	-5.416667e-02
70.883310	1.666037	dec_social_low	1.666037	16.000000	n/a	0	-2.291667e-01	-2.291667e-01
70.883310	1.666037	dec_social_reject_low	1.666037	16.000000	n/a	1	-1.666667e-01	-2.291667e-01
81.749930	1.349649	dec_nonsocial_choice	1.349649	16.000000	n/a	0	0	-2.304688e-01
81.749930	1.349649	dec_choice	1.349649	16.000000	n/a	0	0	-2.317708e-01
81.749930	1.349649	dec_nonsocial_reject	1.349649	16.000000	n/a	0	0	1.077586e-02
81.749930	1.349649	dec_reject	1.349649	16.000000	n/a	0	0	1.339286e-02
81.749930	1.349649	dec_nonsocial_reject_low	1.349649	16.000000	n/a	2	8.333333e-03	-1.166667e-01
89.399750	1.233409	dec_social_choice	1.233409	32.000000	n/a	0	0	-2.304688e-01
89.399750	1.233409	dec_choice	1.233409	32.000000	n/a	0	0	-2.291667e-01
89.399750	1.233409	dec_social_reject	1.233409	32.000000	n/a	0	0	-2.047414e-02
89.399750	1.233409	dec_reject	1.233409	32.000000	n/a	0	0	-2.291667e-02
89.399750	1.233409	dec_social_low	1.233409	32.000000	n/a	0	-2.291667e-01	-2.291667e-01
89.399750	1.233409	dec_social_reject_low	1.233409	32.000000	n/a	3	-1.354167e-01	-2.291667e-01
96.233470	0.949639	dec_social_choice	0.949639	16.000000	n/a	8	2.695312e-01	2.695312e-01
96.233470	0.949639	dec_choice	0.949639	16.000000	n/a	8	2.708333e-01	2.708333e-01
96.233470	0.949639	dec_social_accept	0.949639	16.000000	n/a	8	9.210526e-02	9.210526e-02
96.233470	0.949639	dec_accept	0.949639	16.000000	n/a	8	8.333333e-02	8.333333e-02
96.233470	0.949639	dec_social_high	0.949639	16.000000	n/a	8	2.708333e-01	2.708333e-01
96.233470	0.949639	dec_social_accept_high	0.949639	16.000000	n/a	8	2.708333e-01	2.708333e-01
103.066475	1.299657	dec_social_choice	1.299657	32.000000	n/a	0	0	-2.304688e-01
103.066475	1.299657	dec_choice	1.299657	32.000000	n/a	0	0	-2.291667e-01
103.066475	1.299657	dec_social_reject	1.299657	32.000000	n/a	0	0	-2.047414e-02
103.066475	1.299657	dec_reject	1.299657	32.000000	n/a	0	0	-2.291667e-02
103.066475	1.299657	dec_social_reject_low	1.299657	32.000000	n/a	3	-1.354167e-01	-2.291667e-01
109.899925	1.165995	dec_social_choice	1.165995	32.000000	n/a	0	0	-2.304688e-01
109.899925	1.165995	dec_choice	1.165995	32.000000	n/a	0	0	-2.291667e-01
109.899925	1.165995	dec_social_reject	1.165995	32.000000	n/a	0	0	-5.172414e-02
109.899925	1.165995	dec_reject	1.165995	32.000000	n/a	0	0	-5.416667e-02
109.899925	1.165995	dec_social_low	1.165995	32.000000	n/a	0	-2.291667e-01	-2.291667e-01
109.899925	1.165995	dec_social_reject_low	1.165995	32.000000	n/a	2	-1.666667e-01	-2.291667e-01
116.732360	1.383925	dec_social_choice	1.383925	16.000000	n/a	0	0	-2.304688e-01
116.732360	1.383925	dec_choice	1.383925	16.000000	n/a	0	0	-2.291667e-01
116.732360	1.383925	dec_social_reject	1.383925	16.000000	n/a	0	0	-5.172414e-02
116.732360	1.383925	dec_reject	1.383925	16.000000	n/a	0	0	-5.416667e-02
116.732360	1.383925	dec_social_reject_low	1.383925	16.000000	n/a	1	-1.666667e-01	-2.291667e-01
123.567200	1.115271	dec_social_choice	1.115271	16.000000	n/a	0	0	-2.304688e-01
123.567200	1.115271	dec_choice	1.115271	16.000000	n/a	0	0	-2.291667e-01
123.567200	1.115271	dec_social_reject	1.115271	16.000000	n/a	0	0	-5.172414e-02
123.567200	1.115271	dec_reject	1.115271	16.000000	n/a	0	0	-5.416667e-02
123.567200	1.115271	dec_social_low	1.115271	16.000000	n/a	0	-2.291667e-01	-2.291667e-01
123.567200	1.115271	dec_social_reject_low	1.115271	16.000000	n/a	1	-1.666667e-01	-2.291667e-01
130.399770	1.083104	dec_social_choice	1.083104	32.000000	n/a	8	1.953125e-02	1.953125e-02
130.399770	1.083104	dec_choice	1.083104	32.000000	n/a	8	2.083333e-02	2.083333e-02
130.399770	1.083104	dec_social_accept	1.083104	32.000000	n/a	8	-1.578947e-01	-1.578947e-01
130.399770	1.083104	dec_accept	1.083104	32.000000	n/a	8	-1.666667e-01	-1.666667e-01
130.399770	1.083104	dec_social_high	1.083104	32.000000	n/a	8	2.083333e-02	2.083333e-02
130.399770	1.083104	dec_social_accept_high	1.083104	32.000000	n/a	8	2.083333e-02	2.083333e-02
137.232820	1.166336	dec_nonsocial_choice	1.166336	16.000000	n/a	0	0	-2.304688e-01
137.232820	1.166336	dec_choice	1.166336	16.000000	n/a	0	0	-2.317708e-01
137.232820	1.166336	dec_nonsocial_reject	1.166336	16.000000	n/a	0	0	1.077586e-02
137.232820	1.166336	dec_reject	1.166336	16.000000	n/a	0	0	1.339286e-02
137.232820	1.166336	dec_nonsocial_reject_low	1.166336	16.000000	n/a	2	8.333333e-03	-1.166667e-01
144.065580	1.100567	dec_social_choice	1.100567	32.000000	n/a	0	0	-2.304688e-01
144.065580	1.100567	dec_choice	1.100567	32.000000	n/a	0	0	-2.291667e-01
144.065580	1.100567	dec_social_reject	1.100567	32.000000	n/a	0	0	-2.047414e-02
144.065580	1.100567	dec_reject	1.100567	32.000000	n/a	0	0	-2.291667e-02
144.065580	1.100567	dec_social_low	1.100567	32.000000	n/a	0	-2.291667e-01	-2.291667e-01
144.065580	1.100567	dec_social_reject_low	1.100567	32.000000	n/a	3	-1.354167e-01	-2.291667e-01
150.900250	1.265657	dec_nonsocial_choice	1.265657	16.000000	n/a	0	0	-2.304688e-01
150.900250	1.265657	dec_choice	1.265657	16.000000	n/a	0	0	-2.317708e-01
150.900250	1.265657	dec_nonsocial_reject	1.265657	16.000000	n/a	0	0	1.077586e-02
150.900250	1.265657	dec_reject	1.265657	16.000000	n/a	0	0	1.339286e-02
150.900250	1.265657	dec_nonsocial_reject_low	1.265657	16.000000	n/a	2	8.333333e-03	-1.166667e-01
163.382870	1.066668	dec_social_choice	1.066668	32.000000	n/a	16	2.695312e-01	2.695312e-01
163.382870	1.066668	dec_choice	1.066668	32.000000	n/a	16	2.708333e-01	2.708333e-01
163.382870	1.066668	dec_social_accept	1.066668	32.000000	n/a	16	9.210526e-02	9.210526e-02
163.382870	1.066668	dec_accept	1.066668	32.000000	n/a	16	8.333333e-02	8.333333e-02
163.382870	1.066668	dec_social_accept_high	1.066668	32.000000	n/a	16	2.708333e-01	2.708333e-01
170.216660	1.299161	dec_nonsocial_choice	1.299161	16.000000	n/a	0	0	-2.304688e-01
170.216660	1.299161	dec_choice	1.299161	16.000000	n/a	0	0	-2.317708e-01
170.216660	1.299161	dec_nonsocial_reject	1.299161	16.000000	n/a	0	0	1.077586e-02
170.216660	1.299161	dec_reject	1.299161	16.000000	n/a	0	0	1.339286e-02
170.216660	1.299161	dec_nonsocial_low	1.299161	16.000000	n/a	0	-2.317708e-01	-2.317708e-01
170.216660	1.299161	dec_nonsocial_reject_low	1.299161	16.000000	n/a	2	1.339286e-02	-1.116071e-01
179.466800	1.099292	dec_nonsocial_choice	1.099292	32.000000	n/a	8	1.953125e-02	1.953125e-02
179.466800	1.099292	dec_choice	1.099292	32.000000	n/a	8	1.822917e-02	1.822917e-02
179.466800	1.099292	dec_nonsocial_accept	1.099292	32.000000	n/a	8	-1.578947e-01	-1.578947e-01
179.466800	1.099292	dec_accept	1.099292	32.000000	n/a	8	-1.500000e-01	-1.500000e-01
179.466800	1.099292	dec_nonsocial_accept_high	1.099292	32.000000	n/a	8	-1.666667e-01	-1.666667e-01
187.116410	1.483255	dec_social_choice	1.483255	16.000000	n/a	0	0	-2.304688e-01
187.116410	1.483255	dec_choice	1.483255	16.000000	n/a	0	0	-2.291667e-01
187.116410	1.483255	dec_social_reject	1.483255	16.000000	n/a	0	0	1.357759e-01
187.116410	1.483255	dec_reject	1.483255	16.000000	n/a	0	0	1.333333e-01
187.116410	1.483255	dec_social_reject_low	1.483255	16.000000	n/a	4	2.083333e-02	-2.291667e-01
194.766570	1.165669	dec_nonsocial_choice	1.165669	16.000000	n/a	0	0	-2.304688e-01
194.766570	1.165669	dec_choice	1.165669	16.000000	n/a	0	0	-2.317708e-01
194.766570	1.165669	dec_nonsocial_reject	1.165669	16.000000	n/a	0	0	-5.172414e-02
194.766570	1.165669	dec_reject	1.165669	16.000000	n/a	0	0	-4.910714e-02
194.766570	1.165669	dec_nonsocial_low	1.165669	16.000000	n/a	0	-2.317708e-01	-2.317708e-01
194.766570	1.165669	dec_nonsocial_reject_low	1.165669	16.000000	n/a	1	-4.910714e-02	-1.116071e-01
202.416300	1.199544	dec_nonsocial_choice	1.199544	32.000000	n/a	0	0	-2.304688e-01
202.416300	1.199544	dec_choice	1.199544	32.000000	n/a	0	0	-2.317708e-01
202.416300	1.199544	dec_nonsocial_reject	1.199544	32.000000	n/a	0	0	-5.172414e-02
202.416300	1.199544	dec_reject	1.199544	32.000000	n/a	0	0	-4.910714e-02
202.416300	1.199544	dec_nonsocial_low	1.199544	32.000000	n/a	0	-2.317708e-01	-2.317708e-01
202.416300	1.199544	dec_nonsocial_reject_low	1.199544	32.000000	n/a	2	-4.910714e-02	-1.116071e-01
209.249100	1.083613	dec_nonsocial_choice	1.083613	16.000000	n/a	0	0	-2.304688e-01
209.249100	1.083613	dec_choice	1.083613	16.000000	n/a	0	0	-2.317708e-01
209.249100	1.083613	dec_nonsocial_reject	1.083613	16.000000	n/a	0	0	-5.172414e-02
209.249100	1.083613	dec_reject	1.083613	16.000000	n/a	0	0	-4.910714e-02
209.249100	1.083613	dec_nonsocial_reject_low	1.083613	16.000000	n/a	1	-5.416667e-02	-1.166667e-01
216.083510	1.182600	dec_social_choice	1.182600	16.000000	n/a	0	0	-2.304688e-01
216.083510	1.182600	dec_choice	1.182600	16.000000	n/a	0	0	-2.291667e-01
216.083510	1.182600	dec_social_reject	1.182600	16.000000	n/a	0	0	1.077586e-02
216.083510	1.182600	dec_reject	1.182600	16.000000	n/a	0	0	8.333333e-03
216.083510	1.182600	dec_social_reject_low	1.182600	16.000000	n/a	2	-1.041667e-01	-2.291667e-01
222.916490	1.865828	dec_social_choice	1.865828	32.000000	n/a	8	1.953125e-02	1.953125e-02
222.916490	1.865828	dec_choice	1.865828	32.000000	n/a	8	2.083333e-02	2.083333e-02
222.916490	1.865828	dec_social_accept	1.865828	32.000000	n/a	8	-1.578947e-01	-1.578947e-01
222.916490	1.865828	dec_accept	1.865828	32.000000	n/a	8	-1.666667e-01	-1.666667e-01
222.916490	1.865828	dec_social_accept_high	1.865828	32.000000	n/a	8	2.083333e-02	2.083333e-02
230.566470	1.283042	dec_social_choice	1.283042	32.000000	n/a	0	0	-2.304688e-01
230.566470	1.283042	dec_choice	1.283042	32.000000	n/a	0	0	-2.291667e-01
230.566470	1.283042	dec_social_reject	1.283042	32.000000	n/a	0	0	-2.047414e-02
230.566470	1.283042	dec_reject	1.283042	32.000000	n/a	0	0	-2.291667e-02
230.566470	1.283042	dec_social_low	1.283042	32.000000	n/a	0	-2.291667e-01	-2.291667e-01
230.566470	1.283042	dec_social_reject_low	1.283042	32.000000	n/a	3	-1.354167e-01	-2.291667e-01
237.399280	1.899909	dec_nonsocial_choice	1.899909	32.000000	n/a	16	2.695312e-01	2.695312e-01
237.399280	1.899909	dec_choice	1.899909	32.000000	n/a	16	2.682292e-01	2.682292e-01
237.399280	1.899909	dec_nonsocial_accept	1.899909	32.000000	n/a	16	9.210526e-02	9.210526e-02
237.399280	1.899909	dec_accept	1.899909	32.000000	n/a	16	1.000000e-01	1.000000e-01
237.399280	1.899909	dec_nonsocial_accept_high	1.899909	32.000000	n/a	16	8.333333e-02	8.333333e-02
246.650330	1.049055	dec_nonsocial_choice	1.049055	32.000000	n/a	8	1.953125e-02	1.953125e-02
246.650330	1.049055	dec_choice	1.049055	32.000000	n/a	8	1.822917e-02	1.822917e-02
246.650330	1.049055	dec_nonsocial_accept	1.049055	32.000000	n/a	8	-1.578947e-01	-1.578947e-01
246.650330	1.049055	dec_accept	1.049055	32.000000	n/a	8	-1.500000e-01	-1.500000e-01
246.650330	1.049055	dec_nonsocial_high	1.049055	32.000000	n/a	8	1.822917e-02	1.822917e-02
246.650330	1.049055	dec_nonsocial_accept_high	1.049055	32.000000	n/a	8	-1.500000e-01	-1.500000e-01
255.916960	1.515149	dec_nonsocial_choice	1.515149	16.000000	n/a	8	2.695312e-01	2.695312e-01
255.916960	1.515149	dec_choice	1.515149	16.000000	n/a	8	2.682292e-01	2.682292e-01
255.916960	1.515149	dec_nonsocial_accept	1.515149	16.000000	n/a	8	9.210526e-02	9.210526e-02
255.916960	1.515149	dec_accept	1.515149	16.000000	n/a	8	1.000000e-01	1.000000e-01
255.916960	1.515149	dec_nonsocial_accept_high	1.515149	16.000000	n/a	8	8.333333e-02	8.333333e-02
263.566070	1.283236	dec_nonsocial_choice	1.283236	32.000000	n/a	0	0	-2.304688e-01
263.566070	1.283236	dec_choice	1.283236	32.000000	n/a	0	0	-2.317708e-01
263.566070	1.283236	dec_nonsocial_reject	1.283236	32.000000	n/a	0	0	-5.172414e-02
263.566070	1.283236	dec_reject	1.283236	32.000000	n/a	0	0	-4.910714e-02
263.566070	1.283236	dec_nonsocial_low	1.283236	32.000000	n/a	0	-2.317708e-01	-2.317708e-01
263.566070	1.283236	dec_nonsocial_reject_low	1.283236	32.000000	n/a	2	-4.910714e-02	-1.116071e-01
271.215450	2.300436	dec_nonsocial_choice	2.300436	16.000000	n/a	0	0	-2.304688e-01
271.215450	2.300436	dec_choice	2.300436	16.000000	n/a	0	0	-2.317708e-01
271.215450	2.300436	dec_nonsocial_reject	2.300436	16.000000	n/a	0	0	1.357759e-01
271.215450	2.300436	dec_reject	2.300436	16.000000	n/a	0	0	1.383929e-01
271.215450	2.300436	dec_nonsocial_low	2.300436	16.000000	n/a	0	-2.317708e-01	-2.317708e-01
271.215450	2.300436	dec_nonsocial_reject_low	2.300436	16.000000	n/a	4	1.383929e-01	-1.116071e-01
278.049500	1.299639	dec_social_choice	1.299639	16.000000	n/a	8	2.695312e-01	2.695312e-01
278.049500	1.299639	dec_choice	1.299639	16.000000	n/a	8	2.708333e-01	2.708333e-01
278.049500	1.299639	dec_social_accept	1.299639	16.000000	n/a	8	9.210526e-02	9.210526e-02
278.049500	1.299639	dec_accept	1.299639	16.000000	n/a	8	8.333333e-02	8.333333e-02
278.049500	1.299639	dec_social_accept_high	1.299639	16.000000	n/a	8	2.708333e-01	2.708333e-01
285.699740	1.265859	dec_nonsocial_choice	1.265859	32.000000	n/a	0	0	-2.304688e-01
285.699740	1.265859	dec_choice	1.265859	32.000000	n/a	0	0	-2.317708e-01
285.699740	1.265859	dec_nonsocial_reject	1.265859	32.000000	n/a	0	0	-2.047414e-02
285.699740	1.265859	dec_reject	1.265859	32.000000	n/a	0	0	-1.785714e-02
285.699740	1.265859	dec_nonsocial_low	1.265859	32.000000	n/a	0	-2.317708e-01	-2.317708e-01
285.699740	1.265859	dec_nonsocial_reject_low	1.265859	32.000000	n/a	3	-1.785714e-02	-1.116071e-01
292.532780	0.916155	dec_social_choice	0.916155	16.000000	n/a	0	0	-2.304688e-01
292.532780	0.916155	dec_choice	0.916155	16.000000	n/a	0	0	-2.291667e-01
292.532780	0.916155	dec_social_reject	0.916155	16.000000	n/a	0	0	1.077586e-02
292.532780	0.916155	dec_reject	0.916155	16.000000	n/a	0	0	8.333333e-03
292.532780	0.916155	dec_social_low	0.916155	16.000000	n/a	0	-2.291667e-01	-2.291667e-01
292.532780	0.916155	dec_social_reject_low	0.916155	16.000000	n/a	2	-1.041667e-01	-2.291667e-01
299.365780	1.083538	dec_nonsocial_choice	1.083538	16.000000	n/a	0	0	-2.304688e-01
299.365780	1.083538	dec_choice	1.083538	16.000000	n/a	0	0	-2.317708e-01
299.365780	1.083538	dec_nonsocial_reject	1.083538	16.000000	n/a	0	0	1.357759e-01
299.365780	1.083538	dec_reject	1.083538	16.000000	n/a	0	0	1.383929e-01
299.365780	1.083538	dec_nonsocial_reject_low	1.083538	16.000000	n/a	4	1.333333e-01	-1.166667e-01
308.632450	0.816436	dec_social_choice	0.816436	32.000000	n/a	16	2.695312e-01	2.695312e-01
308.632450	0.816436	dec_choice	0.816436	32.000000	n/a	16	2.708333e-01	2.708333e-01
308.632450	0.816436	dec_social_accept	0.816436	32.000000	n/a	16	9.210526e-02	9.210526e-02
308.632450	0.816436	dec_accept	0.816436	32.000000	n/a	16	8.333333e-02	8.333333e-02
308.632450	0.816436	dec_social_accept_high	0.816436	32.000000	n/a	16	2.708333e-01	2.708333e-01
315.466830	1.015067	dec_nonsocial_choice	1.015067	32.000000	n/a	0	0	-2.304688e-01
315.466830	1.015067	dec_choice	1.015067	32.000000	n/a	0	0	-2.317708e-01
315.466830	1.015067	dec_nonsocial_reject	1.015067	32.000000	n/a	0	0	-5.172414e-02
315.466830	1.015067	dec_reject	1.015067	32.000000	n/a	0	0	-4.910714e-02
315.466830	1.015067	dec_nonsocial_low	1.015067	32.000000	n/a	0	-2.317708e-01	-2.317708e-01
315.466830	1.015067	dec_nonsocial_reject_low	1.015067	32.000000	n/a	2	-4.910714e-02	-1.116071e-01
322.299350	1.183354	dec_nonsocial_choice	1.183354	32.000000	n/a	16	2.695312e-01	2.695312e-01
322.299350	1.183354	dec_choice	1.183354	32.000000	n/a	16	2.682292e-01	2.682292e-01
322.299350	1.183354	dec_nonsocial_accept	1.183354	32.000000	n/a	16	9.210526e-02	9.210526e-02
322.299350	1.183354	dec_accept	1.183354	32.000000	n/a	16	1.000000e-01	1.000000e-01
322.299350	1.183354	dec_nonsocial_accept_high	1.183354	32.000000	n/a	16	8.333333e-02	8.333333e-02
331.548830	1.166599	dec_nonsocial_choice	1.166599	16.000000	n/a	8	2.695312e-01	2.695312e-01
331.548830	1.166599	dec_choice	1.166599	16.000000	n/a	8	2.682292e-01	2.682292e-01
331.548830	1.166599	dec_nonsocial_accept	1.166599	16.000000	n/a	8	9.210526e-02	9.210526e-02
331.548830	1.166599	dec_accept	1.166599	16.000000	n/a	8	1.000000e-01	1.000000e-01
331.548830	1.166599	dec_nonsocial_high	1.166599	16.000000	n/a	8	2.682292e-01	2.682292e-01
331.548830	1.166599	dec_nonsocial_accept_high	1.166599	16.000000	n/a	8	1.000000e-01	1.000000e-01
338.382800	1.132529	dec_social_choice	1.132529	32.000000	n/a	16	2.695312e-01	2.695312e-01
338.382800	1.132529	dec_choice	1.132529	32.000000	n/a	16	2.708333e-01	2.708333e-01
338.382800	1.132529	dec_social_accept	1.132529	32.000000	n/a	16	9.210526e-02	9.210526e-02
338.382800	1.132529	dec_accept	1.132529	32.000000	n/a	16	8.333333e-02	8.333333e-02
338.382800	1.132529	dec_social_accept_high	1.132529	32.000000	n/a	16	2.708333e-01	2.708333e-01
346.032750	1.266057	dec_social_choice	1.266057	16.000000	n/a	0	0	-2.304688e-01
346.032750	1.266057	dec_choice	1.266057	16.000000	n/a	0	0	-2.291667e-01
346.032750	1.266057	dec_social_reject	1.266057	16.000000	n/a	0	0	1.357759e-01
346.032750	1.266057	dec_reject	1.266057	16.000000	n/a	0	0	1.333333e-01
346.032750	1.266057	dec_social_reject_low	1.266057	16.000000	n/a	4	2.083333e-02	-2.291667e-01
352.865500	1.350341	dec_social_choice	1.350341	32.000000	n/a	8	1.953125e-02	1.953125e-02
352.865500	1.350341	dec_choice	1.350341	32.000000	n/a	8	2.083333e-02	2.083333e-02
352.865500	1.350341	dec_social_accept	1.350341	32.000000	n/a	8	-1.578947e-01	-1.578947e-01
352.865500	1.350341	dec_accept	1.350341	32.000000	n/a	8	-1.666667e-01	-1.666667e-01
352.865500	1.350341	dec_social_accept_high	1.350341	32.000000	n/a	8	2.083333e-02	2.083333e-02
363.732880	1.149714	dec_social_choice	1.149714	16.000000	n/a	0	0	-2.304688e-01
363.732880	1.149714	dec_choice	1.149714	16.000000	n/a	0	0	-2.291667e-01
363.732880	1.149714	dec_social_reject	1.149714	16.000000	n/a	0	0	-5.172414e-02
363.732880	1.149714	dec_reject	1.149714	16.000000	n/a	0	0	-5.416667e-02
363.732880	1.149714	dec_social_low	1.149714	16.000000	n/a	0	-2.291667e-01	-2.291667e-01
363.732880	1.149714	dec_social_reject_low	1.149714	16.000000	n/a	1	-1.666667e-01	-2.291667e-01
370.565950	1.166144	dec_social_choice	1.166144	16.000000	n/a	0	0	-2.304688e-01
370.565950	1.166144	dec_choice	1.166144	16.000000	n/a	0	0	-2.291667e-01
370.565950	1.166144	dec_social_reject	1.166144	16.000000	n/a	0	0	1.357759e-01
370.565950	1.166144	dec_reject	1.166144	16.000000	n/a	0	0	1.333333e-01
370.565950	1.166144	dec_social_low	1.166144	16.000000	n/a	0	-2.291667e-01	-2.291667e-01
370.565950	1.166144	dec_social_reject_low	1.166144	16.000000	n/a	4	2.083333e-02	-2.291667e-01
