onset	duration	trial_type	response_time	Endowment	Endowment_pmod	Decision	Decision_pmod	Offer_pmod
4.515957	2	cue_nonsocial	n/a	16	-10	n/a	n/a	n/a
4.515957	2	cue_nonsocial_low	n/a	16	-5	n/a	n/a	n/a
13.855232	2	cue_social	n/a	16	-5	n/a	n/a	n/a
13.855232	2	cue_social_low	n/a	16	-10	n/a	n/a	n/a
24.720310	2	cue_social	n/a	16	-5	n/a	n/a	n/a
24.720310	2	cue_social_low	n/a	16	-10	n/a	n/a	n/a
31.465065	2	cue_nonsocial	n/a	32	6	n/a	n/a	n/a
31.465065	2	cue_nonsocial_high	n/a	32	11	n/a	n/a	n/a
38.298443	2	cue_nonsocial	n/a	32	6	n/a	n/a	n/a
38.298443	2	cue_nonsocial_high	n/a	32	11	n/a	n/a	n/a
45.200897	2	cue_social	n/a	32	11	n/a	n/a	n/a
45.200897	2	cue_social_high	n/a	32	6	n/a	n/a	n/a
52.060333	2	cue_social	n/a	16	-5	n/a	n/a	n/a
52.060333	2	cue_social_low	n/a	16	-10	n/a	n/a	n/a
62.921185	2	cue_social	n/a	16	-5	n/a	n/a	n/a
62.921185	2	cue_social_low	n/a	16	-10	n/a	n/a	n/a
69.665070	2	cue_nonsocial	n/a	16	-10	n/a	n/a	n/a
69.665070	2	cue_nonsocial_low	n/a	16	-5	n/a	n/a	n/a
76.500290	2	cue_social	n/a	32	11	n/a	n/a	n/a
76.500290	2	cue_social_high	n/a	32	6	n/a	n/a	n/a
83.408110	2	cue_social	n/a	16	-5	n/a	n/a	n/a
83.408110	2	cue_social_low	n/a	16	-10	n/a	n/a	n/a
92.581030	2	cue_nonsocial	n/a	16	-10	n/a	n/a	n/a
92.581030	2	cue_nonsocial_low	n/a	16	-5	n/a	n/a	n/a
99.415010	2	cue_nonsocial	n/a	32	6	n/a	n/a	n/a
99.415010	2	cue_nonsocial_high	n/a	32	11	n/a	n/a	n/a
107.064960	2	cue_nonsocial	n/a	32	6	n/a	n/a	n/a
107.064960	2	cue_nonsocial_high	n/a	32	11	n/a	n/a	n/a
113.987890	2	cue_social	n/a	16	-5	n/a	n/a	n/a
113.987890	2	cue_social_low	n/a	16	-10	n/a	n/a	n/a
121.548220	2	cue_nonsocial	n/a	32	6	n/a	n/a	n/a
121.548220	2	cue_nonsocial_high	n/a	32	11	n/a	n/a	n/a
128.381480	2	cue_nonsocial	n/a	32	6	n/a	n/a	n/a
128.381480	2	cue_nonsocial_high	n/a	32	11	n/a	n/a	n/a
136.031460	2	cue_nonsocial	n/a	16	-10	n/a	n/a	n/a
136.031460	2	cue_nonsocial_low	n/a	16	-5	n/a	n/a	n/a
143.681530	2	cue_nonsocial	n/a	16	-10	n/a	n/a	n/a
143.681530	2	cue_nonsocial_low	n/a	16	-5	n/a	n/a	n/a
151.425370	2	cue_social	n/a	16	-5	n/a	n/a	n/a
151.425370	2	cue_social_low	n/a	16	-10	n/a	n/a	n/a
158.249600	2	cue_social	n/a	16	-5	n/a	n/a	n/a
158.249600	2	cue_social_low	n/a	16	-10	n/a	n/a	n/a
165.079990	2	cue_social	n/a	16	-5	n/a	n/a	n/a
165.079990	2	cue_social_low	n/a	16	-10	n/a	n/a	n/a
172.648000	2	cue_nonsocial	n/a	16	-10	n/a	n/a	n/a
172.648000	2	cue_nonsocial_low	n/a	16	-5	n/a	n/a	n/a
180.298160	2	cue_nonsocial	n/a	16	-10	n/a	n/a	n/a
180.298160	2	cue_nonsocial_low	n/a	16	-5	n/a	n/a	n/a
189.547990	2	cue_nonsocial	n/a	32	6	n/a	n/a	n/a
189.547990	2	cue_nonsocial_high	n/a	32	11	n/a	n/a	n/a
196.463680	2	cue_social	n/a	16	-5	n/a	n/a	n/a
196.463680	2	cue_social_low	n/a	16	-10	n/a	n/a	n/a
204.097750	2	cue_social	n/a	16	-5	n/a	n/a	n/a
204.097750	2	cue_social_low	n/a	16	-10	n/a	n/a	n/a
213.402820	2	cue_social	n/a	32	11	n/a	n/a	n/a
213.402820	2	cue_social_high	n/a	32	6	n/a	n/a	n/a
220.931350	2	cue_nonsocial	n/a	32	6	n/a	n/a	n/a
220.931350	2	cue_nonsocial_high	n/a	32	11	n/a	n/a	n/a
227.764510	2	cue_nonsocial	n/a	32	6	n/a	n/a	n/a
227.764510	2	cue_nonsocial_high	n/a	32	11	n/a	n/a	n/a
234.658510	2	cue_social	n/a	32	11	n/a	n/a	n/a
234.658510	2	cue_social_high	n/a	32	6	n/a	n/a	n/a
242.323780	2	cue_social	n/a	16	-5	n/a	n/a	n/a
242.323780	2	cue_social_low	n/a	16	-10	n/a	n/a	n/a
249.897980	2	cue_nonsocial	n/a	32	6	n/a	n/a	n/a
249.897980	2	cue_nonsocial_high	n/a	32	11	n/a	n/a	n/a
259.165130	2	cue_nonsocial	n/a	16	-10	n/a	n/a	n/a
259.165130	2	cue_nonsocial_low	n/a	16	-5	n/a	n/a	n/a
265.998200	2	cue_nonsocial	n/a	32	6	n/a	n/a	n/a
265.998200	2	cue_nonsocial_high	n/a	32	11	n/a	n/a	n/a
273.728760	2	cue_social	n/a	16	-5	n/a	n/a	n/a
273.728760	2	cue_social_low	n/a	16	-10	n/a	n/a	n/a
280.559800	2	cue_social	n/a	32	11	n/a	n/a	n/a
280.559800	2	cue_social_high	n/a	32	6	n/a	n/a	n/a
289.815340	2	cue_social	n/a	32	11	n/a	n/a	n/a
289.815340	2	cue_social_high	n/a	32	6	n/a	n/a	n/a
296.582000	2	cue_nonsocial	n/a	16	-10	n/a	n/a	n/a
296.582000	2	cue_nonsocial_low	n/a	16	-5	n/a	n/a	n/a
304.231480	2	cue_nonsocial	n/a	32	6	n/a	n/a	n/a
304.231480	2	cue_nonsocial_high	n/a	32	11	n/a	n/a	n/a
315.174220	2	cue_social	n/a	16	-5	n/a	n/a	n/a
315.174220	2	cue_social_low	n/a	16	-10	n/a	n/a	n/a
322.005100	2	cue_social	n/a	32	11	n/a	n/a	n/a
322.005100	2	cue_social_high	n/a	32	6	n/a	n/a	n/a
328.843380	2	cue_social	n/a	16	-5	n/a	n/a	n/a
328.843380	2	cue_social_low	n/a	16	-10	n/a	n/a	n/a
335.683600	2	cue_social	n/a	16	-5	n/a	n/a	n/a
335.683600	2	cue_social_low	n/a	16	-10	n/a	n/a	n/a
342.513580	2	cue_social	n/a	32	11	n/a	n/a	n/a
342.513580	2	cue_social_high	n/a	32	6	n/a	n/a	n/a
349.265100	2	cue_nonsocial	n/a	32	6	n/a	n/a	n/a
349.265100	2	cue_nonsocial_high	n/a	32	11	n/a	n/a	n/a
358.515260	2	cue_nonsocial	n/a	32	6	n/a	n/a	n/a
358.515260	2	cue_nonsocial_high	n/a	32	11	n/a	n/a	n/a
370.997960	2	cue_nonsocial	n/a	32	6	n/a	n/a	n/a
370.997960	2	cue_nonsocial_high	n/a	32	11	n/a	n/a	n/a
6.521744	1.783037	dec_nonsocial_choice	1.783037	16.000000	n/a	8	2.688802e-01	2.688802e-01
6.521744	1.783037	dec_choice	1.783037	16.000000	n/a	8	2.682292e-01	2.682292e-01
6.521744	1.783037	dec_nonsocial_accept	1.783037	16.000000	n/a	8	7.812500e-02	7.812500e-02
6.521744	1.783037	dec_accept	1.783037	16.000000	n/a	8	1.250000e-01	1.250000e-01
6.521744	1.783037	dec_nonsocial_high	1.783037	16.000000	n/a	8	2.682292e-01	2.682292e-01
6.521744	1.783037	dec_nonsocial_accept_high	1.783037	16.000000	n/a	8	1.250000e-01	1.250000e-01
15.771132	1.666467	dec_social_choice	1.666467	16.000000	n/a	0	0	-2.311198e-01
15.771132	1.666467	dec_choice	1.666467	16.000000	n/a	0	0	-2.304688e-01
15.771132	1.666467	dec_social_reject	1.666467	16.000000	n/a	0	0	-7.324219e-02
15.771132	1.666467	dec_reject	1.666467	16.000000	n/a	0	0	-7.812500e-02
15.771132	1.666467	dec_social_reject_low	1.666467	16.000000	n/a	1	-1.679688e-01	-2.304688e-01
26.638126	1.399979	dec_social_choice	1.399979	16.000000	n/a	0	0	-2.311198e-01
26.638126	1.399979	dec_choice	1.399979	16.000000	n/a	0	0	-2.304688e-01
26.638126	1.399979	dec_social_reject	1.399979	16.000000	n/a	0	0	-1.074219e-02
26.638126	1.399979	dec_reject	1.399979	16.000000	n/a	0	0	-1.562500e-02
26.638126	1.399979	dec_social_reject_low	1.399979	16.000000	n/a	2	-1.054688e-01	-2.304688e-01
33.471672	1.483065	dec_nonsocial_choice	1.483065	32.000000	n/a	8	1.888021e-02	1.888021e-02
33.471672	1.483065	dec_choice	1.483065	32.000000	n/a	8	1.822917e-02	1.822917e-02
33.471672	1.483065	dec_nonsocial_accept	1.483065	32.000000	n/a	8	-1.718750e-01	-1.718750e-01
33.471672	1.483065	dec_accept	1.483065	32.000000	n/a	8	-1.250000e-01	-1.250000e-01
33.471672	1.483065	dec_nonsocial_high	1.483065	32.000000	n/a	8	1.822917e-02	1.822917e-02
33.471672	1.483065	dec_nonsocial_accept_high	1.483065	32.000000	n/a	8	-1.250000e-01	-1.250000e-01
40.304237	1.033849	dec_nonsocial_choice	1.033849	32.000000	n/a	0	0	-2.311198e-01
40.304237	1.033849	dec_choice	1.033849	32.000000	n/a	0	0	-2.317708e-01
40.304237	1.033849	dec_nonsocial_reject	1.033849	32.000000	n/a	0	0	3.642578e-01
40.304237	1.033849	dec_reject	1.033849	32.000000	n/a	0	0	3.705357e-01
40.304237	1.033849	dec_nonsocial_low	1.033849	32.000000	n/a	0	-2.317708e-01	-2.317708e-01
40.304237	1.033849	dec_nonsocial_reject_low	1.033849	32.000000	n/a	16	3.705357e-01	-1.294643e-01
47.138100	1.516133	dec_social_choice	1.516133	32.000000	n/a	0	0	-2.311198e-01
47.138100	1.516133	dec_choice	1.516133	32.000000	n/a	0	0	-2.304688e-01
47.138100	1.516133	dec_social_reject	1.516133	32.000000	n/a	0	0	-4.199219e-02
47.138100	1.516133	dec_reject	1.516133	32.000000	n/a	0	0	-4.687500e-02
47.138100	1.516133	dec_social_reject_low	1.516133	32.000000	n/a	3	-1.367188e-01	-2.304688e-01
53.971317	1.966257	dec_social_choice	1.966257	16.000000	n/a	0	0	-2.311198e-01
53.971317	1.966257	dec_choice	1.966257	16.000000	n/a	0	0	-2.304688e-01
53.971317	1.966257	dec_social_reject	1.966257	16.000000	n/a	0	0	1.142578e-01
53.971317	1.966257	dec_reject	1.966257	16.000000	n/a	0	0	1.093750e-01
53.971317	1.966257	dec_social_low	1.966257	16.000000	n/a	0	-2.304688e-01	-2.304688e-01
53.971317	1.966257	dec_social_reject_low	1.966257	16.000000	n/a	4	1.953125e-02	-2.304688e-01
64.838250	2.966052	dec_social_choice	2.966052	16.000000	n/a	0	0	-2.311198e-01
64.838250	2.966052	dec_choice	2.966052	16.000000	n/a	0	0	-2.304688e-01
64.838250	2.966052	dec_social_reject	2.966052	16.000000	n/a	0	0	1.142578e-01
64.838250	2.966052	dec_reject	2.966052	16.000000	n/a	0	0	1.093750e-01
64.838250	2.966052	dec_social_reject_low	2.966052	16.000000	n/a	4	1.953125e-02	-2.304688e-01
71.671070	0.950094	dec_nonsocial_choice	0.950094	16.000000	n/a	0	0	-2.311198e-01
71.671070	0.950094	dec_choice	0.950094	16.000000	n/a	0	0	-2.317708e-01
71.671070	0.950094	dec_nonsocial_reject	0.950094	16.000000	n/a	0	0	-1.074219e-02
71.671070	0.950094	dec_reject	0.950094	16.000000	n/a	0	0	-4.464286e-03
71.671070	0.950094	dec_nonsocial_reject_low	0.950094	16.000000	n/a	2	-1.562500e-02	-1.406250e-01
78.504700	1.333019	dec_social_choice	1.333019	32.000000	n/a	0	0	-2.311198e-01
78.504700	1.333019	dec_choice	1.333019	32.000000	n/a	0	0	-2.304688e-01
78.504700	1.333019	dec_social_reject	1.333019	32.000000	n/a	0	0	-7.324219e-02
78.504700	1.333019	dec_reject	1.333019	32.000000	n/a	0	0	-7.812500e-02
78.504700	1.333019	dec_social_low	1.333019	32.000000	n/a	0	-2.304688e-01	-2.304688e-01
78.504700	1.333019	dec_social_reject_low	1.333019	32.000000	n/a	2	-1.679688e-01	-2.304688e-01
85.337060	2.067244	dec_social_choice	2.067244	16.000000	n/a	0	0	-2.311198e-01
85.337060	2.067244	dec_choice	2.067244	16.000000	n/a	0	0	-2.304688e-01
85.337060	2.067244	dec_social_reject	2.067244	16.000000	n/a	0	0	1.142578e-01
85.337060	2.067244	dec_reject	2.067244	16.000000	n/a	0	0	1.093750e-01
85.337060	2.067244	dec_social_low	2.067244	16.000000	n/a	0	-2.304688e-01	-2.304688e-01
85.337060	2.067244	dec_social_reject_low	2.067244	16.000000	n/a	4	1.953125e-02	-2.304688e-01
94.588715	1.682381	dec_nonsocial_choice	1.682381	16.000000	n/a	0	0	-2.311198e-01
94.588715	1.682381	dec_choice	1.682381	16.000000	n/a	0	0	-2.317708e-01
94.588715	1.682381	dec_nonsocial_reject	1.682381	16.000000	n/a	0	0	-1.074219e-02
94.588715	1.682381	dec_reject	1.682381	16.000000	n/a	0	0	-4.464286e-03
94.588715	1.682381	dec_nonsocial_low	1.682381	16.000000	n/a	0	-2.317708e-01	-2.317708e-01
94.588715	1.682381	dec_nonsocial_reject_low	1.682381	16.000000	n/a	2	-4.464286e-03	-1.294643e-01
101.422010	2.682644	dec_nonsocial_choice	2.682644	32.000000	n/a	0	0	-2.311198e-01
101.422010	2.682644	dec_choice	2.682644	32.000000	n/a	0	0	-2.317708e-01
101.422010	2.682644	dec_nonsocial_reject	2.682644	32.000000	n/a	0	0	-7.324219e-02
101.422010	2.682644	dec_reject	2.682644	32.000000	n/a	0	0	-6.696429e-02
101.422010	2.682644	dec_nonsocial_reject_low	2.682644	32.000000	n/a	2	-7.812500e-02	-1.406250e-01
109.071280	1.949917	dec_nonsocial_choice	1.949917	32.000000	n/a	0	0	-2.311198e-01
109.071280	1.949917	dec_choice	1.949917	32.000000	n/a	0	0	-2.317708e-01
109.071280	1.949917	dec_nonsocial_reject	1.949917	32.000000	n/a	0	0	-7.324219e-02
109.071280	1.949917	dec_reject	1.949917	32.000000	n/a	0	0	-6.696429e-02
109.071280	1.949917	dec_nonsocial_low	1.949917	32.000000	n/a	0	-2.317708e-01	-2.317708e-01
109.071280	1.949917	dec_nonsocial_reject_low	1.949917	32.000000	n/a	2	-6.696429e-02	-1.294643e-01
115.904540	2.216006	dec_social_choice	2.216006	16.000000	n/a	0	0	-2.311198e-01
115.904540	2.216006	dec_choice	2.216006	16.000000	n/a	0	0	-2.304688e-01
115.904540	2.216006	dec_social_reject	2.216006	16.000000	n/a	0	0	1.142578e-01
115.904540	2.216006	dec_reject	2.216006	16.000000	n/a	0	0	1.093750e-01
115.904540	2.216006	dec_social_low	2.216006	16.000000	n/a	0	-2.304688e-01	-2.304688e-01
115.904540	2.216006	dec_social_reject_low	2.216006	16.000000	n/a	4	1.953125e-02	-2.304688e-01
123.554000	2.083702	dec_nonsocial_choice	2.083702	32.000000	n/a	0	0	-2.311198e-01
123.554000	2.083702	dec_choice	2.083702	32.000000	n/a	0	0	-2.317708e-01
123.554000	2.083702	dec_nonsocial_reject	2.083702	32.000000	n/a	0	0	-4.199219e-02
123.554000	2.083702	dec_reject	2.083702	32.000000	n/a	0	0	-3.571429e-02
123.554000	2.083702	dec_nonsocial_reject_low	2.083702	32.000000	n/a	3	-4.687500e-02	-1.406250e-01
130.388280	1.799474	dec_nonsocial_choice	1.799474	32.000000	n/a	8	1.888021e-02	1.888021e-02
130.388280	1.799474	dec_choice	1.799474	32.000000	n/a	8	1.822917e-02	1.822917e-02
130.388280	1.799474	dec_nonsocial_accept	1.799474	32.000000	n/a	8	-1.718750e-01	-1.718750e-01
130.388280	1.799474	dec_accept	1.799474	32.000000	n/a	8	-1.250000e-01	-1.250000e-01
130.388280	1.799474	dec_nonsocial_high	1.799474	32.000000	n/a	8	1.822917e-02	1.822917e-02
130.388280	1.799474	dec_nonsocial_accept_high	1.799474	32.000000	n/a	8	-1.250000e-01	-1.250000e-01
138.038090	1.599732	dec_nonsocial_choice	1.599732	16.000000	n/a	0	0	-2.311198e-01
138.038090	1.599732	dec_choice	1.599732	16.000000	n/a	0	0	-2.317708e-01
138.038090	1.599732	dec_nonsocial_reject	1.599732	16.000000	n/a	0	0	-1.074219e-02
138.038090	1.599732	dec_reject	1.599732	16.000000	n/a	0	0	-4.464286e-03
138.038090	1.599732	dec_nonsocial_low	1.599732	16.000000	n/a	0	-2.317708e-01	-2.317708e-01
138.038090	1.599732	dec_nonsocial_reject_low	1.599732	16.000000	n/a	2	-4.464286e-03	-1.294643e-01
145.688400	1.565568	dec_nonsocial_choice	1.565568	16.000000	n/a	8	2.688802e-01	2.688802e-01
145.688400	1.565568	dec_choice	1.565568	16.000000	n/a	8	2.682292e-01	2.682292e-01
145.688400	1.565568	dec_nonsocial_accept	1.565568	16.000000	n/a	8	7.812500e-02	7.812500e-02
145.688400	1.565568	dec_accept	1.565568	16.000000	n/a	8	1.250000e-01	1.250000e-01
145.688400	1.565568	dec_nonsocial_high	1.565568	16.000000	n/a	8	2.682292e-01	2.682292e-01
145.688400	1.565568	dec_nonsocial_accept_high	1.565568	16.000000	n/a	8	1.250000e-01	1.250000e-01
153.337500	1.199977	dec_social_choice	1.199977	16.000000	n/a	0	0	-2.311198e-01
153.337500	1.199977	dec_choice	1.199977	16.000000	n/a	0	0	-2.304688e-01
153.337500	1.199977	dec_social_reject	1.199977	16.000000	n/a	0	0	-7.324219e-02
153.337500	1.199977	dec_reject	1.199977	16.000000	n/a	0	0	-7.812500e-02
153.337500	1.199977	dec_social_reject_low	1.199977	16.000000	n/a	1	-1.679688e-01	-2.304688e-01
160.170600	1.517105	dec_social_choice	1.517105	16.000000	n/a	8	2.688802e-01	2.688802e-01
160.170600	1.517105	dec_choice	1.517105	16.000000	n/a	8	2.695312e-01	2.695312e-01
160.170600	1.517105	dec_social_accept	1.517105	16.000000	n/a	8	7.812500e-02	7.812500e-02
160.170600	1.517105	dec_accept	1.517105	16.000000	n/a	8	0	0
160.170600	1.517105	dec_social_accept_high	1.517105	16.000000	n/a	8	2.695312e-01	2.695312e-01
167.004460	1.149853	dec_social_choice	1.149853	16.000000	n/a	8	2.688802e-01	2.688802e-01
167.004460	1.149853	dec_choice	1.149853	16.000000	n/a	8	2.695312e-01	2.695312e-01
167.004460	1.149853	dec_social_accept	1.149853	16.000000	n/a	8	7.812500e-02	7.812500e-02
167.004460	1.149853	dec_accept	1.149853	16.000000	n/a	8	0	0
167.004460	1.149853	dec_social_high	1.149853	16.000000	n/a	8	2.695312e-01	2.695312e-01
167.004460	1.149853	dec_social_accept_high	1.149853	16.000000	n/a	8	2.695312e-01	2.695312e-01
174.654600	2.099498	dec_nonsocial_choice	2.099498	16.000000	n/a	0	0	-2.311198e-01
174.654600	2.099498	dec_choice	2.099498	16.000000	n/a	0	0	-2.317708e-01
174.654600	2.099498	dec_nonsocial_reject	2.099498	16.000000	n/a	0	0	-7.324219e-02
174.654600	2.099498	dec_reject	2.099498	16.000000	n/a	0	0	-6.696429e-02
174.654600	2.099498	dec_nonsocial_reject_low	2.099498	16.000000	n/a	1	-7.812500e-02	-1.406250e-01
182.304340	1.266030	dec_nonsocial_choice	1.266030	16.000000	n/a	0	0	-2.311198e-01
182.304340	1.266030	dec_choice	1.266030	16.000000	n/a	0	0	-2.317708e-01
182.304340	1.266030	dec_nonsocial_reject	1.266030	16.000000	n/a	0	0	-1.074219e-02
182.304340	1.266030	dec_reject	1.266030	16.000000	n/a	0	0	-4.464286e-03
182.304340	1.266030	dec_nonsocial_low	1.266030	16.000000	n/a	0	-2.317708e-01	-2.317708e-01
182.304340	1.266030	dec_nonsocial_reject_low	1.266030	16.000000	n/a	2	-4.464286e-03	-1.294643e-01
191.554640	1.249688	dec_nonsocial_choice	1.249688	32.000000	n/a	0	0	-2.311198e-01
191.554640	1.249688	dec_choice	1.249688	32.000000	n/a	0	0	-2.317708e-01
191.554640	1.249688	dec_nonsocial_reject	1.249688	32.000000	n/a	0	0	-4.199219e-02
191.554640	1.249688	dec_reject	1.249688	32.000000	n/a	0	0	-3.571429e-02
191.554640	1.249688	dec_nonsocial_low	1.249688	32.000000	n/a	0	-2.317708e-01	-2.317708e-01
191.554640	1.249688	dec_nonsocial_reject_low	1.249688	32.000000	n/a	3	-3.571429e-02	-1.294643e-01
198.387220	1.383491	dec_social_choice	1.383491	16.000000	n/a	0	0	-2.311198e-01
198.387220	1.383491	dec_choice	1.383491	16.000000	n/a	0	0	-2.304688e-01
198.387220	1.383491	dec_social_reject	1.383491	16.000000	n/a	0	0	-1.074219e-02
198.387220	1.383491	dec_reject	1.383491	16.000000	n/a	0	0	-1.562500e-02
198.387220	1.383491	dec_social_reject_low	1.383491	16.000000	n/a	2	-1.054688e-01	-2.304688e-01
206.037670	1.799952	dec_social_choice	1.799952	16.000000	n/a	0	0	-2.311198e-01
206.037670	1.799952	dec_choice	1.799952	16.000000	n/a	0	0	-2.304688e-01
206.037670	1.799952	dec_social_reject	1.799952	16.000000	n/a	0	0	1.142578e-01
206.037670	1.799952	dec_reject	1.799952	16.000000	n/a	0	0	1.093750e-01
206.037670	1.799952	dec_social_reject_low	1.799952	16.000000	n/a	4	1.953125e-02	-2.304688e-01
215.287300	1.183278	dec_social_choice	1.183278	32.000000	n/a	16	2.688802e-01	2.688802e-01
215.287300	1.183278	dec_choice	1.183278	32.000000	n/a	16	2.695312e-01	2.695312e-01
215.287300	1.183278	dec_social_accept	1.183278	32.000000	n/a	16	7.812500e-02	7.812500e-02
215.287300	1.183278	dec_accept	1.183278	32.000000	n/a	16	0	0
215.287300	1.183278	dec_social_high	1.183278	32.000000	n/a	16	2.695312e-01	2.695312e-01
215.287300	1.183278	dec_social_accept_high	1.183278	32.000000	n/a	16	2.695312e-01	2.695312e-01
222.937840	1.783103	dec_nonsocial_choice	1.783103	32.000000	n/a	8	1.888021e-02	1.888021e-02
222.937840	1.783103	dec_choice	1.783103	32.000000	n/a	8	1.822917e-02	1.822917e-02
222.937840	1.783103	dec_nonsocial_accept	1.783103	32.000000	n/a	8	-1.718750e-01	-1.718750e-01
222.937840	1.783103	dec_accept	1.783103	32.000000	n/a	8	-1.250000e-01	-1.250000e-01
222.937840	1.783103	dec_nonsocial_accept_high	1.783103	32.000000	n/a	8	-2.500000e-01	-2.500000e-01
229.771070	1.249878	dec_nonsocial_choice	1.249878	32.000000	n/a	0	0	-2.311198e-01
229.771070	1.249878	dec_choice	1.249878	32.000000	n/a	0	0	-2.317708e-01
229.771070	1.249878	dec_nonsocial_reject	1.249878	32.000000	n/a	0	0	-7.324219e-02
229.771070	1.249878	dec_reject	1.249878	32.000000	n/a	0	0	-6.696429e-02
229.771070	1.249878	dec_nonsocial_reject_low	1.249878	32.000000	n/a	2	-7.812500e-02	-1.406250e-01
236.603800	1.250286	dec_social_choice	1.250286	32.000000	n/a	0	0	-2.311198e-01
236.603800	1.250286	dec_choice	1.250286	32.000000	n/a	0	0	-2.304688e-01
236.603800	1.250286	dec_social_reject	1.250286	32.000000	n/a	0	0	-7.324219e-02
236.603800	1.250286	dec_reject	1.250286	32.000000	n/a	0	0	-7.812500e-02
236.603800	1.250286	dec_social_reject_low	1.250286	32.000000	n/a	2	-1.679688e-01	-2.304688e-01
244.253750	1.333255	dec_social_choice	1.333255	16.000000	n/a	8	2.688802e-01	2.688802e-01
244.253750	1.333255	dec_choice	1.333255	16.000000	n/a	8	2.695312e-01	2.695312e-01
244.253750	1.333255	dec_social_accept	1.333255	16.000000	n/a	8	7.812500e-02	7.812500e-02
244.253750	1.333255	dec_accept	1.333255	16.000000	n/a	8	0	0
244.253750	1.333255	dec_social_high	1.333255	16.000000	n/a	8	2.695312e-01	2.695312e-01
244.253750	1.333255	dec_social_accept_high	1.333255	16.000000	n/a	8	2.695312e-01	2.695312e-01
251.904540	0.949092	dec_nonsocial_choice	0.949092	32.000000	n/a	0	0	-2.311198e-01
251.904540	0.949092	dec_choice	0.949092	32.000000	n/a	0	0	-2.317708e-01
251.904540	0.949092	dec_nonsocial_reject	0.949092	32.000000	n/a	0	0	-7.324219e-02
251.904540	0.949092	dec_reject	0.949092	32.000000	n/a	0	0	-6.696429e-02
251.904540	0.949092	dec_nonsocial_reject_low	0.949092	32.000000	n/a	2	-7.812500e-02	-1.406250e-01
261.170800	1.750108	dec_nonsocial_choice	1.750108	16.000000	n/a	0	0	-2.311198e-01
261.170800	1.750108	dec_choice	1.750108	16.000000	n/a	0	0	-2.317708e-01
261.170800	1.750108	dec_nonsocial_reject	1.750108	16.000000	n/a	0	0	1.142578e-01
261.170800	1.750108	dec_reject	1.750108	16.000000	n/a	0	0	1.205357e-01
261.170800	1.750108	dec_nonsocial_low	1.750108	16.000000	n/a	0	-2.317708e-01	-2.317708e-01
261.170800	1.750108	dec_nonsocial_reject_low	1.750108	16.000000	n/a	4	1.205357e-01	-1.294643e-01
268.004430	1.665855	dec_nonsocial_choice	1.665855	32.000000	n/a	8	1.888021e-02	1.888021e-02
268.004430	1.665855	dec_choice	1.665855	32.000000	n/a	8	1.822917e-02	1.822917e-02
268.004430	1.665855	dec_nonsocial_accept	1.665855	32.000000	n/a	8	-1.718750e-01	-1.718750e-01
268.004430	1.665855	dec_accept	1.665855	32.000000	n/a	8	-1.250000e-01	-1.250000e-01
268.004430	1.665855	dec_nonsocial_accept_high	1.665855	32.000000	n/a	8	-2.500000e-01	-2.500000e-01
275.653200	1.617623	dec_social_choice	1.617623	16.000000	n/a	8	2.688802e-01	2.688802e-01
275.653200	1.617623	dec_choice	1.617623	16.000000	n/a	8	2.695312e-01	2.695312e-01
275.653200	1.617623	dec_social_accept	1.617623	16.000000	n/a	8	7.812500e-02	7.812500e-02
275.653200	1.617623	dec_accept	1.617623	16.000000	n/a	8	0	0
275.653200	1.617623	dec_social_high	1.617623	16.000000	n/a	8	2.695312e-01	2.695312e-01
275.653200	1.617623	dec_social_accept_high	1.617623	16.000000	n/a	8	2.695312e-01	2.695312e-01
282.486420	1.083775	dec_social_choice	1.083775	32.000000	n/a	0	0	-2.311198e-01
282.486420	1.083775	dec_choice	1.083775	32.000000	n/a	0	0	-2.304688e-01
282.486420	1.083775	dec_social_reject	1.083775	32.000000	n/a	0	0	-7.324219e-02
282.486420	1.083775	dec_reject	1.083775	32.000000	n/a	0	0	-7.812500e-02
282.486420	1.083775	dec_social_reject_low	1.083775	32.000000	n/a	2	-1.679688e-01	-2.304688e-01
291.754520	0.982981	dec_social_choice	0.982981	32.000000	n/a	0	0	-2.311198e-01
291.754520	0.982981	dec_choice	0.982981	32.000000	n/a	0	0	-2.304688e-01
291.754520	0.982981	dec_social_reject	0.982981	32.000000	n/a	0	0	-4.199219e-02
291.754520	0.982981	dec_reject	0.982981	32.000000	n/a	0	0	-4.687500e-02
291.754520	0.982981	dec_social_reject_low	0.982981	32.000000	n/a	3	-1.367188e-01	-2.304688e-01
298.587160	1.400062	dec_nonsocial_choice	1.400062	16.000000	n/a	0	0	-2.311198e-01
298.587160	1.400062	dec_choice	1.400062	16.000000	n/a	0	0	-2.317708e-01
298.587160	1.400062	dec_nonsocial_reject	1.400062	16.000000	n/a	0	0	-7.324219e-02
298.587160	1.400062	dec_reject	1.400062	16.000000	n/a	0	0	-6.696429e-02
298.587160	1.400062	dec_nonsocial_low	1.400062	16.000000	n/a	0	-2.317708e-01	-2.317708e-01
298.587160	1.400062	dec_nonsocial_reject_low	1.400062	16.000000	n/a	1	-6.696429e-02	-1.294643e-01
306.236660	1.150676	dec_nonsocial_choice	1.150676	32.000000	n/a	16	2.688802e-01	2.688802e-01
306.236660	1.150676	dec_choice	1.150676	32.000000	n/a	16	2.682292e-01	2.682292e-01
306.236660	1.150676	dec_nonsocial_accept	1.150676	32.000000	n/a	16	7.812500e-02	7.812500e-02
306.236660	1.150676	dec_accept	1.150676	32.000000	n/a	16	1.250000e-01	1.250000e-01
306.236660	1.150676	dec_nonsocial_high	1.150676	32.000000	n/a	16	2.682292e-01	2.682292e-01
306.236660	1.150676	dec_nonsocial_accept_high	1.150676	32.000000	n/a	16	1.250000e-01	1.250000e-01
317.103400	2.000666	dec_social_choice	2.000666	16.000000	n/a	8	2.688802e-01	2.688802e-01
317.103400	2.000666	dec_choice	2.000666	16.000000	n/a	8	2.695312e-01	2.695312e-01
317.103400	2.000666	dec_social_accept	2.000666	16.000000	n/a	8	7.812500e-02	7.812500e-02
317.103400	2.000666	dec_accept	2.000666	16.000000	n/a	8	0	0
317.103400	2.000666	dec_social_accept_high	2.000666	16.000000	n/a	8	2.695312e-01	2.695312e-01
323.936830	1.517259	dec_social_choice	1.517259	32.000000	n/a	0	0	-2.311198e-01
323.936830	1.517259	dec_choice	1.517259	32.000000	n/a	0	0	-2.304688e-01
323.936830	1.517259	dec_social_reject	1.517259	32.000000	n/a	0	0	-4.199219e-02
323.936830	1.517259	dec_reject	1.517259	32.000000	n/a	0	0	-4.687500e-02
323.936830	1.517259	dec_social_low	1.517259	32.000000	n/a	0	-2.304688e-01	-2.304688e-01
323.936830	1.517259	dec_social_reject_low	1.517259	32.000000	n/a	3	-1.367188e-01	-2.304688e-01
330.771200	0.966196	dec_social_choice	0.966196	16.000000	n/a	0	0	-2.311198e-01
330.771200	0.966196	dec_choice	0.966196	16.000000	n/a	0	0	-2.304688e-01
330.771200	0.966196	dec_social_reject	0.966196	16.000000	n/a	0	0	-1.074219e-02
330.771200	0.966196	dec_reject	0.966196	16.000000	n/a	0	0	-1.562500e-02
330.771200	0.966196	dec_social_reject_low	0.966196	16.000000	n/a	2	-1.054688e-01	-2.304688e-01
337.602940	1.601153	dec_social_choice	1.601153	16.000000	n/a	0	0	-2.311198e-01
337.602940	1.601153	dec_choice	1.601153	16.000000	n/a	0	0	-2.304688e-01
337.602940	1.601153	dec_social_reject	1.601153	16.000000	n/a	0	0	1.142578e-01
337.602940	1.601153	dec_reject	1.601153	16.000000	n/a	0	0	1.093750e-01
337.602940	1.601153	dec_social_low	1.601153	16.000000	n/a	0	-2.304688e-01	-2.304688e-01
337.602940	1.601153	dec_social_reject_low	1.601153	16.000000	n/a	4	1.953125e-02	-2.304688e-01
344.437230	0.833104	dec_social_choice	0.833104	32.000000	n/a	0	0	-2.311198e-01
344.437230	0.833104	dec_choice	0.833104	32.000000	n/a	0	0	-2.304688e-01
344.437230	0.833104	dec_social_reject	0.833104	32.000000	n/a	0	0	-7.324219e-02
344.437230	0.833104	dec_reject	0.833104	32.000000	n/a	0	0	-7.812500e-02
344.437230	0.833104	dec_social_reject_low	0.833104	32.000000	n/a	2	-1.679688e-01	-2.304688e-01
351.270700	1.150041	dec_nonsocial_choice	1.150041	32.000000	n/a	16	2.688802e-01	2.688802e-01
351.270700	1.150041	dec_choice	1.150041	32.000000	n/a	16	2.682292e-01	2.682292e-01
351.270700	1.150041	dec_nonsocial_accept	1.150041	32.000000	n/a	16	7.812500e-02	7.812500e-02
351.270700	1.150041	dec_accept	1.150041	32.000000	n/a	16	1.250000e-01	1.250000e-01
351.270700	1.150041	dec_nonsocial_accept_high	1.150041	32.000000	n/a	16	0	0
360.520970	1.349601	dec_nonsocial_choice	1.349601	32.000000	n/a	16	2.688802e-01	2.688802e-01
360.520970	1.349601	dec_choice	1.349601	32.000000	n/a	16	2.682292e-01	2.682292e-01
360.520970	1.349601	dec_nonsocial_accept	1.349601	32.000000	n/a	16	7.812500e-02	7.812500e-02
360.520970	1.349601	dec_accept	1.349601	32.000000	n/a	16	1.250000e-01	1.250000e-01
360.520970	1.349601	dec_nonsocial_accept_high	1.349601	32.000000	n/a	16	0	0
373.003850	1.050142	dec_nonsocial_choice	1.050142	32.000000	n/a	8	1.888021e-02	1.888021e-02
373.003850	1.050142	dec_choice	1.050142	32.000000	n/a	8	1.822917e-02	1.822917e-02
373.003850	1.050142	dec_nonsocial_accept	1.050142	32.000000	n/a	8	-1.718750e-01	-1.718750e-01
373.003850	1.050142	dec_accept	1.050142	32.000000	n/a	8	-1.250000e-01	-1.250000e-01
373.003850	1.050142	dec_nonsocial_high	1.050142	32.000000	n/a	8	1.822917e-02	1.822917e-02
373.003850	1.050142	dec_nonsocial_accept_high	1.050142	32.000000	n/a	8	-1.250000e-01	-1.250000e-01
