onset	duration	trial_type	response_time	Endowment	Endowment_pmod	Decision	Decision_pmod	Offer_pmod
4.562868	2	cue_social	n/a	32	7	n/a	n/a	n/a
4.562868	2	cue_social_high	n/a	32	7	n/a	n/a	n/a
13.774679	2	cue_nonsocial	n/a	32	7	n/a	n/a	n/a
13.774679	2	cue_nonsocial_high	n/a	32	7	n/a	n/a	n/a
21.425120	2	cue_nonsocial	n/a	16	-9	n/a	n/a	n/a
21.425120	2	cue_nonsocial_low	n/a	16	-9	n/a	n/a	n/a
28.320889	2	cue_social	n/a	16	-9	n/a	n/a	n/a
28.320889	2	cue_social_low	n/a	16	-9	n/a	n/a	n/a
35.091420	2	cue_nonsocial	n/a	32	7	n/a	n/a	n/a
35.091420	2	cue_nonsocial_high	n/a	32	7	n/a	n/a	n/a
41.924606	2	cue_nonsocial	n/a	16	-9	n/a	n/a	n/a
41.924606	2	cue_nonsocial_low	n/a	16	-9	n/a	n/a	n/a
48.757637	2	cue_nonsocial	n/a	32	7	n/a	n/a	n/a
48.757637	2	cue_nonsocial_high	n/a	32	7	n/a	n/a	n/a
58.008167	2	cue_nonsocial	n/a	16	-9	n/a	n/a	n/a
58.008167	2	cue_nonsocial_low	n/a	16	-9	n/a	n/a	n/a
64.920530	2	cue_social	n/a	16	-9	n/a	n/a	n/a
64.920530	2	cue_social_low	n/a	16	-9	n/a	n/a	n/a
71.720590	2	cue_social	n/a	16	-9	n/a	n/a	n/a
71.720590	2	cue_social_low	n/a	16	-9	n/a	n/a	n/a
79.307940	2	cue_nonsocial	n/a	16	-9	n/a	n/a	n/a
79.307940	2	cue_nonsocial_low	n/a	16	-9	n/a	n/a	n/a
86.957820	2	cue_nonsocial	n/a	32	7	n/a	n/a	n/a
86.957820	2	cue_nonsocial_high	n/a	32	7	n/a	n/a	n/a
93.874240	2	cue_social	n/a	16	-9	n/a	n/a	n/a
93.874240	2	cue_social_low	n/a	16	-9	n/a	n/a	n/a
100.624664	2	cue_nonsocial	n/a	32	7	n/a	n/a	n/a
100.624664	2	cue_nonsocial_high	n/a	32	7	n/a	n/a	n/a
108.274506	2	cue_nonsocial	n/a	32	7	n/a	n/a	n/a
108.274506	2	cue_nonsocial_high	n/a	32	7	n/a	n/a	n/a
117.524690	2	cue_nonsocial	n/a	32	7	n/a	n/a	n/a
117.524690	2	cue_nonsocial_high	n/a	32	7	n/a	n/a	n/a
126.774160	2	cue_nonsocial	n/a	32	7	n/a	n/a	n/a
126.774160	2	cue_nonsocial_high	n/a	32	7	n/a	n/a	n/a
133.667140	2	cue_social	n/a	32	7	n/a	n/a	n/a
133.667140	2	cue_social_high	n/a	32	7	n/a	n/a	n/a
140.441390	2	cue_nonsocial	n/a	16	-9	n/a	n/a	n/a
140.441390	2	cue_nonsocial_low	n/a	16	-9	n/a	n/a	n/a
149.743120	2	cue_social	n/a	16	-9	n/a	n/a	n/a
149.743120	2	cue_social_low	n/a	16	-9	n/a	n/a	n/a
159.032910	2	cue_social	n/a	16	-9	n/a	n/a	n/a
159.032910	2	cue_social_low	n/a	16	-9	n/a	n/a	n/a
165.824400	2	cue_social	n/a	16	-9	n/a	n/a	n/a
165.824400	2	cue_social_low	n/a	16	-9	n/a	n/a	n/a
172.607800	2	cue_nonsocial	n/a	16	-9	n/a	n/a	n/a
172.607800	2	cue_nonsocial_low	n/a	16	-9	n/a	n/a	n/a
181.942660	2	cue_social	n/a	32	7	n/a	n/a	n/a
181.942660	2	cue_social_high	n/a	32	7	n/a	n/a	n/a
188.690930	2	cue_nonsocial	n/a	32	7	n/a	n/a	n/a
188.690930	2	cue_nonsocial_high	n/a	32	7	n/a	n/a	n/a
196.364900	2	cue_social	n/a	16	-9	n/a	n/a	n/a
196.364900	2	cue_social_low	n/a	16	-9	n/a	n/a	n/a
204.036390	2	cue_social	n/a	16	-9	n/a	n/a	n/a
204.036390	2	cue_social_low	n/a	16	-9	n/a	n/a	n/a
214.915740	2	cue_social	n/a	32	7	n/a	n/a	n/a
214.915740	2	cue_social_high	n/a	32	7	n/a	n/a	n/a
221.750760	2	cue_social	n/a	32	7	n/a	n/a	n/a
221.750760	2	cue_social_high	n/a	32	7	n/a	n/a	n/a
228.524170	2	cue_nonsocial	n/a	16	-9	n/a	n/a	n/a
228.524170	2	cue_nonsocial_low	n/a	16	-9	n/a	n/a	n/a
236.173900	2	cue_nonsocial	n/a	32	7	n/a	n/a	n/a
236.173900	2	cue_nonsocial_high	n/a	32	7	n/a	n/a	n/a
247.040660	2	cue_nonsocial	n/a	32	7	n/a	n/a	n/a
247.040660	2	cue_nonsocial_high	n/a	32	7	n/a	n/a	n/a
253.874130	2	cue_nonsocial	n/a	16	-9	n/a	n/a	n/a
253.874130	2	cue_nonsocial_low	n/a	16	-9	n/a	n/a	n/a
260.754100	2	cue_social	n/a	32	7	n/a	n/a	n/a
260.754100	2	cue_social_high	n/a	32	7	n/a	n/a	n/a
268.410430	2	cue_social	n/a	32	7	n/a	n/a	n/a
268.410430	2	cue_social_high	n/a	32	7	n/a	n/a	n/a
275.190430	2	cue_nonsocial	n/a	32	7	n/a	n/a	n/a
275.190430	2	cue_nonsocial_high	n/a	32	7	n/a	n/a	n/a
282.088870	2	cue_social	n/a	32	7	n/a	n/a	n/a
282.088870	2	cue_social_high	n/a	32	7	n/a	n/a	n/a
292.890660	2	cue_nonsocial	n/a	16	-9	n/a	n/a	n/a
292.890660	2	cue_nonsocial_low	n/a	16	-9	n/a	n/a	n/a
299.723720	2	cue_nonsocial	n/a	32	7	n/a	n/a	n/a
299.723720	2	cue_nonsocial_high	n/a	32	7	n/a	n/a	n/a
307.373800	2	cue_nonsocial	n/a	32	7	n/a	n/a	n/a
307.373800	2	cue_nonsocial_high	n/a	32	7	n/a	n/a	n/a
314.265530	2	cue_social	n/a	32	7	n/a	n/a	n/a
314.265530	2	cue_social_high	n/a	32	7	n/a	n/a	n/a
321.932100	2	cue_social	n/a	32	7	n/a	n/a	n/a
321.932100	2	cue_social_high	n/a	32	7	n/a	n/a	n/a
328.761700	2	cue_social	n/a	16	-9	n/a	n/a	n/a
328.761700	2	cue_social_low	n/a	16	-9	n/a	n/a	n/a
336.411900	2	cue_social	n/a	32	7	n/a	n/a	n/a
336.411900	2	cue_social_high	n/a	32	7	n/a	n/a	n/a
343.157260	2	cue_nonsocial	n/a	16	-9	n/a	n/a	n/a
343.157260	2	cue_nonsocial_low	n/a	16	-9	n/a	n/a	n/a
355.749080	2	cue_social	n/a	16	-9	n/a	n/a	n/a
355.749080	2	cue_social_low	n/a	16	-9	n/a	n/a	n/a
362.577060	2	cue_social	n/a	32	7	n/a	n/a	n/a
362.577060	2	cue_social_high	n/a	32	7	n/a	n/a	n/a
370.185760	2	cue_social	n/a	32	7	n/a	n/a	n/a
370.185760	2	cue_social_high	n/a	32	7	n/a	n/a	n/a
6.514892	1.149519	dec_social_choice	1.149519	32.000000	n/a	16	2.695312e-01	2.695312e-01
6.514892	1.149519	dec_choice	1.149519	32.000000	n/a	16	2.708333e-01	2.708333e-01
6.514892	1.149519	dec_social_accept	1.149519	32.000000	n/a	16	1.000000e-01	1.000000e-01
6.514892	1.149519	dec_accept	1.149519	32.000000	n/a	16	6.250000e-02	6.250000e-02
6.514892	1.149519	dec_social_accept_high	1.149519	32.000000	n/a	16	2.708333e-01	2.708333e-01
15.780987	0.850038	dec_nonsocial_choice	0.850038	32.000000	n/a	0	0	-2.304688e-01
15.780987	0.850038	dec_choice	0.850038	32.000000	n/a	0	0	-2.317708e-01
15.780987	0.850038	dec_nonsocial_reject	0.850038	32.000000	n/a	0	0	-4.687500e-02
15.780987	0.850038	dec_reject	0.850038	32.000000	n/a	0	0	-2.604167e-02
15.780987	0.850038	dec_nonsocial_low	0.850038	32.000000	n/a	0	-2.317708e-01	-2.317708e-01
15.780987	0.850038	dec_nonsocial_reject_low	0.850038	32.000000	n/a	2	-2.604167e-02	-8.854167e-02
23.431080	0.999997	dec_nonsocial_choice	0.999997	16.000000	n/a	0	0	-2.304688e-01
23.431080	0.999997	dec_choice	0.999997	16.000000	n/a	0	0	-2.317708e-01
23.431080	0.999997	dec_nonsocial_reject	0.999997	16.000000	n/a	0	0	1.562500e-02
23.431080	0.999997	dec_reject	0.999997	16.000000	n/a	0	0	3.645833e-02
23.431080	0.999997	dec_nonsocial_reject_low	0.999997	16.000000	n/a	2	0	-1.250000e-01
30.263582	0.817102	dec_social_choice	0.817102	16.000000	n/a	0	0	-2.304688e-01
30.263582	0.817102	dec_choice	0.817102	16.000000	n/a	0	0	-2.291667e-01
30.263582	0.817102	dec_social_reject	0.817102	16.000000	n/a	0	0	-4.687500e-02
30.263582	0.817102	dec_reject	0.817102	16.000000	n/a	0	0	-6.250000e-02
30.263582	0.817102	dec_social_reject_low	0.817102	16.000000	n/a	1	-1.666667e-01	-2.291667e-01
37.098320	1.415778	dec_nonsocial_choice	1.415778	32.000000	n/a	8	1.953125e-02	1.953125e-02
37.098320	1.415778	dec_choice	1.415778	32.000000	n/a	8	1.822917e-02	1.822917e-02
37.098320	1.415778	dec_nonsocial_accept	1.415778	32.000000	n/a	8	-1.500000e-01	-1.500000e-01
37.098320	1.415778	dec_accept	1.415778	32.000000	n/a	8	-1.250000e-01	-1.250000e-01
37.098320	1.415778	dec_nonsocial_high	1.415778	32.000000	n/a	8	1.822917e-02	1.822917e-02
37.098320	1.415778	dec_nonsocial_accept_high	1.415778	32.000000	n/a	8	-1.250000e-01	-1.250000e-01
43.932205	1.098770	dec_nonsocial_choice	1.098770	16.000000	n/a	8	2.695312e-01	2.695312e-01
43.932205	1.098770	dec_choice	1.098770	16.000000	n/a	8	2.682292e-01	2.682292e-01
43.932205	1.098770	dec_nonsocial_accept	1.098770	16.000000	n/a	8	1.000000e-01	1.000000e-01
43.932205	1.098770	dec_accept	1.098770	16.000000	n/a	8	1.250000e-01	1.250000e-01
43.932205	1.098770	dec_nonsocial_high	1.098770	16.000000	n/a	8	2.682292e-01	2.682292e-01
43.932205	1.098770	dec_nonsocial_accept_high	1.098770	16.000000	n/a	8	1.250000e-01	1.250000e-01
50.764960	0.982849	dec_nonsocial_choice	0.982849	32.000000	n/a	16	2.695312e-01	2.695312e-01
50.764960	0.982849	dec_choice	0.982849	32.000000	n/a	16	2.682292e-01	2.682292e-01
50.764960	0.982849	dec_nonsocial_accept	0.982849	32.000000	n/a	16	1.000000e-01	1.000000e-01
50.764960	0.982849	dec_accept	0.982849	32.000000	n/a	16	1.250000e-01	1.250000e-01
50.764960	0.982849	dec_nonsocial_high	0.982849	32.000000	n/a	16	2.682292e-01	2.682292e-01
50.764960	0.982849	dec_nonsocial_accept_high	0.982849	32.000000	n/a	16	1.250000e-01	1.250000e-01
60.014385	1.800021	dec_nonsocial_choice	1.800021	16.000000	n/a	4	1.953125e-02	1.953125e-02
60.014385	1.800021	dec_choice	1.800021	16.000000	n/a	4	1.822917e-02	1.822917e-02
60.014385	1.800021	dec_nonsocial_accept	1.800021	16.000000	n/a	4	-1.500000e-01	-1.500000e-01
60.014385	1.800021	dec_accept	1.800021	16.000000	n/a	4	-1.250000e-01	-1.250000e-01
60.014385	1.800021	dec_nonsocial_accept_high	1.800021	16.000000	n/a	4	-1.875000e-01	-1.875000e-01
66.846400	1.117864	dec_social_choice	1.117864	16.000000	n/a	8	2.695312e-01	2.695312e-01
66.846400	1.117864	dec_choice	1.117864	16.000000	n/a	8	2.708333e-01	2.708333e-01
66.846400	1.117864	dec_social_accept	1.117864	16.000000	n/a	8	1.000000e-01	1.000000e-01
66.846400	1.117864	dec_accept	1.117864	16.000000	n/a	8	6.250000e-02	6.250000e-02
66.846400	1.117864	dec_social_accept_high	1.117864	16.000000	n/a	8	2.708333e-01	2.708333e-01
73.680440	1.550247	dec_social_choice	1.550247	16.000000	n/a	0	0	-2.304688e-01
73.680440	1.550247	dec_choice	1.550247	16.000000	n/a	0	0	-2.291667e-01
73.680440	1.550247	dec_social_reject	1.550247	16.000000	n/a	0	0	1.406250e-01
73.680440	1.550247	dec_reject	1.550247	16.000000	n/a	0	0	1.250000e-01
73.680440	1.550247	dec_social_reject_low	1.550247	16.000000	n/a	4	2.083333e-02	-2.291667e-01
81.314480	0.865988	dec_nonsocial_choice	0.865988	16.000000	n/a	0	0	-2.304688e-01
81.314480	0.865988	dec_choice	0.865988	16.000000	n/a	0	0	-2.317708e-01
81.314480	0.865988	dec_nonsocial_reject	0.865988	16.000000	n/a	0	0	1.562500e-02
81.314480	0.865988	dec_reject	0.865988	16.000000	n/a	0	0	3.645833e-02
81.314480	0.865988	dec_nonsocial_reject_low	0.865988	16.000000	n/a	2	0	-1.250000e-01
88.965310	1.265324	dec_nonsocial_choice	1.265324	32.000000	n/a	0	0	-2.304688e-01
88.965310	1.265324	dec_choice	1.265324	32.000000	n/a	0	0	-2.317708e-01
88.965310	1.265324	dec_nonsocial_reject	1.265324	32.000000	n/a	0	0	-4.687500e-02
88.965310	1.265324	dec_reject	1.265324	32.000000	n/a	0	0	-2.604167e-02
88.965310	1.265324	dec_nonsocial_low	1.265324	32.000000	n/a	0	-2.317708e-01	-2.317708e-01
88.965310	1.265324	dec_nonsocial_reject_low	1.265324	32.000000	n/a	2	-2.604167e-02	-8.854167e-02
95.797890	0.982676	dec_social_choice	0.982676	16.000000	n/a	0	0	-2.304688e-01
95.797890	0.982676	dec_choice	0.982676	16.000000	n/a	0	0	-2.291667e-01
95.797890	0.982676	dec_social_reject	0.982676	16.000000	n/a	0	0	-4.687500e-02
95.797890	0.982676	dec_reject	0.982676	16.000000	n/a	0	0	-6.250000e-02
95.797890	0.982676	dec_social_low	0.982676	16.000000	n/a	0	-2.291667e-01	-2.291667e-01
95.797890	0.982676	dec_social_reject_low	0.982676	16.000000	n/a	1	-1.666667e-01	-2.291667e-01
102.632040	0.965152	dec_nonsocial_choice	0.965152	32.000000	n/a	0	0	-2.304688e-01
102.632040	0.965152	dec_choice	0.965152	32.000000	n/a	0	0	-2.317708e-01
102.632040	0.965152	dec_nonsocial_reject	0.965152	32.000000	n/a	0	0	-4.687500e-02
102.632040	0.965152	dec_reject	0.965152	32.000000	n/a	0	0	-2.604167e-02
102.632040	0.965152	dec_nonsocial_low	0.965152	32.000000	n/a	0	-2.317708e-01	-2.317708e-01
102.632040	0.965152	dec_nonsocial_reject_low	0.965152	32.000000	n/a	2	-2.604167e-02	-8.854167e-02
110.280740	2.433599	dec_nonsocial_choice	2.433599	32.000000	n/a	8	1.953125e-02	1.953125e-02
110.280740	2.433599	dec_choice	2.433599	32.000000	n/a	8	1.822917e-02	1.822917e-02
110.280740	2.433599	dec_nonsocial_accept	2.433599	32.000000	n/a	8	-1.500000e-01	-1.500000e-01
110.280740	2.433599	dec_accept	2.433599	32.000000	n/a	8	-1.250000e-01	-1.250000e-01
110.280740	2.433599	dec_nonsocial_high	2.433599	32.000000	n/a	8	1.822917e-02	1.822917e-02
110.280740	2.433599	dec_nonsocial_accept_high	2.433599	32.000000	n/a	8	-1.250000e-01	-1.250000e-01
119.530945	1.133148	dec_nonsocial_choice	1.133148	32.000000	n/a	8	1.953125e-02	1.953125e-02
119.530945	1.133148	dec_choice	1.133148	32.000000	n/a	8	1.822917e-02	1.822917e-02
119.530945	1.133148	dec_nonsocial_accept	1.133148	32.000000	n/a	8	-1.500000e-01	-1.500000e-01
119.530945	1.133148	dec_accept	1.133148	32.000000	n/a	8	-1.250000e-01	-1.250000e-01
119.530945	1.133148	dec_nonsocial_accept_high	1.133148	32.000000	n/a	8	-1.875000e-01	-1.875000e-01
128.781310	1.033051	dec_nonsocial_choice	1.033051	32.000000	n/a	0	0	-2.304688e-01
128.781310	1.033051	dec_choice	1.033051	32.000000	n/a	0	0	-2.317708e-01
128.781310	1.033051	dec_nonsocial_reject	1.033051	32.000000	n/a	0	0	-1.562500e-02
128.781310	1.033051	dec_reject	1.033051	32.000000	n/a	0	0	5.208333e-03
128.781310	1.033051	dec_nonsocial_reject_low	1.033051	32.000000	n/a	3	-3.125000e-02	-1.250000e-01
135.613890	0.900104	dec_social_choice	0.900104	32.000000	n/a	16	2.695312e-01	2.695312e-01
135.613890	0.900104	dec_choice	0.900104	32.000000	n/a	16	2.708333e-01	2.708333e-01
135.613890	0.900104	dec_social_accept	0.900104	32.000000	n/a	16	1.000000e-01	1.000000e-01
135.613890	0.900104	dec_accept	0.900104	32.000000	n/a	16	6.250000e-02	6.250000e-02
135.613890	0.900104	dec_social_accept_high	0.900104	32.000000	n/a	16	2.708333e-01	2.708333e-01
142.447680	1.249825	dec_nonsocial_choice	1.249825	16.000000	n/a	8	2.695312e-01	2.695312e-01
142.447680	1.249825	dec_choice	1.249825	16.000000	n/a	8	2.682292e-01	2.682292e-01
142.447680	1.249825	dec_nonsocial_accept	1.249825	16.000000	n/a	8	1.000000e-01	1.000000e-01
142.447680	1.249825	dec_accept	1.249825	16.000000	n/a	8	1.250000e-01	1.250000e-01
142.447680	1.249825	dec_nonsocial_accept_high	1.249825	16.000000	n/a	8	6.250000e-02	6.250000e-02
151.696870	1.866831	dec_social_choice	1.866831	16.000000	n/a	0	0	-2.304688e-01
151.696870	1.866831	dec_choice	1.866831	16.000000	n/a	0	0	-2.291667e-01
151.696870	1.866831	dec_social_reject	1.866831	16.000000	n/a	0	0	1.406250e-01
151.696870	1.866831	dec_reject	1.866831	16.000000	n/a	0	0	1.250000e-01
151.696870	1.866831	dec_social_reject_low	1.866831	16.000000	n/a	4	2.083333e-02	-2.291667e-01
160.946850	1.516782	dec_social_choice	1.516782	16.000000	n/a	0	0	-2.304688e-01
160.946850	1.516782	dec_choice	1.516782	16.000000	n/a	0	0	-2.291667e-01
160.946850	1.516782	dec_social_reject	1.516782	16.000000	n/a	0	0	1.406250e-01
160.946850	1.516782	dec_reject	1.516782	16.000000	n/a	0	0	1.250000e-01
160.946850	1.516782	dec_social_reject_low	1.516782	16.000000	n/a	4	2.083333e-02	-2.291667e-01
167.779850	0.800955	dec_social_choice	0.800955	16.000000	n/a	0	0	-2.304688e-01
167.779850	0.800955	dec_choice	0.800955	16.000000	n/a	0	0	-2.291667e-01
167.779850	0.800955	dec_social_reject	0.800955	16.000000	n/a	0	0	1.562500e-02
167.779850	0.800955	dec_reject	0.800955	16.000000	n/a	0	0	0
167.779850	0.800955	dec_social_low	0.800955	16.000000	n/a	0	-2.291667e-01	-2.291667e-01
167.779850	0.800955	dec_social_reject_low	0.800955	16.000000	n/a	2	-1.041667e-01	-2.291667e-01
174.614210	0.833253	dec_nonsocial_choice	0.833253	16.000000	n/a	0	0	-2.304688e-01
174.614210	0.833253	dec_choice	0.833253	16.000000	n/a	0	0	-2.317708e-01
174.614210	0.833253	dec_nonsocial_reject	0.833253	16.000000	n/a	0	0	1.562500e-02
174.614210	0.833253	dec_reject	0.833253	16.000000	n/a	0	0	3.645833e-02
174.614210	0.833253	dec_nonsocial_reject_low	0.833253	16.000000	n/a	2	0	-1.250000e-01
183.863710	0.916944	dec_social_choice	0.916944	32.000000	n/a	0	0	-2.304688e-01
183.863710	0.916944	dec_choice	0.916944	32.000000	n/a	0	0	-2.291667e-01
183.863710	0.916944	dec_social_reject	0.916944	32.000000	n/a	0	0	-4.687500e-02
183.863710	0.916944	dec_reject	0.916944	32.000000	n/a	0	0	-6.250000e-02
183.863710	0.916944	dec_social_reject_low	0.916944	32.000000	n/a	2	-1.666667e-01	-2.291667e-01
190.697830	0.965547	dec_nonsocial_choice	0.965547	32.000000	n/a	0	0	-2.304688e-01
190.697830	0.965547	dec_choice	0.965547	32.000000	n/a	0	0	-2.317708e-01
190.697830	0.965547	dec_nonsocial_reject	0.965547	32.000000	n/a	0	0	-1.562500e-02
190.697830	0.965547	dec_reject	0.965547	32.000000	n/a	0	0	5.208333e-03
190.697830	0.965547	dec_nonsocial_reject_low	0.965547	32.000000	n/a	3	-3.125000e-02	-1.250000e-01
198.347120	1.333009	dec_social_choice	1.333009	16.000000	n/a	8	2.695312e-01	2.695312e-01
198.347120	1.333009	dec_choice	1.333009	16.000000	n/a	8	2.708333e-01	2.708333e-01
198.347120	1.333009	dec_social_accept	1.333009	16.000000	n/a	8	1.000000e-01	1.000000e-01
198.347120	1.333009	dec_accept	1.333009	16.000000	n/a	8	6.250000e-02	6.250000e-02
198.347120	1.333009	dec_social_accept_high	1.333009	16.000000	n/a	8	2.708333e-01	2.708333e-01
205.997680	0.965569	dec_social_choice	0.965569	16.000000	n/a	0	0	-2.304688e-01
205.997680	0.965569	dec_choice	0.965569	16.000000	n/a	0	0	-2.291667e-01
205.997680	0.965569	dec_social_reject	0.965569	16.000000	n/a	0	0	1.562500e-02
205.997680	0.965569	dec_reject	0.965569	16.000000	n/a	0	0	0
205.997680	0.965569	dec_social_reject_low	0.965569	16.000000	n/a	2	-1.041667e-01	-2.291667e-01
216.863020	1.834160	dec_social_choice	1.834160	32.000000	n/a	8	1.953125e-02	1.953125e-02
216.863020	1.834160	dec_choice	1.834160	32.000000	n/a	8	2.083333e-02	2.083333e-02
216.863020	1.834160	dec_social_accept	1.834160	32.000000	n/a	8	-1.500000e-01	-1.500000e-01
216.863020	1.834160	dec_accept	1.834160	32.000000	n/a	8	-1.875000e-01	-1.875000e-01
216.863020	1.834160	dec_social_accept_high	1.834160	32.000000	n/a	8	2.083333e-02	2.083333e-02
223.696870	1.300327	dec_social_choice	1.300327	32.000000	n/a	0	0	-2.304688e-01
223.696870	1.300327	dec_choice	1.300327	32.000000	n/a	0	0	-2.291667e-01
223.696870	1.300327	dec_social_reject	1.300327	32.000000	n/a	0	0	-1.562500e-02
223.696870	1.300327	dec_reject	1.300327	32.000000	n/a	0	0	-3.125000e-02
223.696870	1.300327	dec_social_reject_low	1.300327	32.000000	n/a	3	-1.354167e-01	-2.291667e-01
230.530650	0.849882	dec_nonsocial_choice	0.849882	16.000000	n/a	0	0	-2.304688e-01
230.530650	0.849882	dec_choice	0.849882	16.000000	n/a	0	0	-2.317708e-01
230.530650	0.849882	dec_nonsocial_reject	0.849882	16.000000	n/a	0	0	-4.687500e-02
230.530650	0.849882	dec_reject	0.849882	16.000000	n/a	0	0	-2.604167e-02
230.530650	0.849882	dec_nonsocial_low	0.849882	16.000000	n/a	0	-2.317708e-01	-2.317708e-01
230.530650	0.849882	dec_nonsocial_reject_low	0.849882	16.000000	n/a	1	-2.604167e-02	-8.854167e-02
238.180770	1.149899	dec_nonsocial_choice	1.149899	32.000000	n/a	0	0	-2.304688e-01
238.180770	1.149899	dec_choice	1.149899	32.000000	n/a	0	0	-2.317708e-01
238.180770	1.149899	dec_nonsocial_reject	1.149899	32.000000	n/a	0	0	-4.687500e-02
238.180770	1.149899	dec_reject	1.149899	32.000000	n/a	0	0	-2.604167e-02
238.180770	1.149899	dec_nonsocial_reject_low	1.149899	32.000000	n/a	2	-6.250000e-02	-1.250000e-01
249.046800	1.016540	dec_nonsocial_choice	1.016540	32.000000	n/a	16	2.695312e-01	2.695312e-01
249.046800	1.016540	dec_choice	1.016540	32.000000	n/a	16	2.682292e-01	2.682292e-01
249.046800	1.016540	dec_nonsocial_accept	1.016540	32.000000	n/a	16	1.000000e-01	1.000000e-01
249.046800	1.016540	dec_accept	1.016540	32.000000	n/a	16	1.250000e-01	1.250000e-01
249.046800	1.016540	dec_nonsocial_accept_high	1.016540	32.000000	n/a	16	6.250000e-02	6.250000e-02
255.880680	1.132867	dec_nonsocial_choice	1.132867	16.000000	n/a	8	2.695312e-01	2.695312e-01
255.880680	1.132867	dec_choice	1.132867	16.000000	n/a	8	2.682292e-01	2.682292e-01
255.880680	1.132867	dec_nonsocial_accept	1.132867	16.000000	n/a	8	1.000000e-01	1.000000e-01
255.880680	1.132867	dec_accept	1.132867	16.000000	n/a	8	1.250000e-01	1.250000e-01
255.880680	1.132867	dec_nonsocial_high	1.132867	16.000000	n/a	8	2.682292e-01	2.682292e-01
255.880680	1.132867	dec_nonsocial_accept_high	1.132867	16.000000	n/a	8	1.250000e-01	1.250000e-01
262.714600	0.982572	dec_social_choice	0.982572	32.000000	n/a	0	0	-2.304688e-01
262.714600	0.982572	dec_choice	0.982572	32.000000	n/a	0	0	-2.291667e-01
262.714600	0.982572	dec_social_reject	0.982572	32.000000	n/a	0	0	-1.562500e-02
262.714600	0.982572	dec_reject	0.982572	32.000000	n/a	0	0	-3.125000e-02
262.714600	0.982572	dec_social_low	0.982572	32.000000	n/a	0	-2.291667e-01	-2.291667e-01
262.714600	0.982572	dec_social_reject_low	0.982572	32.000000	n/a	3	-1.354167e-01	-2.291667e-01
270.363600	1.100102	dec_social_choice	1.100102	32.000000	n/a	0	0	-2.304688e-01
270.363600	1.100102	dec_choice	1.100102	32.000000	n/a	0	0	-2.291667e-01
270.363600	1.100102	dec_social_reject	1.100102	32.000000	n/a	0	0	-4.687500e-02
270.363600	1.100102	dec_reject	1.100102	32.000000	n/a	0	0	-6.250000e-02
270.363600	1.100102	dec_social_reject_low	1.100102	32.000000	n/a	2	-1.666667e-01	-2.291667e-01
277.198150	1.032265	dec_nonsocial_choice	1.032265	32.000000	n/a	16	2.695312e-01	2.695312e-01
277.198150	1.032265	dec_choice	1.032265	32.000000	n/a	16	2.682292e-01	2.682292e-01
277.198150	1.032265	dec_nonsocial_accept	1.032265	32.000000	n/a	16	1.000000e-01	1.000000e-01
277.198150	1.032265	dec_accept	1.032265	32.000000	n/a	16	1.250000e-01	1.250000e-01
277.198150	1.032265	dec_nonsocial_accept_high	1.032265	32.000000	n/a	16	6.250000e-02	6.250000e-02
284.030550	0.899827	dec_social_choice	0.899827	32.000000	n/a	16	2.695312e-01	2.695312e-01
284.030550	0.899827	dec_choice	0.899827	32.000000	n/a	16	2.708333e-01	2.708333e-01
284.030550	0.899827	dec_social_accept	0.899827	32.000000	n/a	16	1.000000e-01	1.000000e-01
284.030550	0.899827	dec_accept	0.899827	32.000000	n/a	16	6.250000e-02	6.250000e-02
284.030550	0.899827	dec_social_high	0.899827	32.000000	n/a	16	2.708333e-01	2.708333e-01
284.030550	0.899827	dec_social_accept_high	0.899827	32.000000	n/a	16	2.708333e-01	2.708333e-01
294.897160	1.066033	dec_nonsocial_choice	1.066033	16.000000	n/a	0	0	-2.304688e-01
294.897160	1.066033	dec_choice	1.066033	16.000000	n/a	0	0	-2.317708e-01
294.897160	1.066033	dec_nonsocial_reject	1.066033	16.000000	n/a	0	0	1.562500e-02
294.897160	1.066033	dec_reject	1.066033	16.000000	n/a	0	0	3.645833e-02
294.897160	1.066033	dec_nonsocial_low	1.066033	16.000000	n/a	0	-2.317708e-01	-2.317708e-01
294.897160	1.066033	dec_nonsocial_reject_low	1.066033	16.000000	n/a	2	3.645833e-02	-8.854167e-02
301.731400	1.748990	dec_nonsocial_choice	1.748990	32.000000	n/a	8	1.953125e-02	1.953125e-02
301.731400	1.748990	dec_choice	1.748990	32.000000	n/a	8	1.822917e-02	1.822917e-02
301.731400	1.748990	dec_nonsocial_accept	1.748990	32.000000	n/a	8	-1.500000e-01	-1.500000e-01
301.731400	1.748990	dec_accept	1.748990	32.000000	n/a	8	-1.250000e-01	-1.250000e-01
301.731400	1.748990	dec_nonsocial_accept_high	1.748990	32.000000	n/a	8	-1.875000e-01	-1.875000e-01
309.379500	1.617099	dec_nonsocial_choice	1.617099	32.000000	n/a	8	1.953125e-02	1.953125e-02
309.379500	1.617099	dec_choice	1.617099	32.000000	n/a	8	1.822917e-02	1.822917e-02
309.379500	1.617099	dec_nonsocial_accept	1.617099	32.000000	n/a	8	-1.500000e-01	-1.500000e-01
309.379500	1.617099	dec_accept	1.617099	32.000000	n/a	8	-1.250000e-01	-1.250000e-01
309.379500	1.617099	dec_nonsocial_accept_high	1.617099	32.000000	n/a	8	-1.875000e-01	-1.875000e-01
316.212830	0.933913	dec_social_choice	0.933913	32.000000	n/a	0	0	-2.304688e-01
316.212830	0.933913	dec_choice	0.933913	32.000000	n/a	0	0	-2.291667e-01
316.212830	0.933913	dec_social_reject	0.933913	32.000000	n/a	0	0	-1.562500e-02
316.212830	0.933913	dec_reject	0.933913	32.000000	n/a	0	0	-3.125000e-02
316.212830	0.933913	dec_social_low	0.933913	32.000000	n/a	0	-2.291667e-01	-2.291667e-01
316.212830	0.933913	dec_social_reject_low	0.933913	32.000000	n/a	3	-1.354167e-01	-2.291667e-01
323.862730	1.383760	dec_social_choice	1.383760	32.000000	n/a	0	0	-2.304688e-01
323.862730	1.383760	dec_choice	1.383760	32.000000	n/a	0	0	-2.291667e-01
323.862730	1.383760	dec_social_reject	1.383760	32.000000	n/a	0	0	-4.687500e-02
323.862730	1.383760	dec_reject	1.383760	32.000000	n/a	0	0	-6.250000e-02
323.862730	1.383760	dec_social_low	1.383760	32.000000	n/a	0	-2.291667e-01	-2.291667e-01
323.862730	1.383760	dec_social_reject_low	1.383760	32.000000	n/a	2	-1.666667e-01	-2.291667e-01
330.696260	2.100362	dec_social_choice	2.100362	16.000000	n/a	0	0	-2.304688e-01
330.696260	2.100362	dec_choice	2.100362	16.000000	n/a	0	0	-2.291667e-01
330.696260	2.100362	dec_social_reject	2.100362	16.000000	n/a	0	0	1.406250e-01
330.696260	2.100362	dec_reject	2.100362	16.000000	n/a	0	0	1.250000e-01
330.696260	2.100362	dec_social_low	2.100362	16.000000	n/a	0	-2.291667e-01	-2.291667e-01
330.696260	2.100362	dec_social_reject_low	2.100362	16.000000	n/a	4	2.083333e-02	-2.291667e-01
338.330050	1.249979	dec_social_choice	1.249979	32.000000	n/a	0	0	-2.304688e-01
338.330050	1.249979	dec_choice	1.249979	32.000000	n/a	0	0	-2.291667e-01
338.330050	1.249979	dec_social_reject	1.249979	32.000000	n/a	0	0	-4.687500e-02
338.330050	1.249979	dec_reject	1.249979	32.000000	n/a	0	0	-6.250000e-02
338.330050	1.249979	dec_social_reject_low	1.249979	32.000000	n/a	2	-1.666667e-01	-2.291667e-01
345.163970	1.115844	dec_nonsocial_choice	1.115844	16.000000	n/a	0	0	-2.304688e-01
345.163970	1.115844	dec_choice	1.115844	16.000000	n/a	0	0	-2.317708e-01
345.163970	1.115844	dec_nonsocial_reject	1.115844	16.000000	n/a	0	0	-4.687500e-02
345.163970	1.115844	dec_reject	1.115844	16.000000	n/a	0	0	-2.604167e-02
345.163970	1.115844	dec_nonsocial_reject_low	1.115844	16.000000	n/a	1	-6.250000e-02	-1.250000e-01
357.647000	1.216112	dec_social_choice	1.216112	16.000000	n/a	8	2.695312e-01	2.695312e-01
357.647000	1.216112	dec_choice	1.216112	16.000000	n/a	8	2.708333e-01	2.708333e-01
357.647000	1.216112	dec_social_accept	1.216112	16.000000	n/a	8	1.000000e-01	1.000000e-01
357.647000	1.216112	dec_accept	1.216112	16.000000	n/a	8	6.250000e-02	6.250000e-02
357.647000	1.216112	dec_social_accept_high	1.216112	16.000000	n/a	8	2.708333e-01	2.708333e-01
364.480300	1.765981	dec_social_choice	1.765981	32.000000	n/a	8	1.953125e-02	1.953125e-02
364.480300	1.765981	dec_choice	1.765981	32.000000	n/a	8	2.083333e-02	2.083333e-02
364.480300	1.765981	dec_social_accept	1.765981	32.000000	n/a	8	-1.500000e-01	-1.500000e-01
364.480300	1.765981	dec_accept	1.765981	32.000000	n/a	8	-1.875000e-01	-1.875000e-01
364.480300	1.765981	dec_social_high	1.765981	32.000000	n/a	8	2.083333e-02	2.083333e-02
364.480300	1.765981	dec_social_accept_high	1.765981	32.000000	n/a	8	2.083333e-02	2.083333e-02
372.130600	0.965614	dec_social_choice	0.965614	32.000000	n/a	0	0	-2.304688e-01
372.130600	0.965614	dec_choice	0.965614	32.000000	n/a	0	0	-2.291667e-01
372.130600	0.965614	dec_social_reject	0.965614	32.000000	n/a	0	0	-1.562500e-02
372.130600	0.965614	dec_reject	0.965614	32.000000	n/a	0	0	-3.125000e-02
372.130600	0.965614	dec_social_low	0.965614	32.000000	n/a	0	-2.291667e-01	-2.291667e-01
372.130600	0.965614	dec_social_reject_low	0.965614	32.000000	n/a	3	-1.354167e-01	-2.291667e-01
