instrText,stimDoor,stimDoorLure,stimFace,stimFaceLure,Instructions.thisRepN,Instructions.thisTrialN,Instructions.thisN,Instructions.thisIndex,Trials.thisRepN,Trials.thisTrialN,Trials.thisN,Trials.thisIndex,Func,Keys,Text,RespTime,Onset,Offset,SystemTime_Start,SystemTime_Stop,Stim,Lure,Participant*,Age,date,expName,psychopyVersion,frameRate,
"In the earlier Feedback Games, you chose which doors contained a prize, and which peers liked you. 

You then saw positive or negative feedback (green check mark or red X) from the door or peer you selected.

You will now see a series of doors and peers, some of which you saw during the earlier Feedback Games, and some that you have never seen before.

Please press the spacebar to continue.",,,,,0,0,0,0,,,,,instrFunc,space,"In the earlier Feedback Games, you chose which doors contained a prize, and which peers liked you. 

You then saw positive or negative feedback (green check mark or red X) from the door or peer you selected.

You will now see a series of doors and peers, some of which you saw during the earlier Feedback Games, and some that you have never seen before.

Please press the spacebar to continue.",17.894399899989367,88.87926349998452,106.84496935986681,2023-10-06 12:32:04.908442,2023-10-06 12:32:22.858002,,,10794,30-49,2023-10-06_12h32.01.347,Recall,2021.2.3,60.06428080730228,
"For doors/peers that you remember selecting and getting feedback from, your job is to RECALL what feedback you received. 

Press '1' if you recall positive feedback. 

Press '2' if you recall negative feedback

Press the spacebar to continue.",,,,,0,1,1,1,,,,,instrFunc,space,"For doors/peers that you remember selecting and getting feedback from, your job is to RECALL what feedback you received. 

Press '1' if you recall positive feedback. 

Press '2' if you recall negative feedback

Press the spacebar to continue.",23.337023600004613,106.81241419998696,130.2093459799653,2023-10-06 12:32:22.859024,2023-10-06 12:32:46.240763,,,10794,30-49,2023-10-06_12h32.01.347,Recall,2021.2.3,60.06428080730228,
"For doors/peers that you don't remember getting feedback from, your job is to PREDICT what feedback you WOULD HAVE received.

Press '9' if you predict positive feedback.

Press '0' if you predict negative feedback. 

Please press the spacebar to continue.",,,,,0,2,2,2,,,,,instrFunc,space,"For doors/peers that you don't remember getting feedback from, your job is to PREDICT what feedback you WOULD HAVE received.

Press '9' if you predict positive feedback.

Press '0' if you predict negative feedback. 

Please press the spacebar to continue.",12.802334499952849,130.19534620002378,143.0523259799811,2023-10-06 12:32:46.241764,2023-10-06 12:32:59.083378,,,10794,30-49,2023-10-06_12h32.01.347,Recall,2021.2.3,60.06428080730228,
"This task is self-paced, and the prompts will always stay on the screen so that you know which buttons to press.

On the next screen we will show you what those prompts look like, so that you know exactly what to expect. 

You will start with either doors or peers, and then switch halfway through. 

Please press the spacebar to continue.",,,,,0,3,3,3,,,,,instrFunc,space,"This task is self-paced, and the prompts will always stay on the screen so that you know which buttons to press.

On the next screen we will show you what those prompts look like, so that you know exactly what to expect. 

You will start with either doors or peers, and then switch halfway through. 

Please press the spacebar to continue.",10.690877499990165,143.0347968999995,153.77395288000116,2023-10-06 12:32:59.084385,2023-10-06 12:33:09.808108,,,10794,30-49,2023-10-06_12h32.01.347,Recall,2021.2.3,60.06428080730228,
,,,,,,,,,,,,,imgtextFunc,space,"Here is what the screen will look like while you make your ratings.
The green circles remind you to press 1 or 9 for positive feedback.
The red circles remind you to press 2 or 0 for negative feedback.









Please let the experimenter know if you have any questions.

Whenever you're ready, press the spacebar to start the task.",25.2497228999855,153.89981069997884,179.31537187990034,2023-10-06 12:33:09.818083,2023-10-06 12:33:35.227283,,,10794,30-49,2023-10-06_12h32.01.347,Recall,2021.2.3,60.06428080730228,
,SD036.jpg,0,MF036.jpg,0,,,,,0,0,0,85,imgFunc,1,NA,36.10027529997751,179.2976159999962,215.52591313997982,2023-10-06 12:33:35.266953,2023-10-06 12:34:11.485956,MF036.jpg,0,10794,30-49,2023-10-06_12h32.01.347,Recall,2021.2.3,60.06428080730228,
,SD009.jpg,0,MF009.jpg,0,,,,,0,1,1,58,imgFunc,1,NA,1.7511583000305109,215.52645250002388,217.38825307996012,2023-10-06 12:34:11.497526,2023-10-06 12:34:13.354174,MF009.jpg,0,10794,30-49,2023-10-06_12h32.01.347,Recall,2021.2.3,60.06428080730228,
,DD020.jpg,0,FF020.jpg,0,,,,,0,2,2,19,imgFunc,1,NA,4.331078999966849,217.37855550000677,221.81569587998092,2023-10-06 12:34:13.362155,2023-10-06 12:34:17.790716,FF020.jpg,0,10794,30-49,2023-10-06_12h32.01.347,Recall,2021.2.3,60.06428080730228,
,DD014.jpg,0,FF014.jpg,0,,,,,0,3,3,13,imgFunc,2,NA,5.1697997999726795,221.83588329999475,227.13083127996651,2023-10-06 12:34:17.802686,2023-10-06 12:34:23.094106,FF014.jpg,0,10794,30-49,2023-10-06_12h32.01.347,Recall,2021.2.3,60.06428080730228,
,DD024.jpg,0,FF024.jpg,0,,,,,0,4,4,23,imgFunc,1,NA,2.2066486999974586,227.11101160000544,229.41105917998357,2023-10-06 12:34:23.103084,2023-10-06 12:34:25.396127,FF024.jpg,0,10794,30-49,2023-10-06_12h32.01.347,Recall,2021.2.3,60.06428080730228,
,DD019.jpg,0,FF019.jpg,0,,,,,0,5,5,18,imgFunc,2,NA,3.410699600004591,229.41923310002312,232.9394281799905,2023-10-06 12:34:25.403110,2023-10-06 12:34:28.914989,FF019.jpg,0,10794,30-49,2023-10-06_12h32.01.347,Recall,2021.2.3,60.06428080730228,
,DD031.jpg,0,FF031.jpg,0,,,,,0,6,6,30,imgFunc,1,NA,4.1687434000195935,232.94902349996846,237.23686217993964,2023-10-06 12:34:28.921972,2023-10-06 12:34:33.201651,FF031.jpg,0,10794,30-49,2023-10-06_12h32.01.347,Recall,2021.2.3,60.06428080730228,
,L_DD503.jpg,1,L_FF503.jpg,1,,,,,0,7,7,42,imgFunc,9,NA,9.592104499984998,237.24552749999566,246.95747167995432,2023-10-06 12:34:33.215615,2023-10-06 12:34:42.925425,L_FF503.jpg,1,10794,30-49,2023-10-06_12h32.01.347,Recall,2021.2.3,60.06428080730228,
,SD016.jpg,0,MF016.jpg,0,,,,,0,8,8,65,imgFunc,2,NA,3.1673941999906674,246.94237349997275,250.20921077998355,2023-10-06 12:34:42.934403,2023-10-06 12:34:46.194308,MF016.jpg,0,10794,30-49,2023-10-06_12h32.01.347,Recall,2021.2.3,60.06428080730228,
,DD003.jpg,0,FF003.jpg,0,,,,,0,9,9,2,imgFunc,2,NA,3.195380099990871,250.22640139999567,253.54712027998175,2023-10-06 12:34:46.201291,2023-10-06 12:34:49.513305,FF003.jpg,0,10794,30-49,2023-10-06_12h32.01.347,Recall,2021.2.3,60.06428080730228,
,DD002.jpg,0,FF002.jpg,0,,,,,0,10,10,1,imgFunc,1,NA,2.5244497999665327,253.55329800001346,256.20520127995405,2023-10-06 12:34:49.521285,2023-10-06 12:34:52.165191,FF002.jpg,0,10794,30-49,2023-10-06_12h32.01.347,Recall,2021.2.3,60.06428080730228,
,L_SD505.jpg,1,L_MF505.jpg,1,,,,,0,11,11,94,imgFunc,1,NA,3.3011760000372306,256.184696900018,259.58820287999697,2023-10-06 12:34:52.172174,2023-10-06 12:34:55.567577,L_MF505.jpg,1,10794,30-49,2023-10-06_12h32.01.347,Recall,2021.2.3,60.06428080730228,
,DD037.jpg,0,FF037.jpg,0,,,,,0,12,12,36,imgFunc,2,NA,8.238682900031563,259.6069631999708,267.9500840799301,2023-10-06 12:34:55.582541,2023-10-06 12:35:03.923968,FF037.jpg,0,10794,30-49,2023-10-06_12h32.01.347,Recall,2021.2.3,60.06428080730228,
,SD002.jpg,0,MF002.jpg,0,,,,,0,13,13,51,imgFunc,0,NA,4.76083689997904,267.9409173000022,272.8085359800025,2023-10-06 12:35:03.933323,2023-10-06 12:35:08.793741,MF002.jpg,0,10794,30-49,2023-10-06_12h32.01.347,Recall,2021.2.3,60.06428080730228,
,SD021.jpg,0,MF021.jpg,0,,,,,0,14,14,70,imgFunc,2,NA,4.495221999997739,272.822594999976,277.42360588000156,2023-10-06 12:35:08.802742,2023-10-06 12:35:13.397340,MF021.jpg,0,10794,30-49,2023-10-06_12h32.01.347,Recall,2021.2.3,60.06428080730228,
,SD022.jpg,0,MF022.jpg,0,,,,,0,15,15,71,imgFunc,9,NA,3.965136499959044,277.4247120000073,281.49242807994597,2023-10-06 12:35:13.406348,2023-10-06 12:35:17.467076,MF022.jpg,0,10794,30-49,2023-10-06_12h32.01.347,Recall,2021.2.3,60.06428080730228,
,SD028.jpg,0,MF028.jpg,0,,,,,0,16,16,77,imgFunc,1,NA,1.7508246999932453,281.50280939997174,283.3703205799102,2023-10-06 12:35:17.475060,2023-10-06 12:35:19.334863,MF028.jpg,0,10794,30-49,2023-10-06_12h32.01.347,Recall,2021.2.3,60.06428080730228,
,DD001.jpg,0,FF001.jpg,0,,,,,0,17,17,0,imgFunc,1,NA,1.164816599979531,283.3528642000165,284.6220356799895,2023-10-06 12:35:19.341846,2023-10-06 12:35:20.602309,FF001.jpg,0,10794,30-49,2023-10-06_12h32.01.347,Recall,2021.2.3,60.06428080730228,
,SD014.jpg,0,MF014.jpg,0,,,,,0,18,18,63,imgFunc,1,NA,2.5656037000007927,284.6161817999673,287.2866310799727,2023-10-06 12:35:20.609292,2023-10-06 12:35:23.271052,MF014.jpg,0,10794,30-49,2023-10-06_12h32.01.347,Recall,2021.2.3,60.06428080730228,
,SD015.jpg,0,MF015.jpg,0,,,,,0,19,19,64,imgFunc,1,NA,3.7488308000029065,287.28102370002307,291.11878208001144,2023-10-06 12:35:23.278059,2023-10-06 12:35:27.107161,MF015.jpg,0,10794,30-49,2023-10-06_12h32.01.347,Recall,2021.2.3,60.06428080730228,
,SD007.jpg,0,MF007.jpg,0,,,,,0,20,20,56,imgFunc,1,NA,4.611420300032478,291.1224199999706,295.8440862799762,2023-10-06 12:35:27.114144,2023-10-06 12:35:31.827076,MF007.jpg,0,10794,30-49,2023-10-06_12h32.01.347,Recall,2021.2.3,60.06428080730228,
,L_DD502.jpg,1,L_FF502.jpg,1,,,,,0,21,21,41,imgFunc,0,NA,2.302382999972906,295.87964609998744,298.30044257995905,2023-10-06 12:35:31.842038,2023-10-06 12:35:34.262323,L_FF502.jpg,1,10794,30-49,2023-10-06_12h32.01.347,Recall,2021.2.3,60.06428080730228,
,SD027.jpg,0,MF027.jpg,0,,,,,0,22,22,76,imgFunc,1,NA,3.990787699993234,298.2790503000142,302.3653977799695,2023-10-06 12:35:34.270303,2023-10-06 12:35:38.348636,MF027.jpg,0,10794,30-49,2023-10-06_12h32.01.347,Recall,2021.2.3,60.06428080730228,
,DD032.jpg,0,FF032.jpg,0,,,,,0,23,23,31,imgFunc,9,NA,3.1507206999813206,302.37514349998673,305.64575068000704,2023-10-06 12:35:38.355619,2023-10-06 12:35:41.617531,FF032.jpg,0,10794,30-49,2023-10-06_12h32.01.347,Recall,2021.2.3,60.06428080730228,
,SD024.jpg,0,MF024.jpg,0,,,,,0,24,24,73,imgFunc,0,NA,3.7868889999808744,305.6430849999888,309.5469464799389,2023-10-06 12:35:41.624514,2023-10-06 12:35:45.520175,MF024.jpg,0,10794,30-49,2023-10-06_12h32.01.347,Recall,2021.2.3,60.06428080730228,
,DD015.jpg,0,FF015.jpg,0,,,,,0,25,25,14,imgFunc,1,NA,3.082493699970655,309.55545350001194,312.75931937998394,2023-10-06 12:35:45.527158,2023-10-06 12:35:48.722476,FF015.jpg,0,10794,30-49,2023-10-06_12h32.01.347,Recall,2021.2.3,60.06428080730228,
,L_SD508.jpg,1,L_MF508.jpg,1,,,,,0,26,26,97,imgFunc,1,NA,0.9459241000004113,312.7479530000128,313.78627707995474,2023-10-06 12:35:48.736440,2023-10-06 12:35:49.773614,L_MF508.jpg,1,10794,30-49,2023-10-06_12h32.01.347,Recall,2021.2.3,60.06428080730228,
,SD008.jpg,0,MF008.jpg,0,,,,,0,27,27,57,imgFunc,2,NA,2.6539732999517582,313.79193860001396,316.5458930800087,2023-10-06 12:35:49.780597,2023-10-06 12:35:52.525557,MF008.jpg,0,10794,30-49,2023-10-06_12h32.01.347,Recall,2021.2.3,60.06428080730228,
,DD028.jpg,0,FF028.jpg,0,,,,,0,28,28,27,imgFunc,9,NA,2.756694499985315,316.55310339998687,319.4234137799358,2023-10-06 12:35:52.532540,2023-10-06 12:35:55.393895,FF028.jpg,0,10794,30-49,2023-10-06_12h32.01.347,Recall,2021.2.3,60.06428080730228,
,SD031.jpg,0,MF031.jpg,0,,,,,0,29,29,80,imgFunc,1,NA,1.8584051000070758,319.41128729999764,321.3812594799674,2023-10-06 12:35:55.400878,2023-10-06 12:35:57.362059,MF031.jpg,0,10794,30-49,2023-10-06_12h32.01.347,Recall,2021.2.3,60.06428080730228,
,SD040.jpg,0,MF040.jpg,0,,,,,0,30,30,89,imgFunc,1,NA,2.96518300002208,321.37651129998267,324.44705397996586,2023-10-06 12:35:57.369042,2023-10-06 12:36:00.430928,MF040.jpg,0,10794,30-49,2023-10-06_12h32.01.347,Recall,2021.2.3,60.06428080730228,
,SD004.jpg,0,MF004.jpg,0,,,,,0,31,31,53,imgFunc,1,NA,5.184091700008139,324.453803899989,329.7280608799192,2023-10-06 12:36:00.445890,2023-10-06 12:36:05.718173,MF004.jpg,0,10794,30-49,2023-10-06_12h32.01.347,Recall,2021.2.3,60.06428080730228,
,L_SD501.jpg,1,L_MF501.jpg,1,,,,,0,32,32,90,imgFunc,9,NA,4.766274900001008,329.74360519996844,334.6116845799261,2023-10-06 12:36:05.727151,2023-10-06 12:36:10.588380,L_MF501.jpg,1,10794,30-49,2023-10-06_12h32.01.347,Recall,2021.2.3,60.06428080730228,
,L_SD506.jpg,1,L_MF506.jpg,1,,,,,0,33,33,95,imgFunc,1,NA,2.7168817999772727,334.6248253000085,337.4586344800191,2023-10-06 12:36:10.597357,2023-10-06 12:36:13.423879,L_MF506.jpg,1,10794,30-49,2023-10-06_12h32.01.347,Recall,2021.2.3,60.06428080730228,
,DD006.jpg,0,FF006.jpg,0,,,,,0,34,34,5,imgFunc,2,NA,2.231520500034094,337.454466199968,339.8075649798848,2023-10-06 12:36:13.430862,2023-10-06 12:36:15.775318,FF006.jpg,0,10794,30-49,2023-10-06_12h32.01.347,Recall,2021.2.3,60.06428080730228,
,DD026.jpg,0,FF026.jpg,0,,,,,0,35,35,25,imgFunc,1,NA,1.8284707000129856,339.80949989997316,341.7623558799387,2023-10-06 12:36:15.782323,2023-10-06 12:36:17.726651,FF026.jpg,0,10794,30-49,2023-10-06_12h32.01.347,Recall,2021.2.3,60.06428080730228,
,SD037.jpg,0,MF037.jpg,0,,,,,0,36,36,86,imgFunc,1,NA,1.8873686000006273,341.7424498000182,343.72699897998245,2023-10-06 12:36:17.734434,2023-10-06 12:36:19.711444,MF037.jpg,0,10794,30-49,2023-10-06_12h32.01.347,Recall,2021.2.3,60.06428080730228,
,DD025.jpg,0,FF025.jpg,0,,,,,0,37,37,24,imgFunc,2,NA,2.825576200033538,343.74033379997127,346.67731937998906,2023-10-06 12:36:19.718427,2023-10-06 12:36:22.646930,FF025.jpg,0,10794,30-49,2023-10-06_12h32.01.347,Recall,2021.2.3,60.06428080730228,
,DD009.jpg,0,FF009.jpg,0,,,,,0,38,38,8,imgFunc,0,NA,3.7943161000148393,346.68363859999226,350.6037656799308,2023-10-06 12:36:22.654912,2023-10-06 12:36:26.566114,FF009.jpg,0,10794,30-49,2023-10-06_12h32.01.347,Recall,2021.2.3,60.06428080730228,
,DD011.jpg,0,FF011.jpg,0,,,,,0,39,39,10,imgFunc,1,NA,2.4318634000374004,350.5900165999774,353.1270440799999,2023-10-06 12:36:26.573097,2023-10-06 12:36:29.101788,FF011.jpg,0,10794,30-49,2023-10-06_12h32.01.347,Recall,2021.2.3,60.06428080730228,
,DD035.jpg,0,FF035.jpg,0,,,,,0,40,40,34,imgFunc,1,NA,1.6963031999766827,353.1333531999844,354.937951179978,2023-10-06 12:36:29.116750,2023-10-06 12:36:30.919719,FF035.jpg,0,10794,30-49,2023-10-06_12h32.01.347,Recall,2021.2.3,60.06428080730228,
,DD021.jpg,0,FF021.jpg,0,,,,,0,41,41,20,imgFunc,9,NA,3.092462800035719,354.94553069997346,358.14891457994236,2023-10-06 12:36:30.926702,2023-10-06 12:36:34.121906,FF021.jpg,0,10794,30-49,2023-10-06_12h32.01.347,Recall,2021.2.3,60.06428080730228,
,L_DD510.jpg,1,L_FF510.jpg,1,,,,,0,42,42,49,imgFunc,0,NA,2.247623700008262,358.1422274999786,360.49525127990637,2023-10-06 12:36:34.128889,2023-10-06 12:36:36.473325,L_FF510.jpg,1,10794,30-49,2023-10-06_12h32.01.347,Recall,2021.2.3,60.06428080730228,
,DD027.jpg,0,FF027.jpg,0,,,,,0,43,43,26,imgFunc,9,NA,5.443896599987056,360.4979559999774,366.05312557995785,2023-10-06 12:36:36.480330,2023-10-06 12:36:42.027442,FF027.jpg,0,10794,30-49,2023-10-06_12h32.01.347,Recall,2021.2.3,60.06428080730228,
,DD030.jpg,0,FF030.jpg,0,,,,,0,44,44,29,imgFunc,9,NA,3.771016899961978,366.06662220001454,369.96740487997886,2023-10-06 12:36:42.036420,2023-10-06 12:36:45.930048,FF030.jpg,0,10794,30-49,2023-10-06_12h32.01.347,Recall,2021.2.3,60.06428080730228,
,L_DD506.jpg,1,L_FF506.jpg,1,,,,,0,45,45,45,imgFunc,1,NA,1.671228399965912,369.9586352999904,371.730202179926,2023-10-06 12:36:45.945010,2023-10-06 12:36:47.714742,L_FF506.jpg,1,10794,30-49,2023-10-06_12h32.01.347,Recall,2021.2.3,60.06428080730228,
,SD030.jpg,0,MF030.jpg,0,,,,,0,46,46,79,imgFunc,1,NA,1.842878199997358,371.73066729999846,373.68296297994675,2023-10-06 12:36:47.721748,2023-10-06 12:36:49.665615,MF030.jpg,0,10794,30-49,2023-10-06_12h32.01.347,Recall,2021.2.3,60.06428080730228,
,SD017.jpg,0,MF017.jpg,0,,,,,0,47,47,66,imgFunc,9,NA,7.684068500006106,373.68151109997416,381.47151497990126,2023-10-06 12:36:49.673556,2023-10-06 12:36:57.454904,MF017.jpg,0,10794,30-49,2023-10-06_12h32.01.347,Recall,2021.2.3,60.06428080730228,
,DD007.jpg,0,FF007.jpg,0,,,,,0,48,48,6,imgFunc,9,NA,1.5557687999680638,381.4899417000124,383.1735892799916,2023-10-06 12:36:57.463910,2023-10-06 12:36:59.139876,FF007.jpg,0,10794,30-49,2023-10-06_12h32.01.347,Recall,2021.2.3,60.06428080730228,
,SD035.jpg,0,MF035.jpg,0,,,,,0,49,49,84,imgFunc,2,NA,2.1948022000142373,383.1632358999923,385.46606697997777,2023-10-06 12:36:59.147878,2023-10-06 12:37:01.441708,MF035.jpg,0,10794,30-49,2023-10-06_12h32.01.347,Recall,2021.2.3,60.06428080730228,
,SD011.jpg,0,MF011.jpg,0,,,,,0,50,50,60,imgFunc,1,NA,1.5113232000148855,385.46267759997863,387.0794381799642,2023-10-06 12:37:01.449708,2023-10-06 12:37:03.059353,MF011.jpg,0,10794,30-49,2023-10-06_12h32.01.347,Recall,2021.2.3,60.06428080730228,
,SD006.jpg,0,MF006.jpg,0,,,,,0,51,51,55,imgFunc,1,NA,1.3881299999775365,387.081740900001,388.5845594799612,2023-10-06 12:37:03.066336,2023-10-06 12:37:04.560196,MF006.jpg,0,10794,30-49,2023-10-06_12h32.01.347,Recall,2021.2.3,60.06428080730228,
,SD013.jpg,0,MF013.jpg,0,,,,,0,52,52,62,imgFunc,1,NA,1.3748954000184312,388.5831132999738,390.0693001799518,2023-10-06 12:37:04.567180,2023-10-06 12:37:06.044696,MF013.jpg,0,10794,30-49,2023-10-06_12h32.01.347,Recall,2021.2.3,60.06428080730228,
,SD039.jpg,0,MF039.jpg,0,,,,,0,53,53,88,imgFunc,1,NA,1.1720502999960445,390.06582189997425,391.35146387992427,2023-10-06 12:37:06.051679,2023-10-06 12:37:07.328995,MF039.jpg,0,10794,30-49,2023-10-06_12h32.01.347,Recall,2021.2.3,60.06428080730228,
,DD010.jpg,0,FF010.jpg,0,,,,,0,54,54,9,imgFunc,9,NA,3.147832799993921,391.35410749999573,394.59227267996175,2023-10-06 12:37:07.343957,2023-10-06 12:37:10.581440,FF010.jpg,0,10794,30-49,2023-10-06_12h32.01.347,Recall,2021.2.3,60.06428080730228,
,L_DD501.jpg,1,L_FF501.jpg,1,,,,,0,55,55,40,imgFunc,0,NA,5.4281021999777295,394.60169169999426,400.1398981799721,2023-10-06 12:37:10.589178,2023-10-06 12:37:16.118584,L_FF501.jpg,1,10794,30-49,2023-10-06_12h32.01.347,Recall,2021.2.3,60.06428080730228,
,SD023.jpg,0,MF023.jpg,0,,,,,0,56,56,72,imgFunc,1,NA,1.5541750999982469,400.1478729000082,401.8124566799961,2023-10-06 12:37:16.128559,2023-10-06 12:37:17.786330,MF023.jpg,0,10794,30-49,2023-10-06_12h32.01.347,Recall,2021.2.3,60.06428080730228,
,SD019.jpg,0,MF019.jpg,0,,,,,0,57,57,68,imgFunc,9,NA,16.084591099992394,401.81719109998085,418.0127237799461,2023-10-06 12:37:17.794333,2023-10-06 12:37:33.981427,MF019.jpg,0,10794,30-49,2023-10-06_12h32.01.347,Recall,2021.2.3,60.06428080730228,
,SD033.jpg,0,MF033.jpg,0,,,,,0,58,58,82,imgFunc,0,NA,3.0789608999621123,418.0071258000098,421.1848600799567,2023-10-06 12:37:33.993397,2023-10-06 12:37:37.167157,MF033.jpg,0,10794,30-49,2023-10-06_12h32.01.347,Recall,2021.2.3,60.06428080730228,
,L_SD507.jpg,1,L_MF507.jpg,1,,,,,0,59,59,96,imgFunc,1,NA,2.3025075999903493,421.2072543000104,423.62779267999576,2023-10-06 12:37:37.182883,2023-10-06 12:37:39.602591,L_MF507.jpg,1,10794,30-49,2023-10-06_12h32.01.347,Recall,2021.2.3,60.06428080730228,
,SD038.jpg,0,MF038.jpg,0,,,,,0,60,60,87,imgFunc,2,NA,2.0526380999945104,423.6093363999971,425.7614614799386,2023-10-06 12:37:39.610588,2023-10-06 12:37:41.753676,MF038.jpg,0,10794,30-49,2023-10-06_12h32.01.347,Recall,2021.2.3,60.06428080730228,
,SD029.jpg,0,MF029.jpg,0,,,,,0,61,61,78,imgFunc,9,NA,3.05259350000415,425.7612643999746,428.91516127996147,2023-10-06 12:37:41.760659,2023-10-06 12:37:44.905932,MF029.jpg,0,10794,30-49,2023-10-06_12h32.01.347,Recall,2021.2.3,60.06428080730228,
,L_SD503.jpg,1,L_MF503.jpg,1,,,,,0,62,62,92,imgFunc,9,NA,1.483156600035727,428.92279460001737,430.50677377998363,2023-10-06 12:37:44.913913,2023-10-06 12:37:46.490237,L_MF503.jpg,1,10794,30-49,2023-10-06_12h32.01.347,Recall,2021.2.3,60.06428080730228,
,SD032.jpg,0,MF032.jpg,0,,,,,0,63,63,81,imgFunc,0,NA,3.1790531000006013,430.50699429999804,433.7947585799848,2023-10-06 12:37:46.497220,2023-10-06 12:37:49.776235,MF032.jpg,0,10794,30-49,2023-10-06_12h32.01.347,Recall,2021.2.3,60.06428080730228,
,DD036.jpg,0,FF036.jpg,0,,,,,0,64,64,35,imgFunc,1,NA,2.0179569000029005,433.7879225999932,435.90798657992855,2023-10-06 12:37:49.783218,2023-10-06 12:37:51.894157,FF036.jpg,0,10794,30-49,2023-10-06_12h32.01.347,Recall,2021.2.3,60.06428080730228,
,L_SD510.jpg,1,L_MF510.jpg,1,,,,,0,65,65,99,imgFunc,0,NA,3.3993119000224397,435.91055919998325,439.41453597997315,2023-10-06 12:37:51.901163,2023-10-06 12:37:55.396820,L_MF510.jpg,1,10794,30-49,2023-10-06_12h32.01.347,Recall,2021.2.3,60.06428080730228,
,L_SD504.jpg,1,L_MF504.jpg,1,,,,,0,66,66,93,imgFunc,1,NA,3.645460300031118,439.4164048000239,443.17063218005933,2023-10-06 12:37:55.403804,2023-10-06 12:37:59.149789,L_MF504.jpg,1,10794,30-49,2023-10-06_12h32.01.347,Recall,2021.2.3,60.06428080730228,
,DD034.jpg,0,FF034.jpg,0,,,,,0,67,67,33,imgFunc,1,NA,1.1540691999834962,443.1799384999904,444.44824438000796,2023-10-06 12:37:59.156772,2023-10-06 12:38:00.417052,FF034.jpg,0,10794,30-49,2023-10-06_12h32.01.347,Recall,2021.2.3,60.06428080730228,
,DD038.jpg,0,FF038.jpg,0,,,,,0,68,68,37,imgFunc,1,NA,2.2497767999884672,444.4521612999961,446.80758527998114,2023-10-06 12:38:00.431017,2023-10-06 12:38:02.785213,FF038.jpg,0,10794,30-49,2023-10-06_12h32.01.347,Recall,2021.2.3,60.06428080730228,
,SD012.jpg,0,MF012.jpg,0,,,,,0,69,69,61,imgFunc,9,NA,3.614519399998244,446.7911957000033,450.4950952799991,2023-10-06 12:38:02.793193,2023-10-06 12:38:06.488233,MF012.jpg,0,10794,30-49,2023-10-06_12h32.01.347,Recall,2021.2.3,60.06428080730228,
,DD017.jpg,0,FF017.jpg,0,,,,,0,70,70,16,imgFunc,9,NA,2.8165158000192605,450.50938329997007,453.42977077991236,2023-10-06 12:38:06.495217,2023-10-06 12:38:09.407079,FF017.jpg,0,10794,30-49,2023-10-06_12h32.01.347,Recall,2021.2.3,60.06428080730228,
,SD020.jpg,0,MF020.jpg,0,,,,,0,71,71,69,imgFunc,0,NA,3.399170699995011,453.4228947000229,456.92641047999496,2023-10-06 12:38:09.414062,2023-10-06 12:38:12.909450,MF020.jpg,0,10794,30-49,2023-10-06_12h32.01.347,Recall,2021.2.3,60.06428080730228,
,L_DD508.jpg,1,L_FF508.jpg,1,,,,,0,72,72,47,imgFunc,9,NA,3.9669080000021495,456.91885909996927,460.98954957997194,2023-10-06 12:38:12.916431,2023-10-06 12:38:16.979057,L_FF508.jpg,1,10794,30-49,2023-10-06_12h32.01.347,Recall,2021.2.3,60.06428080730228,
,DD004.jpg,0,FF004.jpg,0,,,,,0,73,73,3,imgFunc,1,NA,1.5616353999939747,461.0122484000167,462.683819280006,2023-10-06 12:38:16.993021,2023-10-06 12:38:18.663536,FF004.jpg,0,10794,30-49,2023-10-06_12h32.01.347,Recall,2021.2.3,60.06428080730228,
,DD005.jpg,0,FF005.jpg,0,,,,,0,74,74,4,imgFunc,2,NA,2.1656441000523046,462.6883351000142,464.97513327997876,2023-10-06 12:38:18.670519,2023-10-06 12:38:20.948491,FF005.jpg,0,10794,30-49,2023-10-06_12h32.01.347,Recall,2021.2.3,60.06428080730228,
,DD033.jpg,0,FF033.jpg,0,,,,,0,75,75,32,imgFunc,9,NA,3.5748821000452153,464.9671542000142,468.65289388003293,2023-10-06 12:38:20.956473,2023-10-06 12:38:24.634412,FF033.jpg,0,10794,30-49,2023-10-06_12h32.01.347,Recall,2021.2.3,60.06428080730228,
,L_SD509.jpg,1,L_MF509.jpg,1,,,,,0,76,76,98,imgFunc,9,NA,5.015451300016139,468.6464062000159,473.7683445800212,2023-10-06 12:38:24.641396,2023-10-06 12:38:29.754789,L_MF509.jpg,1,10794,30-49,2023-10-06_12h32.01.347,Recall,2021.2.3,60.06428080730228,
,SD010.jpg,0,MF010.jpg,0,,,,,0,77,77,59,imgFunc,9,NA,2.753671900019981,473.7883253999753,476.65499237994663,2023-10-06 12:38:29.763767,2023-10-06 12:38:32.623671,MF010.jpg,0,10794,30-49,2023-10-06_12h32.01.347,Recall,2021.2.3,60.06428080730228,
,L_DD509.jpg,1,L_FF509.jpg,1,,,,,0,78,78,48,imgFunc,0,NA,3.568722500000149,476.64526359998854,480.31564767990494,2023-10-06 12:38:32.631652,2023-10-06 12:38:36.293091,L_FF509.jpg,1,10794,30-49,2023-10-06_12h32.01.347,Recall,2021.2.3,60.06428080730228,
,DD022.jpg,0,FF022.jpg,0,,,,,0,79,79,21,imgFunc,1,NA,3.4939337999676354,480.3120262000011,483.91607437998755,2023-10-06 12:38:36.300074,2023-10-06 12:38:39.895461,FF022.jpg,0,10794,30-49,2023-10-06_12h32.01.347,Recall,2021.2.3,60.06428080730228,
,SD001.jpg,0,MF001.jpg,0,,,,,0,80,80,50,imgFunc,1,NA,3.020227800006978,483.91359219996957,487.03328027995303,2023-10-06 12:38:39.903441,2023-10-06 12:38:43.014583,MF001.jpg,0,10794,30-49,2023-10-06_12h32.01.347,Recall,2021.2.3,60.06428080730228,
,SD025.jpg,0,MF025.jpg,0,,,,,0,81,81,74,imgFunc,1,NA,2.789043699973263,487.032781100017,489.93564497993793,2023-10-06 12:38:43.021565,2023-10-06 12:38:45.916392,MF025.jpg,0,10794,30-49,2023-10-06_12h32.01.347,Recall,2021.2.3,60.06428080730228,
,L_DD507.jpg,1,L_FF507.jpg,1,,,,,0,82,82,46,imgFunc,1,NA,2.3147493000142276,489.947268399992,492.36930597998435,2023-10-06 12:38:45.931354,2023-10-06 12:38:48.351524,L_FF507.jpg,1,10794,30-49,2023-10-06_12h32.01.347,Recall,2021.2.3,60.06428080730228,
,SD018.jpg,0,MF018.jpg,0,,,,,0,83,83,67,imgFunc,2,NA,2.0644781999872066,492.36541410000063,494.53555077995406,2023-10-06 12:38:48.358507,2023-10-06 12:38:50.519923,MF018.jpg,0,10794,30-49,2023-10-06_12h32.01.347,Recall,2021.2.3,60.06428080730228,
,DD040.jpg,0,FF040.jpg,0,,,,,0,84,84,39,imgFunc,1,NA,4.341669699992053,494.536140399985,498.97434807993704,2023-10-06 12:38:50.526905,2023-10-06 12:38:54.956017,FF040.jpg,0,10794,30-49,2023-10-06_12h32.01.347,Recall,2021.2.3,60.06428080730228,
,DD008.jpg,0,FF008.jpg,0,,,,,0,85,85,7,imgFunc,1,NA,0.8795402999967337,498.97438540001167,499.9562991800485,2023-10-06 12:38:54.964996,2023-10-06 12:38:55.940420,FF008.jpg,0,10794,30-49,2023-10-06_12h32.01.347,Recall,2021.2.3,60.06428080730228,
,SD005.jpg,0,MF005.jpg,0,,,,,0,86,86,54,imgFunc,1,NA,0.9564947999897413,499.95343039999716,501.00547437998466,2023-10-06 12:38:55.947427,2023-10-06 12:38:56.991114,MF005.jpg,0,10794,30-49,2023-10-06_12h32.01.347,Recall,2021.2.3,60.06428080730228,
,DD012.jpg,0,FF012.jpg,0,,,,,0,87,87,11,imgFunc,9,NA,3.4411285999813117,501.02083900000434,504.5599267799407,2023-10-06 12:38:57.006076,2023-10-06 12:39:00.543720,FF012.jpg,0,10794,30-49,2023-10-06_12h32.01.347,Recall,2021.2.3,60.06428080730228,
,DD029.jpg,0,FF029.jpg,0,,,,,0,88,88,28,imgFunc,9,NA,2.560052499989979,504.5658753999742,507.2362681799568,2023-10-06 12:39:00.550703,2023-10-06 12:39:03.212270,FF029.jpg,0,10794,30-49,2023-10-06_12h32.01.347,Recall,2021.2.3,60.06428080730228,
,DD023.jpg,0,FF023.jpg,0,,,,,0,89,89,22,imgFunc,0,NA,1.998329800029751,507.2317102000234,509.3348726800177,2023-10-06 12:39:03.219253,2023-10-06 12:39:05.313749,FF023.jpg,0,10794,30-49,2023-10-06_12h32.01.347,Recall,2021.2.3,60.06428080730228,
,L_DD505.jpg,1,L_FF505.jpg,1,,,,,0,90,90,44,imgFunc,9,NA,3.0359134000027552,509.3298361999914,512.4651038799202,2023-10-06 12:39:05.321729,2023-10-06 12:39:08.449509,L_FF505.jpg,1,10794,30-49,2023-10-06_12h32.01.347,Recall,2021.2.3,60.06428080730228,
,SD003.jpg,0,MF003.jpg,0,,,,,0,91,91,52,imgFunc,1,NA,2.092590400017798,512.4812203000183,514.7005382799543,2023-10-06 12:39:08.456492,2023-10-06 12:39:10.667533,MF003.jpg,0,10794,30-49,2023-10-06_12h32.01.347,Recall,2021.2.3,60.06428080730228,
,L_SD502.jpg,1,L_MF502.jpg,1,,,,,0,92,92,91,imgFunc,1,NA,1.1689239999977872,514.6850838999962,515.9541868799715,2023-10-06 12:39:10.674516,2023-10-06 12:39:11.935425,L_MF502.jpg,1,10794,30-49,2023-10-06_12h32.01.347,Recall,2021.2.3,60.06428080730228,
,SD034.jpg,0,MF034.jpg,0,,,,,0,93,93,83,imgFunc,1,NA,1.807626000023447,515.9503627999802,517.8698892800021,2023-10-06 12:39:11.942408,2023-10-06 12:39:13.853117,MF034.jpg,0,10794,30-49,2023-10-06_12h32.01.347,Recall,2021.2.3,60.06428080730228,
,DD016.jpg,0,FF016.jpg,0,,,,,0,94,94,15,imgFunc,9,NA,4.392797399952542,517.8771273000166,522.3823779800441,2023-10-06 12:39:13.860100,2023-10-06 12:39:18.356442,FF016.jpg,0,10794,30-49,2023-10-06_12h32.01.347,Recall,2021.2.3,60.06428080730228,
,DD013.jpg,0,FF013.jpg,0,,,,,0,95,95,12,imgFunc,9,NA,2.1535339999827556,522.3965216000215,524.6804292799789,2023-10-06 12:39:18.365448,2023-10-06 12:39:20.641352,FF013.jpg,0,10794,30-49,2023-10-06_12h32.01.347,Recall,2021.2.3,60.06428080730228,
,SD026.jpg,0,MF026.jpg,0,,,,,0,96,96,75,imgFunc,0,NA,1.9202811000286601,524.6696634999826,526.6925602799747,2023-10-06 12:39:20.655316,2023-10-06 12:39:22.676085,MF026.jpg,0,10794,30-49,2023-10-06_12h32.01.347,Recall,2021.2.3,60.06428080730228,
,DD018.jpg,0,FF018.jpg,0,,,,,0,97,97,17,imgFunc,0,NA,1.4140669999760576,526.6960093000089,528.2137643799651,2023-10-06 12:39:22.684088,2023-10-06 12:39:24.193839,FF018.jpg,0,10794,30-49,2023-10-06_12h32.01.347,Recall,2021.2.3,60.06428080730228,
,DD039.jpg,0,FF039.jpg,0,,,,,0,98,98,38,imgFunc,2,NA,1.9633285999880172,528.2186336999875,530.288472079963,2023-10-06 12:39:24.200822,2023-10-06 12:39:26.262265,FF039.jpg,0,10794,30-49,2023-10-06_12h32.01.347,Recall,2021.2.3,60.06428080730228,
,L_DD504.jpg,1,L_FF504.jpg,1,,,,,0,99,99,43,imgFunc,2,NA,2.0623975999769755,530.295604199986,532.4818557799445,2023-10-06 12:39:26.269248,2023-10-06 12:39:28.447127,L_FF504.jpg,1,10794,30-49,2023-10-06_12h32.01.347,Recall,2021.2.3,60.06428080730228,
,,,,,,,,,,,,,instrFunc,space,"Great work! 

 Now you will switch to the other image type.

 Press the spacebar whenever you are ready to start.",1.6654279999784194,532.388515300001,534.1033244799473,2023-10-06 12:39:28.448127,2023-10-06 12:39:30.147058,,,10794,30-49,2023-10-06_12h32.01.347,Recall,2021.2.3,60.06428080730228,
,SD007.jpg,0,MF007.jpg,0,,,,,0,0,0,56,imgFunc,9,NA,8.149005600018427,534.1689906999818,542.4036499600043,2023-10-06 12:39:30.174985,2023-10-06 12:39:38.404350,SD007.jpg,0,10794,30-49,2023-10-06_12h32.01.347,Recall,2021.2.3,60.06428080730228,
,SD039.jpg,0,MF039.jpg,0,,,,,0,1,1,88,imgFunc,1,NA,4.97029659996042,542.4116087000002,547.4794689799892,2023-10-06 12:39:38.413341,2023-10-06 12:39:43.474494,SD039.jpg,0,10794,30-49,2023-10-06_12h32.01.347,Recall,2021.2.3,60.06428080730228,
,L_DD506.jpg,1,L_FF506.jpg,1,,,,,0,2,2,45,imgFunc,1,NA,2.43663040001411,547.5054239999736,550.0555790799554,2023-10-06 12:39:43.483472,2023-10-06 12:39:46.026310,L_DD506.jpg,1,10794,30-49,2023-10-06_12h32.01.347,Recall,2021.2.3,60.06428080730228,
,DD003.jpg,0,FF003.jpg,0,,,,,0,3,3,2,imgFunc,9,NA,3.489384100015741,550.052666899981,553.6481939799269,2023-10-06 12:39:46.037285,2023-10-06 12:39:49.628702,DD003.jpg,0,10794,30-49,2023-10-06_12h32.01.347,Recall,2021.2.3,60.06428080730228,
,SD019.jpg,0,MF019.jpg,0,,,,,0,4,4,68,imgFunc,1,NA,2.737075899960473,553.6289390000165,556.4498858799925,2023-10-06 12:39:49.635694,2023-10-06 12:39:52.447684,SD019.jpg,0,10794,30-49,2023-10-06_12h32.01.347,Recall,2021.2.3,60.06428080730228,
,SD027.jpg,0,MF027.jpg,0,,,,,0,5,5,76,imgFunc,1,NA,1.6807155999704264,556.453278800007,558.2232931799954,2023-10-06 12:39:52.454667,2023-10-06 12:39:54.215751,SD027.jpg,0,10794,30-49,2023-10-06_12h32.01.347,Recall,2021.2.3,60.06428080730228,
,L_DD501.jpg,1,L_FF501.jpg,1,,,,,0,6,6,40,imgFunc,9,NA,3.8561895999591798,558.2300794000039,562.1844203799847,2023-10-06 12:39:54.222734,2023-10-06 12:39:58.168533,L_DD501.jpg,1,10794,30-49,2023-10-06_12h32.01.347,Recall,2021.2.3,60.06428080730228,
,SD002.jpg,0,MF002.jpg,0,,,,,0,7,7,51,imgFunc,0,NA,5.543735399958678,562.1901915000053,567.8430985799641,2023-10-06 12:39:58.176514,2023-10-06 12:40:03.822347,SD002.jpg,0,10794,30-49,2023-10-06_12h32.01.347,Recall,2021.2.3,60.06428080730228,
,SD010.jpg,0,MF010.jpg,0,,,,,0,8,8,59,imgFunc,2,NA,4.6131348999915645,567.8248680999968,572.526542179985,2023-10-06 12:40:03.831325,2023-10-06 12:40:08.525651,SD010.jpg,0,10794,30-49,2023-10-06_12h32.01.347,Recall,2021.2.3,60.06428080730228,
,SD006.jpg,0,MF006.jpg,0,,,,,0,9,9,55,imgFunc,1,NA,1.2195387000101618,572.5385833000182,573.8542689799797,2023-10-06 12:40:08.534633,2023-10-06 12:40:09.843474,SD006.jpg,0,10794,30-49,2023-10-06_12h32.01.347,Recall,2021.2.3,60.06428080730228,
,SD011.jpg,0,MF011.jpg,0,,,,,0,10,10,60,imgFunc,1,NA,1.343508300022222,573.8624499000143,575.3140858799452,2023-10-06 12:40:09.851455,2023-10-06 12:40:11.294475,SD011.jpg,0,10794,30-49,2023-10-06_12h32.01.347,Recall,2021.2.3,60.06428080730228,
,L_SD502.jpg,1,L_MF502.jpg,1,,,,,0,11,11,91,imgFunc,1,NA,1.095394200005103,575.294562999974,576.4804404799361,2023-10-06 12:40:11.301458,2023-10-06 12:40:12.478410,L_SD502.jpg,1,10794,30-49,2023-10-06_12h32.01.347,Recall,2021.2.3,60.06428080730228,
,SD032.jpg,0,MF032.jpg,0,,,,,0,12,12,81,imgFunc,0,NA,3.2388782000052743,576.4949858000036,579.8210736800102,2023-10-06 12:40:12.491013,2023-10-06 12:40:15.814426,SD032.jpg,0,10794,30-49,2023-10-06_12h32.01.347,Recall,2021.2.3,60.06428080730228,
,L_SD506.jpg,1,L_MF506.jpg,1,,,,,0,13,13,95,imgFunc,9,NA,2.7248435000074096,579.8251899000024,582.6448009799933,2023-10-06 12:40:15.822406,2023-10-06 12:40:18.633280,L_SD506.jpg,1,10794,30-49,2023-10-06_12h32.01.347,Recall,2021.2.3,60.06428080730228,
,SD029.jpg,0,MF029.jpg,0,,,,,0,14,14,78,imgFunc,2,NA,2.5949080999707803,582.6350606000051,585.3215627800091,2023-10-06 12:40:18.640263,2023-10-06 12:40:21.318087,SD029.jpg,0,10794,30-49,2023-10-06_12h32.01.347,Recall,2021.2.3,60.06428080730228,
,DD005.jpg,0,FF005.jpg,0,,,,,0,15,15,4,imgFunc,9,NA,3.27317459997721,585.3248845000053,588.6958843800239,2023-10-06 12:40:21.325070,2023-10-06 12:40:24.687336,DD005.jpg,0,10794,30-49,2023-10-06_12h32.01.347,Recall,2021.2.3,60.06428080730228,
,SD036.jpg,0,MF036.jpg,0,,,,,0,16,16,85,imgFunc,1,NA,5.638144999975339,588.6958338000113,594.4350946799968,2023-10-06 12:40:24.694319,2023-10-06 12:40:30.424917,SD036.jpg,0,10794,30-49,2023-10-06_12h32.01.347,Recall,2021.2.3,60.06428080730228,
,DD011.jpg,0,FF011.jpg,0,,,,,0,17,17,10,imgFunc,1,NA,1.8697757000336424,594.4644042999716,596.4495919799665,2023-10-06 12:40:30.440876,2023-10-06 12:40:32.426239,DD011.jpg,0,10794,30-49,2023-10-06_12h32.01.347,Recall,2021.2.3,60.06428080730228,
,DD015.jpg,0,FF015.jpg,0,,,,,0,18,18,14,imgFunc,2,NA,5.291908899962436,596.4340602000011,601.8216671799892,2023-10-06 12:40:32.434220,2023-10-06 12:40:37.813419,DD015.jpg,0,10794,30-49,2023-10-06_12h32.01.347,Recall,2021.2.3,60.06428080730228,
,L_DD507.jpg,1,L_FF507.jpg,1,,,,,0,19,19,46,imgFunc,9,NA,3.6498537000152282,601.820202199975,605.5547699799063,2023-10-06 12:40:37.822397,2023-10-06 12:40:41.549743,L_DD507.jpg,1,10794,30-49,2023-10-06_12h32.01.347,Recall,2021.2.3,60.06428080730228,
,L_DD504.jpg,1,L_FF504.jpg,1,,,,,0,20,20,43,imgFunc,0,NA,5.82569849997526,605.556278700009,611.4788139799493,2023-10-06 12:40:41.556725,2023-10-06 12:40:47.470534,L_DD504.jpg,1,10794,30-49,2023-10-06_12h32.01.347,Recall,2021.2.3,60.06428080730228,
,DD012.jpg,0,FF012.jpg,0,,,,,0,21,21,11,imgFunc,1,NA,3.120163700019475,611.5015100999735,614.7355028800084,2023-10-06 12:40:47.479512,2023-10-06 12:40:50.706067,DD012.jpg,0,10794,30-49,2023-10-06_12h32.01.347,Recall,2021.2.3,60.06428080730228,
,SD025.jpg,0,MF025.jpg,0,,,,,0,22,22,74,imgFunc,9,NA,3.8871622000006028,614.7267587999813,618.7174482799601,2023-10-06 12:40:50.720031,2023-10-06 12:40:54.708874,SD025.jpg,0,10794,30-49,2023-10-06_12h32.01.347,Recall,2021.2.3,60.06428080730228,
,L_SD507.jpg,1,L_MF507.jpg,1,,,,,0,23,23,96,imgFunc,9,NA,2.9780382000026293,618.7079434000188,621.7786073799944,2023-10-06 12:40:54.715857,2023-10-06 12:40:57.777883,L_SD507.jpg,1,10794,30-49,2023-10-06_12h32.01.347,Recall,2021.2.3,60.06428080730228,
,L_DD502.jpg,1,L_FF502.jpg,1,,,,,0,24,24,41,imgFunc,9,NA,5.260845799988601,621.7852598999743,627.1404071799479,2023-10-06 12:40:57.784866,2023-10-06 12:41:03.131540,L_DD502.jpg,1,10794,30-49,2023-10-06_12h32.01.347,Recall,2021.2.3,60.06428080730228,
,L_DD508.jpg,1,L_FF508.jpg,1,,,,,0,25,25,47,imgFunc,0,NA,3.2826855999883264,627.1553075999836,630.5381560800015,2023-10-06 12:41:03.140978,2023-10-06 12:41:06.517084,L_DD508.jpg,1,10794,30-49,2023-10-06_12h32.01.347,Recall,2021.2.3,60.06428080730228,
,DD031.jpg,0,FF031.jpg,0,,,,,0,26,26,30,imgFunc,1,NA,1.8875603000051342,630.5424530999735,632.5446178799612,2023-10-06 12:41:06.525088,2023-10-06 12:41:08.518804,DD031.jpg,0,10794,30-49,2023-10-06_12h32.01.347,Recall,2021.2.3,60.06428080730228,
,DD029.jpg,0,FF029.jpg,0,,,,,0,27,27,28,imgFunc,9,NA,6.123250200005714,632.530757999979,638.7535790799302,2023-10-06 12:41:08.525787,2023-10-06 12:41:14.739910,DD029.jpg,0,10794,30-49,2023-10-06_12h32.01.347,Recall,2021.2.3,60.06428080730228,
,L_SD503.jpg,1,L_MF503.jpg,1,,,,,0,28,28,92,imgFunc,9,NA,2.216021100000944,638.7418866999797,641.0409554798971,2023-10-06 12:41:14.748888,2023-10-06 12:41:17.041703,L_SD503.jpg,1,10794,30-49,2023-10-06_12h32.01.347,Recall,2021.2.3,60.06428080730228,
,DD039.jpg,0,FF039.jpg,0,,,,,0,29,29,38,imgFunc,1,NA,2.3942265000077896,641.051833799982,643.5388658799347,2023-10-06 12:41:17.048686,2023-10-06 12:41:19.526979,DD039.jpg,0,10794,30-49,2023-10-06_12h32.01.347,Recall,2021.2.3,60.06428080730228,
,DD032.jpg,0,FF032.jpg,0,,,,,0,30,30,31,imgFunc,1,NA,1.650862300011795,643.5472252999898,645.2988498799386,2023-10-06 12:41:19.534959,2023-10-06 12:41:21.278082,DD032.jpg,0,10794,30-49,2023-10-06_12h32.01.347,Recall,2021.2.3,60.06428080730228,
,L_SD504.jpg,1,L_MF504.jpg,1,,,,,0,31,31,93,imgFunc,9,NA,3.872415899997577,645.3017660999903,649.2772326799459,2023-10-06 12:41:21.291049,2023-10-06 12:41:25.264329,L_SD504.jpg,1,10794,30-49,2023-10-06_12h32.01.347,Recall,2021.2.3,60.06428080730228,
,SD012.jpg,0,MF012.jpg,0,,,,,0,32,32,61,imgFunc,1,NA,2.2839409000007436,649.2661606000038,651.6365542800049,2023-10-06 12:41:25.271311,2023-10-06 12:41:27.632743,SD012.jpg,0,10794,30-49,2023-10-06_12h32.01.347,Recall,2021.2.3,60.06428080730228,
,SD009.jpg,0,MF009.jpg,0,,,,,0,33,33,58,imgFunc,9,NA,3.7084023999632336,651.6417408999987,655.4452244799468,2023-10-06 12:41:27.639726,2023-10-06 12:41:31.435062,SD009.jpg,0,10794,30-49,2023-10-06_12h32.01.347,Recall,2021.2.3,60.06428080730228,
,DD027.jpg,0,FF027.jpg,0,,,,,0,34,34,26,imgFunc,2,NA,3.245200000004843,655.4484544000006,658.8015378799755,2023-10-06 12:41:31.442449,2023-10-06 12:41:34.787374,DD027.jpg,0,10794,30-49,2023-10-06_12h32.01.347,Recall,2021.2.3,60.06428080730228,
,L_SD501.jpg,1,L_MF501.jpg,1,,,,,0,35,35,90,imgFunc,0,NA,5.44605909998063,658.7998649000074,664.3551692799665,2023-10-06 12:41:34.794356,2023-10-06 12:41:40.341115,L_SD501.jpg,1,10794,30-49,2023-10-06_12h32.01.347,Recall,2021.2.3,60.06428080730228,
,DD004.jpg,0,FF004.jpg,0,,,,,0,36,36,3,imgFunc,9,NA,3.6602418000111356,664.3695623999811,668.1232408799115,2023-10-06 12:41:40.357102,2023-10-06 12:41:44.110984,DD004.jpg,0,10794,30-49,2023-10-06_12h32.01.347,Recall,2021.2.3,60.06428080730228,
,SD003.jpg,0,MF003.jpg,0,,,,,0,37,37,52,imgFunc,0,NA,3.6078775000059977,668.1099493000074,671.8141465799999,2023-10-06 12:41:44.117991,2023-10-06 12:41:47.813184,SD003.jpg,0,10794,30-49,2023-10-06_12h32.01.347,Recall,2021.2.3,60.06428080730228,
,DD030.jpg,0,FF030.jpg,0,,,,,0,38,38,29,imgFunc,1,NA,3.482241000048816,671.8195496000117,675.3885941799963,2023-10-06 12:41:47.821127,2023-10-06 12:41:51.382003,DD030.jpg,0,10794,30-49,2023-10-06_12h32.01.347,Recall,2021.2.3,60.06428080730228,
,SD024.jpg,0,MF024.jpg,0,,,,,0,39,39,73,imgFunc,1,NA,1.2265354999690317,675.3951893000049,676.729994179972,2023-10-06 12:41:51.389980,2023-10-06 12:41:52.716538,SD024.jpg,0,10794,30-49,2023-10-06_12h32.01.347,Recall,2021.2.3,60.06428080730228,
,SD013.jpg,0,MF013.jpg,0,,,,,0,40,40,62,imgFunc,9,NA,2.1782431000028737,676.7397520000231,679.0165951799718,2023-10-06 12:41:52.729504,2023-10-06 12:41:55.002249,SD013.jpg,0,10794,30-49,2023-10-06_12h32.01.347,Recall,2021.2.3,60.06428080730228,
,DD002.jpg,0,FF002.jpg,0,,,,,0,41,41,1,imgFunc,9,NA,2.063619300024584,679.0062491999706,681.1589175799745,2023-10-06 12:41:55.009232,2023-10-06 12:41:57.153319,DD002.jpg,0,10794,30-49,2023-10-06_12h32.01.347,Recall,2021.2.3,60.06428080730228,
,SD038.jpg,0,MF038.jpg,0,,,,,0,42,42,87,imgFunc,0,NA,2.166972999984864,681.1507963999757,683.4034069799236,2023-10-06 12:41:57.161289,2023-10-06 12:41:59.405280,SD038.jpg,0,10794,30-49,2023-10-06_12h32.01.347,Recall,2021.2.3,60.06428080730228,
,DD040.jpg,0,FF040.jpg,0,,,,,0,43,43,39,imgFunc,1,NA,2.9140191999613307,683.4037656,686.4072456799331,2023-10-06 12:41:59.412289,2023-10-06 12:42:02.406782,DD040.jpg,0,10794,30-49,2023-10-06_12h32.01.347,Recall,2021.2.3,60.06428080730228,
,DD021.jpg,0,FF021.jpg,0,,,,,0,44,44,20,imgFunc,1,NA,3.693686400016304,686.4083624000195,690.1961135799647,2023-10-06 12:42:02.414752,2023-10-06 12:42:06.193566,DD021.jpg,0,10794,30-49,2023-10-06_12h32.01.347,Recall,2021.2.3,60.06428080730228,
,L_SD505.jpg,1,L_MF505.jpg,1,,,,,0,45,45,94,imgFunc,1,NA,5.364252200000919,690.2016508000088,695.6463574800291,2023-10-06 12:42:06.206533,2023-10-06 12:42:11.647844,L_SD505.jpg,1,10794,30-49,2023-10-06_12h32.01.347,Recall,2021.2.3,60.06428080730228,
,SD022.jpg,0,MF022.jpg,0,,,,,0,46,46,71,imgFunc,0,NA,1.9230879999813624,695.6509520999971,697.6666909799678,2023-10-06 12:42:11.657231,2023-10-06 12:42:13.665597,SD022.jpg,0,10794,30-49,2023-10-06_12h32.01.347,Recall,2021.2.3,60.06428080730228,
,DD028.jpg,0,FF028.jpg,0,,,,,0,47,47,27,imgFunc,1,NA,3.8010204000165686,697.6689037000178,701.5566714800079,2023-10-06 12:42:13.672580,2023-10-06 12:42:17.551782,DD028.jpg,0,10794,30-49,2023-10-06_12h32.01.347,Recall,2021.2.3,60.06428080730228,
,SD018.jpg,0,MF018.jpg,0,,,,,0,48,48,67,imgFunc,9,NA,2.598002600017935,701.5522137000225,704.2382274799747,2023-10-06 12:42:17.559666,2023-10-06 12:42:20.236935,SD018.jpg,0,10794,30-49,2023-10-06_12h32.01.347,Recall,2021.2.3,60.06428080730228,
,DD019.jpg,0,FF019.jpg,0,,,,,0,49,49,18,imgFunc,0,NA,1.6526703999843448,704.2413387999986,705.9943716799608,2023-10-06 12:42:20.243918,2023-10-06 12:42:21.988428,DD019.jpg,0,10794,30-49,2023-10-06_12h32.01.347,Recall,2021.2.3,60.06428080730228,
,SD031.jpg,0,MF031.jpg,0,,,,,0,50,50,80,imgFunc,9,NA,3.8754484999808483,705.9947529999772,709.9521753799636,2023-10-06 12:42:22.002393,2023-10-06 12:42:25.958047,SD031.jpg,0,10794,30-49,2023-10-06_12h32.01.347,Recall,2021.2.3,60.06428080730228,
,L_DD503.jpg,1,L_FF503.jpg,1,,,,,0,51,51,42,imgFunc,9,NA,2.7957906000083312,709.9544584999676,712.8414765799535,2023-10-06 12:42:25.965030,2023-10-06 12:42:28.843158,L_DD503.jpg,1,10794,30-49,2023-10-06_12h32.01.347,Recall,2021.2.3,60.06428080730228,
,DD024.jpg,0,FF024.jpg,0,,,,,0,52,52,23,imgFunc,0,NA,4.60371799999848,712.8423805999919,717.5305594799574,2023-10-06 12:42:28.850141,2023-10-06 12:42:33.530012,DD024.jpg,0,10794,30-49,2023-10-06_12h32.01.347,Recall,2021.2.3,60.06428080730228,
,L_SD510.jpg,1,L_MF510.jpg,1,,,,,0,53,53,99,imgFunc,9,NA,2.1121895000105724,717.5339155999827,719.73407228,2023-10-06 12:42:33.539014,2023-10-06 12:42:35.731544,L_SD510.jpg,1,10794,30-49,2023-10-06_12h32.01.347,Recall,2021.2.3,60.06428080730228,
,SD008.jpg,0,MF008.jpg,0,,,,,0,54,54,57,imgFunc,1,NA,2.1474669000017457,719.7307680000085,721.9668909800239,2023-10-06 12:42:35.738527,2023-10-06 12:42:37.966340,SD008.jpg,0,10794,30-49,2023-10-06_12h32.01.347,Recall,2021.2.3,60.06428080730228,
,SD014.jpg,0,MF014.jpg,0,,,,,0,55,55,63,imgFunc,1,NA,1.007484600006137,721.9746268999879,723.0631252799649,2023-10-06 12:42:37.980305,2023-10-06 12:42:39.067280,SD014.jpg,0,10794,30-49,2023-10-06_12h32.01.347,Recall,2021.2.3,60.06428080730228,
,SD005.jpg,0,MF005.jpg,0,,,,,0,56,56,54,imgFunc,0,NA,2.1264004000113346,723.0634969999664,725.2833786799456,2023-10-06 12:42:39.074263,2023-10-06 12:42:41.285586,SD005.jpg,0,10794,30-49,2023-10-06_12h32.01.347,Recall,2021.2.3,60.06428080730228,
,DD038.jpg,0,FF038.jpg,0,,,,,0,57,57,37,imgFunc,9,NA,2.902276599954348,725.287954200001,728.2748567800154,2023-10-06 12:42:41.292589,2023-10-06 12:42:44.271153,DD038.jpg,0,10794,30-49,2023-10-06_12h32.01.347,Recall,2021.2.3,60.06428080730228,
,SD026.jpg,0,MF026.jpg,0,,,,,0,58,58,75,imgFunc,0,NA,3.1934137999778613,728.2687323999708,731.555805179989,2023-10-06 12:42:44.278136,2023-10-06 12:42:47.556733,SD026.jpg,0,10794,30-49,2023-10-06_12h32.01.347,Recall,2021.2.3,60.06428080730228,
,DD010.jpg,0,FF010.jpg,0,,,,,0,59,59,9,imgFunc,1,NA,2.5451345999608748,731.5569587000064,734.1939293799805,2023-10-06 12:42:47.563716,2023-10-06 12:42:50.192065,DD010.jpg,0,10794,30-49,2023-10-06_12h32.01.347,Recall,2021.2.3,60.06428080730228,
,DD014.jpg,0,FF014.jpg,0,,,,,0,60,60,13,imgFunc,0,NA,2.728150800045114,734.1899495999678,737.0104826799361,2023-10-06 12:42:50.199048,2023-10-06 12:42:53.010621,DD014.jpg,0,10794,30-49,2023-10-06_12h32.01.347,Recall,2021.2.3,60.06428080730228,
,SD017.jpg,0,MF017.jpg,0,,,,,0,61,61,66,imgFunc,9,NA,3.2447561000008136,737.0094687999808,740.346700479975,2023-10-06 12:42:53.017604,2023-10-06 12:42:56.346221,SD017.jpg,0,10794,30-49,2023-10-06_12h32.01.347,Recall,2021.2.3,60.06428080730228,
,SD001.jpg,0,MF001.jpg,0,,,,,0,62,62,50,imgFunc,9,NA,2.9252820999827236,740.3448221000144,743.3651190799428,2023-10-06 12:42:56.353205,2023-10-06 12:42:59.365046,SD001.jpg,0,10794,30-49,2023-10-06_12h32.01.347,Recall,2021.2.3,60.06428080730228,
,DD034.jpg,0,FF034.jpg,0,,,,,0,63,63,33,imgFunc,1,NA,2.1724832999752834,743.3696093999897,745.6388580799685,2023-10-06 12:42:59.373027,2023-10-06 12:43:01.633482,DD034.jpg,0,10794,30-49,2023-10-06_12h32.01.347,Recall,2021.2.3,60.06428080730228,
,SD037.jpg,0,MF037.jpg,0,,,,,0,64,64,86,imgFunc,1,NA,1.8963420999934897,745.6456564000109,747.6373183800024,2023-10-06 12:43:01.646449,2023-10-06 12:43:03.634742,SD037.jpg,0,10794,30-49,2023-10-06_12h32.01.347,Recall,2021.2.3,60.06428080730228,
,L_SD508.jpg,1,L_MF508.jpg,1,,,,,0,65,65,97,imgFunc,0,NA,2.1743141999468207,747.631735700008,749.9017746800091,2023-10-06 12:43:03.641726,2023-10-06 12:43:05.903007,L_SD508.jpg,1,10794,30-49,2023-10-06_12h32.01.347,Recall,2021.2.3,60.06428080730228,
,SD023.jpg,0,MF023.jpg,0,,,,,0,66,66,72,imgFunc,1,NA,3.232781500031706,749.9013280000072,753.221867079963,2023-10-06 12:43:05.910017,2023-10-06 12:43:09.222180,SD023.jpg,0,10794,30-49,2023-10-06_12h32.01.347,Recall,2021.2.3,60.06428080730228,
,DD033.jpg,0,FF033.jpg,0,,,,,0,67,67,32,imgFunc,2,NA,5.083476300002076,753.2186760000186,758.3907605799614,2023-10-06 12:43:09.229163,2023-10-06 12:43:14.392702,DD033.jpg,0,10794,30-49,2023-10-06_12h32.01.347,Recall,2021.2.3,60.06428080730228,
,DD020.jpg,0,FF020.jpg,0,,,,,0,68,68,19,imgFunc,9,NA,4.607145100017078,758.4230192999821,763.1414058799855,2023-10-06 12:43:14.401679,2023-10-06 12:43:19.112772,DD020.jpg,0,10794,30-49,2023-10-06_12h32.01.347,Recall,2021.2.3,60.06428080730228,
,SD015.jpg,0,MF015.jpg,0,,,,,0,69,69,64,imgFunc,0,NA,1.8443542000022717,763.1216350999894,765.0403533800272,2023-10-06 12:43:19.128732,2023-10-06 12:43:21.047378,SD015.jpg,0,10794,30-49,2023-10-06_12h32.01.347,Recall,2021.2.3,60.06428080730228,
,DD007.jpg,0,FF007.jpg,0,,,,,0,70,70,6,imgFunc,1,NA,1.2876188000082038,765.0465258000186,766.4161517799948,2023-10-06 12:43:21.054361,2023-10-06 12:43:22.415106,DD007.jpg,0,10794,30-49,2023-10-06_12h32.01.347,Recall,2021.2.3,60.06428080730228,
,SD016.jpg,0,MF016.jpg,0,,,,,0,71,71,65,imgFunc,1,NA,1.4268812999944203,766.4111914000241,767.9307294800528,2023-10-06 12:43:22.422088,2023-10-06 12:43:23.932741,SD016.jpg,0,10794,30-49,2023-10-06_12h32.01.347,Recall,2021.2.3,60.06428080730228,
,DD008.jpg,0,FF008.jpg,0,,,,,0,72,72,7,imgFunc,2,NA,4.946531599969603,767.9315543000121,772.9702707800316,2023-10-06 12:43:23.939725,2023-10-06 12:43:28.969414,DD008.jpg,0,10794,30-49,2023-10-06_12h32.01.347,Recall,2021.2.3,60.06428080730228,
,DD022.jpg,0,FF022.jpg,0,,,,,0,73,73,21,imgFunc,1,NA,1.6289247999666259,772.9771594000049,774.6946490799892,2023-10-06 12:43:28.977394,2023-10-06 12:43:30.687746,DD022.jpg,0,10794,30-49,2023-10-06_12h32.01.347,Recall,2021.2.3,60.06428080730228,
,DD001.jpg,0,FF001.jpg,0,,,,,0,74,74,0,imgFunc,0,NA,1.870870399987325,774.6872833999805,776.6407867799862,2023-10-06 12:43:30.694729,2023-10-06 12:43:32.639364,DD001.jpg,0,10794,30-49,2023-10-06_12h32.01.347,Recall,2021.2.3,60.06428080730228,
,DD036.jpg,0,FF036.jpg,0,,,,,0,75,75,35,imgFunc,9,NA,3.034404500038363,776.6518103000126,779.787745879963,2023-10-06 12:43:32.647344,2023-10-06 12:43:35.774542,DD036.jpg,0,10794,30-49,2023-10-06_12h32.01.347,Recall,2021.2.3,60.06428080730228,
,DD017.jpg,0,FF017.jpg,0,,,,,0,76,76,16,imgFunc,9,NA,2.0708368999767117,779.775186999992,781.9447923799162,2023-10-06 12:43:35.781525,2023-10-06 12:43:37.942500,DD017.jpg,0,10794,30-49,2023-10-06_12h32.01.347,Recall,2021.2.3,60.06428080730228,
,DD026.jpg,0,FF026.jpg,0,,,,,0,77,77,25,imgFunc,2,NA,5.396970500005409,781.9453145000152,787.4340386799304,2023-10-06 12:43:37.949505,2023-10-06 12:43:43.429906,DD026.jpg,0,10794,30-49,2023-10-06_12h32.01.347,Recall,2021.2.3,60.06428080730228,
,SD004.jpg,0,MF004.jpg,0,,,,,0,78,78,53,imgFunc,1,NA,1.7503727999865077,787.4397834999836,789.2778488799231,2023-10-06 12:43:43.444886,2023-10-06 12:43:45.281325,SD004.jpg,0,10794,30-49,2023-10-06_12h32.01.347,Recall,2021.2.3,60.06428080730228,
,SD033.jpg,0,MF033.jpg,0,,,,,0,79,79,82,imgFunc,1,NA,0.7893409000243992,789.2889656000189,790.1747044800431,2023-10-06 12:43:45.288308,2023-10-06 12:43:46.165231,SD033.jpg,0,10794,30-49,2023-10-06_12h32.01.347,Recall,2021.2.3,60.06428080730228,
,SD034.jpg,0,MF034.jpg,0,,,,,0,80,80,83,imgFunc,9,NA,6.259883399994578,790.162231699971,796.5023560799309,2023-10-06 12:43:46.172214,2023-10-06 12:43:52.503413,SD034.jpg,0,10794,30-49,2023-10-06_12h32.01.347,Recall,2021.2.3,60.06428080730228,
,SD028.jpg,0,MF028.jpg,0,,,,,0,81,81,77,imgFunc,1,NA,1.714175899978727,796.5078038999927,798.3076219799696,2023-10-06 12:43:52.512391,2023-10-06 12:43:54.304687,SD028.jpg,0,10794,30-49,2023-10-06_12h32.01.347,Recall,2021.2.3,60.06428080730228,
,L_DD510.jpg,1,L_FF510.jpg,1,,,,,0,82,82,49,imgFunc,9,NA,2.395114900020417,798.3070678000222,800.7939164799755,2023-10-06 12:43:54.311670,2023-10-06 12:43:56.789596,L_DD510.jpg,1,10794,30-49,2023-10-06_12h32.01.347,Recall,2021.2.3,60.06428080730228,
,SD040.jpg,0,MF040.jpg,0,,,,,0,83,83,89,imgFunc,0,NA,1.8434638000326231,800.8027781000128,802.7423522800091,2023-10-06 12:43:56.803560,2023-10-06 12:43:58.741157,SD040.jpg,0,10794,30-49,2023-10-06_12h32.01.347,Recall,2021.2.3,60.06428080730228,
,DD013.jpg,0,FF013.jpg,0,,,,,0,84,84,12,imgFunc,1,NA,1.55729229998542,802.7448097000015,804.3979610799579,2023-10-06 12:43:58.748140,2023-10-06 12:44:00.392081,DD013.jpg,0,10794,30-49,2023-10-06_12h32.01.347,Recall,2021.2.3,60.06428080730228,
,DD023.jpg,0,FF023.jpg,0,,,,,0,85,85,22,imgFunc,1,NA,1.1000937999924645,804.4019623000058,805.6044917799882,2023-10-06 12:44:00.399086,2023-10-06 12:44:01.593218,DD023.jpg,0,10794,30-49,2023-10-06_12h32.01.347,Recall,2021.2.3,60.06428080730228,
,DD035.jpg,0,FF035.jpg,0,,,,,0,86,86,34,imgFunc,1,NA,1.2442865000339225,805.5938987999689,806.9302206799039,2023-10-06 12:44:01.600201,2023-10-06 12:44:02.927367,DD035.jpg,0,10794,30-49,2023-10-06_12h32.01.347,Recall,2021.2.3,60.06428080730228,
,DD009.jpg,0,FF009.jpg,0,,,,,0,87,87,8,imgFunc,1,NA,1.7171690000104718,806.9288809999707,808.7322792799096,2023-10-06 12:44:02.934350,2023-10-06 12:44:04.728898,DD009.jpg,0,10794,30-49,2023-10-06_12h32.01.347,Recall,2021.2.3,60.06428080730228,
,L_DD509.jpg,1,L_FF509.jpg,1,,,,,0,88,88,48,imgFunc,1,NA,1.2810904000070877,808.7412041000207,810.1131518800394,2023-10-06 12:44:04.742862,2023-10-06 12:44:06.112995,L_DD509.jpg,1,10794,30-49,2023-10-06_12h32.01.347,Recall,2021.2.3,60.06428080730228,
,DD037.jpg,0,FF037.jpg,0,,,,,0,89,89,36,imgFunc,9,NA,7.35916479997104,810.1189694000059,817.5761078799842,2023-10-06 12:44:06.119978,2023-10-06 12:44:13.568444,DD037.jpg,0,10794,30-49,2023-10-06_12h32.01.347,Recall,2021.2.3,60.06428080730228,
,SD021.jpg,0,MF021.jpg,0,,,,,0,90,90,70,imgFunc,9,NA,2.2407224000198767,817.5733914999873,819.906501779973,2023-10-06 12:44:13.577555,2023-10-06 12:44:15.903499,SD021.jpg,0,10794,30-49,2023-10-06_12h32.01.347,Recall,2021.2.3,60.06428080730228,
,SD020.jpg,0,MF020.jpg,0,,,,,0,91,91,69,imgFunc,0,NA,1.8235042000305839,819.9106813999824,821.8303677799413,2023-10-06 12:44:15.910482,2023-10-06 12:44:17.821344,SD020.jpg,0,10794,30-49,2023-10-06_12h32.01.347,Recall,2021.2.3,60.06428080730228,
,DD025.jpg,0,FF025.jpg,0,,,,,0,92,92,24,imgFunc,9,NA,4.158287700032815,821.8321796000237,826.08742857998,2023-10-06 12:44:17.828327,2023-10-06 12:44:22.074640,DD025.jpg,0,10794,30-49,2023-10-06_12h32.01.347,Recall,2021.2.3,60.06428080730228,
,DD016.jpg,0,FF016.jpg,0,,,,,0,93,93,15,imgFunc,1,NA,1.462923499988392,826.0791874999995,827.6311894800165,2023-10-06 12:44:22.081623,2023-10-06 12:44:23.625537,DD016.jpg,0,10794,30-49,2023-10-06_12h32.01.347,Recall,2021.2.3,60.06428080730228,
,SD030.jpg,0,MF030.jpg,0,,,,,0,94,94,79,imgFunc,2,NA,1.8599427999579348,827.6260275000241,829.5793884800514,2023-10-06 12:44:23.632520,2023-10-06 12:44:25.576939,SD030.jpg,0,10794,30-49,2023-10-06_12h32.01.347,Recall,2021.2.3,60.06428080730228,
,L_SD509.jpg,1,L_MF509.jpg,1,,,,,0,95,95,98,imgFunc,1,NA,1.1270682000322267,829.575140699977,830.7942759799771,2023-10-06 12:44:25.583922,2023-10-06 12:44:26.794481,L_SD509.jpg,1,10794,30-49,2023-10-06_12h32.01.347,Recall,2021.2.3,60.06428080730228,
,DD018.jpg,0,FF018.jpg,0,,,,,0,96,96,17,imgFunc,0,NA,4.604014499986079,830.7942156000063,835.4826903800131,2023-10-06 12:44:26.801464,2023-10-06 12:44:31.481323,DD018.jpg,0,10794,30-49,2023-10-06_12h32.01.347,Recall,2021.2.3,60.06428080730228,
,SD035.jpg,0,MF035.jpg,0,,,,,0,97,97,84,imgFunc,0,NA,1.7664406999829225,835.4874259000062,837.340686080046,2023-10-06 12:44:31.496284,2023-10-06 12:44:33.348371,SD035.jpg,0,10794,30-49,2023-10-06_12h32.01.347,Recall,2021.2.3,60.06428080730228,
,L_DD505.jpg,1,L_FF505.jpg,1,,,,,0,98,98,44,imgFunc,9,NA,5.750280499982182,837.3521253999788,843.1800245799823,2023-10-06 12:44:33.362304,2023-10-06 12:44:39.187011,L_DD505.jpg,1,10794,30-49,2023-10-06_12h32.01.347,Recall,2021.2.3,60.06428080730228,
,DD006.jpg,0,FF006.jpg,0,,,,,0,99,99,5,imgFunc,0,NA,4.272396699991077,843.1897692999919,847.5576270799502,2023-10-06 12:44:39.195989,2023-10-06 12:44:43.556530,DD006.jpg,0,10794,30-49,2023-10-06_12h32.01.347,Recall,2021.2.3,60.06428080730228,
