onset	duration	trial_type	response_time	Endowment	Endowment_pmod	Decision	Decision_pmod	Offer_pmod
4.553067	2	cue_social	n/a	16	-8	n/a	n/a	n/a
4.553067	2	cue_social_low	n/a	16	-11	n/a	n/a	n/a
11.378061	2	cue_social	n/a	16	-8	n/a	n/a	n/a
11.378061	2	cue_social_low	n/a	16	-11	n/a	n/a	n/a
18.176159	2	cue_nonsocial	n/a	16	-11	n/a	n/a	n/a
18.176159	2	cue_nonsocial_low	n/a	16	-8	n/a	n/a	n/a
25.028784	2	cue_social	n/a	16	-8	n/a	n/a	n/a
25.028784	2	cue_social_low	n/a	16	-11	n/a	n/a	n/a
32.691246	2	cue_social	n/a	16	-8	n/a	n/a	n/a
32.691246	2	cue_social_low	n/a	16	-11	n/a	n/a	n/a
43.537403	2	cue_social	n/a	32	8	n/a	n/a	n/a
43.537403	2	cue_social_high	n/a	32	5	n/a	n/a	n/a
50.359440	2	cue_nonsocial	n/a	32	5	n/a	n/a	n/a
50.359440	2	cue_nonsocial_high	n/a	32	8	n/a	n/a	n/a
58.009415	2	cue_nonsocial	n/a	32	5	n/a	n/a	n/a
58.009415	2	cue_nonsocial_high	n/a	32	8	n/a	n/a	n/a
68.875690	2	cue_nonsocial	n/a	32	5	n/a	n/a	n/a
68.875690	2	cue_nonsocial_high	n/a	32	8	n/a	n/a	n/a
75.709755	2	cue_nonsocial	n/a	16	-11	n/a	n/a	n/a
75.709755	2	cue_nonsocial_low	n/a	16	-8	n/a	n/a	n/a
82.543076	2	cue_nonsocial	n/a	32	5	n/a	n/a	n/a
82.543076	2	cue_nonsocial_high	n/a	32	8	n/a	n/a	n/a
91.792590	2	cue_nonsocial	n/a	32	5	n/a	n/a	n/a
91.792590	2	cue_nonsocial_high	n/a	32	8	n/a	n/a	n/a
99.442590	2	cue_nonsocial	n/a	32	5	n/a	n/a	n/a
99.442590	2	cue_nonsocial_high	n/a	32	8	n/a	n/a	n/a
108.732155	2	cue_social	n/a	32	8	n/a	n/a	n/a
108.732155	2	cue_social_high	n/a	32	5	n/a	n/a	n/a
119.559150	2	cue_nonsocial	n/a	32	5	n/a	n/a	n/a
119.559150	2	cue_nonsocial_high	n/a	32	8	n/a	n/a	n/a
126.392460	2	cue_nonsocial	n/a	16	-11	n/a	n/a	n/a
126.392460	2	cue_nonsocial_low	n/a	16	-8	n/a	n/a	n/a
133.225850	2	cue_nonsocial	n/a	32	5	n/a	n/a	n/a
133.225850	2	cue_nonsocial_high	n/a	32	8	n/a	n/a	n/a
140.059370	2	cue_nonsocial	n/a	16	-11	n/a	n/a	n/a
140.059370	2	cue_nonsocial_low	n/a	16	-8	n/a	n/a	n/a
147.825240	2	cue_social	n/a	16	-8	n/a	n/a	n/a
147.825240	2	cue_social_low	n/a	16	-11	n/a	n/a	n/a
154.567860	2	cue_social	n/a	32	8	n/a	n/a	n/a
154.567860	2	cue_social_high	n/a	32	5	n/a	n/a	n/a
163.869310	2	cue_social	n/a	32	8	n/a	n/a	n/a
163.869310	2	cue_social_high	n/a	32	5	n/a	n/a	n/a
170.706480	2	cue_social	n/a	32	8	n/a	n/a	n/a
170.706480	2	cue_social_high	n/a	32	5	n/a	n/a	n/a
183.109120	2	cue_nonsocial	n/a	32	5	n/a	n/a	n/a
183.109120	2	cue_nonsocial_high	n/a	32	8	n/a	n/a	n/a
189.980470	2	cue_social	n/a	16	-8	n/a	n/a	n/a
189.980470	2	cue_social_low	n/a	16	-11	n/a	n/a	n/a
196.835480	2	cue_social	n/a	32	8	n/a	n/a	n/a
196.835480	2	cue_social_high	n/a	32	5	n/a	n/a	n/a
203.608890	2	cue_nonsocial	n/a	32	5	n/a	n/a	n/a
203.608890	2	cue_nonsocial_high	n/a	32	8	n/a	n/a	n/a
210.442490	2	cue_nonsocial	n/a	32	5	n/a	n/a	n/a
210.442490	2	cue_nonsocial_high	n/a	32	8	n/a	n/a	n/a
218.139200	2	cue_social	n/a	32	8	n/a	n/a	n/a
218.139200	2	cue_social_high	n/a	32	5	n/a	n/a	n/a
224.968120	2	cue_social	n/a	16	-8	n/a	n/a	n/a
224.968120	2	cue_social_low	n/a	16	-11	n/a	n/a	n/a
231.804750	2	cue_social	n/a	32	8	n/a	n/a	n/a
231.804750	2	cue_social_high	n/a	32	5	n/a	n/a	n/a
239.450800	2	cue_social	n/a	32	8	n/a	n/a	n/a
239.450800	2	cue_social_high	n/a	32	5	n/a	n/a	n/a
247.112640	2	cue_social	n/a	32	8	n/a	n/a	n/a
247.112640	2	cue_social_high	n/a	32	5	n/a	n/a	n/a
254.802830	2	cue_social	n/a	16	-8	n/a	n/a	n/a
254.802830	2	cue_social_low	n/a	16	-11	n/a	n/a	n/a
262.394740	2	cue_social	n/a	16	-8	n/a	n/a	n/a
262.394740	2	cue_social_low	n/a	16	-11	n/a	n/a	n/a
269.992300	2	cue_nonsocial	n/a	16	-11	n/a	n/a	n/a
269.992300	2	cue_nonsocial_low	n/a	16	-8	n/a	n/a	n/a
276.867600	2	cue_social	n/a	16	-8	n/a	n/a	n/a
276.867600	2	cue_social_low	n/a	16	-11	n/a	n/a	n/a
283.658940	2	cue_nonsocial	n/a	32	5	n/a	n/a	n/a
283.658940	2	cue_nonsocial_high	n/a	32	8	n/a	n/a	n/a
290.492220	2	cue_nonsocial	n/a	32	5	n/a	n/a	n/a
290.492220	2	cue_nonsocial_high	n/a	32	8	n/a	n/a	n/a
297.360300	2	cue_social	n/a	16	-8	n/a	n/a	n/a
297.360300	2	cue_social_low	n/a	16	-11	n/a	n/a	n/a
306.575900	2	cue_nonsocial	n/a	32	5	n/a	n/a	n/a
306.575900	2	cue_nonsocial_high	n/a	32	8	n/a	n/a	n/a
314.229340	2	cue_social	n/a	32	8	n/a	n/a	n/a
314.229340	2	cue_social_high	n/a	32	5	n/a	n/a	n/a
321.859000	2	cue_nonsocial	n/a	16	-11	n/a	n/a	n/a
321.859000	2	cue_nonsocial_low	n/a	16	-8	n/a	n/a	n/a
328.692200	2	cue_nonsocial	n/a	32	5	n/a	n/a	n/a
328.692200	2	cue_nonsocial_high	n/a	32	8	n/a	n/a	n/a
335.525150	2	cue_nonsocial	n/a	16	-11	n/a	n/a	n/a
335.525150	2	cue_nonsocial_low	n/a	16	-8	n/a	n/a	n/a
344.839400	2	cue_social	n/a	16	-8	n/a	n/a	n/a
344.839400	2	cue_social_low	n/a	16	-11	n/a	n/a	n/a
354.041350	2	cue_nonsocial	n/a	16	-11	n/a	n/a	n/a
354.041350	2	cue_nonsocial_low	n/a	16	-8	n/a	n/a	n/a
360.944430	2	cue_social	n/a	32	8	n/a	n/a	n/a
360.944430	2	cue_social_high	n/a	32	5	n/a	n/a	n/a
370.125370	2	cue_nonsocial	n/a	32	5	n/a	n/a	n/a
370.125370	2	cue_nonsocial_high	n/a	32	8	n/a	n/a	n/a
6.516870	0.783302	dec_social_choice	0.783302	16.000000	n/a	4	1.358696e-02	1.358696e-02
6.516870	0.783302	dec_choice	0.783302	16.000000	n/a	4	7.102273e-03	7.102273e-03
6.516870	0.783302	dec_social_accept	0.783302	16.000000	n/a	4	-7.875000e-02	-7.875000e-02
6.516870	0.783302	dec_accept	0.783302	16.000000	n/a	4	-9.114583e-02	-9.114583e-02
6.516870	0.783302	dec_social_high	0.783302	16.000000	n/a	4	7.102273e-03	7.102273e-03
6.516870	0.783302	dec_social_accept_high	0.783302	16.000000	n/a	4	7.102273e-03	7.102273e-03
13.349022	0.768179	dec_social_choice	0.768179	16.000000	n/a	0	0	-2.364130e-01
13.349022	0.768179	dec_choice	0.768179	16.000000	n/a	0	0	-2.428977e-01
13.349022	0.768179	dec_social_reject	0.768179	16.000000	n/a	0	0	-6.398810e-02
13.349022	0.768179	dec_reject	0.768179	16.000000	n/a	0	0	-6.250000e-02
13.349022	0.768179	dec_social_reject_low	0.768179	16.000000	n/a	1	-1.803977e-01	-2.428977e-01
20.183023	1.000096	dec_nonsocial_choice	1.000096	16.000000	n/a	0	0	-2.364130e-01
20.183023	1.000096	dec_choice	1.000096	16.000000	n/a	0	0	-2.304688e-01
20.183023	1.000096	dec_nonsocial_reject	1.000096	16.000000	n/a	0	0	-1.488095e-03
20.183023	1.000096	dec_reject	1.000096	16.000000	n/a	0	0	-2.840909e-03
20.183023	1.000096	dec_nonsocial_reject_low	1.000096	16.000000	n/a	2	0	-1.250000e-01
27.017035	0.899727	dec_social_choice	0.899727	16.000000	n/a	0	0	-2.364130e-01
27.017035	0.899727	dec_choice	0.899727	16.000000	n/a	0	0	-2.428977e-01
27.017035	0.899727	dec_social_reject	0.899727	16.000000	n/a	0	0	-6.398810e-02
27.017035	0.899727	dec_reject	0.899727	16.000000	n/a	0	0	-6.250000e-02
27.017035	0.899727	dec_social_reject_low	0.899727	16.000000	n/a	1	-1.803977e-01	-2.428977e-01
34.665596	0.884106	dec_social_choice	0.884106	16.000000	n/a	8	2.635870e-01	2.635870e-01
34.665596	0.884106	dec_choice	0.884106	16.000000	n/a	8	2.571023e-01	2.571023e-01
34.665596	0.884106	dec_social_accept	0.884106	16.000000	n/a	8	1.712500e-01	1.712500e-01
34.665596	0.884106	dec_accept	0.884106	16.000000	n/a	8	1.588542e-01	1.588542e-01
34.665596	0.884106	dec_social_high	0.884106	16.000000	n/a	8	2.571023e-01	2.571023e-01
34.665596	0.884106	dec_social_accept_high	0.884106	16.000000	n/a	8	2.571023e-01	2.571023e-01
45.534030	0.932641	dec_social_choice	0.932641	32.000000	n/a	0	0	-2.364130e-01
45.534030	0.932641	dec_choice	0.932641	32.000000	n/a	0	0	-2.428977e-01
45.534030	0.932641	dec_social_reject	0.932641	32.000000	n/a	0	0	-3.273810e-02
45.534030	0.932641	dec_reject	0.932641	32.000000	n/a	0	0	-3.125000e-02
45.534030	0.932641	dec_social_reject_low	0.932641	32.000000	n/a	3	-1.491477e-01	-2.428977e-01
52.367030	2.382971	dec_nonsocial_choice	2.382971	32.000000	n/a	16	2.635870e-01	2.635870e-01
52.367030	2.382971	dec_choice	2.382971	32.000000	n/a	16	2.695312e-01	2.695312e-01
52.367030	2.382971	dec_nonsocial_accept	2.382971	32.000000	n/a	16	1.712500e-01	1.712500e-01
52.367030	2.382971	dec_accept	2.382971	32.000000	n/a	16	1.826923e-01	1.826923e-01
52.367030	2.382971	dec_nonsocial_high	2.382971	32.000000	n/a	16	2.695312e-01	2.695312e-01
52.367030	2.382971	dec_nonsocial_accept_high	2.382971	32.000000	n/a	16	1.826923e-01	1.826923e-01
60.016754	0.783250	dec_nonsocial_choice	0.783250	32.000000	n/a	0	0	-2.364130e-01
60.016754	0.783250	dec_choice	0.783250	32.000000	n/a	0	0	-2.304688e-01
60.016754	0.783250	dec_nonsocial_reject	0.783250	32.000000	n/a	0	0	1.235119e-01
60.016754	0.783250	dec_reject	0.783250	32.000000	n/a	0	0	1.221591e-01
60.016754	0.783250	dec_nonsocial_low	0.783250	32.000000	n/a	0	-2.304688e-01	-2.304688e-01
60.016754	0.783250	dec_nonsocial_reject_low	0.783250	32.000000	n/a	8	1.221591e-01	-1.278409e-01
70.883430	0.783170	dec_nonsocial_choice	0.783170	32.000000	n/a	16	2.635870e-01	2.635870e-01
70.883430	0.783170	dec_choice	0.783170	32.000000	n/a	16	2.695312e-01	2.695312e-01
70.883430	0.783170	dec_nonsocial_accept	0.783170	32.000000	n/a	16	1.712500e-01	1.712500e-01
70.883430	0.783170	dec_accept	0.783170	32.000000	n/a	16	1.826923e-01	1.826923e-01
70.883430	0.783170	dec_nonsocial_high	0.783170	32.000000	n/a	16	2.695312e-01	2.695312e-01
70.883430	0.783170	dec_nonsocial_accept_high	0.783170	32.000000	n/a	16	1.826923e-01	1.826923e-01
77.715996	0.633994	dec_nonsocial_choice	0.633994	16.000000	n/a	0	0	-2.364130e-01
77.715996	0.633994	dec_choice	0.633994	16.000000	n/a	0	0	-2.304688e-01
77.715996	0.633994	dec_nonsocial_reject	0.633994	16.000000	n/a	0	0	1.235119e-01
77.715996	0.633994	dec_reject	0.633994	16.000000	n/a	0	0	1.221591e-01
77.715996	0.633994	dec_nonsocial_reject_low	0.633994	16.000000	n/a	4	1.250000e-01	-1.250000e-01
84.550040	0.783237	dec_nonsocial_choice	0.783237	32.000000	n/a	0	0	-2.364130e-01
84.550040	0.783237	dec_choice	0.783237	32.000000	n/a	0	0	-2.304688e-01
84.550040	0.783237	dec_nonsocial_reject	0.783237	32.000000	n/a	0	0	-6.398810e-02
84.550040	0.783237	dec_reject	0.783237	32.000000	n/a	0	0	-6.534091e-02
84.550040	0.783237	dec_nonsocial_reject_low	0.783237	32.000000	n/a	2	-6.250000e-02	-1.250000e-01
93.800020	0.749520	dec_nonsocial_choice	0.749520	32.000000	n/a	8	1.358696e-02	1.358696e-02
93.800020	0.749520	dec_choice	0.749520	32.000000	n/a	8	1.953125e-02	1.953125e-02
93.800020	0.749520	dec_nonsocial_accept	0.749520	32.000000	n/a	8	-7.875000e-02	-7.875000e-02
93.800020	0.749520	dec_accept	0.749520	32.000000	n/a	8	-6.730769e-02	-6.730769e-02
93.800020	0.749520	dec_nonsocial_high	0.749520	32.000000	n/a	8	1.953125e-02	1.953125e-02
93.800020	0.749520	dec_nonsocial_accept_high	0.749520	32.000000	n/a	8	-6.730769e-02	-6.730769e-02
101.450030	0.749855	dec_nonsocial_choice	0.749855	32.000000	n/a	8	1.358696e-02	1.358696e-02
101.450030	0.749855	dec_choice	0.749855	32.000000	n/a	8	1.953125e-02	1.953125e-02
101.450030	0.749855	dec_nonsocial_accept	0.749855	32.000000	n/a	8	-7.875000e-02	-7.875000e-02
101.450030	0.749855	dec_accept	0.749855	32.000000	n/a	8	-6.730769e-02	-6.730769e-02
101.450030	0.749855	dec_nonsocial_high	0.749855	32.000000	n/a	8	1.953125e-02	1.953125e-02
101.450030	0.749855	dec_nonsocial_accept_high	0.749855	32.000000	n/a	8	-6.730769e-02	-6.730769e-02
110.700005	0.999825	dec_social_choice	0.999825	32.000000	n/a	0	0	-2.364130e-01
110.700005	0.999825	dec_choice	0.999825	32.000000	n/a	0	0	-2.428977e-01
110.700005	0.999825	dec_social_reject	0.999825	32.000000	n/a	0	0	-6.398810e-02
110.700005	0.999825	dec_reject	0.999825	32.000000	n/a	0	0	-6.250000e-02
110.700005	0.999825	dec_social_reject_low	0.999825	32.000000	n/a	2	-1.803977e-01	-2.428977e-01
121.566010	1.083812	dec_nonsocial_choice	1.083812	32.000000	n/a	0	0	-2.364130e-01
121.566010	1.083812	dec_choice	1.083812	32.000000	n/a	0	0	-2.304688e-01
121.566010	1.083812	dec_nonsocial_reject	1.083812	32.000000	n/a	0	0	-6.398810e-02
121.566010	1.083812	dec_reject	1.083812	32.000000	n/a	0	0	-6.534091e-02
121.566010	1.083812	dec_nonsocial_low	1.083812	32.000000	n/a	0	-2.304688e-01	-2.304688e-01
121.566010	1.083812	dec_nonsocial_reject_low	1.083812	32.000000	n/a	2	-6.534091e-02	-1.278409e-01
128.400010	1.133402	dec_nonsocial_choice	1.133402	16.000000	n/a	0	0	-2.364130e-01
128.400010	1.133402	dec_choice	1.133402	16.000000	n/a	0	0	-2.304688e-01
128.400010	1.133402	dec_nonsocial_reject	1.133402	16.000000	n/a	0	0	-6.398810e-02
128.400010	1.133402	dec_reject	1.133402	16.000000	n/a	0	0	-6.534091e-02
128.400010	1.133402	dec_nonsocial_low	1.133402	16.000000	n/a	0	-2.304688e-01	-2.304688e-01
128.400010	1.133402	dec_nonsocial_reject_low	1.133402	16.000000	n/a	1	-6.534091e-02	-1.278409e-01
135.234040	1.182319	dec_nonsocial_choice	1.182319	32.000000	n/a	16	2.635870e-01	2.635870e-01
135.234040	1.182319	dec_choice	1.182319	32.000000	n/a	16	2.695312e-01	2.695312e-01
135.234040	1.182319	dec_nonsocial_accept	1.182319	32.000000	n/a	16	1.712500e-01	1.712500e-01
135.234040	1.182319	dec_accept	1.182319	32.000000	n/a	16	1.826923e-01	1.826923e-01
135.234040	1.182319	dec_nonsocial_accept_high	1.182319	32.000000	n/a	16	1.588542e-01	1.588542e-01
142.066970	0.715729	dec_nonsocial_choice	0.715729	16.000000	n/a	8	2.635870e-01	2.635870e-01
142.066970	0.715729	dec_choice	0.715729	16.000000	n/a	8	2.695312e-01	2.695312e-01
142.066970	0.715729	dec_nonsocial_accept	0.715729	16.000000	n/a	8	1.712500e-01	1.712500e-01
142.066970	0.715729	dec_accept	0.715729	16.000000	n/a	8	1.826923e-01	1.826923e-01
142.066970	0.715729	dec_nonsocial_high	0.715729	16.000000	n/a	8	2.695312e-01	2.695312e-01
142.066970	0.715729	dec_nonsocial_accept_high	0.715729	16.000000	n/a	8	1.826923e-01	1.826923e-01
149.716030	1.083868	dec_social_choice	1.083868	16.000000	n/a	8	2.635870e-01	2.635870e-01
149.716030	1.083868	dec_choice	1.083868	16.000000	n/a	8	2.571023e-01	2.571023e-01
149.716030	1.083868	dec_social_accept	1.083868	16.000000	n/a	8	1.712500e-01	1.712500e-01
149.716030	1.083868	dec_accept	1.083868	16.000000	n/a	8	1.588542e-01	1.588542e-01
149.716030	1.083868	dec_social_accept_high	1.083868	16.000000	n/a	8	2.571023e-01	2.571023e-01
156.549030	0.717208	dec_social_choice	0.717208	32.000000	n/a	8	1.358696e-02	1.358696e-02
156.549030	0.717208	dec_choice	0.717208	32.000000	n/a	8	7.102273e-03	7.102273e-03
156.549030	0.717208	dec_social_accept	0.717208	32.000000	n/a	8	-7.875000e-02	-7.875000e-02
156.549030	0.717208	dec_accept	0.717208	32.000000	n/a	8	-9.114583e-02	-9.114583e-02
156.549030	0.717208	dec_social_high	0.717208	32.000000	n/a	8	7.102273e-03	7.102273e-03
156.549030	0.717208	dec_social_accept_high	0.717208	32.000000	n/a	8	7.102273e-03	7.102273e-03
165.799670	1.700172	dec_social_choice	1.700172	32.000000	n/a	8	1.358696e-02	1.358696e-02
165.799670	1.700172	dec_choice	1.700172	32.000000	n/a	8	7.102273e-03	7.102273e-03
165.799670	1.700172	dec_social_accept	1.700172	32.000000	n/a	8	-7.875000e-02	-7.875000e-02
165.799670	1.700172	dec_accept	1.700172	32.000000	n/a	8	-9.114583e-02	-9.114583e-02
165.799670	1.700172	dec_social_high	1.700172	32.000000	n/a	8	7.102273e-03	7.102273e-03
165.799670	1.700172	dec_social_accept_high	1.700172	32.000000	n/a	8	7.102273e-03	7.102273e-03
172.632450	3.766946	missed_trial	3.766946	32.000000	n/a	n/a	n/a	n/a
185.116030	0.916614	dec_nonsocial_choice	0.916614	32.000000	n/a	0	0	-2.364130e-01
185.116030	0.916614	dec_choice	0.916614	32.000000	n/a	0	0	-2.304688e-01
185.116030	0.916614	dec_nonsocial_reject	0.916614	32.000000	n/a	0	0	-3.273810e-02
185.116030	0.916614	dec_reject	0.916614	32.000000	n/a	0	0	-3.409091e-02
185.116030	0.916614	dec_nonsocial_reject_low	0.916614	32.000000	n/a	3	-3.125000e-02	-1.250000e-01
191.949130	0.600511	dec_social_choice	0.600511	16.000000	n/a	8	2.635870e-01	2.635870e-01
191.949130	0.600511	dec_choice	0.600511	16.000000	n/a	8	2.571023e-01	2.571023e-01
191.949130	0.600511	dec_social_accept	0.600511	16.000000	n/a	8	1.712500e-01	1.712500e-01
191.949130	0.600511	dec_accept	0.600511	16.000000	n/a	8	1.588542e-01	1.588542e-01
191.949130	0.600511	dec_social_accept_high	0.600511	16.000000	n/a	8	2.571023e-01	2.571023e-01
198.783420	0.932772	dec_social_choice	0.932772	32.000000	n/a	3	-1.426630e-01	-1.426630e-01
198.783420	0.932772	dec_choice	0.932772	32.000000	n/a	3	-1.491477e-01	-1.491477e-01
198.783420	0.932772	dec_social_accept	0.932772	32.000000	n/a	3	-2.350000e-01	-2.350000e-01
198.783420	0.932772	dec_accept	0.932772	32.000000	n/a	3	-2.473958e-01	-2.473958e-01
198.783420	0.932772	dec_social_low	0.932772	32.000000	n/a	3	-1.491477e-01	-1.491477e-01
198.783420	0.932772	dec_social_accept_low	0.932772	32.000000	n/a	3	-1.491477e-01	-1.491477e-01
205.615050	0.901173	dec_nonsocial_choice	0.901173	32.000000	n/a	2	-1.739130e-01	-1.739130e-01
205.615050	0.901173	dec_choice	0.901173	32.000000	n/a	2	-1.679688e-01	-1.679688e-01
205.615050	0.901173	dec_nonsocial_accept	0.901173	32.000000	n/a	2	-2.662500e-01	-2.662500e-01
205.615050	0.901173	dec_accept	0.901173	32.000000	n/a	2	-2.548077e-01	-2.548077e-01
205.615050	0.901173	dec_nonsocial_low	0.901173	32.000000	n/a	2	-1.679688e-01	-1.679688e-01
205.615050	0.901173	dec_nonsocial_accept_low	0.901173	32.000000	n/a	2	-2.548077e-01	-2.548077e-01
212.449220	1.433617	dec_nonsocial_choice	1.433617	32.000000	n/a	16	2.635870e-01	2.635870e-01
212.449220	1.433617	dec_choice	1.433617	32.000000	n/a	16	2.695312e-01	2.695312e-01
212.449220	1.433617	dec_nonsocial_accept	1.433617	32.000000	n/a	16	1.712500e-01	1.712500e-01
212.449220	1.433617	dec_accept	1.433617	32.000000	n/a	16	1.826923e-01	1.826923e-01
212.449220	1.433617	dec_nonsocial_high	1.433617	32.000000	n/a	16	2.695312e-01	2.695312e-01
212.449220	1.433617	dec_nonsocial_accept_high	1.433617	32.000000	n/a	16	1.826923e-01	1.826923e-01
220.100050	3.766946	missed_trial	3.766946	32.000000	n/a	n/a	n/a	n/a
226.949040	0.467097	dec_social_choice	0.467097	16.000000	n/a	0	0	-2.364130e-01
226.949040	0.467097	dec_choice	0.467097	16.000000	n/a	0	0	-2.428977e-01
226.949040	0.467097	dec_social_reject	0.467097	16.000000	n/a	0	0	3.735119e-01
226.949040	0.467097	dec_reject	0.467097	16.000000	n/a	0	0	3.750000e-01
226.949040	0.467097	dec_social_low	0.467097	16.000000	n/a	0	-2.428977e-01	-2.428977e-01
226.949040	0.467097	dec_social_reject_low	0.467097	16.000000	n/a	8	2.571023e-01	-2.428977e-01
233.782360	0.583402	dec_social_choice	0.583402	32.000000	n/a	8	1.358696e-02	1.358696e-02
233.782360	0.583402	dec_choice	0.583402	32.000000	n/a	8	7.102273e-03	7.102273e-03
233.782360	0.583402	dec_social_accept	0.583402	32.000000	n/a	8	-7.875000e-02	-7.875000e-02
233.782360	0.583402	dec_accept	0.583402	32.000000	n/a	8	-9.114583e-02	-9.114583e-02
233.782360	0.583402	dec_social_high	0.583402	32.000000	n/a	8	7.102273e-03	7.102273e-03
233.782360	0.583402	dec_social_accept_high	0.583402	32.000000	n/a	8	7.102273e-03	7.102273e-03
241.432270	0.500655	dec_social_choice	0.500655	32.000000	n/a	8	1.358696e-02	1.358696e-02
241.432270	0.500655	dec_choice	0.500655	32.000000	n/a	8	7.102273e-03	7.102273e-03
241.432270	0.500655	dec_social_accept	0.500655	32.000000	n/a	8	-7.875000e-02	-7.875000e-02
241.432270	0.500655	dec_accept	0.500655	32.000000	n/a	8	-9.114583e-02	-9.114583e-02
241.432270	0.500655	dec_social_high	0.500655	32.000000	n/a	8	7.102273e-03	7.102273e-03
241.432270	0.500655	dec_social_accept_high	0.500655	32.000000	n/a	8	7.102273e-03	7.102273e-03
249.082230	1.017362	dec_social_choice	1.017362	32.000000	n/a	0	0	-2.364130e-01
249.082230	1.017362	dec_choice	1.017362	32.000000	n/a	0	0	-2.428977e-01
249.082230	1.017362	dec_social_reject	1.017362	32.000000	n/a	0	0	-3.273810e-02
249.082230	1.017362	dec_reject	1.017362	32.000000	n/a	0	0	-3.125000e-02
249.082230	1.017362	dec_social_reject_low	1.017362	32.000000	n/a	3	-1.491477e-01	-2.428977e-01
256.717040	0.582278	dec_social_choice	0.582278	16.000000	n/a	0	0	-2.364130e-01
256.717040	0.582278	dec_choice	0.582278	16.000000	n/a	0	0	-2.428977e-01
256.717040	0.582278	dec_social_reject	0.582278	16.000000	n/a	0	0	-1.488095e-03
256.717040	0.582278	dec_reject	0.582278	16.000000	n/a	0	0	0
256.717040	0.582278	dec_social_reject_low	0.582278	16.000000	n/a	2	-1.178977e-01	-2.428977e-01
264.365170	0.601007	dec_social_choice	0.601007	16.000000	n/a	0	0	-2.364130e-01
264.365170	0.601007	dec_choice	0.601007	16.000000	n/a	0	0	-2.428977e-01
264.365170	0.601007	dec_social_reject	0.601007	16.000000	n/a	0	0	-1.488095e-03
264.365170	0.601007	dec_reject	0.601007	16.000000	n/a	0	0	0
264.365170	0.601007	dec_social_reject_low	0.601007	16.000000	n/a	2	-1.178977e-01	-2.428977e-01
271.999100	0.633677	dec_nonsocial_choice	0.633677	16.000000	n/a	2	-1.114130e-01	-1.114130e-01
271.999100	0.633677	dec_choice	0.633677	16.000000	n/a	2	-1.054688e-01	-1.054688e-01
271.999100	0.633677	dec_nonsocial_accept	0.633677	16.000000	n/a	2	-2.037500e-01	-2.037500e-01
271.999100	0.633677	dec_accept	0.633677	16.000000	n/a	2	-1.923077e-01	-1.923077e-01
271.999100	0.633677	dec_nonsocial_accept_low	0.633677	16.000000	n/a	2	-2.161458e-01	-2.161458e-01
278.832670	0.983178	dec_social_choice	0.983178	16.000000	n/a	8	2.635870e-01	2.635870e-01
278.832670	0.983178	dec_choice	0.983178	16.000000	n/a	8	2.571023e-01	2.571023e-01
278.832670	0.983178	dec_social_accept	0.983178	16.000000	n/a	8	1.712500e-01	1.712500e-01
278.832670	0.983178	dec_accept	0.983178	16.000000	n/a	8	1.588542e-01	1.588542e-01
278.832670	0.983178	dec_social_high	0.983178	16.000000	n/a	8	2.571023e-01	2.571023e-01
278.832670	0.983178	dec_social_accept_high	0.983178	16.000000	n/a	8	2.571023e-01	2.571023e-01
285.666050	0.950071	dec_nonsocial_choice	0.950071	32.000000	n/a	0	0	-2.364130e-01
285.666050	0.950071	dec_choice	0.950071	32.000000	n/a	0	0	-2.304688e-01
285.666050	0.950071	dec_nonsocial_reject	0.950071	32.000000	n/a	0	0	-6.398810e-02
285.666050	0.950071	dec_reject	0.950071	32.000000	n/a	0	0	-6.534091e-02
285.666050	0.950071	dec_nonsocial_low	0.950071	32.000000	n/a	0	-2.304688e-01	-2.304688e-01
285.666050	0.950071	dec_nonsocial_reject_low	0.950071	32.000000	n/a	2	-6.534091e-02	-1.278409e-01
292.499050	0.950429	dec_nonsocial_choice	0.950429	32.000000	n/a	8	1.358696e-02	1.358696e-02
292.499050	0.950429	dec_choice	0.950429	32.000000	n/a	8	1.953125e-02	1.953125e-02
292.499050	0.950429	dec_nonsocial_accept	0.950429	32.000000	n/a	8	-7.875000e-02	-7.875000e-02
292.499050	0.950429	dec_accept	0.950429	32.000000	n/a	8	-6.730769e-02	-6.730769e-02
292.499050	0.950429	dec_nonsocial_high	0.950429	32.000000	n/a	8	1.953125e-02	1.953125e-02
292.499050	0.950429	dec_nonsocial_accept_high	0.950429	32.000000	n/a	8	-6.730769e-02	-6.730769e-02
299.332950	0.966300	dec_social_choice	0.966300	16.000000	n/a	8	2.635870e-01	2.635870e-01
299.332950	0.966300	dec_choice	0.966300	16.000000	n/a	8	2.571023e-01	2.571023e-01
299.332950	0.966300	dec_social_accept	0.966300	16.000000	n/a	8	1.712500e-01	1.712500e-01
299.332950	0.966300	dec_accept	0.966300	16.000000	n/a	8	1.588542e-01	1.588542e-01
299.332950	0.966300	dec_social_high	0.966300	16.000000	n/a	8	2.571023e-01	2.571023e-01
299.332950	0.966300	dec_social_accept_high	0.966300	16.000000	n/a	8	2.571023e-01	2.571023e-01
308.582100	0.984066	dec_nonsocial_choice	0.984066	32.000000	n/a	0	0	-2.364130e-01
308.582100	0.984066	dec_choice	0.984066	32.000000	n/a	0	0	-2.304688e-01
308.582100	0.984066	dec_nonsocial_reject	0.984066	32.000000	n/a	0	0	-3.273810e-02
308.582100	0.984066	dec_reject	0.984066	32.000000	n/a	0	0	-3.409091e-02
308.582100	0.984066	dec_nonsocial_reject_low	0.984066	32.000000	n/a	3	-3.125000e-02	-1.250000e-01
316.216060	1.566162	dec_social_choice	1.566162	32.000000	n/a	0	0	-2.364130e-01
316.216060	1.566162	dec_choice	1.566162	32.000000	n/a	0	0	-2.428977e-01
316.216060	1.566162	dec_social_reject	1.566162	32.000000	n/a	0	0	-6.398810e-02
316.216060	1.566162	dec_reject	1.566162	32.000000	n/a	0	0	-6.250000e-02
316.216060	1.566162	dec_social_reject_low	1.566162	32.000000	n/a	2	-1.803977e-01	-2.428977e-01
323.866640	0.932560	dec_nonsocial_choice	0.932560	16.000000	n/a	2	-1.114130e-01	-1.114130e-01
323.866640	0.932560	dec_choice	0.932560	16.000000	n/a	2	-1.054688e-01	-1.054688e-01
323.866640	0.932560	dec_nonsocial_accept	0.932560	16.000000	n/a	2	-2.037500e-01	-2.037500e-01
323.866640	0.932560	dec_accept	0.932560	16.000000	n/a	2	-1.923077e-01	-1.923077e-01
323.866640	0.932560	dec_nonsocial_low	0.932560	16.000000	n/a	2	-1.054688e-01	-1.054688e-01
323.866640	0.932560	dec_nonsocial_accept_low	0.932560	16.000000	n/a	2	-1.923077e-01	-1.923077e-01
330.700040	1.315552	dec_nonsocial_choice	1.315552	32.000000	n/a	2	-1.739130e-01	-1.739130e-01
330.700040	1.315552	dec_choice	1.315552	32.000000	n/a	2	-1.679688e-01	-1.679688e-01
330.700040	1.315552	dec_nonsocial_accept	1.315552	32.000000	n/a	2	-2.662500e-01	-2.662500e-01
330.700040	1.315552	dec_accept	1.315552	32.000000	n/a	2	-2.548077e-01	-2.548077e-01
330.700040	1.315552	dec_nonsocial_accept_low	1.315552	32.000000	n/a	2	-2.786458e-01	-2.786458e-01
337.532040	0.884010	dec_nonsocial_choice	0.884010	16.000000	n/a	0	0	-2.364130e-01
337.532040	0.884010	dec_choice	0.884010	16.000000	n/a	0	0	-2.304688e-01
337.532040	0.884010	dec_nonsocial_reject	0.884010	16.000000	n/a	0	0	1.235119e-01
337.532040	0.884010	dec_reject	0.884010	16.000000	n/a	0	0	1.221591e-01
337.532040	0.884010	dec_nonsocial_low	0.884010	16.000000	n/a	0	-2.304688e-01	-2.304688e-01
337.532040	0.884010	dec_nonsocial_reject_low	0.884010	16.000000	n/a	4	1.221591e-01	-1.278409e-01
346.782960	0.882976	dec_social_choice	0.882976	16.000000	n/a	0	0	-2.364130e-01
346.782960	0.882976	dec_choice	0.882976	16.000000	n/a	0	0	-2.428977e-01
346.782960	0.882976	dec_social_reject	0.882976	16.000000	n/a	0	0	-6.398810e-02
346.782960	0.882976	dec_reject	0.882976	16.000000	n/a	0	0	-6.250000e-02
346.782960	0.882976	dec_social_reject_low	0.882976	16.000000	n/a	1	-1.803977e-01	-2.428977e-01
356.050050	1.415473	dec_nonsocial_choice	1.415473	16.000000	n/a	8	2.635870e-01	2.635870e-01
356.050050	1.415473	dec_choice	1.415473	16.000000	n/a	8	2.695312e-01	2.695312e-01
356.050050	1.415473	dec_nonsocial_accept	1.415473	16.000000	n/a	8	1.712500e-01	1.712500e-01
356.050050	1.415473	dec_accept	1.415473	16.000000	n/a	8	1.826923e-01	1.826923e-01
356.050050	1.415473	dec_nonsocial_high	1.415473	16.000000	n/a	8	2.695312e-01	2.695312e-01
356.050050	1.415473	dec_nonsocial_accept_high	1.415473	16.000000	n/a	8	1.826923e-01	1.826923e-01
362.882720	0.849724	dec_social_choice	0.849724	32.000000	n/a	8	1.358696e-02	1.358696e-02
362.882720	0.849724	dec_choice	0.849724	32.000000	n/a	8	7.102273e-03	7.102273e-03
362.882720	0.849724	dec_social_accept	0.849724	32.000000	n/a	8	-7.875000e-02	-7.875000e-02
362.882720	0.849724	dec_accept	0.849724	32.000000	n/a	8	-9.114583e-02	-9.114583e-02
362.882720	0.849724	dec_social_accept_high	0.849724	32.000000	n/a	8	7.102273e-03	7.102273e-03
372.133030	1.565695	dec_nonsocial_choice	1.565695	32.000000	n/a	0	0	-2.364130e-01
372.133030	1.565695	dec_choice	1.565695	32.000000	n/a	0	0	-2.304688e-01
372.133030	1.565695	dec_nonsocial_reject	1.565695	32.000000	n/a	0	0	-3.273810e-02
372.133030	1.565695	dec_reject	1.565695	32.000000	n/a	0	0	-3.409091e-02
372.133030	1.565695	dec_nonsocial_low	1.565695	32.000000	n/a	0	-2.304688e-01	-2.304688e-01
372.133030	1.565695	dec_nonsocial_reject_low	1.565695	32.000000	n/a	3	-3.409091e-02	-1.278409e-01
