onset	duration	trial_type	response_time	Endowment	Endowment_pmod	Decision	Decision_pmod	Offer_pmod
4.505049	2	cue_nonsocial	n/a	16	-10	n/a	n/a	n/a
4.505049	2	cue_nonsocial_low	n/a	16	-9	n/a	n/a	n/a
12.154600	2	cue_nonsocial	n/a	32	6	n/a	n/a	n/a
12.154600	2	cue_nonsocial_high	n/a	32	7	n/a	n/a	n/a
19.053362	2	cue_social	n/a	16	-9	n/a	n/a	n/a
19.053362	2	cue_social_low	n/a	16	-10	n/a	n/a	n/a
26.697080	2	cue_social	n/a	32	7	n/a	n/a	n/a
26.697080	2	cue_social_high	n/a	32	6	n/a	n/a	n/a
34.342330	2	cue_social	n/a	16	-9	n/a	n/a	n/a
34.342330	2	cue_social_low	n/a	16	-10	n/a	n/a	n/a
41.188400	2	cue_social	n/a	16	-9	n/a	n/a	n/a
41.188400	2	cue_social_low	n/a	16	-10	n/a	n/a	n/a
50.452450	2	cue_social	n/a	16	-9	n/a	n/a	n/a
50.452450	2	cue_social_low	n/a	16	-10	n/a	n/a	n/a
58.021515	2	cue_nonsocial	n/a	16	-10	n/a	n/a	n/a
58.021515	2	cue_nonsocial_low	n/a	16	-9	n/a	n/a	n/a
64.854880	2	cue_nonsocial	n/a	16	-10	n/a	n/a	n/a
64.854880	2	cue_nonsocial_low	n/a	16	-9	n/a	n/a	n/a
71.688120	2	cue_nonsocial	n/a	32	6	n/a	n/a	n/a
71.688120	2	cue_nonsocial_high	n/a	32	7	n/a	n/a	n/a
78.585020	2	cue_social	n/a	32	7	n/a	n/a	n/a
78.585020	2	cue_social_high	n/a	32	6	n/a	n/a	n/a
85.441690	2	cue_social	n/a	32	7	n/a	n/a	n/a
85.441690	2	cue_social_high	n/a	32	6	n/a	n/a	n/a
93.058815	2	cue_social	n/a	32	7	n/a	n/a	n/a
93.058815	2	cue_social_high	n/a	32	6	n/a	n/a	n/a
100.654860	2	cue_nonsocial	n/a	32	6	n/a	n/a	n/a
100.654860	2	cue_nonsocial_high	n/a	32	7	n/a	n/a	n/a
109.904785	2	cue_nonsocial	n/a	16	-10	n/a	n/a	n/a
109.904785	2	cue_nonsocial_low	n/a	16	-9	n/a	n/a	n/a
117.602516	2	cue_social	n/a	16	-9	n/a	n/a	n/a
117.602516	2	cue_social_low	n/a	16	-10	n/a	n/a	n/a
124.371370	2	cue_nonsocial	n/a	32	6	n/a	n/a	n/a
124.371370	2	cue_nonsocial_high	n/a	32	7	n/a	n/a	n/a
135.238130	2	cue_nonsocial	n/a	32	6	n/a	n/a	n/a
135.238130	2	cue_nonsocial_high	n/a	32	7	n/a	n/a	n/a
142.137190	2	cue_social	n/a	32	7	n/a	n/a	n/a
142.137190	2	cue_social_high	n/a	32	6	n/a	n/a	n/a
152.977940	2	cue_social	n/a	32	7	n/a	n/a	n/a
152.977940	2	cue_social_high	n/a	32	6	n/a	n/a	n/a
159.802800	2	cue_social	n/a	32	7	n/a	n/a	n/a
159.802800	2	cue_social_high	n/a	32	6	n/a	n/a	n/a
169.087480	2	cue_social	n/a	16	-9	n/a	n/a	n/a
169.087480	2	cue_social_low	n/a	16	-10	n/a	n/a	n/a
175.854300	2	cue_nonsocial	n/a	32	6	n/a	n/a	n/a
175.854300	2	cue_nonsocial_high	n/a	32	7	n/a	n/a	n/a
186.721240	2	cue_nonsocial	n/a	32	6	n/a	n/a	n/a
186.721240	2	cue_nonsocial_high	n/a	32	7	n/a	n/a	n/a
194.417340	2	cue_social	n/a	16	-9	n/a	n/a	n/a
194.417340	2	cue_social_low	n/a	16	-10	n/a	n/a	n/a
201.204120	2	cue_nonsocial	n/a	16	-10	n/a	n/a	n/a
201.204120	2	cue_nonsocial_low	n/a	16	-9	n/a	n/a	n/a
208.082950	2	cue_social	n/a	32	7	n/a	n/a	n/a
208.082950	2	cue_social_high	n/a	32	6	n/a	n/a	n/a
214.871340	2	cue_nonsocial	n/a	16	-10	n/a	n/a	n/a
214.871340	2	cue_nonsocial_low	n/a	16	-9	n/a	n/a	n/a
221.704600	2	cue_nonsocial	n/a	16	-10	n/a	n/a	n/a
221.704600	2	cue_nonsocial_low	n/a	16	-9	n/a	n/a	n/a
230.971330	2	cue_nonsocial	n/a	32	6	n/a	n/a	n/a
230.971330	2	cue_nonsocial_high	n/a	32	7	n/a	n/a	n/a
237.804260	2	cue_nonsocial	n/a	32	6	n/a	n/a	n/a
237.804260	2	cue_nonsocial_high	n/a	32	7	n/a	n/a	n/a
245.454330	2	cue_nonsocial	n/a	32	6	n/a	n/a	n/a
245.454330	2	cue_nonsocial_high	n/a	32	7	n/a	n/a	n/a
254.720810	2	cue_nonsocial	n/a	32	6	n/a	n/a	n/a
254.720810	2	cue_nonsocial_high	n/a	32	7	n/a	n/a	n/a
261.554000	2	cue_nonsocial	n/a	32	6	n/a	n/a	n/a
261.554000	2	cue_nonsocial_high	n/a	32	7	n/a	n/a	n/a
268.446300	2	cue_social	n/a	16	-9	n/a	n/a	n/a
268.446300	2	cue_social_low	n/a	16	-10	n/a	n/a	n/a
275.220950	2	cue_nonsocial	n/a	32	6	n/a	n/a	n/a
275.220950	2	cue_nonsocial_high	n/a	32	7	n/a	n/a	n/a
282.103760	2	cue_social	n/a	16	-9	n/a	n/a	n/a
282.103760	2	cue_social_low	n/a	16	-10	n/a	n/a	n/a
291.350980	2	cue_social	n/a	32	7	n/a	n/a	n/a
291.350980	2	cue_social_high	n/a	32	6	n/a	n/a	n/a
299.012970	2	cue_social	n/a	32	7	n/a	n/a	n/a
299.012970	2	cue_social_high	n/a	32	6	n/a	n/a	n/a
305.891400	2	cue_social	n/a	16	-9	n/a	n/a	n/a
305.891400	2	cue_social_low	n/a	16	-10	n/a	n/a	n/a
312.621100	2	cue_nonsocial	n/a	32	6	n/a	n/a	n/a
312.621100	2	cue_nonsocial_high	n/a	32	7	n/a	n/a	n/a
325.120820	2	cue_nonsocial	n/a	16	-10	n/a	n/a	n/a
325.120820	2	cue_nonsocial_low	n/a	16	-9	n/a	n/a	n/a
331.994260	2	cue_social	n/a	16	-9	n/a	n/a	n/a
331.994260	2	cue_social_low	n/a	16	-10	n/a	n/a	n/a
339.649380	2	cue_social	n/a	32	7	n/a	n/a	n/a
339.649380	2	cue_social_high	n/a	32	6	n/a	n/a	n/a
346.437440	2	cue_nonsocial	n/a	32	6	n/a	n/a	n/a
346.437440	2	cue_nonsocial_high	n/a	32	7	n/a	n/a	n/a
354.107500	2	cue_social	n/a	32	7	n/a	n/a	n/a
354.107500	2	cue_social_high	n/a	32	6	n/a	n/a	n/a
360.967160	2	cue_social	n/a	32	7	n/a	n/a	n/a
360.967160	2	cue_social_high	n/a	32	6	n/a	n/a	n/a
368.570770	2	cue_nonsocial	n/a	16	-10	n/a	n/a	n/a
368.570770	2	cue_nonsocial_low	n/a	16	-9	n/a	n/a	n/a
6.512050	1.850092	dec_nonsocial_choice	1.850092	16.000000	n/a	4	1.994681e-02	1.994681e-02
6.512050	1.850092	dec_choice	1.850092	16.000000	n/a	4	2.038043e-02	2.038043e-02
6.512050	1.850092	dec_nonsocial_accept	1.850092	16.000000	n/a	4	2.361111e-02	2.361111e-02
6.512050	1.850092	dec_accept	1.850092	16.000000	n/a	4	2.038043e-02	2.038043e-02
6.512050	1.850092	dec_nonsocial_high	1.850092	16.000000	n/a	4	2.038043e-02	2.038043e-02
6.512050	1.850092	dec_nonsocial_accept_high	1.850092	16.000000	n/a	4	2.038043e-02	2.038043e-02
14.162079	1.100009	dec_nonsocial_choice	1.100009	32.000000	n/a	2	-1.675532e-01	-1.675532e-01
14.162079	1.100009	dec_choice	1.100009	32.000000	n/a	2	-1.671196e-01	-1.671196e-01
14.162079	1.100009	dec_nonsocial_accept	1.100009	32.000000	n/a	2	-1.638889e-01	-1.638889e-01
14.162079	1.100009	dec_accept	1.100009	32.000000	n/a	2	-1.671196e-01	-1.671196e-01
14.162079	1.100009	dec_nonsocial_accept_low	1.100009	32.000000	n/a	2	-1.605114e-01	-1.605114e-01
20.995996	0.832860	dec_social_choice	0.832860	16.000000	n/a	2	-1.050532e-01	-1.050532e-01
20.995996	0.832860	dec_choice	0.832860	16.000000	n/a	2	-1.054688e-01	-1.054688e-01
20.995996	0.832860	dec_social_accept	0.832860	16.000000	n/a	2	-1.013889e-01	-1.013889e-01
20.995996	0.832860	dec_accept	0.832860	16.000000	n/a	2	-9.801136e-02	-9.801136e-02
20.995996	0.832860	dec_social_low	0.832860	16.000000	n/a	2	-1.054688e-01	-1.054688e-01
20.995996	0.832860	dec_social_accept_low	0.832860	16.000000	n/a	2	-1.054688e-01	-1.054688e-01
28.645039	0.750209	dec_social_choice	0.750209	32.000000	n/a	8	1.994681e-02	1.994681e-02
28.645039	0.750209	dec_choice	0.750209	32.000000	n/a	8	1.953125e-02	1.953125e-02
28.645039	0.750209	dec_social_accept	0.750209	32.000000	n/a	8	2.361111e-02	2.361111e-02
28.645039	0.750209	dec_accept	0.750209	32.000000	n/a	8	2.698864e-02	2.698864e-02
28.645039	0.750209	dec_social_accept_high	0.750209	32.000000	n/a	8	1.953125e-02	1.953125e-02
36.295135	0.483584	dec_social_choice	0.483584	16.000000	n/a	8	2.699468e-01	2.699468e-01
36.295135	0.483584	dec_choice	0.483584	16.000000	n/a	8	2.695312e-01	2.695312e-01
36.295135	0.483584	dec_social_accept	0.483584	16.000000	n/a	8	2.736111e-01	2.736111e-01
36.295135	0.483584	dec_accept	0.483584	16.000000	n/a	8	2.769886e-01	2.769886e-01
36.295135	0.483584	dec_social_high	0.483584	16.000000	n/a	8	2.695312e-01	2.695312e-01
36.295135	0.483584	dec_social_accept_high	0.483584	16.000000	n/a	8	2.695312e-01	2.695312e-01
43.128110	0.766643	dec_social_choice	0.766643	16.000000	n/a	0	0	-2.300532e-01
43.128110	0.766643	dec_choice	0.766643	16.000000	n/a	0	0	-2.304688e-01
43.128110	0.766643	dec_social_reject	0.766643	16.000000	n/a	0	0	-8.333333e-02
43.128110	0.766643	dec_reject	0.766643	16.000000	n/a	0	0	-1.875000e-01
43.128110	0.766643	dec_social_low	0.766643	16.000000	n/a	0	-2.304688e-01	-2.304688e-01
43.128110	0.766643	dec_social_reject_low	0.766643	16.000000	n/a	2	-1.054688e-01	-2.304688e-01
52.378006	0.650497	dec_social_choice	0.650497	16.000000	n/a	4	1.994681e-02	1.994681e-02
52.378006	0.650497	dec_choice	0.650497	16.000000	n/a	4	1.953125e-02	1.953125e-02
52.378006	0.650497	dec_social_accept	0.650497	16.000000	n/a	4	2.361111e-02	2.361111e-02
52.378006	0.650497	dec_accept	0.650497	16.000000	n/a	4	2.698864e-02	2.698864e-02
52.378006	0.650497	dec_social_accept_high	0.650497	16.000000	n/a	4	1.953125e-02	1.953125e-02
60.029034	0.649732	dec_nonsocial_choice	0.649732	16.000000	n/a	4	1.994681e-02	1.994681e-02
60.029034	0.649732	dec_choice	0.649732	16.000000	n/a	4	2.038043e-02	2.038043e-02
60.029034	0.649732	dec_nonsocial_accept	0.649732	16.000000	n/a	4	2.361111e-02	2.361111e-02
60.029034	0.649732	dec_accept	0.649732	16.000000	n/a	4	2.038043e-02	2.038043e-02
60.029034	0.649732	dec_nonsocial_high	0.649732	16.000000	n/a	4	2.038043e-02	2.038043e-02
60.029034	0.649732	dec_nonsocial_accept_high	0.649732	16.000000	n/a	4	2.038043e-02	2.038043e-02
66.863040	0.799171	dec_nonsocial_choice	0.799171	16.000000	n/a	2	-1.050532e-01	-1.050532e-01
66.863040	0.799171	dec_choice	0.799171	16.000000	n/a	2	-1.046196e-01	-1.046196e-01
66.863040	0.799171	dec_nonsocial_accept	0.799171	16.000000	n/a	2	-1.013889e-01	-1.013889e-01
66.863040	0.799171	dec_accept	0.799171	16.000000	n/a	2	-1.046196e-01	-1.046196e-01
66.863040	0.799171	dec_nonsocial_accept_low	0.799171	16.000000	n/a	2	-9.801136e-02	-9.801136e-02
73.695070	0.716540	dec_nonsocial_choice	0.716540	32.000000	n/a	3	-1.363032e-01	-1.363032e-01
73.695070	0.716540	dec_choice	0.716540	32.000000	n/a	3	-1.358696e-01	-1.358696e-01
73.695070	0.716540	dec_nonsocial_accept	0.716540	32.000000	n/a	3	-1.326389e-01	-1.326389e-01
73.695070	0.716540	dec_accept	0.716540	32.000000	n/a	3	-1.358696e-01	-1.358696e-01
73.695070	0.716540	dec_nonsocial_low	0.716540	32.000000	n/a	3	-1.358696e-01	-1.358696e-01
73.695070	0.716540	dec_nonsocial_accept_low	0.716540	32.000000	n/a	3	-1.358696e-01	-1.358696e-01
80.528206	0.850553	dec_social_choice	0.850553	32.000000	n/a	16	2.699468e-01	2.699468e-01
80.528206	0.850553	dec_choice	0.850553	32.000000	n/a	16	2.695312e-01	2.695312e-01
80.528206	0.850553	dec_social_accept	0.850553	32.000000	n/a	16	2.736111e-01	2.736111e-01
80.528206	0.850553	dec_accept	0.850553	32.000000	n/a	16	2.769886e-01	2.769886e-01
80.528206	0.850553	dec_social_accept_high	0.850553	32.000000	n/a	16	2.695312e-01	2.695312e-01
87.362030	1.166514	dec_social_choice	1.166514	32.000000	n/a	3	-1.363032e-01	-1.363032e-01
87.362030	1.166514	dec_choice	1.166514	32.000000	n/a	3	-1.367188e-01	-1.367188e-01
87.362030	1.166514	dec_social_accept	1.166514	32.000000	n/a	3	-1.326389e-01	-1.326389e-01
87.362030	1.166514	dec_accept	1.166514	32.000000	n/a	3	-1.292614e-01	-1.292614e-01
87.362030	1.166514	dec_social_low	1.166514	32.000000	n/a	3	-1.367188e-01	-1.367188e-01
87.362030	1.166514	dec_social_accept_low	1.166514	32.000000	n/a	3	-1.367188e-01	-1.367188e-01
95.012060	0.983179	dec_social_choice	0.983179	32.000000	n/a	2	-1.675532e-01	-1.675532e-01
95.012060	0.983179	dec_choice	0.983179	32.000000	n/a	2	-1.679688e-01	-1.679688e-01
95.012060	0.983179	dec_social_accept	0.983179	32.000000	n/a	2	-1.638889e-01	-1.638889e-01
95.012060	0.983179	dec_accept	0.983179	32.000000	n/a	2	-1.605114e-01	-1.605114e-01
95.012060	0.983179	dec_social_accept_low	0.983179	32.000000	n/a	2	-1.679688e-01	-1.679688e-01
102.662060	0.883320	dec_nonsocial_choice	0.883320	32.000000	n/a	16	2.699468e-01	2.699468e-01
102.662060	0.883320	dec_choice	0.883320	32.000000	n/a	16	2.703804e-01	2.703804e-01
102.662060	0.883320	dec_nonsocial_accept	0.883320	32.000000	n/a	16	2.736111e-01	2.736111e-01
102.662060	0.883320	dec_accept	0.883320	32.000000	n/a	16	2.703804e-01	2.703804e-01
102.662060	0.883320	dec_nonsocial_accept_high	0.883320	32.000000	n/a	16	2.769886e-01	2.769886e-01
111.911100	1.334161	dec_nonsocial_choice	1.334161	16.000000	n/a	2	-1.050532e-01	-1.050532e-01
111.911100	1.334161	dec_choice	1.334161	16.000000	n/a	2	-1.046196e-01	-1.046196e-01
111.911100	1.334161	dec_nonsocial_accept	1.334161	16.000000	n/a	2	-1.013889e-01	-1.013889e-01
111.911100	1.334161	dec_accept	1.334161	16.000000	n/a	2	-1.046196e-01	-1.046196e-01
111.911100	1.334161	dec_nonsocial_low	1.334161	16.000000	n/a	2	-1.046196e-01	-1.046196e-01
111.911100	1.334161	dec_nonsocial_accept_low	1.334161	16.000000	n/a	2	-1.046196e-01	-1.046196e-01
119.545040	0.833964	dec_social_choice	0.833964	16.000000	n/a	4	1.994681e-02	1.994681e-02
119.545040	0.833964	dec_choice	0.833964	16.000000	n/a	4	1.953125e-02	1.953125e-02
119.545040	0.833964	dec_social_accept	0.833964	16.000000	n/a	4	2.361111e-02	2.361111e-02
119.545040	0.833964	dec_accept	0.833964	16.000000	n/a	4	2.698864e-02	2.698864e-02
119.545040	0.833964	dec_social_high	0.833964	16.000000	n/a	4	1.953125e-02	1.953125e-02
119.545040	0.833964	dec_social_accept_high	0.833964	16.000000	n/a	4	1.953125e-02	1.953125e-02
126.378660	0.749905	dec_nonsocial_choice	0.749905	32.000000	n/a	8	1.994681e-02	1.994681e-02
126.378660	0.749905	dec_choice	0.749905	32.000000	n/a	8	2.038043e-02	2.038043e-02
126.378660	0.749905	dec_nonsocial_accept	0.749905	32.000000	n/a	8	2.361111e-02	2.361111e-02
126.378660	0.749905	dec_accept	0.749905	32.000000	n/a	8	2.038043e-02	2.038043e-02
126.378660	0.749905	dec_nonsocial_high	0.749905	32.000000	n/a	8	2.038043e-02	2.038043e-02
126.378660	0.749905	dec_nonsocial_accept_high	0.749905	32.000000	n/a	8	2.038043e-02	2.038043e-02
137.245040	0.850004	dec_nonsocial_choice	0.850004	32.000000	n/a	2	-1.675532e-01	-1.675532e-01
137.245040	0.850004	dec_choice	0.850004	32.000000	n/a	2	-1.671196e-01	-1.671196e-01
137.245040	0.850004	dec_nonsocial_accept	0.850004	32.000000	n/a	2	-1.638889e-01	-1.638889e-01
137.245040	0.850004	dec_accept	0.850004	32.000000	n/a	2	-1.671196e-01	-1.671196e-01
137.245040	0.850004	dec_nonsocial_accept_low	0.850004	32.000000	n/a	2	-1.605114e-01	-1.605114e-01
144.078100	0.616649	dec_social_choice	0.616649	32.000000	n/a	2	-1.675532e-01	-1.675532e-01
144.078100	0.616649	dec_choice	0.616649	32.000000	n/a	2	-1.679688e-01	-1.679688e-01
144.078100	0.616649	dec_social_accept	0.616649	32.000000	n/a	2	-1.638889e-01	-1.638889e-01
144.078100	0.616649	dec_accept	0.616649	32.000000	n/a	2	-1.605114e-01	-1.605114e-01
144.078100	0.616649	dec_social_low	0.616649	32.000000	n/a	2	-1.679688e-01	-1.679688e-01
144.078100	0.616649	dec_social_accept_low	0.616649	32.000000	n/a	2	-1.679688e-01	-1.679688e-01
154.946030	1.098988	dec_social_choice	1.098988	32.000000	n/a	2	-1.675532e-01	-1.675532e-01
154.946030	1.098988	dec_choice	1.098988	32.000000	n/a	2	-1.679688e-01	-1.679688e-01
154.946030	1.098988	dec_social_accept	1.098988	32.000000	n/a	2	-1.638889e-01	-1.638889e-01
154.946030	1.098988	dec_accept	1.098988	32.000000	n/a	2	-1.605114e-01	-1.605114e-01
154.946030	1.098988	dec_social_accept_low	1.098988	32.000000	n/a	2	-1.679688e-01	-1.679688e-01
161.778050	1.250530	dec_social_choice	1.250530	32.000000	n/a	16	2.699468e-01	2.699468e-01
161.778050	1.250530	dec_choice	1.250530	32.000000	n/a	16	2.695312e-01	2.695312e-01
161.778050	1.250530	dec_social_accept	1.250530	32.000000	n/a	16	2.736111e-01	2.736111e-01
161.778050	1.250530	dec_accept	1.250530	32.000000	n/a	16	2.769886e-01	2.769886e-01
161.778050	1.250530	dec_social_high	1.250530	32.000000	n/a	16	2.695312e-01	2.695312e-01
161.778050	1.250530	dec_social_accept_high	1.250530	32.000000	n/a	16	2.695312e-01	2.695312e-01
171.029080	0.515207	dec_social_choice	0.515207	16.000000	n/a	8	2.699468e-01	2.699468e-01
171.029080	0.515207	dec_choice	0.515207	16.000000	n/a	8	2.695312e-01	2.695312e-01
171.029080	0.515207	dec_social_accept	0.515207	16.000000	n/a	8	2.736111e-01	2.736111e-01
171.029080	0.515207	dec_accept	0.515207	16.000000	n/a	8	2.769886e-01	2.769886e-01
171.029080	0.515207	dec_social_high	0.515207	16.000000	n/a	8	2.695312e-01	2.695312e-01
171.029080	0.515207	dec_social_accept_high	0.515207	16.000000	n/a	8	2.695312e-01	2.695312e-01
177.862060	0.749769	dec_nonsocial_choice	0.749769	32.000000	n/a	2	-1.675532e-01	-1.675532e-01
177.862060	0.749769	dec_choice	0.749769	32.000000	n/a	2	-1.671196e-01	-1.671196e-01
177.862060	0.749769	dec_nonsocial_accept	0.749769	32.000000	n/a	2	-1.638889e-01	-1.638889e-01
177.862060	0.749769	dec_accept	0.749769	32.000000	n/a	2	-1.671196e-01	-1.671196e-01
177.862060	0.749769	dec_nonsocial_accept_low	0.749769	32.000000	n/a	2	-1.605114e-01	-1.605114e-01
188.728200	0.749655	dec_nonsocial_choice	0.749655	32.000000	n/a	16	2.699468e-01	2.699468e-01
188.728200	0.749655	dec_choice	0.749655	32.000000	n/a	16	2.703804e-01	2.703804e-01
188.728200	0.749655	dec_nonsocial_accept	0.749655	32.000000	n/a	16	2.736111e-01	2.736111e-01
188.728200	0.749655	dec_accept	0.749655	32.000000	n/a	16	2.703804e-01	2.703804e-01
188.728200	0.749655	dec_nonsocial_accept_high	0.749655	32.000000	n/a	16	2.769886e-01	2.769886e-01
196.378050	1.266643	dec_social_choice	1.266643	16.000000	n/a	1	-1.675532e-01	-1.675532e-01
196.378050	1.266643	dec_choice	1.266643	16.000000	n/a	1	-1.679688e-01	-1.679688e-01
196.378050	1.266643	dec_social_accept	1.266643	16.000000	n/a	1	-1.638889e-01	-1.638889e-01
196.378050	1.266643	dec_accept	1.266643	16.000000	n/a	1	-1.605114e-01	-1.605114e-01
196.378050	1.266643	dec_social_low	1.266643	16.000000	n/a	1	-1.679688e-01	-1.679688e-01
196.378050	1.266643	dec_social_accept_low	1.266643	16.000000	n/a	1	-1.679688e-01	-1.679688e-01
203.212130	2.382948	dec_nonsocial_choice	2.382948	16.000000	n/a	8	2.699468e-01	2.699468e-01
203.212130	2.382948	dec_choice	2.382948	16.000000	n/a	8	2.703804e-01	2.703804e-01
203.212130	2.382948	dec_nonsocial_accept	2.382948	16.000000	n/a	8	2.736111e-01	2.736111e-01
203.212130	2.382948	dec_accept	2.382948	16.000000	n/a	8	2.703804e-01	2.703804e-01
203.212130	2.382948	dec_nonsocial_accept_high	2.382948	16.000000	n/a	8	2.769886e-01	2.769886e-01
210.044920	0.666331	dec_social_choice	0.666331	32.000000	n/a	16	2.699468e-01	2.699468e-01
210.044920	0.666331	dec_choice	0.666331	32.000000	n/a	16	2.695312e-01	2.695312e-01
210.044920	0.666331	dec_social_accept	0.666331	32.000000	n/a	16	2.736111e-01	2.736111e-01
210.044920	0.666331	dec_accept	0.666331	32.000000	n/a	16	2.769886e-01	2.769886e-01
210.044920	0.666331	dec_social_accept_high	0.666331	32.000000	n/a	16	2.695312e-01	2.695312e-01
216.878070	0.633725	dec_nonsocial_choice	0.633725	16.000000	n/a	1	-1.675532e-01	-1.675532e-01
216.878070	0.633725	dec_choice	0.633725	16.000000	n/a	1	-1.671196e-01	-1.671196e-01
216.878070	0.633725	dec_nonsocial_accept	0.633725	16.000000	n/a	1	-1.638889e-01	-1.638889e-01
216.878070	0.633725	dec_accept	0.633725	16.000000	n/a	1	-1.671196e-01	-1.671196e-01
216.878070	0.633725	dec_nonsocial_low	0.633725	16.000000	n/a	1	-1.671196e-01	-1.671196e-01
216.878070	0.633725	dec_nonsocial_accept_low	0.633725	16.000000	n/a	1	-1.671196e-01	-1.671196e-01
223.711790	0.683307	dec_nonsocial_choice	0.683307	16.000000	n/a	4	1.994681e-02	1.994681e-02
223.711790	0.683307	dec_choice	0.683307	16.000000	n/a	4	2.038043e-02	2.038043e-02
223.711790	0.683307	dec_nonsocial_accept	0.683307	16.000000	n/a	4	2.361111e-02	2.361111e-02
223.711790	0.683307	dec_accept	0.683307	16.000000	n/a	4	2.038043e-02	2.038043e-02
223.711790	0.683307	dec_nonsocial_high	0.683307	16.000000	n/a	4	2.038043e-02	2.038043e-02
223.711790	0.683307	dec_nonsocial_accept_high	0.683307	16.000000	n/a	4	2.038043e-02	2.038043e-02
232.977980	0.783762	dec_nonsocial_choice	0.783762	32.000000	n/a	16	2.699468e-01	2.699468e-01
232.977980	0.783762	dec_choice	0.783762	32.000000	n/a	16	2.703804e-01	2.703804e-01
232.977980	0.783762	dec_nonsocial_accept	0.783762	32.000000	n/a	16	2.736111e-01	2.736111e-01
232.977980	0.783762	dec_accept	0.783762	32.000000	n/a	16	2.703804e-01	2.703804e-01
232.977980	0.783762	dec_nonsocial_accept_high	0.783762	32.000000	n/a	16	2.769886e-01	2.769886e-01
239.812070	0.882981	dec_nonsocial_choice	0.882981	32.000000	n/a	16	2.699468e-01	2.699468e-01
239.812070	0.882981	dec_choice	0.882981	32.000000	n/a	16	2.703804e-01	2.703804e-01
239.812070	0.882981	dec_nonsocial_accept	0.882981	32.000000	n/a	16	2.736111e-01	2.736111e-01
239.812070	0.882981	dec_accept	0.882981	32.000000	n/a	16	2.703804e-01	2.703804e-01
239.812070	0.882981	dec_nonsocial_accept_high	0.882981	32.000000	n/a	16	2.769886e-01	2.769886e-01
247.462140	0.882866	dec_nonsocial_choice	0.882866	32.000000	n/a	3	-1.363032e-01	-1.363032e-01
247.462140	0.882866	dec_choice	0.882866	32.000000	n/a	3	-1.358696e-01	-1.358696e-01
247.462140	0.882866	dec_nonsocial_accept	0.882866	32.000000	n/a	3	-1.326389e-01	-1.326389e-01
247.462140	0.882866	dec_accept	0.882866	32.000000	n/a	3	-1.358696e-01	-1.358696e-01
247.462140	0.882866	dec_nonsocial_accept_low	0.882866	32.000000	n/a	3	-1.292614e-01	-1.292614e-01
256.729100	0.532382	dec_nonsocial_choice	0.532382	32.000000	n/a	2	-1.675532e-01	-1.675532e-01
256.729100	0.532382	dec_choice	0.532382	32.000000	n/a	2	-1.671196e-01	-1.671196e-01
256.729100	0.532382	dec_nonsocial_accept	0.532382	32.000000	n/a	2	-1.638889e-01	-1.638889e-01
256.729100	0.532382	dec_accept	0.532382	32.000000	n/a	2	-1.671196e-01	-1.671196e-01
256.729100	0.532382	dec_nonsocial_accept_low	0.532382	32.000000	n/a	2	-1.605114e-01	-1.605114e-01
263.561550	0.733461	dec_nonsocial_choice	0.733461	32.000000	n/a	2	-1.675532e-01	-1.675532e-01
263.561550	0.733461	dec_choice	0.733461	32.000000	n/a	2	-1.671196e-01	-1.671196e-01
263.561550	0.733461	dec_nonsocial_accept	0.733461	32.000000	n/a	2	-1.638889e-01	-1.638889e-01
263.561550	0.733461	dec_accept	0.733461	32.000000	n/a	2	-1.671196e-01	-1.671196e-01
263.561550	0.733461	dec_nonsocial_low	0.733461	32.000000	n/a	2	-1.671196e-01	-1.671196e-01
263.561550	0.733461	dec_nonsocial_accept_low	0.733461	32.000000	n/a	2	-1.671196e-01	-1.671196e-01
270.394320	0.666375	dec_social_choice	0.666375	16.000000	n/a	4	1.994681e-02	1.994681e-02
270.394320	0.666375	dec_choice	0.666375	16.000000	n/a	4	1.953125e-02	1.953125e-02
270.394320	0.666375	dec_social_accept	0.666375	16.000000	n/a	4	2.361111e-02	2.361111e-02
270.394320	0.666375	dec_accept	0.666375	16.000000	n/a	4	2.698864e-02	2.698864e-02
270.394320	0.666375	dec_social_high	0.666375	16.000000	n/a	4	1.953125e-02	1.953125e-02
270.394320	0.666375	dec_social_accept_high	0.666375	16.000000	n/a	4	1.953125e-02	1.953125e-02
277.228150	0.800159	dec_nonsocial_choice	0.800159	32.000000	n/a	3	-1.363032e-01	-1.363032e-01
277.228150	0.800159	dec_choice	0.800159	32.000000	n/a	3	-1.358696e-01	-1.358696e-01
277.228150	0.800159	dec_nonsocial_accept	0.800159	32.000000	n/a	3	-1.326389e-01	-1.326389e-01
277.228150	0.800159	dec_accept	0.800159	32.000000	n/a	3	-1.358696e-01	-1.358696e-01
277.228150	0.800159	dec_nonsocial_accept_low	0.800159	32.000000	n/a	3	-1.292614e-01	-1.292614e-01
284.061980	1.015789	dec_social_choice	1.015789	16.000000	n/a	4	1.994681e-02	1.994681e-02
284.061980	1.015789	dec_choice	1.015789	16.000000	n/a	4	1.953125e-02	1.953125e-02
284.061980	1.015789	dec_social_accept	1.015789	16.000000	n/a	4	2.361111e-02	2.361111e-02
284.061980	1.015789	dec_accept	1.015789	16.000000	n/a	4	2.698864e-02	2.698864e-02
284.061980	1.015789	dec_social_high	1.015789	16.000000	n/a	4	1.953125e-02	1.953125e-02
284.061980	1.015789	dec_social_accept_high	1.015789	16.000000	n/a	4	1.953125e-02	1.953125e-02
293.327060	0.501163	dec_social_choice	0.501163	32.000000	n/a	8	1.994681e-02	1.994681e-02
293.327060	0.501163	dec_choice	0.501163	32.000000	n/a	8	1.953125e-02	1.953125e-02
293.327060	0.501163	dec_social_accept	0.501163	32.000000	n/a	8	2.361111e-02	2.361111e-02
293.327060	0.501163	dec_accept	0.501163	32.000000	n/a	8	2.698864e-02	2.698864e-02
293.327060	0.501163	dec_social_high	0.501163	32.000000	n/a	8	1.953125e-02	1.953125e-02
293.327060	0.501163	dec_social_accept_high	0.501163	32.000000	n/a	8	1.953125e-02	1.953125e-02
300.961240	0.816310	dec_social_choice	0.816310	32.000000	n/a	3	-1.363032e-01	-1.363032e-01
300.961240	0.816310	dec_choice	0.816310	32.000000	n/a	3	-1.367188e-01	-1.367188e-01
300.961240	0.816310	dec_social_accept	0.816310	32.000000	n/a	3	-1.326389e-01	-1.326389e-01
300.961240	0.816310	dec_accept	0.816310	32.000000	n/a	3	-1.292614e-01	-1.292614e-01
300.961240	0.816310	dec_social_accept_low	0.816310	32.000000	n/a	3	-1.367188e-01	-1.367188e-01
307.795070	0.765834	dec_social_choice	0.765834	16.000000	n/a	2	-1.050532e-01	-1.050532e-01
307.795070	0.765834	dec_choice	0.765834	16.000000	n/a	2	-1.054688e-01	-1.054688e-01
307.795070	0.765834	dec_social_accept	0.765834	16.000000	n/a	2	-1.013889e-01	-1.013889e-01
307.795070	0.765834	dec_accept	0.765834	16.000000	n/a	2	-9.801136e-02	-9.801136e-02
307.795070	0.765834	dec_social_low	0.765834	16.000000	n/a	2	-1.054688e-01	-1.054688e-01
307.795070	0.765834	dec_social_accept_low	0.765834	16.000000	n/a	2	-1.054688e-01	-1.054688e-01
314.629060	3.766946	missed_trial	3.766946	32.000000	n/a	n/a	n/a	n/a
327.127140	0.650831	dec_nonsocial_choice	0.650831	16.000000	n/a	4	1.994681e-02	1.994681e-02
327.127140	0.650831	dec_choice	0.650831	16.000000	n/a	4	2.038043e-02	2.038043e-02
327.127140	0.650831	dec_nonsocial_accept	0.650831	16.000000	n/a	4	2.361111e-02	2.361111e-02
327.127140	0.650831	dec_accept	0.650831	16.000000	n/a	4	2.038043e-02	2.038043e-02
327.127140	0.650831	dec_nonsocial_high	0.650831	16.000000	n/a	4	2.038043e-02	2.038043e-02
327.127140	0.650831	dec_nonsocial_accept_high	0.650831	16.000000	n/a	4	2.038043e-02	2.038043e-02
333.962100	0.948940	dec_social_choice	0.948940	16.000000	n/a	1	-1.675532e-01	-1.675532e-01
333.962100	0.948940	dec_choice	0.948940	16.000000	n/a	1	-1.679688e-01	-1.679688e-01
333.962100	0.948940	dec_social_accept	0.948940	16.000000	n/a	1	-1.638889e-01	-1.638889e-01
333.962100	0.948940	dec_accept	0.948940	16.000000	n/a	1	-1.605114e-01	-1.605114e-01
333.962100	0.948940	dec_social_accept_low	0.948940	16.000000	n/a	1	-1.679688e-01	-1.679688e-01
341.611000	1.666328	dec_social_choice	1.666328	32.000000	n/a	0	0	-2.300532e-01
341.611000	1.666328	dec_choice	1.666328	32.000000	n/a	0	0	-2.304688e-01
341.611000	1.666328	dec_social_reject	1.666328	32.000000	n/a	0	0	2.916667e-01
341.611000	1.666328	dec_reject	1.666328	32.000000	n/a	0	0	1.875000e-01
341.611000	1.666328	dec_social_low	1.666328	32.000000	n/a	0	-2.304688e-01	-2.304688e-01
341.611000	1.666328	dec_social_reject_low	1.666328	32.000000	n/a	16	2.695312e-01	-2.304688e-01
348.445070	0.749440	dec_nonsocial_choice	0.749440	32.000000	n/a	16	2.699468e-01	2.699468e-01
348.445070	0.749440	dec_choice	0.749440	32.000000	n/a	16	2.703804e-01	2.703804e-01
348.445070	0.749440	dec_nonsocial_accept	0.749440	32.000000	n/a	16	2.736111e-01	2.736111e-01
348.445070	0.749440	dec_accept	0.749440	32.000000	n/a	16	2.703804e-01	2.703804e-01
348.445070	0.749440	dec_nonsocial_accept_high	0.749440	32.000000	n/a	16	2.769886e-01	2.769886e-01
356.095120	1.032995	dec_social_choice	1.032995	32.000000	n/a	3	-1.363032e-01	-1.363032e-01
356.095120	1.032995	dec_choice	1.032995	32.000000	n/a	3	-1.367188e-01	-1.367188e-01
356.095120	1.032995	dec_social_accept	1.032995	32.000000	n/a	3	-1.326389e-01	-1.326389e-01
356.095120	1.032995	dec_accept	1.032995	32.000000	n/a	3	-1.292614e-01	-1.292614e-01
356.095120	1.032995	dec_social_low	1.032995	32.000000	n/a	3	-1.367188e-01	-1.367188e-01
356.095120	1.032995	dec_social_accept_low	1.032995	32.000000	n/a	3	-1.367188e-01	-1.367188e-01
362.928100	1.083149	dec_social_choice	1.083149	32.000000	n/a	2	-1.675532e-01	-1.675532e-01
362.928100	1.083149	dec_choice	1.083149	32.000000	n/a	2	-1.679688e-01	-1.679688e-01
362.928100	1.083149	dec_social_accept	1.083149	32.000000	n/a	2	-1.638889e-01	-1.638889e-01
362.928100	1.083149	dec_accept	1.083149	32.000000	n/a	2	-1.605114e-01	-1.605114e-01
362.928100	1.083149	dec_social_low	1.083149	32.000000	n/a	2	-1.679688e-01	-1.679688e-01
362.928100	1.083149	dec_social_accept_low	1.083149	32.000000	n/a	2	-1.679688e-01	-1.679688e-01
370.577060	0.933811	dec_nonsocial_choice	0.933811	16.000000	n/a	2	-1.050532e-01	-1.050532e-01
370.577060	0.933811	dec_choice	0.933811	16.000000	n/a	2	-1.046196e-01	-1.046196e-01
370.577060	0.933811	dec_nonsocial_accept	0.933811	16.000000	n/a	2	-1.013889e-01	-1.013889e-01
370.577060	0.933811	dec_accept	0.933811	16.000000	n/a	2	-1.046196e-01	-1.046196e-01
370.577060	0.933811	dec_nonsocial_low	0.933811	16.000000	n/a	2	-1.046196e-01	-1.046196e-01
370.577060	0.933811	dec_nonsocial_accept_low	0.933811	16.000000	n/a	2	-1.046196e-01	-1.046196e-01
