onset	duration	trial_type	response_time	Endowment	Endowment_pmod	Decision	Decision_pmod	Offer_pmod
4.519498	2	cue_nonsocial	n/a	32	6	n/a	n/a	n/a
4.519498	2	cue_nonsocial_high	n/a	32	5	n/a	n/a	n/a
12.242298	2	cue_social	n/a	32	5	n/a	n/a	n/a
12.242298	2	cue_social_high	n/a	32	6	n/a	n/a	n/a
21.402817	2	cue_nonsocial	n/a	32	6	n/a	n/a	n/a
21.402817	2	cue_nonsocial_high	n/a	32	5	n/a	n/a	n/a
28.236140	2	cue_nonsocial	n/a	32	6	n/a	n/a	n/a
28.236140	2	cue_nonsocial_high	n/a	32	5	n/a	n/a	n/a
35.886147	2	cue_nonsocial	n/a	32	6	n/a	n/a	n/a
35.886147	2	cue_nonsocial_high	n/a	32	5	n/a	n/a	n/a
43.592953	2	cue_social	n/a	32	5	n/a	n/a	n/a
43.592953	2	cue_social_high	n/a	32	6	n/a	n/a	n/a
50.456220	2	cue_social	n/a	32	5	n/a	n/a	n/a
50.456220	2	cue_social_high	n/a	32	6	n/a	n/a	n/a
58.092000	2	cue_social	n/a	32	5	n/a	n/a	n/a
58.092000	2	cue_social_high	n/a	32	6	n/a	n/a	n/a
70.502686	2	cue_nonsocial	n/a	32	6	n/a	n/a	n/a
70.502686	2	cue_nonsocial_high	n/a	32	5	n/a	n/a	n/a
81.369415	2	cue_nonsocial	n/a	16	-10	n/a	n/a	n/a
81.369415	2	cue_nonsocial_low	n/a	16	-11	n/a	n/a	n/a
88.202675	2	cue_nonsocial	n/a	32	6	n/a	n/a	n/a
88.202675	2	cue_nonsocial_high	n/a	32	5	n/a	n/a	n/a
95.036230	2	cue_nonsocial	n/a	16	-10	n/a	n/a	n/a
95.036230	2	cue_nonsocial_low	n/a	16	-11	n/a	n/a	n/a
101.869484	2	cue_nonsocial	n/a	16	-10	n/a	n/a	n/a
101.869484	2	cue_nonsocial_low	n/a	16	-11	n/a	n/a	n/a
108.771370	2	cue_social	n/a	32	5	n/a	n/a	n/a
108.771370	2	cue_social_high	n/a	32	6	n/a	n/a	n/a
115.615900	2	cue_social	n/a	32	5	n/a	n/a	n/a
115.615900	2	cue_social_high	n/a	32	6	n/a	n/a	n/a
124.874810	2	cue_social	n/a	16	-11	n/a	n/a	n/a
124.874810	2	cue_social_low	n/a	16	-10	n/a	n/a	n/a
131.696580	2	cue_social	n/a	16	-11	n/a	n/a	n/a
131.696580	2	cue_social_low	n/a	16	-10	n/a	n/a	n/a
140.869220	2	cue_nonsocial	n/a	16	-10	n/a	n/a	n/a
140.869220	2	cue_nonsocial_low	n/a	16	-11	n/a	n/a	n/a
147.702150	2	cue_nonsocial	n/a	16	-10	n/a	n/a	n/a
147.702150	2	cue_nonsocial_low	n/a	16	-11	n/a	n/a	n/a
154.599460	2	cue_social	n/a	32	5	n/a	n/a	n/a
154.599460	2	cue_social_high	n/a	32	6	n/a	n/a	n/a
161.430800	2	cue_social	n/a	16	-11	n/a	n/a	n/a
161.430800	2	cue_social_low	n/a	16	-10	n/a	n/a	n/a
169.019300	2	cue_nonsocial	n/a	32	6	n/a	n/a	n/a
169.019300	2	cue_nonsocial_high	n/a	32	5	n/a	n/a	n/a
175.852450	2	cue_nonsocial	n/a	16	-10	n/a	n/a	n/a
175.852450	2	cue_nonsocial_low	n/a	16	-11	n/a	n/a	n/a
186.719100	2	cue_nonsocial	n/a	32	6	n/a	n/a	n/a
186.719100	2	cue_nonsocial_high	n/a	32	5	n/a	n/a	n/a
193.623350	2	cue_social	n/a	16	-11	n/a	n/a	n/a
193.623350	2	cue_social_low	n/a	16	-10	n/a	n/a	n/a
201.268970	2	cue_social	n/a	32	5	n/a	n/a	n/a
201.268970	2	cue_social_high	n/a	32	6	n/a	n/a	n/a
208.104480	2	cue_social	n/a	32	5	n/a	n/a	n/a
208.104480	2	cue_social_high	n/a	32	6	n/a	n/a	n/a
215.685930	2	cue_nonsocial	n/a	32	6	n/a	n/a	n/a
215.685930	2	cue_nonsocial_high	n/a	32	5	n/a	n/a	n/a
224.952470	2	cue_nonsocial	n/a	32	6	n/a	n/a	n/a
224.952470	2	cue_nonsocial_high	n/a	32	5	n/a	n/a	n/a
231.889710	2	cue_social	n/a	32	5	n/a	n/a	n/a
231.889710	2	cue_social_high	n/a	32	6	n/a	n/a	n/a
238.619320	2	cue_nonsocial	n/a	32	6	n/a	n/a	n/a
238.619320	2	cue_nonsocial_high	n/a	32	5	n/a	n/a	n/a
245.550890	2	cue_social	n/a	16	-11	n/a	n/a	n/a
245.550890	2	cue_social_low	n/a	16	-10	n/a	n/a	n/a
253.102500	2	cue_nonsocial	n/a	16	-10	n/a	n/a	n/a
253.102500	2	cue_nonsocial_low	n/a	16	-11	n/a	n/a	n/a
260.805180	2	cue_social	n/a	32	5	n/a	n/a	n/a
260.805180	2	cue_social_high	n/a	32	6	n/a	n/a	n/a
267.646500	2	cue_social	n/a	16	-11	n/a	n/a	n/a
267.646500	2	cue_social_low	n/a	16	-10	n/a	n/a	n/a
276.835630	2	cue_nonsocial	n/a	32	6	n/a	n/a	n/a
276.835630	2	cue_nonsocial_high	n/a	32	5	n/a	n/a	n/a
283.724330	2	cue_social	n/a	32	5	n/a	n/a	n/a
283.724330	2	cue_social_high	n/a	32	6	n/a	n/a	n/a
290.559360	2	cue_social	n/a	32	5	n/a	n/a	n/a
290.559360	2	cue_social_high	n/a	32	6	n/a	n/a	n/a
298.135400	2	cue_nonsocial	n/a	32	6	n/a	n/a	n/a
298.135400	2	cue_nonsocial_high	n/a	32	5	n/a	n/a	n/a
305.048950	2	cue_social	n/a	16	-11	n/a	n/a	n/a
305.048950	2	cue_social_low	n/a	16	-10	n/a	n/a	n/a
311.871950	2	cue_social	n/a	32	5	n/a	n/a	n/a
311.871950	2	cue_social_high	n/a	32	6	n/a	n/a	n/a
319.453250	2	cue_nonsocial	n/a	16	-10	n/a	n/a	n/a
319.453250	2	cue_nonsocial_low	n/a	16	-11	n/a	n/a	n/a
327.142120	2	cue_social	n/a	32	5	n/a	n/a	n/a
327.142120	2	cue_social_high	n/a	32	6	n/a	n/a	n/a
333.935550	2	cue_nonsocial	n/a	32	6	n/a	n/a	n/a
333.935550	2	cue_nonsocial_high	n/a	32	5	n/a	n/a	n/a
341.585630	2	cue_nonsocial	n/a	16	-10	n/a	n/a	n/a
341.585630	2	cue_nonsocial_low	n/a	16	-11	n/a	n/a	n/a
352.500850	2	cue_social	n/a	32	5	n/a	n/a	n/a
352.500850	2	cue_social_high	n/a	32	6	n/a	n/a	n/a
359.359560	2	cue_social	n/a	16	-11	n/a	n/a	n/a
359.359560	2	cue_social_low	n/a	16	-10	n/a	n/a	n/a
368.535160	2	cue_nonsocial	n/a	32	6	n/a	n/a	n/a
368.535160	2	cue_nonsocial_high	n/a	32	5	n/a	n/a	n/a
6.525095	2.151197	dec_nonsocial_choice	2.151197	32.000000	n/a	2	-1.666667e-01	-1.666667e-01
6.525095	2.151197	dec_choice	2.151197	32.000000	n/a	2	-1.666667e-01	-1.666667e-01
6.525095	2.151197	dec_nonsocial_accept	2.151197	32.000000	n/a	2	-2.514205e-01	-2.514205e-01
6.525095	2.151197	dec_accept	2.151197	32.000000	n/a	2	-2.291667e-01	-2.291667e-01
6.525095	2.151197	dec_nonsocial_accept_low	2.151197	32.000000	n/a	2	-2.781250e-01	-2.781250e-01
14.158990	2.616680	dec_social_choice	2.616680	32.000000	n/a	0	0	-2.291667e-01
14.158990	2.616680	dec_choice	2.616680	32.000000	n/a	0	0	-2.291667e-01
14.158990	2.616680	dec_social_reject	2.616680	32.000000	n/a	0	0	-6.370192e-02
14.158990	2.616680	dec_reject	2.616680	32.000000	n/a	0	0	-5.580357e-02
14.158990	2.616680	dec_social_reject_low	2.616680	32.000000	n/a	3	-1.354167e-01	-2.291667e-01
23.409960	2.315296	dec_nonsocial_choice	2.315296	32.000000	n/a	0	0	-2.291667e-01
23.409960	2.315296	dec_choice	2.315296	32.000000	n/a	0	0	-2.291667e-01
23.409960	2.315296	dec_nonsocial_reject	2.315296	32.000000	n/a	0	0	-9.495192e-02
23.409960	2.315296	dec_reject	2.315296	32.000000	n/a	0	0	-1.041667e-01
23.409960	2.315296	dec_nonsocial_reject_low	2.315296	32.000000	n/a	2	-8.705357e-02	-1.495536e-01
30.242958	1.733174	dec_nonsocial_choice	1.733174	32.000000	n/a	16	2.708333e-01	2.708333e-01
30.242958	1.733174	dec_choice	1.733174	32.000000	n/a	16	2.708333e-01	2.708333e-01
30.242958	1.733174	dec_nonsocial_accept	1.733174	32.000000	n/a	16	1.860795e-01	1.860795e-01
30.242958	1.733174	dec_accept	1.733174	32.000000	n/a	16	2.083333e-01	2.083333e-01
30.242958	1.733174	dec_nonsocial_high	1.733174	32.000000	n/a	16	2.708333e-01	2.708333e-01
30.242958	1.733174	dec_nonsocial_accept_high	1.733174	32.000000	n/a	16	2.083333e-01	2.083333e-01
37.892914	1.899956	dec_nonsocial_choice	1.899956	32.000000	n/a	8	2.083333e-02	2.083333e-02
37.892914	1.899956	dec_choice	1.899956	32.000000	n/a	8	2.083333e-02	2.083333e-02
37.892914	1.899956	dec_nonsocial_accept	1.899956	32.000000	n/a	8	-6.392045e-02	-6.392045e-02
37.892914	1.899956	dec_accept	1.899956	32.000000	n/a	8	-4.166667e-02	-4.166667e-02
37.892914	1.899956	dec_nonsocial_high	1.899956	32.000000	n/a	8	2.083333e-02	2.083333e-02
37.892914	1.899956	dec_nonsocial_accept_high	1.899956	32.000000	n/a	8	-4.166667e-02	-4.166667e-02
45.542168	2.466846	dec_social_choice	2.466846	32.000000	n/a	0	0	-2.291667e-01
45.542168	2.466846	dec_choice	2.466846	32.000000	n/a	0	0	-2.291667e-01
45.542168	2.466846	dec_social_reject	2.466846	32.000000	n/a	0	0	-6.370192e-02
45.542168	2.466846	dec_reject	2.466846	32.000000	n/a	0	0	-5.580357e-02
45.542168	2.466846	dec_social_reject_low	2.466846	32.000000	n/a	3	-1.354167e-01	-2.291667e-01
52.374980	1.650861	dec_social_choice	1.650861	32.000000	n/a	2	-1.666667e-01	-1.666667e-01
52.374980	1.650861	dec_choice	1.650861	32.000000	n/a	2	-1.666667e-01	-1.666667e-01
52.374980	1.650861	dec_social_accept	1.650861	32.000000	n/a	2	-2.514205e-01	-2.514205e-01
52.374980	1.650861	dec_accept	1.650861	32.000000	n/a	2	-2.781250e-01	-2.781250e-01
52.374980	1.650861	dec_social_low	1.650861	32.000000	n/a	2	-1.666667e-01	-1.666667e-01
52.374980	1.650861	dec_social_accept_low	1.650861	32.000000	n/a	2	-1.666667e-01	-1.666667e-01
60.025960	1.616386	dec_social_choice	1.616386	32.000000	n/a	8	2.083333e-02	2.083333e-02
60.025960	1.616386	dec_choice	1.616386	32.000000	n/a	8	2.083333e-02	2.083333e-02
60.025960	1.616386	dec_social_accept	1.616386	32.000000	n/a	8	-6.392045e-02	-6.392045e-02
60.025960	1.616386	dec_accept	1.616386	32.000000	n/a	8	-9.062500e-02	-9.062500e-02
60.025960	1.616386	dec_social_accept_high	1.616386	32.000000	n/a	8	2.083333e-02	2.083333e-02
72.509930	2.299454	dec_nonsocial_choice	2.299454	32.000000	n/a	0	0	-2.291667e-01
72.509930	2.299454	dec_choice	2.299454	32.000000	n/a	0	0	-2.291667e-01
72.509930	2.299454	dec_nonsocial_reject	2.299454	32.000000	n/a	0	0	-6.370192e-02
72.509930	2.299454	dec_reject	2.299454	32.000000	n/a	0	0	-7.291667e-02
72.509930	2.299454	dec_nonsocial_low	2.299454	32.000000	n/a	0	-2.291667e-01	-2.291667e-01
72.509930	2.299454	dec_nonsocial_reject_low	2.299454	32.000000	n/a	3	-7.291667e-02	-1.666667e-01
83.376945	1.749142	dec_nonsocial_choice	1.749142	16.000000	n/a	0	0	-2.291667e-01
83.376945	1.749142	dec_choice	1.749142	16.000000	n/a	0	0	-2.291667e-01
83.376945	1.749142	dec_nonsocial_reject	1.749142	16.000000	n/a	0	0	-3.245192e-02
83.376945	1.749142	dec_reject	1.749142	16.000000	n/a	0	0	-4.166667e-02
83.376945	1.749142	dec_nonsocial_reject_low	1.749142	16.000000	n/a	2	-2.455357e-02	-1.495536e-01
90.208954	2.000264	dec_nonsocial_choice	2.000264	32.000000	n/a	8	2.083333e-02	2.083333e-02
90.208954	2.000264	dec_choice	2.000264	32.000000	n/a	8	2.083333e-02	2.083333e-02
90.208954	2.000264	dec_nonsocial_accept	2.000264	32.000000	n/a	8	-6.392045e-02	-6.392045e-02
90.208954	2.000264	dec_accept	2.000264	32.000000	n/a	8	-4.166667e-02	-4.166667e-02
90.208954	2.000264	dec_nonsocial_accept_high	2.000264	32.000000	n/a	8	-9.062500e-02	-9.062500e-02
97.042590	2.666105	dec_nonsocial_choice	2.666105	16.000000	n/a	4	2.083333e-02	2.083333e-02
97.042590	2.666105	dec_choice	2.666105	16.000000	n/a	4	2.083333e-02	2.083333e-02
97.042590	2.666105	dec_nonsocial_accept	2.666105	16.000000	n/a	4	-6.392045e-02	-6.392045e-02
97.042590	2.666105	dec_accept	2.666105	16.000000	n/a	4	-4.166667e-02	-4.166667e-02
97.042590	2.666105	dec_nonsocial_accept_high	2.666105	16.000000	n/a	4	-9.062500e-02	-9.062500e-02
103.875930	2.900241	dec_nonsocial_choice	2.900241	16.000000	n/a	0	0	-2.291667e-01
103.875930	2.900241	dec_choice	2.900241	16.000000	n/a	0	0	-2.291667e-01
103.875930	2.900241	dec_nonsocial_reject	2.900241	16.000000	n/a	0	0	3.425481e-01
103.875930	2.900241	dec_reject	2.900241	16.000000	n/a	0	0	3.333333e-01
103.875930	2.900241	dec_nonsocial_reject_low	2.900241	16.000000	n/a	8	3.504464e-01	-1.495536e-01
110.708910	2.249959	dec_social_choice	2.249959	32.000000	n/a	8	2.083333e-02	2.083333e-02
110.708910	2.249959	dec_choice	2.249959	32.000000	n/a	8	2.083333e-02	2.083333e-02
110.708910	2.249959	dec_social_accept	2.249959	32.000000	n/a	8	-6.392045e-02	-6.392045e-02
110.708910	2.249959	dec_accept	2.249959	32.000000	n/a	8	-9.062500e-02	-9.062500e-02
110.708910	2.249959	dec_social_high	2.249959	32.000000	n/a	8	2.083333e-02	2.083333e-02
110.708910	2.249959	dec_social_accept_high	2.249959	32.000000	n/a	8	2.083333e-02	2.083333e-02
117.542786	2.866322	dec_social_choice	2.866322	32.000000	n/a	0	0	-2.291667e-01
117.542786	2.866322	dec_choice	2.866322	32.000000	n/a	0	0	-2.291667e-01
117.542786	2.866322	dec_social_reject	2.866322	32.000000	n/a	0	0	-9.495192e-02
117.542786	2.866322	dec_reject	2.866322	32.000000	n/a	0	0	-8.705357e-02
117.542786	2.866322	dec_social_low	2.866322	32.000000	n/a	0	-2.291667e-01	-2.291667e-01
117.542786	2.866322	dec_social_reject_low	2.866322	32.000000	n/a	2	-1.666667e-01	-2.291667e-01
126.792915	2.349244	dec_social_choice	2.349244	16.000000	n/a	4	2.083333e-02	2.083333e-02
126.792915	2.349244	dec_choice	2.349244	16.000000	n/a	4	2.083333e-02	2.083333e-02
126.792915	2.349244	dec_social_accept	2.349244	16.000000	n/a	4	-6.392045e-02	-6.392045e-02
126.792915	2.349244	dec_accept	2.349244	16.000000	n/a	4	-9.062500e-02	-9.062500e-02
126.792915	2.349244	dec_social_high	2.349244	16.000000	n/a	4	2.083333e-02	2.083333e-02
126.792915	2.349244	dec_social_accept_high	2.349244	16.000000	n/a	4	2.083333e-02	2.083333e-02
133.624740	1.717815	dec_social_choice	1.717815	16.000000	n/a	0	0	-2.291667e-01
133.624740	1.717815	dec_choice	1.717815	16.000000	n/a	0	0	-2.291667e-01
133.624740	1.717815	dec_social_reject	1.717815	16.000000	n/a	0	0	-3.245192e-02
133.624740	1.717815	dec_reject	1.717815	16.000000	n/a	0	0	-2.455357e-02
133.624740	1.717815	dec_social_reject_low	1.717815	16.000000	n/a	2	-1.041667e-01	-2.291667e-01
142.875920	1.883060	dec_nonsocial_choice	1.883060	16.000000	n/a	0	0	-2.291667e-01
142.875920	1.883060	dec_choice	1.883060	16.000000	n/a	0	0	-2.291667e-01
142.875920	1.883060	dec_nonsocial_reject	1.883060	16.000000	n/a	0	0	9.254808e-02
142.875920	1.883060	dec_reject	1.883060	16.000000	n/a	0	0	8.333333e-02
142.875920	1.883060	dec_nonsocial_low	1.883060	16.000000	n/a	0	-2.291667e-01	-2.291667e-01
142.875920	1.883060	dec_nonsocial_reject_low	1.883060	16.000000	n/a	4	8.333333e-02	-1.666667e-01
149.707950	1.701160	dec_nonsocial_choice	1.701160	16.000000	n/a	0	0	-2.291667e-01
149.707950	1.701160	dec_choice	1.701160	16.000000	n/a	0	0	-2.291667e-01
149.707950	1.701160	dec_nonsocial_reject	1.701160	16.000000	n/a	0	0	-9.495192e-02
149.707950	1.701160	dec_reject	1.701160	16.000000	n/a	0	0	-1.041667e-01
149.707950	1.701160	dec_nonsocial_low	1.701160	16.000000	n/a	0	-2.291667e-01	-2.291667e-01
149.707950	1.701160	dec_nonsocial_reject_low	1.701160	16.000000	n/a	1	-1.041667e-01	-1.666667e-01
156.543330	1.915085	dec_social_choice	1.915085	32.000000	n/a	16	2.708333e-01	2.708333e-01
156.543330	1.915085	dec_choice	1.915085	32.000000	n/a	16	2.708333e-01	2.708333e-01
156.543330	1.915085	dec_social_accept	1.915085	32.000000	n/a	16	1.860795e-01	1.860795e-01
156.543330	1.915085	dec_accept	1.915085	32.000000	n/a	16	1.593750e-01	1.593750e-01
156.543330	1.915085	dec_social_accept_high	1.915085	32.000000	n/a	16	2.708333e-01	2.708333e-01
163.375930	2.183066	dec_social_choice	2.183066	16.000000	n/a	8	2.708333e-01	2.708333e-01
163.375930	2.183066	dec_choice	2.183066	16.000000	n/a	8	2.708333e-01	2.708333e-01
163.375930	2.183066	dec_social_accept	2.183066	16.000000	n/a	8	1.860795e-01	1.860795e-01
163.375930	2.183066	dec_accept	2.183066	16.000000	n/a	8	1.593750e-01	1.593750e-01
163.375930	2.183066	dec_social_high	2.183066	16.000000	n/a	8	2.708333e-01	2.708333e-01
163.375930	2.183066	dec_social_accept_high	2.183066	16.000000	n/a	8	2.708333e-01	2.708333e-01
171.025600	1.816542	dec_nonsocial_choice	1.816542	32.000000	n/a	2	-1.666667e-01	-1.666667e-01
171.025600	1.816542	dec_choice	1.816542	32.000000	n/a	2	-1.666667e-01	-1.666667e-01
171.025600	1.816542	dec_nonsocial_accept	1.816542	32.000000	n/a	2	-2.514205e-01	-2.514205e-01
171.025600	1.816542	dec_accept	1.816542	32.000000	n/a	2	-2.291667e-01	-2.291667e-01
171.025600	1.816542	dec_nonsocial_low	1.816542	32.000000	n/a	2	-1.666667e-01	-1.666667e-01
171.025600	1.816542	dec_nonsocial_accept_low	1.816542	32.000000	n/a	2	-2.291667e-01	-2.291667e-01
177.859600	1.699402	dec_nonsocial_choice	1.699402	16.000000	n/a	2	-1.041667e-01	-1.041667e-01
177.859600	1.699402	dec_choice	1.699402	16.000000	n/a	2	-1.041667e-01	-1.041667e-01
177.859600	1.699402	dec_nonsocial_accept	1.699402	16.000000	n/a	2	-1.889205e-01	-1.889205e-01
177.859600	1.699402	dec_accept	1.699402	16.000000	n/a	2	-1.666667e-01	-1.666667e-01
177.859600	1.699402	dec_nonsocial_low	1.699402	16.000000	n/a	2	-1.041667e-01	-1.041667e-01
177.859600	1.699402	dec_nonsocial_accept_low	1.699402	16.000000	n/a	2	-1.666667e-01	-1.666667e-01
188.725230	2.234025	dec_nonsocial_choice	2.234025	32.000000	n/a	0	0	-2.291667e-01
188.725230	2.234025	dec_choice	2.234025	32.000000	n/a	0	0	-2.291667e-01
188.725230	2.234025	dec_nonsocial_reject	2.234025	32.000000	n/a	0	0	-6.370192e-02
188.725230	2.234025	dec_reject	2.234025	32.000000	n/a	0	0	-7.291667e-02
188.725230	2.234025	dec_nonsocial_reject_low	2.234025	32.000000	n/a	3	-5.580357e-02	-1.495536e-01
195.558840	1.666295	dec_social_choice	1.666295	16.000000	n/a	0	0	-2.291667e-01
195.558840	1.666295	dec_choice	1.666295	16.000000	n/a	0	0	-2.291667e-01
195.558840	1.666295	dec_social_reject	1.666295	16.000000	n/a	0	0	-3.245192e-02
195.558840	1.666295	dec_reject	1.666295	16.000000	n/a	0	0	-2.455357e-02
195.558840	1.666295	dec_social_low	1.666295	16.000000	n/a	0	-2.291667e-01	-2.291667e-01
195.558840	1.666295	dec_social_reject_low	1.666295	16.000000	n/a	2	-1.041667e-01	-2.291667e-01
203.208880	2.299913	dec_social_choice	2.299913	32.000000	n/a	0	0	-2.291667e-01
203.208880	2.299913	dec_choice	2.299913	32.000000	n/a	0	0	-2.291667e-01
203.208880	2.299913	dec_social_reject	2.299913	32.000000	n/a	0	0	9.254808e-02
203.208880	2.299913	dec_reject	2.299913	32.000000	n/a	0	0	1.004464e-01
203.208880	2.299913	dec_social_reject_low	2.299913	32.000000	n/a	8	2.083333e-02	-2.291667e-01
210.041900	2.316741	dec_social_choice	2.316741	32.000000	n/a	0	0	-2.291667e-01
210.041900	2.316741	dec_choice	2.316741	32.000000	n/a	0	0	-2.291667e-01
210.041900	2.316741	dec_social_reject	2.316741	32.000000	n/a	0	0	9.254808e-02
210.041900	2.316741	dec_reject	2.316741	32.000000	n/a	0	0	1.004464e-01
210.041900	2.316741	dec_social_low	2.316741	32.000000	n/a	0	-2.291667e-01	-2.291667e-01
210.041900	2.316741	dec_social_reject_low	2.316741	32.000000	n/a	8	2.083333e-02	-2.291667e-01
217.692660	2.266037	dec_nonsocial_choice	2.266037	32.000000	n/a	16	2.708333e-01	2.708333e-01
217.692660	2.266037	dec_choice	2.266037	32.000000	n/a	16	2.708333e-01	2.708333e-01
217.692660	2.266037	dec_nonsocial_accept	2.266037	32.000000	n/a	16	1.860795e-01	1.860795e-01
217.692660	2.266037	dec_accept	2.266037	32.000000	n/a	16	2.083333e-01	2.083333e-01
217.692660	2.266037	dec_nonsocial_high	2.266037	32.000000	n/a	16	2.708333e-01	2.708333e-01
217.692660	2.266037	dec_nonsocial_accept_high	2.266037	32.000000	n/a	16	2.083333e-01	2.083333e-01
226.958860	2.049954	dec_nonsocial_choice	2.049954	32.000000	n/a	8	2.083333e-02	2.083333e-02
226.958860	2.049954	dec_choice	2.049954	32.000000	n/a	8	2.083333e-02	2.083333e-02
226.958860	2.049954	dec_nonsocial_accept	2.049954	32.000000	n/a	8	-6.392045e-02	-6.392045e-02
226.958860	2.049954	dec_accept	2.049954	32.000000	n/a	8	-4.166667e-02	-4.166667e-02
226.958860	2.049954	dec_nonsocial_accept_high	2.049954	32.000000	n/a	8	-9.062500e-02	-9.062500e-02
233.792240	1.883513	dec_social_choice	1.883513	32.000000	n/a	16	2.708333e-01	2.708333e-01
233.792240	1.883513	dec_choice	1.883513	32.000000	n/a	16	2.708333e-01	2.708333e-01
233.792240	1.883513	dec_social_accept	1.883513	32.000000	n/a	16	1.860795e-01	1.860795e-01
233.792240	1.883513	dec_accept	1.883513	32.000000	n/a	16	1.593750e-01	1.593750e-01
233.792240	1.883513	dec_social_accept_high	1.883513	32.000000	n/a	16	2.708333e-01	2.708333e-01
240.624760	2.034030	dec_nonsocial_choice	2.034030	32.000000	n/a	0	0	-2.291667e-01
240.624760	2.034030	dec_choice	2.034030	32.000000	n/a	0	0	-2.291667e-01
240.624760	2.034030	dec_nonsocial_reject	2.034030	32.000000	n/a	0	0	-6.370192e-02
240.624760	2.034030	dec_reject	2.034030	32.000000	n/a	0	0	-7.291667e-02
240.624760	2.034030	dec_nonsocial_low	2.034030	32.000000	n/a	0	-2.291667e-01	-2.291667e-01
240.624760	2.034030	dec_nonsocial_reject_low	2.034030	32.000000	n/a	3	-7.291667e-02	-1.666667e-01
247.458300	1.750669	dec_social_choice	1.750669	16.000000	n/a	0	0	-2.291667e-01
247.458300	1.750669	dec_choice	1.750669	16.000000	n/a	0	0	-2.291667e-01
247.458300	1.750669	dec_social_reject	1.750669	16.000000	n/a	0	0	9.254808e-02
247.458300	1.750669	dec_reject	1.750669	16.000000	n/a	0	0	1.004464e-01
247.458300	1.750669	dec_social_low	1.750669	16.000000	n/a	0	-2.291667e-01	-2.291667e-01
247.458300	1.750669	dec_social_reject_low	1.750669	16.000000	n/a	4	2.083333e-02	-2.291667e-01
255.108720	1.299851	dec_nonsocial_choice	1.299851	16.000000	n/a	8	2.708333e-01	2.708333e-01
255.108720	1.299851	dec_choice	1.299851	16.000000	n/a	8	2.708333e-01	2.708333e-01
255.108720	1.299851	dec_nonsocial_accept	1.299851	16.000000	n/a	8	1.860795e-01	1.860795e-01
255.108720	1.299851	dec_accept	1.299851	16.000000	n/a	8	2.083333e-01	2.083333e-01
255.108720	1.299851	dec_nonsocial_high	1.299851	16.000000	n/a	8	2.708333e-01	2.708333e-01
255.108720	1.299851	dec_nonsocial_accept_high	1.299851	16.000000	n/a	8	2.083333e-01	2.083333e-01
262.759800	1.382291	dec_social_choice	1.382291	32.000000	n/a	16	2.708333e-01	2.708333e-01
262.759800	1.382291	dec_choice	1.382291	32.000000	n/a	16	2.708333e-01	2.708333e-01
262.759800	1.382291	dec_social_accept	1.382291	32.000000	n/a	16	1.860795e-01	1.860795e-01
262.759800	1.382291	dec_accept	1.382291	32.000000	n/a	16	1.593750e-01	1.593750e-01
262.759800	1.382291	dec_social_accept_high	1.382291	32.000000	n/a	16	2.708333e-01	2.708333e-01
269.591900	2.300538	dec_social_choice	2.300538	16.000000	n/a	8	2.708333e-01	2.708333e-01
269.591900	2.300538	dec_choice	2.300538	16.000000	n/a	8	2.708333e-01	2.708333e-01
269.591900	2.300538	dec_social_accept	2.300538	16.000000	n/a	8	1.860795e-01	1.860795e-01
269.591900	2.300538	dec_accept	2.300538	16.000000	n/a	8	1.593750e-01	1.593750e-01
269.591900	2.300538	dec_social_high	2.300538	16.000000	n/a	8	2.708333e-01	2.708333e-01
269.591900	2.300538	dec_social_accept_high	2.300538	16.000000	n/a	8	2.708333e-01	2.708333e-01
278.843000	1.732609	dec_nonsocial_choice	1.732609	32.000000	n/a	0	0	-2.291667e-01
278.843000	1.732609	dec_choice	1.732609	32.000000	n/a	0	0	-2.291667e-01
278.843000	1.732609	dec_nonsocial_reject	1.732609	32.000000	n/a	0	0	3.425481e-01
278.843000	1.732609	dec_reject	1.732609	32.000000	n/a	0	0	3.333333e-01
278.843000	1.732609	dec_nonsocial_reject_low	1.732609	32.000000	n/a	16	3.504464e-01	-1.495536e-01
285.675840	1.999702	dec_social_choice	1.999702	32.000000	n/a	0	0	-2.291667e-01
285.675840	1.999702	dec_choice	1.999702	32.000000	n/a	0	0	-2.291667e-01
285.675840	1.999702	dec_social_reject	1.999702	32.000000	n/a	0	0	-9.495192e-02
285.675840	1.999702	dec_reject	1.999702	32.000000	n/a	0	0	-8.705357e-02
285.675840	1.999702	dec_social_low	1.999702	32.000000	n/a	0	-2.291667e-01	-2.291667e-01
285.675840	1.999702	dec_social_reject_low	1.999702	32.000000	n/a	2	-1.666667e-01	-2.291667e-01
292.507840	1.750518	dec_social_choice	1.750518	32.000000	n/a	0	0	-2.291667e-01
292.507840	1.750518	dec_choice	1.750518	32.000000	n/a	0	0	-2.291667e-01
292.507840	1.750518	dec_social_reject	1.750518	32.000000	n/a	0	0	-9.495192e-02
292.507840	1.750518	dec_reject	1.750518	32.000000	n/a	0	0	-8.705357e-02
292.507840	1.750518	dec_social_low	1.750518	32.000000	n/a	0	-2.291667e-01	-2.291667e-01
292.507840	1.750518	dec_social_reject_low	1.750518	32.000000	n/a	2	-1.666667e-01	-2.291667e-01
300.142850	1.998900	dec_nonsocial_choice	1.998900	32.000000	n/a	0	0	-2.291667e-01
300.142850	1.998900	dec_choice	1.998900	32.000000	n/a	0	0	-2.291667e-01
300.142850	1.998900	dec_nonsocial_reject	1.998900	32.000000	n/a	0	0	-9.495192e-02
300.142850	1.998900	dec_reject	1.998900	32.000000	n/a	0	0	-1.041667e-01
300.142850	1.998900	dec_nonsocial_low	1.998900	32.000000	n/a	0	-2.291667e-01	-2.291667e-01
300.142850	1.998900	dec_nonsocial_reject_low	1.998900	32.000000	n/a	2	-1.041667e-01	-1.666667e-01
306.974520	1.350908	dec_social_choice	1.350908	16.000000	n/a	0	0	-2.291667e-01
306.974520	1.350908	dec_choice	1.350908	16.000000	n/a	0	0	-2.291667e-01
306.974520	1.350908	dec_social_reject	1.350908	16.000000	n/a	0	0	-9.495192e-02
306.974520	1.350908	dec_reject	1.350908	16.000000	n/a	0	0	-8.705357e-02
306.974520	1.350908	dec_social_low	1.350908	16.000000	n/a	0	-2.291667e-01	-2.291667e-01
306.974520	1.350908	dec_social_reject_low	1.350908	16.000000	n/a	1	-1.666667e-01	-2.291667e-01
313.808840	1.166301	dec_social_choice	1.166301	32.000000	n/a	0	0	-2.291667e-01
313.808840	1.166301	dec_choice	1.166301	32.000000	n/a	0	0	-2.291667e-01
313.808840	1.166301	dec_social_reject	1.166301	32.000000	n/a	0	0	-6.370192e-02
313.808840	1.166301	dec_reject	1.166301	32.000000	n/a	0	0	-5.580357e-02
313.808840	1.166301	dec_social_low	1.166301	32.000000	n/a	0	-2.291667e-01	-2.291667e-01
313.808840	1.166301	dec_social_reject_low	1.166301	32.000000	n/a	3	-1.354167e-01	-2.291667e-01
321.458950	1.233003	dec_nonsocial_choice	1.233003	16.000000	n/a	0	0	-2.291667e-01
321.458950	1.233003	dec_choice	1.233003	16.000000	n/a	0	0	-2.291667e-01
321.458950	1.233003	dec_nonsocial_reject	1.233003	16.000000	n/a	0	0	-9.495192e-02
321.458950	1.233003	dec_reject	1.233003	16.000000	n/a	0	0	-1.041667e-01
321.458950	1.233003	dec_nonsocial_low	1.233003	16.000000	n/a	0	-2.291667e-01	-2.291667e-01
321.458950	1.233003	dec_nonsocial_reject_low	1.233003	16.000000	n/a	1	-1.041667e-01	-1.666667e-01
329.109860	1.565265	dec_social_choice	1.565265	32.000000	n/a	3	-1.354167e-01	-1.354167e-01
329.109860	1.565265	dec_choice	1.565265	32.000000	n/a	3	-1.354167e-01	-1.354167e-01
329.109860	1.565265	dec_social_accept	1.565265	32.000000	n/a	3	-2.201705e-01	-2.201705e-01
329.109860	1.565265	dec_accept	1.565265	32.000000	n/a	3	-2.468750e-01	-2.468750e-01
329.109860	1.565265	dec_social_low	1.565265	32.000000	n/a	3	-1.354167e-01	-1.354167e-01
329.109860	1.565265	dec_social_accept_low	1.565265	32.000000	n/a	3	-1.354167e-01	-1.354167e-01
335.941400	1.633924	dec_nonsocial_choice	1.633924	32.000000	n/a	0	0	-2.291667e-01
335.941400	1.633924	dec_choice	1.633924	32.000000	n/a	0	0	-2.291667e-01
335.941400	1.633924	dec_nonsocial_reject	1.633924	32.000000	n/a	0	0	-6.370192e-02
335.941400	1.633924	dec_reject	1.633924	32.000000	n/a	0	0	-7.291667e-02
335.941400	1.633924	dec_nonsocial_reject_low	1.633924	32.000000	n/a	3	-5.580357e-02	-1.495536e-01
343.592830	2.148805	dec_nonsocial_choice	2.148805	16.000000	n/a	4	2.083333e-02	2.083333e-02
343.592830	2.148805	dec_choice	2.148805	16.000000	n/a	4	2.083333e-02	2.083333e-02
343.592830	2.148805	dec_nonsocial_accept	2.148805	16.000000	n/a	4	-6.392045e-02	-6.392045e-02
343.592830	2.148805	dec_accept	2.148805	16.000000	n/a	4	-4.166667e-02	-4.166667e-02
343.592830	2.148805	dec_nonsocial_accept_high	2.148805	16.000000	n/a	4	-9.062500e-02	-9.062500e-02
354.458860	2.115963	dec_social_choice	2.115963	32.000000	n/a	0	0	-2.291667e-01
354.458860	2.115963	dec_choice	2.115963	32.000000	n/a	0	0	-2.291667e-01
354.458860	2.115963	dec_social_reject	2.115963	32.000000	n/a	0	0	-9.495192e-02
354.458860	2.115963	dec_reject	2.115963	32.000000	n/a	0	0	-8.705357e-02
354.458860	2.115963	dec_social_low	2.115963	32.000000	n/a	0	-2.291667e-01	-2.291667e-01
354.458860	2.115963	dec_social_reject_low	2.115963	32.000000	n/a	2	-1.666667e-01	-2.291667e-01
361.290860	2.501095	dec_social_choice	2.501095	16.000000	n/a	0	0	-2.291667e-01
361.290860	2.501095	dec_choice	2.501095	16.000000	n/a	0	0	-2.291667e-01
361.290860	2.501095	dec_social_reject	2.501095	16.000000	n/a	0	0	3.425481e-01
361.290860	2.501095	dec_reject	2.501095	16.000000	n/a	0	0	3.504464e-01
361.290860	2.501095	dec_social_reject_low	2.501095	16.000000	n/a	8	2.708333e-01	-2.291667e-01
370.540740	1.334645	dec_nonsocial_choice	1.334645	32.000000	n/a	16	2.708333e-01	2.708333e-01
370.540740	1.334645	dec_choice	1.334645	32.000000	n/a	16	2.708333e-01	2.708333e-01
370.540740	1.334645	dec_nonsocial_accept	1.334645	32.000000	n/a	16	1.860795e-01	1.860795e-01
370.540740	1.334645	dec_accept	1.334645	32.000000	n/a	16	2.083333e-01	2.083333e-01
370.540740	1.334645	dec_nonsocial_accept_high	1.334645	32.000000	n/a	16	1.593750e-01	1.593750e-01
