onset	duration	trial_type	rt	resp	gender	image_left	image_right
0.6355822999903467	3.0009863000013866	decision	1.7822698000236414	right	M	MF001.jpg	MF002.jpg
4.18545359998825	1.016559200012125	win	n/a	n/a	n/a	MF001.jpg	MF002.jpg
11.16873969999142	3.001847000006819	decision	2.283126299997093	right	M	MF003.jpg	MF004.jpg
14.718928399990546	1.0164889000006951	loss	n/a	n/a	n/a	MF003.jpg	MF004.jpg
17.48558929999126	3.0012867000186816	decision	2.283267999999225	right	M	MF005.jpg	MF006.jpg
21.035730400006287	1.0163461999909487	win	n/a	n/a	n/a	MF005.jpg	MF006.jpg
23.802082900016103	3.0016396999999415	decision	1.7829692999948747	right	F	FF001.jpg	FF002.jpg
27.351969600014854	1.0001111999736167	win	n/a	n/a	n/a	FF001.jpg	FF002.jpg
32.20215749999625	3.0007482999935746	decision	1.5332694000098854	right	F	FF003.jpg	FF004.jpg
35.75213529999019	1.0000052000104915	loss	n/a	n/a	n/a	FF003.jpg	FF004.jpg
42.70226379999076	3.0016431999974884	decision	1.7823355000000447	left	M	MF007.jpg	MF008.jpg
46.25202650000574	1.0165612999990117	loss	n/a	n/a	n/a	MF007.jpg	MF008.jpg
51.11873370001558	3.0011514999787323	decision	2.282408499973826	left	M	MF009.jpg	MF010.jpg
54.6686064999958	1.0167265000054613	win	n/a	n/a	n/a	MF009.jpg	MF010.jpg
59.53554290000466	3.0013620000099763	decision	1.782315299991751	left	F	FF005.jpg	FF006.jpg
63.085307000001194	1.0000155000016093	loss	n/a	n/a	n/a	FF005.jpg	FF006.jpg
65.83538259999477	3.0010073000157718	decision	1.782408300001407	right	F	FF007.jpg	FF008.jpg
69.3853025000135	1.0000271999742836	win	n/a	n/a	n/a	FF007.jpg	FF008.jpg
72.1353242000041	3.0013899999903515	decision	2.28246560000116	right	F	FF009.jpg	FF010.jpg
75.68535250000423	1.016578299982939	win	n/a	n/a	n/a	FF009.jpg	FF010.jpg
78.4519685000123	3.0022096000029705	decision	2.2838969999866094	right	F	FF011.jpg	FF012.jpg
82.00198349999846	1.0166040000040084	loss	n/a	n/a	n/a	FF011.jpg	FF012.jpg
86.86856309999712	3.000947199994698	decision	2.534269399999175	left	M	MF011.jpg	MF012.jpg
90.41890049999347	1.0163323000015225	loss	n/a	n/a	n/a	MF011.jpg	MF012.jpg
93.18529819999821	3.0015300000086427	decision	2.533110799995484	right	M	MF013.jpg	MF014.jpg
96.73526169999968	1.0165870999917388	win	n/a	n/a	n/a	MF013.jpg	MF014.jpg
103.70193060001475	3.0009577999881003	decision	2.0323402999783866	left	M	MF015.jpg	MF016.jpg
107.25196860000142	1.0165822000126354	win	n/a	n/a	n/a	MF015.jpg	MF016.jpg
110.0186265000084	3.000918499979889	decision	2.0332231000065804	left	F	FF013.jpg	FF014.jpg
113.56864250000217	1.016570400010096	win	n/a	n/a	n/a	FF013.jpg	FF014.jpg
120.53538300000946	3.0010756999836303	decision	2.032356499985326	left	M	MF017.jpg	MF018.jpg
124.08518679998815	1.0000065000203904	win	n/a	n/a	n/a	MF017.jpg	MF018.jpg
128.93534419999924	3.0014970999909565	decision	2.534496400010539	left	F	FF015.jpg	FF016.jpg
132.48517020000145	1.000007499998901	win	n/a	n/a	n/a	FF015.jpg	FF016.jpg
137.33524159999797	3.001490399998147	decision	2.784866600006353	left	M	MF019.jpg	MF020.jpg
140.88536390001536	1.0164272999973036	win	n/a	n/a	n/a	MF019.jpg	MF020.jpg
145.75179290000233	3.299691599997459	decision	3.2991577000066172	left	F	FF017.jpg	FF018.jpg
149.60172510001576	1.0166637999936938	win	n/a	n/a	n/a	FF017.jpg	FF018.jpg
162.86906719999388	3.001749400020344	decision	2.783720600011293	left	M	MF021.jpg	MF022.jpg
166.41844310000306	1.0166628999868408	loss	n/a	n/a	n/a	MF021.jpg	MF022.jpg
173.3850531000062	3.0019685000006575	decision	2.033737399993697	left	M	MF023.jpg	MF024.jpg
176.9350271000003	1.0003726000140887	win	n/a	n/a	n/a	MF023.jpg	MF024.jpg
183.88513810001314	3.0014304999785963	decision	2.033707399998093	left	M	MF025.jpg	MF026.jpg
187.4350597000157	1.0165692999726161	loss	n/a	n/a	n/a	MF025.jpg	MF026.jpg
192.3017123999889	3.001127000025008	decision	2.283630100020673	left	M	MF027.jpg	MF028.jpg
195.8516238000011	1.0166547000117134	loss	n/a	n/a	n/a	MF027.jpg	MF028.jpg
198.61846580001293	3.0014295000000857	decision	1.7843296999926679	left	F	FF019.jpg	FF020.jpg
202.16818110001623	1.0003210999711882	loss	n/a	n/a	n/a	FF019.jpg	FF020.jpg
204.91875129999244	3.0020910000021104	decision	2.7997643999988213	right	F	FF021.jpg	FF022.jpg
208.46834990000934	1.0000041000021156	win	n/a	n/a	n/a	FF021.jpg	FF022.jpg
215.4184036999941	3.001466400019126	decision	2.53414950001752	right	M	MF029.jpg	MF030.jpg
218.96824610000476	1.0000663000100758	loss	n/a	n/a	n/a	MF029.jpg	MF030.jpg
225.91871639998863	3.0009092000254896	decision	1.7822921000188217	left	M	MF031.jpg	MF032.jpg
229.46829389999039	1.0166690000041854	win	n/a	n/a	n/a	MF031.jpg	MF032.jpg
234.3349373000092	3.001651300000958	decision	2.533863399992697	right	F	FF023.jpg	FF024.jpg
237.88486310001463	1.0002391999878455	loss	n/a	n/a	n/a	FF023.jpg	FF024.jpg
240.6355268000043	3.299750899983337	decision	3.299238500010688	right	F	FF025.jpg	FF026.jpg
244.484930000006	1.0000618000049144	win	n/a	n/a	n/a	FF025.jpg	FF026.jpg
249.3349021000031	3.05039950000355	decision	3.0498741999908816	left	F	FF027.jpg	FF028.jpg
252.93494279999868	1.016586699988693	loss	n/a	n/a	n/a	FF027.jpg	FF028.jpg
255.70160999998916	3.000694900023518	decision	2.033251900022151	right	M	MF033.jpg	MF034.jpg
259.2515381000121	1.0166067999962252	loss	n/a	n/a	n/a	MF033.jpg	MF034.jpg
262.01810479999403	3.001734599994961	decision	2.5337505000061356	left	M	MF035.jpg	MF036.jpg
265.56851780001307	1.016266299993731	loss	n/a	n/a	n/a	MF035.jpg	MF036.jpg
268.334840800002	3.000573600002099	decision	2.533068099990487	left	M	MF037.jpg	MF038.jpg
271.884776699997	1.000232499995036	win	n/a	n/a	n/a	MF037.jpg	MF038.jpg
278.8352530999982	3.001445200003218	decision	2.7999391999910586	left	F	FF029.jpg	FF030.jpg
282.3848258999933	1.0003030000079889	loss	n/a	n/a	n/a	FF029.jpg	FF030.jpg
285.1348133000138	3.0010093999735545	decision	2.78333449998172	right	F	FF031.jpg	FF032.jpg
288.6847337000072	1.016764800006058	loss	n/a	n/a	n/a	FF031.jpg	FF032.jpg
293.55152440001257	3.0013161999813747	decision	2.033241299999645	left	F	FF033.jpg	FF034.jpg
297.101384700014	1.0167352999851573	win	n/a	n/a	n/a	FF033.jpg	FF034.jpg
304.0684992999886	3.0013643000274897	decision	2.03235280001536	left	M	MF039.jpg	MF040.jpg
307.6181261999882	1.0165967000066303	loss	n/a	n/a	n/a	MF039.jpg	MF040.jpg
314.5847808000108	3.0011373999877833	decision	1.782620499987388	right	F	FF035.jpg	FF036.jpg
318.13464860001113	1.016867700003786	win	n/a	n/a	n/a	FF035.jpg	FF036.jpg
320.90188439999474	3.0384744000039063	decision-missed	n/a	n/a	F	FF037.jpg	FF038.jpg
324.484658500005	1.0167286999931093	loss	n/a	n/a	n/a	FF037.jpg	FF038.jpg
327.2514752999996	3.0013574000040535	decision	1.2832949000003282	right	F	FF039.jpg	FF040.jpg
330.8017162999895	1.0163231000187807	loss	n/a	n/a	n/a	FF039.jpg	FF040.jpg
