onset	duration	trial_type	response_time	Endowment	Endowment_pmod	Decision	Decision_pmod	Offer_pmod
4.588097	2	cue_social	n/a	32	7	n/a	n/a	n/a
4.588097	2	cue_social_high	n/a	32	8	n/a	n/a	n/a
11.339359	2	cue_nonsocial	n/a	32	8	n/a	n/a	n/a
11.339359	2	cue_nonsocial_high	n/a	32	7	n/a	n/a	n/a
20.589882	2	cue_nonsocial	n/a	16	-8	n/a	n/a	n/a
20.589882	2	cue_nonsocial_low	n/a	16	-9	n/a	n/a	n/a
31.576490	2	cue_social	n/a	32	7	n/a	n/a	n/a
31.576490	2	cue_social_high	n/a	32	8	n/a	n/a	n/a
39.188835	2	cue_social	n/a	32	7	n/a	n/a	n/a
39.188835	2	cue_social_high	n/a	32	8	n/a	n/a	n/a
46.039722	2	cue_social	n/a	32	7	n/a	n/a	n/a
46.039722	2	cue_social_high	n/a	32	8	n/a	n/a	n/a
58.422638	2	cue_nonsocial	n/a	32	8	n/a	n/a	n/a
58.422638	2	cue_nonsocial_high	n/a	32	7	n/a	n/a	n/a
66.072860	2	cue_nonsocial	n/a	16	-8	n/a	n/a	n/a
66.072860	2	cue_nonsocial_low	n/a	16	-9	n/a	n/a	n/a
73.722435	2	cue_nonsocial	n/a	32	8	n/a	n/a	n/a
73.722435	2	cue_nonsocial_high	n/a	32	7	n/a	n/a	n/a
80.555930	2	cue_nonsocial	n/a	32	8	n/a	n/a	n/a
80.555930	2	cue_nonsocial_high	n/a	32	7	n/a	n/a	n/a
87.477880	2	cue_social	n/a	16	-9	n/a	n/a	n/a
87.477880	2	cue_social_low	n/a	16	-8	n/a	n/a	n/a
96.655720	2	cue_nonsocial	n/a	32	8	n/a	n/a	n/a
96.655720	2	cue_nonsocial_high	n/a	32	7	n/a	n/a	n/a
103.566490	2	cue_social	n/a	32	7	n/a	n/a	n/a
103.566490	2	cue_social_high	n/a	32	8	n/a	n/a	n/a
112.833916	2	cue_social	n/a	16	-9	n/a	n/a	n/a
112.833916	2	cue_social_low	n/a	16	-8	n/a	n/a	n/a
119.572660	2	cue_nonsocial	n/a	16	-8	n/a	n/a	n/a
119.572660	2	cue_nonsocial_low	n/a	16	-9	n/a	n/a	n/a
126.483460	2	cue_social	n/a	16	-9	n/a	n/a	n/a
126.483460	2	cue_social_low	n/a	16	-8	n/a	n/a	n/a
133.329530	2	cue_social	n/a	32	7	n/a	n/a	n/a
133.329530	2	cue_social_high	n/a	32	8	n/a	n/a	n/a
140.072560	2	cue_nonsocial	n/a	16	-8	n/a	n/a	n/a
140.072560	2	cue_nonsocial_low	n/a	16	-9	n/a	n/a	n/a
151.028260	2	cue_social	n/a	16	-9	n/a	n/a	n/a
151.028260	2	cue_social_low	n/a	16	-8	n/a	n/a	n/a
158.674620	2	cue_social	n/a	16	-9	n/a	n/a	n/a
158.674620	2	cue_social_low	n/a	16	-8	n/a	n/a	n/a
165.422790	2	cue_nonsocial	n/a	16	-8	n/a	n/a	n/a
165.422790	2	cue_nonsocial_low	n/a	16	-9	n/a	n/a	n/a
172.343030	2	cue_social	n/a	16	-9	n/a	n/a	n/a
172.343030	2	cue_social_low	n/a	16	-8	n/a	n/a	n/a
179.089100	2	cue_nonsocial	n/a	16	-8	n/a	n/a	n/a
179.089100	2	cue_nonsocial_low	n/a	16	-9	n/a	n/a	n/a
188.339220	2	cue_nonsocial	n/a	16	-8	n/a	n/a	n/a
188.339220	2	cue_nonsocial_low	n/a	16	-9	n/a	n/a	n/a
195.257340	2	cue_social	n/a	32	7	n/a	n/a	n/a
195.257340	2	cue_social_high	n/a	32	8	n/a	n/a	n/a
202.944120	2	cue_social	n/a	32	7	n/a	n/a	n/a
202.944120	2	cue_social_high	n/a	32	8	n/a	n/a	n/a
209.655610	2	cue_nonsocial	n/a	32	8	n/a	n/a	n/a
209.655610	2	cue_nonsocial_high	n/a	32	7	n/a	n/a	n/a
216.488680	2	cue_nonsocial	n/a	32	8	n/a	n/a	n/a
216.488680	2	cue_nonsocial_high	n/a	32	7	n/a	n/a	n/a
225.832410	2	cue_social	n/a	16	-9	n/a	n/a	n/a
225.832410	2	cue_social_low	n/a	16	-8	n/a	n/a	n/a
232.588800	2	cue_nonsocial	n/a	32	8	n/a	n/a	n/a
232.588800	2	cue_nonsocial_high	n/a	32	7	n/a	n/a	n/a
240.337970	2	cue_social	n/a	16	-9	n/a	n/a	n/a
240.337970	2	cue_social_low	n/a	16	-8	n/a	n/a	n/a
247.136980	2	cue_social	n/a	16	-9	n/a	n/a	n/a
247.136980	2	cue_social_low	n/a	16	-8	n/a	n/a	n/a
256.322880	2	cue_nonsocial	n/a	32	8	n/a	n/a	n/a
256.322880	2	cue_nonsocial_high	n/a	32	7	n/a	n/a	n/a
263.972750	2	cue_nonsocial	n/a	32	8	n/a	n/a	n/a
263.972750	2	cue_nonsocial_high	n/a	32	7	n/a	n/a	n/a
271.695470	2	cue_social	n/a	32	7	n/a	n/a	n/a
271.695470	2	cue_social_high	n/a	32	8	n/a	n/a	n/a
279.358980	2	cue_social	n/a	16	-9	n/a	n/a	n/a
279.358980	2	cue_social_low	n/a	16	-8	n/a	n/a	n/a
286.105800	2	cue_nonsocial	n/a	16	-8	n/a	n/a	n/a
286.105800	2	cue_nonsocial_low	n/a	16	-9	n/a	n/a	n/a
292.938720	2	cue_nonsocial	n/a	16	-8	n/a	n/a	n/a
292.938720	2	cue_nonsocial_low	n/a	16	-9	n/a	n/a	n/a
299.772160	2	cue_nonsocial	n/a	32	8	n/a	n/a	n/a
299.772160	2	cue_nonsocial_high	n/a	32	7	n/a	n/a	n/a
307.422150	2	cue_nonsocial	n/a	32	8	n/a	n/a	n/a
307.422150	2	cue_nonsocial_high	n/a	32	7	n/a	n/a	n/a
315.139830	2	cue_social	n/a	16	-9	n/a	n/a	n/a
315.139830	2	cue_social_low	n/a	16	-8	n/a	n/a	n/a
321.998780	2	cue_social	n/a	32	7	n/a	n/a	n/a
321.998780	2	cue_social_high	n/a	32	8	n/a	n/a	n/a
332.876860	2	cue_social	n/a	32	7	n/a	n/a	n/a
332.876860	2	cue_social_high	n/a	32	8	n/a	n/a	n/a
340.421880	2	cue_nonsocial	n/a	16	-8	n/a	n/a	n/a
340.421880	2	cue_nonsocial_low	n/a	16	-9	n/a	n/a	n/a
347.255400	2	cue_nonsocial	n/a	16	-8	n/a	n/a	n/a
347.255400	2	cue_nonsocial_low	n/a	16	-9	n/a	n/a	n/a
354.168120	2	cue_social	n/a	32	7	n/a	n/a	n/a
354.168120	2	cue_social_high	n/a	32	8	n/a	n/a	n/a
361.740020	2	cue_nonsocial	n/a	16	-8	n/a	n/a	n/a
361.740020	2	cue_nonsocial_low	n/a	16	-9	n/a	n/a	n/a
368.572940	2	cue_social	n/a	32	7	n/a	n/a	n/a
368.572940	2	cue_social_high	n/a	32	8	n/a	n/a	n/a
6.511138	1.451380	dec_social_choice	1.451380	32.000000	n/a	16	2.675781e-01	2.675781e-01
6.511138	1.451380	dec_choice	1.451380	32.000000	n/a	16	2.669271e-01	2.669271e-01
6.511138	1.451380	dec_social_accept	1.451380	32.000000	n/a	16	1.250000e-01	1.250000e-01
6.511138	1.451380	dec_accept	1.451380	32.000000	n/a	16	1.250000e-01	1.250000e-01
6.511138	1.451380	dec_social_high	1.451380	32.000000	n/a	16	2.669271e-01	2.669271e-01
6.511138	1.451380	dec_social_accept_high	1.451380	32.000000	n/a	16	2.669271e-01	2.669271e-01
13.344900	1.783843	dec_nonsocial_choice	1.783843	32.000000	n/a	8	1.757812e-02	1.757812e-02
13.344900	1.783843	dec_choice	1.783843	32.000000	n/a	8	1.822917e-02	1.822917e-02
13.344900	1.783843	dec_nonsocial_accept	1.783843	32.000000	n/a	8	-1.250000e-01	-1.250000e-01
13.344900	1.783843	dec_accept	1.783843	32.000000	n/a	8	-1.250000e-01	-1.250000e-01
13.344900	1.783843	dec_nonsocial_high	1.783843	32.000000	n/a	8	1.822917e-02	1.822917e-02
13.344900	1.783843	dec_nonsocial_accept_high	1.783843	32.000000	n/a	8	-1.250000e-01	-1.250000e-01
22.595806	1.133290	dec_nonsocial_choice	1.133290	16.000000	n/a	0	0	-2.324219e-01
22.595806	1.133290	dec_choice	1.133290	16.000000	n/a	0	0	-2.317708e-01
22.595806	1.133290	dec_nonsocial_reject	1.133290	16.000000	n/a	0	0	-2.734375e-02
22.595806	1.133290	dec_reject	1.133290	16.000000	n/a	0	0	-2.604167e-02
22.595806	1.133290	dec_nonsocial_reject_low	1.133290	16.000000	n/a	1	-2.864583e-02	-9.114583e-02
33.462080	1.800134	dec_social_choice	1.800134	32.000000	n/a	16	2.675781e-01	2.675781e-01
33.462080	1.800134	dec_choice	1.800134	32.000000	n/a	16	2.669271e-01	2.669271e-01
33.462080	1.800134	dec_social_accept	1.800134	32.000000	n/a	16	1.250000e-01	1.250000e-01
33.462080	1.800134	dec_accept	1.800134	32.000000	n/a	16	1.250000e-01	1.250000e-01
33.462080	1.800134	dec_social_accept_high	1.800134	32.000000	n/a	16	2.669271e-01	2.669271e-01
41.111195	1.033834	dec_social_choice	1.033834	32.000000	n/a	16	2.675781e-01	2.675781e-01
41.111195	1.033834	dec_choice	1.033834	32.000000	n/a	16	2.669271e-01	2.669271e-01
41.111195	1.033834	dec_social_accept	1.033834	32.000000	n/a	16	1.250000e-01	1.250000e-01
41.111195	1.033834	dec_accept	1.033834	32.000000	n/a	16	1.250000e-01	1.250000e-01
41.111195	1.033834	dec_social_accept_high	1.033834	32.000000	n/a	16	2.669271e-01	2.669271e-01
47.946150	1.248850	dec_social_choice	1.248850	32.000000	n/a	8	1.757812e-02	1.757812e-02
47.946150	1.248850	dec_choice	1.248850	32.000000	n/a	8	1.692708e-02	1.692708e-02
47.946150	1.248850	dec_social_accept	1.248850	32.000000	n/a	8	-1.250000e-01	-1.250000e-01
47.946150	1.248850	dec_accept	1.248850	32.000000	n/a	8	-1.250000e-01	-1.250000e-01
47.946150	1.248850	dec_social_high	1.248850	32.000000	n/a	8	1.692708e-02	1.692708e-02
47.946150	1.248850	dec_social_accept_high	1.248850	32.000000	n/a	8	1.692708e-02	1.692708e-02
60.428997	1.833107	dec_nonsocial_choice	1.833107	32.000000	n/a	0	0	-2.324219e-01
60.428997	1.833107	dec_choice	1.833107	32.000000	n/a	0	0	-2.317708e-01
60.428997	1.833107	dec_nonsocial_reject	1.833107	32.000000	n/a	0	0	3.906250e-03
60.428997	1.833107	dec_reject	1.833107	32.000000	n/a	0	0	5.208333e-03
60.428997	1.833107	dec_nonsocial_low	1.833107	32.000000	n/a	0	-2.317708e-01	-2.317708e-01
60.428997	1.833107	dec_nonsocial_reject_low	1.833107	32.000000	n/a	3	5.208333e-03	-8.854167e-02
68.077960	1.050944	dec_nonsocial_choice	1.050944	16.000000	n/a	0	0	-2.324219e-01
68.077960	1.050944	dec_choice	1.050944	16.000000	n/a	0	0	-2.317708e-01
68.077960	1.050944	dec_nonsocial_reject	1.050944	16.000000	n/a	0	0	-2.734375e-02
68.077960	1.050944	dec_reject	1.050944	16.000000	n/a	0	0	-2.604167e-02
68.077960	1.050944	dec_nonsocial_reject_low	1.050944	16.000000	n/a	1	-2.864583e-02	-9.114583e-02
75.730010	1.499205	dec_nonsocial_choice	1.499205	32.000000	n/a	8	1.757812e-02	1.757812e-02
75.730010	1.499205	dec_choice	1.499205	32.000000	n/a	8	1.822917e-02	1.822917e-02
75.730010	1.499205	dec_nonsocial_accept	1.499205	32.000000	n/a	8	-1.250000e-01	-1.250000e-01
75.730010	1.499205	dec_accept	1.499205	32.000000	n/a	8	-1.250000e-01	-1.250000e-01
75.730010	1.499205	dec_nonsocial_high	1.499205	32.000000	n/a	8	1.822917e-02	1.822917e-02
75.730010	1.499205	dec_nonsocial_accept_high	1.499205	32.000000	n/a	8	-1.250000e-01	-1.250000e-01
82.563010	1.432414	dec_nonsocial_choice	1.432414	32.000000	n/a	16	2.675781e-01	2.675781e-01
82.563010	1.432414	dec_choice	1.432414	32.000000	n/a	16	2.682292e-01	2.682292e-01
82.563010	1.432414	dec_nonsocial_accept	1.432414	32.000000	n/a	16	1.250000e-01	1.250000e-01
82.563010	1.432414	dec_accept	1.432414	32.000000	n/a	16	1.250000e-01	1.250000e-01
82.563010	1.432414	dec_nonsocial_accept_high	1.432414	32.000000	n/a	16	1.250000e-01	1.250000e-01
89.394966	0.983328	dec_social_choice	0.983328	16.000000	n/a	0	0	-2.324219e-01
89.394966	0.983328	dec_choice	0.983328	16.000000	n/a	0	0	-2.330729e-01
89.394966	0.983328	dec_social_reject	0.983328	16.000000	n/a	0	0	-2.734375e-02
89.394966	0.983328	dec_reject	0.983328	16.000000	n/a	0	0	-2.864583e-02
89.394966	0.983328	dec_social_reject_low	0.983328	16.000000	n/a	1	-1.705729e-01	-2.330729e-01
98.663030	1.315397	dec_nonsocial_choice	1.315397	32.000000	n/a	16	2.675781e-01	2.675781e-01
98.663030	1.315397	dec_choice	1.315397	32.000000	n/a	16	2.682292e-01	2.682292e-01
98.663030	1.315397	dec_nonsocial_accept	1.315397	32.000000	n/a	16	1.250000e-01	1.250000e-01
98.663030	1.315397	dec_accept	1.315397	32.000000	n/a	16	1.250000e-01	1.250000e-01
98.663030	1.315397	dec_nonsocial_accept_high	1.315397	32.000000	n/a	16	1.250000e-01	1.250000e-01
105.494290	1.684173	dec_social_choice	1.684173	32.000000	n/a	16	2.675781e-01	2.675781e-01
105.494290	1.684173	dec_choice	1.684173	32.000000	n/a	16	2.669271e-01	2.669271e-01
105.494290	1.684173	dec_social_accept	1.684173	32.000000	n/a	16	1.250000e-01	1.250000e-01
105.494290	1.684173	dec_accept	1.684173	32.000000	n/a	16	1.250000e-01	1.250000e-01
105.494290	1.684173	dec_social_accept_high	1.684173	32.000000	n/a	16	2.669271e-01	2.669271e-01
114.745630	1.633262	dec_social_choice	1.633262	16.000000	n/a	0	0	-2.324219e-01
114.745630	1.633262	dec_choice	1.633262	16.000000	n/a	0	0	-2.330729e-01
114.745630	1.633262	dec_social_reject	1.633262	16.000000	n/a	0	0	3.515625e-02
114.745630	1.633262	dec_reject	1.633262	16.000000	n/a	0	0	3.385417e-02
114.745630	1.633262	dec_social_low	1.633262	16.000000	n/a	0	-2.330729e-01	-2.330729e-01
114.745630	1.633262	dec_social_reject_low	1.633262	16.000000	n/a	2	-1.080729e-01	-2.330729e-01
121.579490	1.082765	dec_nonsocial_choice	1.082765	16.000000	n/a	4	1.757812e-02	1.757812e-02
121.579490	1.082765	dec_choice	1.082765	16.000000	n/a	4	1.822917e-02	1.822917e-02
121.579490	1.082765	dec_nonsocial_accept	1.082765	16.000000	n/a	4	-1.250000e-01	-1.250000e-01
121.579490	1.082765	dec_accept	1.082765	16.000000	n/a	4	-1.250000e-01	-1.250000e-01
121.579490	1.082765	dec_nonsocial_accept_high	1.082765	16.000000	n/a	4	-1.250000e-01	-1.250000e-01
128.411990	1.117180	dec_social_choice	1.117180	16.000000	n/a	4	1.757812e-02	1.757812e-02
128.411990	1.117180	dec_choice	1.117180	16.000000	n/a	4	1.692708e-02	1.692708e-02
128.411990	1.117180	dec_social_accept	1.117180	16.000000	n/a	4	-1.250000e-01	-1.250000e-01
128.411990	1.117180	dec_accept	1.117180	16.000000	n/a	4	-1.250000e-01	-1.250000e-01
128.411990	1.117180	dec_social_accept_high	1.117180	16.000000	n/a	4	1.692708e-02	1.692708e-02
135.246100	1.398737	dec_social_choice	1.398737	32.000000	n/a	0	0	-2.324219e-01
135.246100	1.398737	dec_choice	1.398737	32.000000	n/a	0	0	-2.330729e-01
135.246100	1.398737	dec_social_reject	1.398737	32.000000	n/a	0	0	-2.734375e-02
135.246100	1.398737	dec_reject	1.398737	32.000000	n/a	0	0	-2.864583e-02
135.246100	1.398737	dec_social_reject_low	1.398737	32.000000	n/a	2	-1.705729e-01	-2.330729e-01
142.078430	1.533832	dec_nonsocial_choice	1.533832	16.000000	n/a	0	0	-2.324219e-01
142.078430	1.533832	dec_choice	1.533832	16.000000	n/a	0	0	-2.317708e-01
142.078430	1.533832	dec_nonsocial_reject	1.533832	16.000000	n/a	0	0	3.515625e-02
142.078430	1.533832	dec_reject	1.533832	16.000000	n/a	0	0	3.645833e-02
142.078430	1.533832	dec_nonsocial_reject_low	1.533832	16.000000	n/a	2	3.385417e-02	-9.114583e-02
152.945040	2.016357	dec_social_choice	2.016357	16.000000	n/a	0	0	-2.324219e-01
152.945040	2.016357	dec_choice	2.016357	16.000000	n/a	0	0	-2.330729e-01
152.945040	2.016357	dec_social_reject	2.016357	16.000000	n/a	0	0	3.515625e-02
152.945040	2.016357	dec_reject	2.016357	16.000000	n/a	0	0	3.385417e-02
152.945040	2.016357	dec_social_low	2.016357	16.000000	n/a	0	-2.330729e-01	-2.330729e-01
152.945040	2.016357	dec_social_reject_low	2.016357	16.000000	n/a	2	-1.080729e-01	-2.330729e-01
160.594970	1.267145	dec_social_choice	1.267145	16.000000	n/a	0	0	-2.324219e-01
160.594970	1.267145	dec_choice	1.267145	16.000000	n/a	0	0	-2.330729e-01
160.594970	1.267145	dec_social_reject	1.267145	16.000000	n/a	0	0	3.515625e-02
160.594970	1.267145	dec_reject	1.267145	16.000000	n/a	0	0	3.385417e-02
160.594970	1.267145	dec_social_low	1.267145	16.000000	n/a	0	-2.330729e-01	-2.330729e-01
160.594970	1.267145	dec_social_reject_low	1.267145	16.000000	n/a	2	-1.080729e-01	-2.330729e-01
167.428860	1.083082	dec_nonsocial_choice	1.083082	16.000000	n/a	0	0	-2.324219e-01
167.428860	1.083082	dec_choice	1.083082	16.000000	n/a	0	0	-2.317708e-01
167.428860	1.083082	dec_nonsocial_reject	1.083082	16.000000	n/a	0	0	3.515625e-02
167.428860	1.083082	dec_reject	1.083082	16.000000	n/a	0	0	3.645833e-02
167.428860	1.083082	dec_nonsocial_low	1.083082	16.000000	n/a	0	-2.317708e-01	-2.317708e-01
167.428860	1.083082	dec_nonsocial_reject_low	1.083082	16.000000	n/a	2	3.645833e-02	-8.854167e-02
174.262330	1.749871	dec_social_choice	1.749871	16.000000	n/a	0	0	-2.324219e-01
174.262330	1.749871	dec_choice	1.749871	16.000000	n/a	0	0	-2.330729e-01
174.262330	1.749871	dec_social_reject	1.749871	16.000000	n/a	0	0	3.515625e-02
174.262330	1.749871	dec_reject	1.749871	16.000000	n/a	0	0	3.385417e-02
174.262330	1.749871	dec_social_reject_low	1.749871	16.000000	n/a	2	-1.080729e-01	-2.330729e-01
181.093980	1.467957	dec_nonsocial_choice	1.467957	16.000000	n/a	0	0	-2.324219e-01
181.093980	1.467957	dec_choice	1.467957	16.000000	n/a	0	0	-2.317708e-01
181.093980	1.467957	dec_nonsocial_reject	1.467957	16.000000	n/a	0	0	-2.734375e-02
181.093980	1.467957	dec_reject	1.467957	16.000000	n/a	0	0	-2.604167e-02
181.093980	1.467957	dec_nonsocial_low	1.467957	16.000000	n/a	0	-2.317708e-01	-2.317708e-01
181.093980	1.467957	dec_nonsocial_reject_low	1.467957	16.000000	n/a	1	-2.604167e-02	-8.854167e-02
190.345340	1.482842	dec_nonsocial_choice	1.482842	16.000000	n/a	0	0	-2.324219e-01
190.345340	1.482842	dec_choice	1.482842	16.000000	n/a	0	0	-2.317708e-01
190.345340	1.482842	dec_nonsocial_reject	1.482842	16.000000	n/a	0	0	-2.734375e-02
190.345340	1.482842	dec_reject	1.482842	16.000000	n/a	0	0	-2.604167e-02
190.345340	1.482842	dec_nonsocial_low	1.482842	16.000000	n/a	0	-2.317708e-01	-2.317708e-01
190.345340	1.482842	dec_nonsocial_reject_low	1.482842	16.000000	n/a	1	-2.604167e-02	-8.854167e-02
197.178860	2.499839	dec_social_choice	2.499839	32.000000	n/a	0	0	-2.324219e-01
197.178860	2.499839	dec_choice	2.499839	32.000000	n/a	0	0	-2.330729e-01
197.178860	2.499839	dec_social_reject	2.499839	32.000000	n/a	0	0	3.906250e-03
197.178860	2.499839	dec_reject	2.499839	32.000000	n/a	0	0	2.604167e-03
197.178860	2.499839	dec_social_low	2.499839	32.000000	n/a	0	-2.330729e-01	-2.330729e-01
197.178860	2.499839	dec_social_reject_low	2.499839	32.000000	n/a	3	-1.393229e-01	-2.330729e-01
204.827940	1.533955	dec_social_choice	1.533955	32.000000	n/a	8	1.757812e-02	1.757812e-02
204.827940	1.533955	dec_choice	1.533955	32.000000	n/a	8	1.692708e-02	1.692708e-02
204.827940	1.533955	dec_social_accept	1.533955	32.000000	n/a	8	-1.250000e-01	-1.250000e-01
204.827940	1.533955	dec_accept	1.533955	32.000000	n/a	8	-1.250000e-01	-1.250000e-01
204.827940	1.533955	dec_social_high	1.533955	32.000000	n/a	8	1.692708e-02	1.692708e-02
204.827940	1.533955	dec_social_accept_high	1.533955	32.000000	n/a	8	1.692708e-02	1.692708e-02
211.661940	1.216080	dec_nonsocial_choice	1.216080	32.000000	n/a	16	2.675781e-01	2.675781e-01
211.661940	1.216080	dec_choice	1.216080	32.000000	n/a	16	2.682292e-01	2.682292e-01
211.661940	1.216080	dec_nonsocial_accept	1.216080	32.000000	n/a	16	1.250000e-01	1.250000e-01
211.661940	1.216080	dec_accept	1.216080	32.000000	n/a	16	1.250000e-01	1.250000e-01
211.661940	1.216080	dec_nonsocial_accept_high	1.216080	32.000000	n/a	16	1.250000e-01	1.250000e-01
218.494960	1.066509	dec_nonsocial_choice	1.066509	32.000000	n/a	16	2.675781e-01	2.675781e-01
218.494960	1.066509	dec_choice	1.066509	32.000000	n/a	16	2.682292e-01	2.682292e-01
218.494960	1.066509	dec_nonsocial_accept	1.066509	32.000000	n/a	16	1.250000e-01	1.250000e-01
218.494960	1.066509	dec_accept	1.066509	32.000000	n/a	16	1.250000e-01	1.250000e-01
218.494960	1.066509	dec_nonsocial_accept_high	1.066509	32.000000	n/a	16	1.250000e-01	1.250000e-01
227.760930	1.067340	dec_social_choice	1.067340	16.000000	n/a	4	1.757812e-02	1.757812e-02
227.760930	1.067340	dec_choice	1.067340	16.000000	n/a	4	1.692708e-02	1.692708e-02
227.760930	1.067340	dec_social_accept	1.067340	16.000000	n/a	4	-1.250000e-01	-1.250000e-01
227.760930	1.067340	dec_accept	1.067340	16.000000	n/a	4	-1.250000e-01	-1.250000e-01
227.760930	1.067340	dec_social_accept_high	1.067340	16.000000	n/a	4	1.692708e-02	1.692708e-02
234.595000	1.715937	dec_nonsocial_choice	1.715937	32.000000	n/a	8	1.757812e-02	1.757812e-02
234.595000	1.715937	dec_choice	1.715937	32.000000	n/a	8	1.822917e-02	1.822917e-02
234.595000	1.715937	dec_nonsocial_accept	1.715937	32.000000	n/a	8	-1.250000e-01	-1.250000e-01
234.595000	1.715937	dec_accept	1.715937	32.000000	n/a	8	-1.250000e-01	-1.250000e-01
234.595000	1.715937	dec_nonsocial_accept_high	1.715937	32.000000	n/a	8	-1.250000e-01	-1.250000e-01
242.244930	1.683650	dec_social_choice	1.683650	16.000000	n/a	4	1.757812e-02	1.757812e-02
242.244930	1.683650	dec_choice	1.683650	16.000000	n/a	4	1.692708e-02	1.692708e-02
242.244930	1.683650	dec_social_accept	1.683650	16.000000	n/a	4	-1.250000e-01	-1.250000e-01
242.244930	1.683650	dec_accept	1.683650	16.000000	n/a	4	-1.250000e-01	-1.250000e-01
242.244930	1.683650	dec_social_accept_high	1.683650	16.000000	n/a	4	1.692708e-02	1.692708e-02
249.078810	1.499839	dec_social_choice	1.499839	16.000000	n/a	8	2.675781e-01	2.675781e-01
249.078810	1.499839	dec_choice	1.499839	16.000000	n/a	8	2.669271e-01	2.669271e-01
249.078810	1.499839	dec_social_accept	1.499839	16.000000	n/a	8	1.250000e-01	1.250000e-01
249.078810	1.499839	dec_accept	1.499839	16.000000	n/a	8	1.250000e-01	1.250000e-01
249.078810	1.499839	dec_social_accept_high	1.499839	16.000000	n/a	8	2.669271e-01	2.669271e-01
258.328500	1.465617	dec_nonsocial_choice	1.465617	32.000000	n/a	0	0	-2.324219e-01
258.328500	1.465617	dec_choice	1.465617	32.000000	n/a	0	0	-2.317708e-01
258.328500	1.465617	dec_nonsocial_reject	1.465617	32.000000	n/a	0	0	-2.734375e-02
258.328500	1.465617	dec_reject	1.465617	32.000000	n/a	0	0	-2.604167e-02
258.328500	1.465617	dec_nonsocial_reject_low	1.465617	32.000000	n/a	2	-2.864583e-02	-9.114583e-02
265.977970	0.916713	dec_nonsocial_choice	0.916713	32.000000	n/a	16	2.675781e-01	2.675781e-01
265.977970	0.916713	dec_choice	0.916713	32.000000	n/a	16	2.682292e-01	2.682292e-01
265.977970	0.916713	dec_nonsocial_accept	0.916713	32.000000	n/a	16	1.250000e-01	1.250000e-01
265.977970	0.916713	dec_accept	0.916713	32.000000	n/a	16	1.250000e-01	1.250000e-01
265.977970	0.916713	dec_nonsocial_accept_high	0.916713	32.000000	n/a	16	1.250000e-01	1.250000e-01
273.627350	1.833970	dec_social_choice	1.833970	32.000000	n/a	8	1.757812e-02	1.757812e-02
273.627350	1.833970	dec_choice	1.833970	32.000000	n/a	8	1.692708e-02	1.692708e-02
273.627350	1.833970	dec_social_accept	1.833970	32.000000	n/a	8	-1.250000e-01	-1.250000e-01
273.627350	1.833970	dec_accept	1.833970	32.000000	n/a	8	-1.250000e-01	-1.250000e-01
273.627350	1.833970	dec_social_accept_high	1.833970	32.000000	n/a	8	1.692708e-02	1.692708e-02
281.277920	1.850342	dec_social_choice	1.850342	16.000000	n/a	0	0	-2.324219e-01
281.277920	1.850342	dec_choice	1.850342	16.000000	n/a	0	0	-2.330729e-01
281.277920	1.850342	dec_social_reject	1.850342	16.000000	n/a	0	0	-2.734375e-02
281.277920	1.850342	dec_reject	1.850342	16.000000	n/a	0	0	-2.864583e-02
281.277920	1.850342	dec_social_reject_low	1.850342	16.000000	n/a	1	-1.705729e-01	-2.330729e-01
288.111020	1.783608	dec_nonsocial_choice	1.783608	16.000000	n/a	8	2.675781e-01	2.675781e-01
288.111020	1.783608	dec_choice	1.783608	16.000000	n/a	8	2.682292e-01	2.682292e-01
288.111020	1.783608	dec_nonsocial_accept	1.783608	16.000000	n/a	8	1.250000e-01	1.250000e-01
288.111020	1.783608	dec_accept	1.783608	16.000000	n/a	8	1.250000e-01	1.250000e-01
288.111020	1.783608	dec_nonsocial_high	1.783608	16.000000	n/a	8	2.682292e-01	2.682292e-01
288.111020	1.783608	dec_nonsocial_accept_high	1.783608	16.000000	n/a	8	1.250000e-01	1.250000e-01
294.944850	2.083325	dec_nonsocial_choice	2.083325	16.000000	n/a	4	1.757812e-02	1.757812e-02
294.944850	2.083325	dec_choice	2.083325	16.000000	n/a	4	1.822917e-02	1.822917e-02
294.944850	2.083325	dec_nonsocial_accept	2.083325	16.000000	n/a	4	-1.250000e-01	-1.250000e-01
294.944850	2.083325	dec_accept	2.083325	16.000000	n/a	4	-1.250000e-01	-1.250000e-01
294.944850	2.083325	dec_nonsocial_accept_high	2.083325	16.000000	n/a	4	-1.250000e-01	-1.250000e-01
301.778750	2.149407	dec_nonsocial_choice	2.149407	32.000000	n/a	8	1.757812e-02	1.757812e-02
301.778750	2.149407	dec_choice	2.149407	32.000000	n/a	8	1.822917e-02	1.822917e-02
301.778750	2.149407	dec_nonsocial_accept	2.149407	32.000000	n/a	8	-1.250000e-01	-1.250000e-01
301.778750	2.149407	dec_accept	2.149407	32.000000	n/a	8	-1.250000e-01	-1.250000e-01
301.778750	2.149407	dec_nonsocial_high	2.149407	32.000000	n/a	8	1.822917e-02	1.822917e-02
301.778750	2.149407	dec_nonsocial_accept_high	2.149407	32.000000	n/a	8	-1.250000e-01	-1.250000e-01
309.428800	2.932816	dec_nonsocial_choice	2.932816	32.000000	n/a	0	0	-2.324219e-01
309.428800	2.932816	dec_choice	2.932816	32.000000	n/a	0	0	-2.317708e-01
309.428800	2.932816	dec_nonsocial_reject	2.932816	32.000000	n/a	0	0	3.906250e-03
309.428800	2.932816	dec_reject	2.932816	32.000000	n/a	0	0	5.208333e-03
309.428800	2.932816	dec_nonsocial_low	2.932816	32.000000	n/a	0	-2.317708e-01	-2.317708e-01
309.428800	2.932816	dec_nonsocial_reject_low	2.932816	32.000000	n/a	3	5.208333e-03	-8.854167e-02
317.078030	1.233306	dec_social_choice	1.233306	16.000000	n/a	0	0	-2.324219e-01
317.078030	1.233306	dec_choice	1.233306	16.000000	n/a	0	0	-2.330729e-01
317.078030	1.233306	dec_social_reject	1.233306	16.000000	n/a	0	0	3.515625e-02
317.078030	1.233306	dec_reject	1.233306	16.000000	n/a	0	0	3.385417e-02
317.078030	1.233306	dec_social_low	1.233306	16.000000	n/a	0	-2.330729e-01	-2.330729e-01
317.078030	1.233306	dec_social_reject_low	1.233306	16.000000	n/a	2	-1.080729e-01	-2.330729e-01
323.910950	1.366689	dec_social_choice	1.366689	32.000000	n/a	0	0	-2.324219e-01
323.910950	1.366689	dec_choice	1.366689	32.000000	n/a	0	0	-2.330729e-01
323.910950	1.366689	dec_social_reject	1.366689	32.000000	n/a	0	0	-2.734375e-02
323.910950	1.366689	dec_reject	1.366689	32.000000	n/a	0	0	-2.864583e-02
323.910950	1.366689	dec_social_low	1.366689	32.000000	n/a	0	-2.330729e-01	-2.330729e-01
323.910950	1.366689	dec_social_reject_low	1.366689	32.000000	n/a	2	-1.705729e-01	-2.330729e-01
334.777920	1.099287	dec_social_choice	1.099287	32.000000	n/a	16	2.675781e-01	2.675781e-01
334.777920	1.099287	dec_choice	1.099287	32.000000	n/a	16	2.669271e-01	2.669271e-01
334.777920	1.099287	dec_social_accept	1.099287	32.000000	n/a	16	1.250000e-01	1.250000e-01
334.777920	1.099287	dec_accept	1.099287	32.000000	n/a	16	1.250000e-01	1.250000e-01
334.777920	1.099287	dec_social_high	1.099287	32.000000	n/a	16	2.669271e-01	2.669271e-01
334.777920	1.099287	dec_social_accept_high	1.099287	32.000000	n/a	16	2.669271e-01	2.669271e-01
342.428860	1.582795	dec_nonsocial_choice	1.582795	16.000000	n/a	0	0	-2.324219e-01
342.428860	1.582795	dec_choice	1.582795	16.000000	n/a	0	0	-2.317708e-01
342.428860	1.582795	dec_nonsocial_reject	1.582795	16.000000	n/a	0	0	3.515625e-02
342.428860	1.582795	dec_reject	1.582795	16.000000	n/a	0	0	3.645833e-02
342.428860	1.582795	dec_nonsocial_reject_low	1.582795	16.000000	n/a	2	3.385417e-02	-9.114583e-02
349.261800	1.982924	dec_nonsocial_choice	1.982924	16.000000	n/a	0	0	-2.324219e-01
349.261800	1.982924	dec_choice	1.982924	16.000000	n/a	0	0	-2.317708e-01
349.261800	1.982924	dec_nonsocial_reject	1.982924	16.000000	n/a	0	0	3.515625e-02
349.261800	1.982924	dec_reject	1.982924	16.000000	n/a	0	0	3.645833e-02
349.261800	1.982924	dec_nonsocial_reject_low	1.982924	16.000000	n/a	2	3.385417e-02	-9.114583e-02
356.093900	1.083722	dec_social_choice	1.083722	32.000000	n/a	0	0	-2.324219e-01
356.093900	1.083722	dec_choice	1.083722	32.000000	n/a	0	0	-2.330729e-01
356.093900	1.083722	dec_social_reject	1.083722	32.000000	n/a	0	0	-2.734375e-02
356.093900	1.083722	dec_reject	1.083722	32.000000	n/a	0	0	-2.864583e-02
356.093900	1.083722	dec_social_low	1.083722	32.000000	n/a	0	-2.330729e-01	-2.330729e-01
356.093900	1.083722	dec_social_reject_low	1.083722	32.000000	n/a	2	-1.705729e-01	-2.330729e-01
363.745450	1.015389	dec_nonsocial_choice	1.015389	16.000000	n/a	0	0	-2.324219e-01
363.745450	1.015389	dec_choice	1.015389	16.000000	n/a	0	0	-2.317708e-01
363.745450	1.015389	dec_nonsocial_reject	1.015389	16.000000	n/a	0	0	-2.734375e-02
363.745450	1.015389	dec_reject	1.015389	16.000000	n/a	0	0	-2.604167e-02
363.745450	1.015389	dec_nonsocial_low	1.015389	16.000000	n/a	0	-2.317708e-01	-2.317708e-01
363.745450	1.015389	dec_nonsocial_reject_low	1.015389	16.000000	n/a	1	-2.604167e-02	-8.854167e-02
370.578920	1.482641	dec_social_choice	1.482641	32.000000	n/a	0	0	-2.324219e-01
370.578920	1.482641	dec_choice	1.482641	32.000000	n/a	0	0	-2.330729e-01
370.578920	1.482641	dec_social_reject	1.482641	32.000000	n/a	0	0	-2.734375e-02
370.578920	1.482641	dec_reject	1.482641	32.000000	n/a	0	0	-2.864583e-02
370.578920	1.482641	dec_social_reject_low	1.482641	32.000000	n/a	2	-1.705729e-01	-2.330729e-01
