onset	duration	trial_type	response_time	Endowment	Decision	Offer
4.588097	2	cue_social	n/a	32	n/a	n/a
4.588097	2	cue_social_high	n/a	32	n/a	n/a
6.511138	1.451380	dec_social_high	1.451380	32	n/a	16
6.511138	1.451380	dec_social_high_accept	1.451380	32	accept	16
11.339359	2	cue_nonsocial	n/a	32	n/a	n/a
11.339359	2	cue_nonsocial_high	n/a	32	n/a	n/a
13.344900	1.783843	dec_nonsocial_high	1.783843	32	n/a	8
13.344900	1.783843	dec_nonsocial_high_accept	1.783843	32	accept	8
20.589882	2	cue_nonsocial	n/a	16	n/a	n/a
20.589882	2	cue_nonsocial_low	n/a	16	n/a	n/a
22.595806	1.133290	dec_nonsocial_low	1.133290	16	n/a	1
22.595806	1.133290	dec_nonsocial_low_reject	1.133290	16	reject	1
31.576490	2	cue_social	n/a	32	n/a	n/a
31.576490	2	cue_social_high	n/a	32	n/a	n/a
33.462080	1.800134	dec_social_high	1.800134	32	n/a	16
33.462080	1.800134	dec_social_high_accept	1.800134	32	accept	16
39.188835	2	cue_social	n/a	32	n/a	n/a
39.188835	2	cue_social_high	n/a	32	n/a	n/a
41.111195	1.033834	dec_social_high	1.033834	32	n/a	16
41.111195	1.033834	dec_social_high_accept	1.033834	32	accept	16
46.039722	2	cue_social	n/a	32	n/a	n/a
46.039722	2	cue_social_high	n/a	32	n/a	n/a
47.946150	1.248850	dec_social_high	1.248850	32	n/a	8
47.946150	1.248850	dec_social_high_accept	1.248850	32	accept	8
58.422638	2	cue_nonsocial	n/a	32	n/a	n/a
58.422638	2	cue_nonsocial_high	n/a	32	n/a	n/a
60.428997	1.833107	dec_nonsocial_high	1.833107	32	n/a	3
60.428997	1.833107	dec_nonsocial_high_reject	1.833107	32	reject	3
66.072860	2	cue_nonsocial	n/a	16	n/a	n/a
66.072860	2	cue_nonsocial_low	n/a	16	n/a	n/a
68.077960	1.050944	dec_nonsocial_low	1.050944	16	n/a	1
68.077960	1.050944	dec_nonsocial_low_reject	1.050944	16	reject	1
73.722435	2	cue_nonsocial	n/a	32	n/a	n/a
73.722435	2	cue_nonsocial_high	n/a	32	n/a	n/a
75.730010	1.499205	dec_nonsocial_high	1.499205	32	n/a	8
75.730010	1.499205	dec_nonsocial_high_accept	1.499205	32	accept	8
80.555930	2	cue_nonsocial	n/a	32	n/a	n/a
80.555930	2	cue_nonsocial_high	n/a	32	n/a	n/a
82.563010	1.432414	dec_nonsocial_high	1.432414	32	n/a	16
82.563010	1.432414	dec_nonsocial_high_accept	1.432414	32	accept	16
87.477880	2	cue_social	n/a	16	n/a	n/a
87.477880	2	cue_social_low	n/a	16	n/a	n/a
89.394966	0.983328	dec_social_low	0.983328	16	n/a	1
89.394966	0.983328	dec_social_low_reject	0.983328	16	reject	1
96.655720	2	cue_nonsocial	n/a	32	n/a	n/a
96.655720	2	cue_nonsocial_high	n/a	32	n/a	n/a
98.663030	1.315397	dec_nonsocial_high	1.315397	32	n/a	16
98.663030	1.315397	dec_nonsocial_high_accept	1.315397	32	accept	16
103.566490	2	cue_social	n/a	32	n/a	n/a
103.566490	2	cue_social_high	n/a	32	n/a	n/a
105.494290	1.684173	dec_social_high	1.684173	32	n/a	16
105.494290	1.684173	dec_social_high_accept	1.684173	32	accept	16
112.833916	2	cue_social	n/a	16	n/a	n/a
112.833916	2	cue_social_low	n/a	16	n/a	n/a
114.745630	1.633262	dec_social_low	1.633262	16	n/a	2
114.745630	1.633262	dec_social_low_reject	1.633262	16	reject	2
119.572660	2	cue_nonsocial	n/a	16	n/a	n/a
119.572660	2	cue_nonsocial_low	n/a	16	n/a	n/a
121.579490	1.082765	dec_nonsocial_low	1.082765	16	n/a	4
121.579490	1.082765	dec_nonsocial_low_accept	1.082765	16	accept	4
126.483460	2	cue_social	n/a	16	n/a	n/a
126.483460	2	cue_social_low	n/a	16	n/a	n/a
128.411990	1.117180	dec_social_low	1.117180	16	n/a	4
128.411990	1.117180	dec_social_low_accept	1.117180	16	accept	4
133.329530	2	cue_social	n/a	32	n/a	n/a
133.329530	2	cue_social_high	n/a	32	n/a	n/a
135.246100	1.398737	dec_social_high	1.398737	32	n/a	2
135.246100	1.398737	dec_social_high_reject	1.398737	32	reject	2
140.072560	2	cue_nonsocial	n/a	16	n/a	n/a
140.072560	2	cue_nonsocial_low	n/a	16	n/a	n/a
142.078430	1.533832	dec_nonsocial_low	1.533832	16	n/a	2
142.078430	1.533832	dec_nonsocial_low_reject	1.533832	16	reject	2
151.028260	2	cue_social	n/a	16	n/a	n/a
151.028260	2	cue_social_low	n/a	16	n/a	n/a
152.945040	2.016357	dec_social_low	2.016357	16	n/a	2
152.945040	2.016357	dec_social_low_reject	2.016357	16	reject	2
158.674620	2	cue_social	n/a	16	n/a	n/a
158.674620	2	cue_social_low	n/a	16	n/a	n/a
160.594970	1.267145	dec_social_low	1.267145	16	n/a	2
160.594970	1.267145	dec_social_low_reject	1.267145	16	reject	2
165.422790	2	cue_nonsocial	n/a	16	n/a	n/a
165.422790	2	cue_nonsocial_low	n/a	16	n/a	n/a
167.428860	1.083082	dec_nonsocial_low	1.083082	16	n/a	2
167.428860	1.083082	dec_nonsocial_low_reject	1.083082	16	reject	2
172.343030	2	cue_social	n/a	16	n/a	n/a
172.343030	2	cue_social_low	n/a	16	n/a	n/a
174.262330	1.749871	dec_social_low	1.749871	16	n/a	2
174.262330	1.749871	dec_social_low_reject	1.749871	16	reject	2
179.089100	2	cue_nonsocial	n/a	16	n/a	n/a
179.089100	2	cue_nonsocial_low	n/a	16	n/a	n/a
181.093980	1.467957	dec_nonsocial_low	1.467957	16	n/a	1
181.093980	1.467957	dec_nonsocial_low_reject	1.467957	16	reject	1
188.339220	2	cue_nonsocial	n/a	16	n/a	n/a
188.339220	2	cue_nonsocial_low	n/a	16	n/a	n/a
190.345340	1.482842	dec_nonsocial_low	1.482842	16	n/a	1
190.345340	1.482842	dec_nonsocial_low_reject	1.482842	16	reject	1
195.257340	2	cue_social	n/a	32	n/a	n/a
195.257340	2	cue_social_high	n/a	32	n/a	n/a
197.178860	2.499839	dec_social_high	2.499839	32	n/a	3
197.178860	2.499839	dec_social_high_reject	2.499839	32	reject	3
202.944120	2	cue_social	n/a	32	n/a	n/a
202.944120	2	cue_social_high	n/a	32	n/a	n/a
204.827940	1.533955	dec_social_high	1.533955	32	n/a	8
204.827940	1.533955	dec_social_high_accept	1.533955	32	accept	8
209.655610	2	cue_nonsocial	n/a	32	n/a	n/a
209.655610	2	cue_nonsocial_high	n/a	32	n/a	n/a
211.661940	1.216080	dec_nonsocial_high	1.216080	32	n/a	16
211.661940	1.216080	dec_nonsocial_high_accept	1.216080	32	accept	16
216.488680	2	cue_nonsocial	n/a	32	n/a	n/a
216.488680	2	cue_nonsocial_high	n/a	32	n/a	n/a
218.494960	1.066509	dec_nonsocial_high	1.066509	32	n/a	16
218.494960	1.066509	dec_nonsocial_high_accept	1.066509	32	accept	16
225.832410	2	cue_social	n/a	16	n/a	n/a
225.832410	2	cue_social_low	n/a	16	n/a	n/a
227.760930	1.067340	dec_social_low	1.067340	16	n/a	4
227.760930	1.067340	dec_social_low_accept	1.067340	16	accept	4
232.588800	2	cue_nonsocial	n/a	32	n/a	n/a
232.588800	2	cue_nonsocial_high	n/a	32	n/a	n/a
234.595000	1.715937	dec_nonsocial_high	1.715937	32	n/a	8
234.595000	1.715937	dec_nonsocial_high_accept	1.715937	32	accept	8
240.337970	2	cue_social	n/a	16	n/a	n/a
240.337970	2	cue_social_low	n/a	16	n/a	n/a
242.244930	1.683650	dec_social_low	1.683650	16	n/a	4
242.244930	1.683650	dec_social_low_accept	1.683650	16	accept	4
247.136980	2	cue_social	n/a	16	n/a	n/a
247.136980	2	cue_social_low	n/a	16	n/a	n/a
249.078810	1.499839	dec_social_low	1.499839	16	n/a	8
249.078810	1.499839	dec_social_low_accept	1.499839	16	accept	8
256.322880	2	cue_nonsocial	n/a	32	n/a	n/a
256.322880	2	cue_nonsocial_high	n/a	32	n/a	n/a
258.328500	1.465617	dec_nonsocial_high	1.465617	32	n/a	2
258.328500	1.465617	dec_nonsocial_high_reject	1.465617	32	reject	2
263.972750	2	cue_nonsocial	n/a	32	n/a	n/a
263.972750	2	cue_nonsocial_high	n/a	32	n/a	n/a
265.977970	0.916713	dec_nonsocial_high	0.916713	32	n/a	16
265.977970	0.916713	dec_nonsocial_high_accept	0.916713	32	accept	16
271.695470	2	cue_social	n/a	32	n/a	n/a
271.695470	2	cue_social_high	n/a	32	n/a	n/a
273.627350	1.833970	dec_social_high	1.833970	32	n/a	8
273.627350	1.833970	dec_social_high_accept	1.833970	32	accept	8
279.358980	2	cue_social	n/a	16	n/a	n/a
279.358980	2	cue_social_low	n/a	16	n/a	n/a
281.277920	1.850342	dec_social_low	1.850342	16	n/a	1
281.277920	1.850342	dec_social_low_reject	1.850342	16	reject	1
286.105800	2	cue_nonsocial	n/a	16	n/a	n/a
286.105800	2	cue_nonsocial_low	n/a	16	n/a	n/a
288.111020	1.783608	dec_nonsocial_low	1.783608	16	n/a	8
288.111020	1.783608	dec_nonsocial_low_accept	1.783608	16	accept	8
292.938720	2	cue_nonsocial	n/a	16	n/a	n/a
292.938720	2	cue_nonsocial_low	n/a	16	n/a	n/a
294.944850	2.083325	dec_nonsocial_low	2.083325	16	n/a	4
294.944850	2.083325	dec_nonsocial_low_accept	2.083325	16	accept	4
299.772160	2	cue_nonsocial	n/a	32	n/a	n/a
299.772160	2	cue_nonsocial_high	n/a	32	n/a	n/a
301.778750	2.149407	dec_nonsocial_high	2.149407	32	n/a	8
301.778750	2.149407	dec_nonsocial_high_accept	2.149407	32	accept	8
307.422150	2	cue_nonsocial	n/a	32	n/a	n/a
307.422150	2	cue_nonsocial_high	n/a	32	n/a	n/a
309.428800	2.932816	dec_nonsocial_high	2.932816	32	n/a	3
309.428800	2.932816	dec_nonsocial_high_reject	2.932816	32	reject	3
315.139830	2	cue_social	n/a	16	n/a	n/a
315.139830	2	cue_social_low	n/a	16	n/a	n/a
317.078030	1.233306	dec_social_low	1.233306	16	n/a	2
317.078030	1.233306	dec_social_low_reject	1.233306	16	reject	2
321.998780	2	cue_social	n/a	32	n/a	n/a
321.998780	2	cue_social_high	n/a	32	n/a	n/a
323.910950	1.366689	dec_social_high	1.366689	32	n/a	2
323.910950	1.366689	dec_social_high_reject	1.366689	32	reject	2
332.876860	2	cue_social	n/a	32	n/a	n/a
332.876860	2	cue_social_high	n/a	32	n/a	n/a
334.777920	1.099287	dec_social_high	1.099287	32	n/a	16
334.777920	1.099287	dec_social_high_accept	1.099287	32	accept	16
340.421880	2	cue_nonsocial	n/a	16	n/a	n/a
340.421880	2	cue_nonsocial_low	n/a	16	n/a	n/a
342.428860	1.582795	dec_nonsocial_low	1.582795	16	n/a	2
342.428860	1.582795	dec_nonsocial_low_reject	1.582795	16	reject	2
347.255400	2	cue_nonsocial	n/a	16	n/a	n/a
347.255400	2	cue_nonsocial_low	n/a	16	n/a	n/a
349.261800	1.982924	dec_nonsocial_low	1.982924	16	n/a	2
349.261800	1.982924	dec_nonsocial_low_reject	1.982924	16	reject	2
354.168120	2	cue_social	n/a	32	n/a	n/a
354.168120	2	cue_social_high	n/a	32	n/a	n/a
356.093900	1.083722	dec_social_high	1.083722	32	n/a	2
356.093900	1.083722	dec_social_high_reject	1.083722	32	reject	2
361.740020	2	cue_nonsocial	n/a	16	n/a	n/a
361.740020	2	cue_nonsocial_low	n/a	16	n/a	n/a
363.745450	1.015389	dec_nonsocial_low	1.015389	16	n/a	1
363.745450	1.015389	dec_nonsocial_low_reject	1.015389	16	reject	1
368.572940	2	cue_social	n/a	32	n/a	n/a
368.572940	2	cue_social_high	n/a	32	n/a	n/a
370.578920	1.482641	dec_social_high	1.482641	32	n/a	2
370.578920	1.482641	dec_social_high_reject	1.482641	32	reject	2
