onset	duration	trial_type	response_time	Endowment	Endowment_pmod	Decision	Decision_pmod	Offer_pmod
4.617298	2	cue_social	n/a	16	-7	n/a	n/a	n/a
4.617298	2	cue_social_low	n/a	16	-10	n/a	n/a	n/a
15.376544	2	cue_nonsocial	n/a	32	6	n/a	n/a	n/a
15.376544	2	cue_nonsocial_high	n/a	32	9	n/a	n/a	n/a
23.103157	2	cue_social	n/a	16	-7	n/a	n/a	n/a
23.103157	2	cue_social_low	n/a	16	-10	n/a	n/a	n/a
29.844180	2	cue_nonsocial	n/a	16	-10	n/a	n/a	n/a
29.844180	2	cue_nonsocial_low	n/a	16	-7	n/a	n/a	n/a
36.786026	2	cue_social	n/a	16	-7	n/a	n/a	n/a
36.786026	2	cue_social_low	n/a	16	-10	n/a	n/a	n/a
44.327633	2	cue_nonsocial	n/a	32	6	n/a	n/a	n/a
44.327633	2	cue_nonsocial_high	n/a	32	9	n/a	n/a	n/a
51.977320	2	cue_nonsocial	n/a	16	-10	n/a	n/a	n/a
51.977320	2	cue_nonsocial_low	n/a	16	-7	n/a	n/a	n/a
61.344276	2	cue_social	n/a	16	-7	n/a	n/a	n/a
61.344276	2	cue_social_low	n/a	16	-10	n/a	n/a	n/a
68.982940	2	cue_social	n/a	32	9	n/a	n/a	n/a
68.982940	2	cue_social_high	n/a	32	6	n/a	n/a	n/a
75.710480	2	cue_nonsocial	n/a	32	6	n/a	n/a	n/a
75.710480	2	cue_nonsocial_high	n/a	32	9	n/a	n/a	n/a
85.088486	2	cue_social	n/a	16	-7	n/a	n/a	n/a
85.088486	2	cue_social_low	n/a	16	-10	n/a	n/a	n/a
91.893320	2	cue_social	n/a	32	9	n/a	n/a	n/a
91.893320	2	cue_social_high	n/a	32	6	n/a	n/a	n/a
101.166470	2	cue_social	n/a	32	9	n/a	n/a	n/a
101.166470	2	cue_social_high	n/a	32	6	n/a	n/a	n/a
108.706210	2	cue_social	n/a	16	-7	n/a	n/a	n/a
108.706210	2	cue_social_low	n/a	16	-10	n/a	n/a	n/a
117.960180	2	cue_nonsocial	n/a	32	6	n/a	n/a	n/a
117.960180	2	cue_nonsocial_high	n/a	32	9	n/a	n/a	n/a
124.793200	2	cue_nonsocial	n/a	16	-10	n/a	n/a	n/a
124.793200	2	cue_nonsocial_low	n/a	16	-7	n/a	n/a	n/a
135.663250	2	cue_social	n/a	16	-7	n/a	n/a	n/a
135.663250	2	cue_social_low	n/a	16	-10	n/a	n/a	n/a
142.493150	2	cue_nonsocial	n/a	16	-10	n/a	n/a	n/a
142.493150	2	cue_nonsocial_low	n/a	16	-7	n/a	n/a	n/a
149.326370	2	cue_nonsocial	n/a	32	6	n/a	n/a	n/a
149.326370	2	cue_nonsocial_high	n/a	32	9	n/a	n/a	n/a
161.810040	2	cue_nonsocial	n/a	16	-10	n/a	n/a	n/a
161.810040	2	cue_nonsocial_low	n/a	16	-7	n/a	n/a	n/a
168.643200	2	cue_nonsocial	n/a	32	6	n/a	n/a	n/a
168.643200	2	cue_nonsocial_high	n/a	32	9	n/a	n/a	n/a
176.293720	2	cue_nonsocial	n/a	32	6	n/a	n/a	n/a
176.293720	2	cue_nonsocial_high	n/a	32	9	n/a	n/a	n/a
187.159700	2	cue_nonsocial	n/a	32	6	n/a	n/a	n/a
187.159700	2	cue_nonsocial_high	n/a	32	9	n/a	n/a	n/a
194.042800	2	cue_social	n/a	16	-7	n/a	n/a	n/a
194.042800	2	cue_social_low	n/a	16	-10	n/a	n/a	n/a
200.935180	2	cue_social	n/a	16	-7	n/a	n/a	n/a
200.935180	2	cue_social_low	n/a	16	-10	n/a	n/a	n/a
208.469210	2	cue_social	n/a	32	9	n/a	n/a	n/a
208.469210	2	cue_social_high	n/a	32	6	n/a	n/a	n/a
215.387590	2	cue_social	n/a	32	9	n/a	n/a	n/a
215.387590	2	cue_social_high	n/a	32	6	n/a	n/a	n/a
222.143520	2	cue_nonsocial	n/a	16	-10	n/a	n/a	n/a
222.143520	2	cue_nonsocial_low	n/a	16	-7	n/a	n/a	n/a
229.097150	2	cue_social	n/a	32	9	n/a	n/a	n/a
229.097150	2	cue_social_high	n/a	32	6	n/a	n/a	n/a
236.627200	2	cue_nonsocial	n/a	32	6	n/a	n/a	n/a
236.627200	2	cue_nonsocial_high	n/a	32	9	n/a	n/a	n/a
243.499200	2	cue_social	n/a	32	9	n/a	n/a	n/a
243.499200	2	cue_social_high	n/a	32	6	n/a	n/a	n/a
250.390850	2	cue_social	n/a	32	9	n/a	n/a	n/a
250.390850	2	cue_social_high	n/a	32	6	n/a	n/a	n/a
257.229800	2	cue_social	n/a	16	-7	n/a	n/a	n/a
257.229800	2	cue_social_low	n/a	16	-10	n/a	n/a	n/a
264.776300	2	cue_nonsocial	n/a	32	6	n/a	n/a	n/a
264.776300	2	cue_nonsocial_high	n/a	32	9	n/a	n/a	n/a
272.421720	2	cue_nonsocial	n/a	32	6	n/a	n/a	n/a
272.421720	2	cue_nonsocial_high	n/a	32	9	n/a	n/a	n/a
279.331730	2	cue_social	n/a	32	9	n/a	n/a	n/a
279.331730	2	cue_social_high	n/a	32	6	n/a	n/a	n/a
286.076420	2	cue_nonsocial	n/a	32	6	n/a	n/a	n/a
286.076420	2	cue_nonsocial_high	n/a	32	9	n/a	n/a	n/a
293.726070	2	cue_nonsocial	n/a	32	6	n/a	n/a	n/a
293.726070	2	cue_nonsocial_high	n/a	32	9	n/a	n/a	n/a
302.976600	2	cue_nonsocial	n/a	32	6	n/a	n/a	n/a
302.976600	2	cue_nonsocial_high	n/a	32	9	n/a	n/a	n/a
310.712370	2	cue_social	n/a	16	-7	n/a	n/a	n/a
310.712370	2	cue_social_low	n/a	16	-10	n/a	n/a	n/a
317.459500	2	cue_social	n/a	16	-7	n/a	n/a	n/a
317.459500	2	cue_social_low	n/a	16	-10	n/a	n/a	n/a
324.379180	2	cue_social	n/a	16	-7	n/a	n/a	n/a
324.379180	2	cue_social_low	n/a	16	-10	n/a	n/a	n/a
331.127380	2	cue_nonsocial	n/a	16	-10	n/a	n/a	n/a
331.127380	2	cue_nonsocial_low	n/a	16	-7	n/a	n/a	n/a
338.777620	2	cue_nonsocial	n/a	32	6	n/a	n/a	n/a
338.777620	2	cue_nonsocial_high	n/a	32	9	n/a	n/a	n/a
345.683400	2	cue_social	n/a	16	-7	n/a	n/a	n/a
345.683400	2	cue_social_low	n/a	16	-10	n/a	n/a	n/a
352.442750	2	cue_nonsocial	n/a	16	-10	n/a	n/a	n/a
352.442750	2	cue_nonsocial_low	n/a	16	-7	n/a	n/a	n/a
361.796100	2	cue_social	n/a	32	9	n/a	n/a	n/a
361.796100	2	cue_social_high	n/a	32	6	n/a	n/a	n/a
368.526150	2	cue_nonsocial	n/a	16	-10	n/a	n/a	n/a
368.526150	2	cue_nonsocial_low	n/a	16	-7	n/a	n/a	n/a
6.517130	1.682551	dec_social_choice	1.682551	16.000000	n/a	0	0	-2.291667e-01
6.517130	1.682551	dec_choice	1.682551	16.000000	n/a	0	0	-2.291667e-01
6.517130	1.682551	dec_social_reject	1.682551	16.000000	n/a	0	0	-3.935185e-02
6.517130	1.682551	dec_reject	1.682551	16.000000	n/a	0	0	-4.464286e-02
6.517130	1.682551	dec_social_reject_low	1.682551	16.000000	n/a	1	-1.666667e-01	-2.291667e-01
17.383337	1.399914	dec_nonsocial_choice	1.399914	32.000000	n/a	16	2.708333e-01	2.708333e-01
17.383337	1.399914	dec_choice	1.399914	32.000000	n/a	16	2.708333e-01	2.708333e-01
17.383337	1.399914	dec_nonsocial_accept	1.399914	32.000000	n/a	16	1.071429e-01	1.071429e-01
17.383337	1.399914	dec_accept	1.399914	32.000000	n/a	16	1.136364e-01	1.136364e-01
17.383337	1.399914	dec_nonsocial_accept_high	1.399914	32.000000	n/a	16	1.000000e-01	1.000000e-01
25.017006	1.665649	dec_social_choice	1.665649	16.000000	n/a	0	0	-2.291667e-01
25.017006	1.665649	dec_choice	1.665649	16.000000	n/a	0	0	-2.291667e-01
25.017006	1.665649	dec_social_reject	1.665649	16.000000	n/a	0	0	2.314815e-02
25.017006	1.665649	dec_reject	1.665649	16.000000	n/a	0	0	1.785714e-02
25.017006	1.665649	dec_social_low	1.665649	16.000000	n/a	0	-2.291667e-01	-2.291667e-01
25.017006	1.665649	dec_social_reject_low	1.665649	16.000000	n/a	2	-1.041667e-01	-2.291667e-01
31.850006	1.082755	dec_nonsocial_choice	1.082755	16.000000	n/a	8	2.708333e-01	2.708333e-01
31.850006	1.082755	dec_choice	1.082755	16.000000	n/a	8	2.708333e-01	2.708333e-01
31.850006	1.082755	dec_nonsocial_accept	1.082755	16.000000	n/a	8	1.071429e-01	1.071429e-01
31.850006	1.082755	dec_accept	1.082755	16.000000	n/a	8	1.136364e-01	1.136364e-01
31.850006	1.082755	dec_nonsocial_accept_high	1.082755	16.000000	n/a	8	1.000000e-01	1.000000e-01
38.683700	2.032544	dec_social_choice	2.032544	16.000000	n/a	0	0	-2.291667e-01
38.683700	2.032544	dec_choice	2.032544	16.000000	n/a	0	0	-2.291667e-01
38.683700	2.032544	dec_social_reject	2.032544	16.000000	n/a	0	0	1.481481e-01
38.683700	2.032544	dec_reject	2.032544	16.000000	n/a	0	0	1.428571e-01
38.683700	2.032544	dec_social_reject_low	2.032544	16.000000	n/a	4	2.083333e-02	-2.291667e-01
46.333050	1.416198	dec_nonsocial_choice	1.416198	32.000000	n/a	0	0	-2.291667e-01
46.333050	1.416198	dec_choice	1.416198	32.000000	n/a	0	0	-2.291667e-01
46.333050	1.416198	dec_nonsocial_reject	1.416198	32.000000	n/a	0	0	-3.935185e-02
46.333050	1.416198	dec_reject	1.416198	32.000000	n/a	0	0	-3.365385e-02
46.333050	1.416198	dec_nonsocial_reject_low	1.416198	32.000000	n/a	2	-4.464286e-02	-1.071429e-01
53.982826	1.683248	dec_nonsocial_choice	1.683248	16.000000	n/a	0	0	-2.291667e-01
53.982826	1.683248	dec_choice	1.683248	16.000000	n/a	0	0	-2.291667e-01
53.982826	1.683248	dec_nonsocial_reject	1.683248	16.000000	n/a	0	0	1.481481e-01
53.982826	1.683248	dec_reject	1.683248	16.000000	n/a	0	0	1.538462e-01
53.982826	1.683248	dec_nonsocial_low	1.683248	16.000000	n/a	0	-2.291667e-01	-2.291667e-01
53.982826	1.683248	dec_nonsocial_reject_low	1.683248	16.000000	n/a	4	1.538462e-01	-9.615385e-02
63.232980	2.099571	dec_social_choice	2.099571	16.000000	n/a	8	2.708333e-01	2.708333e-01
63.232980	2.099571	dec_choice	2.099571	16.000000	n/a	8	2.708333e-01	2.708333e-01
63.232980	2.099571	dec_social_accept	2.099571	16.000000	n/a	8	1.071429e-01	1.071429e-01
63.232980	2.099571	dec_accept	2.099571	16.000000	n/a	8	1.000000e-01	1.000000e-01
63.232980	2.099571	dec_social_high	2.099571	16.000000	n/a	8	2.708333e-01	2.708333e-01
63.232980	2.099571	dec_social_accept_high	2.099571	16.000000	n/a	8	2.708333e-01	2.708333e-01
70.883090	1.200095	dec_social_choice	1.200095	32.000000	n/a	16	2.708333e-01	2.708333e-01
70.883090	1.200095	dec_choice	1.200095	32.000000	n/a	16	2.708333e-01	2.708333e-01
70.883090	1.200095	dec_social_accept	1.200095	32.000000	n/a	16	1.071429e-01	1.071429e-01
70.883090	1.200095	dec_accept	1.200095	32.000000	n/a	16	1.000000e-01	1.000000e-01
70.883090	1.200095	dec_social_high	1.200095	32.000000	n/a	16	2.708333e-01	2.708333e-01
70.883090	1.200095	dec_social_accept_high	1.200095	32.000000	n/a	16	2.708333e-01	2.708333e-01
77.715965	1.333553	dec_nonsocial_choice	1.333553	32.000000	n/a	0	0	-2.291667e-01
77.715965	1.333553	dec_choice	1.333553	32.000000	n/a	0	0	-2.291667e-01
77.715965	1.333553	dec_nonsocial_reject	1.333553	32.000000	n/a	0	0	-8.101852e-03
77.715965	1.333553	dec_reject	1.333553	32.000000	n/a	0	0	-2.403846e-03
77.715965	1.333553	dec_nonsocial_low	1.333553	32.000000	n/a	0	-2.291667e-01	-2.291667e-01
77.715965	1.333553	dec_nonsocial_reject_low	1.333553	32.000000	n/a	3	-2.403846e-03	-9.615385e-02
86.965980	1.416990	dec_social_choice	1.416990	16.000000	n/a	0	0	-2.291667e-01
86.965980	1.416990	dec_choice	1.416990	16.000000	n/a	0	0	-2.291667e-01
86.965980	1.416990	dec_social_reject	1.416990	16.000000	n/a	0	0	-3.935185e-02
86.965980	1.416990	dec_reject	1.416990	16.000000	n/a	0	0	-4.464286e-02
86.965980	1.416990	dec_social_low	1.416990	16.000000	n/a	0	-2.291667e-01	-2.291667e-01
86.965980	1.416990	dec_social_reject_low	1.416990	16.000000	n/a	1	-1.666667e-01	-2.291667e-01
93.799060	1.216569	dec_social_choice	1.216569	32.000000	n/a	0	0	-2.291667e-01
93.799060	1.216569	dec_choice	1.216569	32.000000	n/a	0	0	-2.291667e-01
93.799060	1.216569	dec_social_reject	1.216569	32.000000	n/a	0	0	-3.935185e-02
93.799060	1.216569	dec_reject	1.216569	32.000000	n/a	0	0	-4.464286e-02
93.799060	1.216569	dec_social_low	1.216569	32.000000	n/a	0	-2.291667e-01	-2.291667e-01
93.799060	1.216569	dec_social_reject_low	1.216569	32.000000	n/a	2	-1.666667e-01	-2.291667e-01
103.065900	2.350501	dec_social_choice	2.350501	32.000000	n/a	8	2.083333e-02	2.083333e-02
103.065900	2.350501	dec_choice	2.350501	32.000000	n/a	8	2.083333e-02	2.083333e-02
103.065900	2.350501	dec_social_accept	2.350501	32.000000	n/a	8	-1.428571e-01	-1.428571e-01
103.065900	2.350501	dec_accept	2.350501	32.000000	n/a	8	-1.500000e-01	-1.500000e-01
103.065900	2.350501	dec_social_accept_high	2.350501	32.000000	n/a	8	2.083333e-02	2.083333e-02
110.716250	2.099882	dec_social_choice	2.099882	16.000000	n/a	0	0	-2.291667e-01
110.716250	2.099882	dec_choice	2.099882	16.000000	n/a	0	0	-2.291667e-01
110.716250	2.099882	dec_social_reject	2.099882	16.000000	n/a	0	0	1.481481e-01
110.716250	2.099882	dec_reject	2.099882	16.000000	n/a	0	0	1.428571e-01
110.716250	2.099882	dec_social_reject_low	2.099882	16.000000	n/a	4	2.083333e-02	-2.291667e-01
119.966030	1.649909	dec_nonsocial_choice	1.649909	32.000000	n/a	0	0	-2.291667e-01
119.966030	1.649909	dec_choice	1.649909	32.000000	n/a	0	0	-2.291667e-01
119.966030	1.649909	dec_nonsocial_reject	1.649909	32.000000	n/a	0	0	-8.101852e-03
119.966030	1.649909	dec_reject	1.649909	32.000000	n/a	0	0	-2.403846e-03
119.966030	1.649909	dec_nonsocial_reject_low	1.649909	32.000000	n/a	3	-1.339286e-02	-1.071429e-01
126.799040	1.750579	dec_nonsocial_choice	1.750579	16.000000	n/a	0	0	-2.291667e-01
126.799040	1.750579	dec_choice	1.750579	16.000000	n/a	0	0	-2.291667e-01
126.799040	1.750579	dec_nonsocial_reject	1.750579	16.000000	n/a	0	0	2.314815e-02
126.799040	1.750579	dec_reject	1.750579	16.000000	n/a	0	0	2.884615e-02
126.799040	1.750579	dec_nonsocial_reject_low	1.750579	16.000000	n/a	2	1.785714e-02	-1.071429e-01
137.666520	1.449946	dec_social_choice	1.449946	16.000000	n/a	8	2.708333e-01	2.708333e-01
137.666520	1.449946	dec_choice	1.449946	16.000000	n/a	8	2.708333e-01	2.708333e-01
137.666520	1.449946	dec_social_accept	1.449946	16.000000	n/a	8	1.071429e-01	1.071429e-01
137.666520	1.449946	dec_accept	1.449946	16.000000	n/a	8	1.000000e-01	1.000000e-01
137.666520	1.449946	dec_social_accept_high	1.449946	16.000000	n/a	8	2.708333e-01	2.708333e-01
144.498800	1.400767	dec_nonsocial_choice	1.400767	16.000000	n/a	0	0	-2.291667e-01
144.498800	1.400767	dec_choice	1.400767	16.000000	n/a	0	0	-2.291667e-01
144.498800	1.400767	dec_nonsocial_reject	1.400767	16.000000	n/a	0	0	-3.935185e-02
144.498800	1.400767	dec_reject	1.400767	16.000000	n/a	0	0	-3.365385e-02
144.498800	1.400767	dec_nonsocial_low	1.400767	16.000000	n/a	0	-2.291667e-01	-2.291667e-01
144.498800	1.400767	dec_nonsocial_reject_low	1.400767	16.000000	n/a	1	-3.365385e-02	-9.615385e-02
151.333020	2.083159	dec_nonsocial_choice	2.083159	32.000000	n/a	8	2.083333e-02	2.083333e-02
151.333020	2.083159	dec_choice	2.083159	32.000000	n/a	8	2.083333e-02	2.083333e-02
151.333020	2.083159	dec_nonsocial_accept	2.083159	32.000000	n/a	8	-1.428571e-01	-1.428571e-01
151.333020	2.083159	dec_accept	2.083159	32.000000	n/a	8	-1.363636e-01	-1.363636e-01
151.333020	2.083159	dec_nonsocial_high	2.083159	32.000000	n/a	8	2.083333e-02	2.083333e-02
151.333020	2.083159	dec_nonsocial_accept_high	2.083159	32.000000	n/a	8	-1.363636e-01	-1.363636e-01
163.815700	1.083575	dec_nonsocial_choice	1.083575	16.000000	n/a	8	2.708333e-01	2.708333e-01
163.815700	1.083575	dec_choice	1.083575	16.000000	n/a	8	2.708333e-01	2.708333e-01
163.815700	1.083575	dec_nonsocial_accept	1.083575	16.000000	n/a	8	1.071429e-01	1.071429e-01
163.815700	1.083575	dec_accept	1.083575	16.000000	n/a	8	1.136364e-01	1.136364e-01
163.815700	1.083575	dec_nonsocial_accept_high	1.083575	16.000000	n/a	8	1.000000e-01	1.000000e-01
170.649660	1.615618	dec_nonsocial_choice	1.615618	32.000000	n/a	16	2.708333e-01	2.708333e-01
170.649660	1.615618	dec_choice	1.615618	32.000000	n/a	16	2.708333e-01	2.708333e-01
170.649660	1.615618	dec_nonsocial_accept	1.615618	32.000000	n/a	16	1.071429e-01	1.071429e-01
170.649660	1.615618	dec_accept	1.615618	32.000000	n/a	16	1.136364e-01	1.136364e-01
170.649660	1.615618	dec_nonsocial_accept_high	1.615618	32.000000	n/a	16	1.000000e-01	1.000000e-01
178.299010	1.666662	dec_nonsocial_choice	1.666662	32.000000	n/a	0	0	-2.291667e-01
178.299010	1.666662	dec_choice	1.666662	32.000000	n/a	0	0	-2.291667e-01
178.299010	1.666662	dec_nonsocial_reject	1.666662	32.000000	n/a	0	0	-8.101852e-03
178.299010	1.666662	dec_reject	1.666662	32.000000	n/a	0	0	-2.403846e-03
178.299010	1.666662	dec_nonsocial_low	1.666662	32.000000	n/a	0	-2.291667e-01	-2.291667e-01
178.299010	1.666662	dec_nonsocial_reject_low	1.666662	32.000000	n/a	3	-2.403846e-03	-9.615385e-02
189.166050	1.966182	dec_nonsocial_choice	1.966182	32.000000	n/a	8	2.083333e-02	2.083333e-02
189.166050	1.966182	dec_choice	1.966182	32.000000	n/a	8	2.083333e-02	2.083333e-02
189.166050	1.966182	dec_nonsocial_accept	1.966182	32.000000	n/a	8	-1.428571e-01	-1.428571e-01
189.166050	1.966182	dec_accept	1.966182	32.000000	n/a	8	-1.363636e-01	-1.363636e-01
189.166050	1.966182	dec_nonsocial_accept_high	1.966182	32.000000	n/a	8	-1.500000e-01	-1.500000e-01
195.999970	0.915404	dec_social_choice	0.915404	16.000000	n/a	8	2.708333e-01	2.708333e-01
195.999970	0.915404	dec_choice	0.915404	16.000000	n/a	8	2.708333e-01	2.708333e-01
195.999970	0.915404	dec_social_accept	0.915404	16.000000	n/a	8	1.071429e-01	1.071429e-01
195.999970	0.915404	dec_accept	0.915404	16.000000	n/a	8	1.000000e-01	1.000000e-01
195.999970	0.915404	dec_social_accept_high	0.915404	16.000000	n/a	8	2.708333e-01	2.708333e-01
202.832580	1.966107	dec_social_choice	1.966107	16.000000	n/a	0	0	-2.291667e-01
202.832580	1.966107	dec_choice	1.966107	16.000000	n/a	0	0	-2.291667e-01
202.832580	1.966107	dec_social_reject	1.966107	16.000000	n/a	0	0	2.314815e-02
202.832580	1.966107	dec_reject	1.966107	16.000000	n/a	0	0	1.785714e-02
202.832580	1.966107	dec_social_low	1.966107	16.000000	n/a	0	-2.291667e-01	-2.291667e-01
202.832580	1.966107	dec_social_reject_low	1.966107	16.000000	n/a	2	-1.041667e-01	-2.291667e-01
210.482070	0.966890	dec_social_choice	0.966890	32.000000	n/a	16	2.708333e-01	2.708333e-01
210.482070	0.966890	dec_choice	0.966890	32.000000	n/a	16	2.708333e-01	2.708333e-01
210.482070	0.966890	dec_social_accept	0.966890	32.000000	n/a	16	1.071429e-01	1.071429e-01
210.482070	0.966890	dec_accept	0.966890	32.000000	n/a	16	1.000000e-01	1.000000e-01
210.482070	0.966890	dec_social_accept_high	0.966890	32.000000	n/a	16	2.708333e-01	2.708333e-01
217.315160	1.617297	dec_social_choice	1.617297	32.000000	n/a	0	0	-2.291667e-01
217.315160	1.617297	dec_choice	1.617297	32.000000	n/a	0	0	-2.291667e-01
217.315160	1.617297	dec_social_reject	1.617297	32.000000	n/a	0	0	-8.101852e-03
217.315160	1.617297	dec_reject	1.617297	32.000000	n/a	0	0	-1.339286e-02
217.315160	1.617297	dec_social_reject_low	1.617297	32.000000	n/a	3	-1.354167e-01	-2.291667e-01
224.148970	1.983724	dec_nonsocial_choice	1.983724	16.000000	n/a	4	2.083333e-02	2.083333e-02
224.148970	1.983724	dec_choice	1.983724	16.000000	n/a	4	2.083333e-02	2.083333e-02
224.148970	1.983724	dec_nonsocial_accept	1.983724	16.000000	n/a	4	-1.428571e-01	-1.428571e-01
224.148970	1.983724	dec_accept	1.983724	16.000000	n/a	4	-1.363636e-01	-1.363636e-01
224.148970	1.983724	dec_nonsocial_high	1.983724	16.000000	n/a	4	2.083333e-02	2.083333e-02
224.148970	1.983724	dec_nonsocial_accept_high	1.983724	16.000000	n/a	4	-1.363636e-01	-1.363636e-01
230.982990	1.199526	dec_social_choice	1.199526	32.000000	n/a	0	0	-2.291667e-01
230.982990	1.199526	dec_choice	1.199526	32.000000	n/a	0	0	-2.291667e-01
230.982990	1.199526	dec_social_reject	1.199526	32.000000	n/a	0	0	-3.935185e-02
230.982990	1.199526	dec_reject	1.199526	32.000000	n/a	0	0	-4.464286e-02
230.982990	1.199526	dec_social_reject_low	1.199526	32.000000	n/a	2	-1.666667e-01	-2.291667e-01
238.632870	1.565850	dec_nonsocial_choice	1.565850	32.000000	n/a	8	2.083333e-02	2.083333e-02
238.632870	1.565850	dec_choice	1.565850	32.000000	n/a	8	2.083333e-02	2.083333e-02
238.632870	1.565850	dec_nonsocial_accept	1.565850	32.000000	n/a	8	-1.428571e-01	-1.428571e-01
238.632870	1.565850	dec_accept	1.565850	32.000000	n/a	8	-1.363636e-01	-1.363636e-01
238.632870	1.565850	dec_nonsocial_high	1.565850	32.000000	n/a	8	2.083333e-02	2.083333e-02
238.632870	1.565850	dec_nonsocial_accept_high	1.565850	32.000000	n/a	8	-1.363636e-01	-1.363636e-01
245.464900	1.266987	dec_social_choice	1.266987	32.000000	n/a	0	0	-2.291667e-01
245.464900	1.266987	dec_choice	1.266987	32.000000	n/a	0	0	-2.291667e-01
245.464900	1.266987	dec_social_reject	1.266987	32.000000	n/a	0	0	-8.101852e-03
245.464900	1.266987	dec_reject	1.266987	32.000000	n/a	0	0	-1.339286e-02
245.464900	1.266987	dec_social_reject_low	1.266987	32.000000	n/a	3	-1.354167e-01	-2.291667e-01
252.298950	1.483614	dec_social_choice	1.483614	32.000000	n/a	0	0	-2.291667e-01
252.298950	1.483614	dec_choice	1.483614	32.000000	n/a	0	0	-2.291667e-01
252.298950	1.483614	dec_social_reject	1.483614	32.000000	n/a	0	0	-3.935185e-02
252.298950	1.483614	dec_reject	1.483614	32.000000	n/a	0	0	-4.464286e-02
252.298950	1.483614	dec_social_reject_low	1.483614	32.000000	n/a	2	-1.666667e-01	-2.291667e-01
259.131960	1.250616	dec_social_choice	1.250616	16.000000	n/a	0	0	-2.291667e-01
259.131960	1.250616	dec_choice	1.250616	16.000000	n/a	0	0	-2.291667e-01
259.131960	1.250616	dec_social_reject	1.250616	16.000000	n/a	0	0	-3.935185e-02
259.131960	1.250616	dec_reject	1.250616	16.000000	n/a	0	0	-4.464286e-02
259.131960	1.250616	dec_social_reject_low	1.250616	16.000000	n/a	1	-1.666667e-01	-2.291667e-01
266.781830	1.300302	dec_nonsocial_choice	1.300302	32.000000	n/a	8	2.083333e-02	2.083333e-02
266.781830	1.300302	dec_choice	1.300302	32.000000	n/a	8	2.083333e-02	2.083333e-02
266.781830	1.300302	dec_nonsocial_accept	1.300302	32.000000	n/a	8	-1.428571e-01	-1.428571e-01
266.781830	1.300302	dec_accept	1.300302	32.000000	n/a	8	-1.363636e-01	-1.363636e-01
266.781830	1.300302	dec_nonsocial_high	1.300302	32.000000	n/a	8	2.083333e-02	2.083333e-02
266.781830	1.300302	dec_nonsocial_accept_high	1.300302	32.000000	n/a	8	-1.363636e-01	-1.363636e-01
274.416200	1.332780	dec_nonsocial_choice	1.332780	32.000000	n/a	16	2.708333e-01	2.708333e-01
274.416200	1.332780	dec_choice	1.332780	32.000000	n/a	16	2.708333e-01	2.708333e-01
274.416200	1.332780	dec_nonsocial_accept	1.332780	32.000000	n/a	16	1.071429e-01	1.071429e-01
274.416200	1.332780	dec_accept	1.332780	32.000000	n/a	16	1.136364e-01	1.136364e-01
274.416200	1.332780	dec_nonsocial_accept_high	1.332780	32.000000	n/a	16	1.000000e-01	1.000000e-01
281.248870	1.150294	dec_social_choice	1.150294	32.000000	n/a	0	0	-2.291667e-01
281.248870	1.150294	dec_choice	1.150294	32.000000	n/a	0	0	-2.291667e-01
281.248870	1.150294	dec_social_reject	1.150294	32.000000	n/a	0	0	-8.101852e-03
281.248870	1.150294	dec_reject	1.150294	32.000000	n/a	0	0	-1.339286e-02
281.248870	1.150294	dec_social_low	1.150294	32.000000	n/a	0	-2.291667e-01	-2.291667e-01
281.248870	1.150294	dec_social_reject_low	1.150294	32.000000	n/a	3	-1.354167e-01	-2.291667e-01
288.083130	1.416171	dec_nonsocial_choice	1.416171	32.000000	n/a	0	0	-2.291667e-01
288.083130	1.416171	dec_choice	1.416171	32.000000	n/a	0	0	-2.291667e-01
288.083130	1.416171	dec_nonsocial_reject	1.416171	32.000000	n/a	0	0	-3.935185e-02
288.083130	1.416171	dec_reject	1.416171	32.000000	n/a	0	0	-3.365385e-02
288.083130	1.416171	dec_nonsocial_reject_low	1.416171	32.000000	n/a	2	-4.464286e-02	-1.071429e-01
295.732570	1.584221	dec_nonsocial_choice	1.584221	32.000000	n/a	16	2.708333e-01	2.708333e-01
295.732570	1.584221	dec_choice	1.584221	32.000000	n/a	16	2.708333e-01	2.708333e-01
295.732570	1.584221	dec_nonsocial_accept	1.584221	32.000000	n/a	16	1.071429e-01	1.071429e-01
295.732570	1.584221	dec_accept	1.584221	32.000000	n/a	16	1.136364e-01	1.136364e-01
295.732570	1.584221	dec_nonsocial_high	1.584221	32.000000	n/a	16	2.708333e-01	2.708333e-01
295.732570	1.584221	dec_nonsocial_accept_high	1.584221	32.000000	n/a	16	1.136364e-01	1.136364e-01
304.982940	1.532433	dec_nonsocial_choice	1.532433	32.000000	n/a	0	0	-2.291667e-01
304.982940	1.532433	dec_choice	1.532433	32.000000	n/a	0	0	-2.291667e-01
304.982940	1.532433	dec_nonsocial_reject	1.532433	32.000000	n/a	0	0	-3.935185e-02
304.982940	1.532433	dec_reject	1.532433	32.000000	n/a	0	0	-3.365385e-02
304.982940	1.532433	dec_nonsocial_low	1.532433	32.000000	n/a	0	-2.291667e-01	-2.291667e-01
304.982940	1.532433	dec_nonsocial_reject_low	1.532433	32.000000	n/a	2	-3.365385e-02	-9.615385e-02
312.631100	1.268028	dec_social_choice	1.268028	16.000000	n/a	4	2.083333e-02	2.083333e-02
312.631100	1.268028	dec_choice	1.268028	16.000000	n/a	4	2.083333e-02	2.083333e-02
312.631100	1.268028	dec_social_accept	1.268028	16.000000	n/a	4	-1.428571e-01	-1.428571e-01
312.631100	1.268028	dec_accept	1.268028	16.000000	n/a	4	-1.500000e-01	-1.500000e-01
312.631100	1.268028	dec_social_accept_high	1.268028	16.000000	n/a	4	2.083333e-02	2.083333e-02
319.464870	1.084193	dec_social_choice	1.084193	16.000000	n/a	8	2.708333e-01	2.708333e-01
319.464870	1.084193	dec_choice	1.084193	16.000000	n/a	8	2.708333e-01	2.708333e-01
319.464870	1.084193	dec_social_accept	1.084193	16.000000	n/a	8	1.071429e-01	1.071429e-01
319.464870	1.084193	dec_accept	1.084193	16.000000	n/a	8	1.000000e-01	1.000000e-01
319.464870	1.084193	dec_social_accept_high	1.084193	16.000000	n/a	8	2.708333e-01	2.708333e-01
326.298220	1.250950	dec_social_choice	1.250950	16.000000	n/a	4	2.083333e-02	2.083333e-02
326.298220	1.250950	dec_choice	1.250950	16.000000	n/a	4	2.083333e-02	2.083333e-02
326.298220	1.250950	dec_social_accept	1.250950	16.000000	n/a	4	-1.428571e-01	-1.428571e-01
326.298220	1.250950	dec_accept	1.250950	16.000000	n/a	4	-1.500000e-01	-1.500000e-01
326.298220	1.250950	dec_social_high	1.250950	16.000000	n/a	4	2.083333e-02	2.083333e-02
326.298220	1.250950	dec_social_accept_high	1.250950	16.000000	n/a	4	2.083333e-02	2.083333e-02
333.132420	2.183057	dec_nonsocial_choice	2.183057	16.000000	n/a	0	0	-2.291667e-01
333.132420	2.183057	dec_choice	2.183057	16.000000	n/a	0	0	-2.291667e-01
333.132420	2.183057	dec_nonsocial_reject	2.183057	16.000000	n/a	0	0	-3.935185e-02
333.132420	2.183057	dec_reject	2.183057	16.000000	n/a	0	0	-3.365385e-02
333.132420	2.183057	dec_nonsocial_low	2.183057	16.000000	n/a	0	-2.291667e-01	-2.291667e-01
333.132420	2.183057	dec_nonsocial_reject_low	2.183057	16.000000	n/a	1	-3.365385e-02	-9.615385e-02
340.781830	1.533479	dec_nonsocial_choice	1.533479	32.000000	n/a	0	0	-2.291667e-01
340.781830	1.533479	dec_choice	1.533479	32.000000	n/a	0	0	-2.291667e-01
340.781830	1.533479	dec_nonsocial_reject	1.533479	32.000000	n/a	0	0	-8.101852e-03
340.781830	1.533479	dec_reject	1.533479	32.000000	n/a	0	0	-2.403846e-03
340.781830	1.533479	dec_nonsocial_low	1.533479	32.000000	n/a	0	-2.291667e-01	-2.291667e-01
340.781830	1.533479	dec_nonsocial_reject_low	1.533479	32.000000	n/a	3	-2.403846e-03	-9.615385e-02
347.615100	1.400752	dec_social_choice	1.400752	16.000000	n/a	4	2.083333e-02	2.083333e-02
347.615100	1.400752	dec_choice	1.400752	16.000000	n/a	4	2.083333e-02	2.083333e-02
347.615100	1.400752	dec_social_accept	1.400752	16.000000	n/a	4	-1.428571e-01	-1.428571e-01
347.615100	1.400752	dec_accept	1.400752	16.000000	n/a	4	-1.500000e-01	-1.500000e-01
347.615100	1.400752	dec_social_accept_high	1.400752	16.000000	n/a	4	2.083333e-02	2.083333e-02
354.448820	1.333010	dec_nonsocial_choice	1.333010	16.000000	n/a	0	0	-2.291667e-01
354.448820	1.333010	dec_choice	1.333010	16.000000	n/a	0	0	-2.291667e-01
354.448820	1.333010	dec_nonsocial_reject	1.333010	16.000000	n/a	0	0	-3.935185e-02
354.448820	1.333010	dec_reject	1.333010	16.000000	n/a	0	0	-3.365385e-02
354.448820	1.333010	dec_nonsocial_low	1.333010	16.000000	n/a	0	-2.291667e-01	-2.291667e-01
354.448820	1.333010	dec_nonsocial_reject_low	1.333010	16.000000	n/a	1	-3.365385e-02	-9.615385e-02
363.699460	2.032798	dec_social_choice	2.032798	32.000000	n/a	0	0	-2.291667e-01
363.699460	2.032798	dec_choice	2.032798	32.000000	n/a	0	0	-2.291667e-01
363.699460	2.032798	dec_social_reject	2.032798	32.000000	n/a	0	0	-8.101852e-03
363.699460	2.032798	dec_reject	2.032798	32.000000	n/a	0	0	-1.339286e-02
363.699460	2.032798	dec_social_reject_low	2.032798	32.000000	n/a	3	-1.354167e-01	-2.291667e-01
370.531430	1.766584	dec_nonsocial_choice	1.766584	16.000000	n/a	0	0	-2.291667e-01
370.531430	1.766584	dec_choice	1.766584	16.000000	n/a	0	0	-2.291667e-01
370.531430	1.766584	dec_nonsocial_reject	1.766584	16.000000	n/a	0	0	2.314815e-02
370.531430	1.766584	dec_reject	1.766584	16.000000	n/a	0	0	2.884615e-02
370.531430	1.766584	dec_nonsocial_low	1.766584	16.000000	n/a	0	-2.291667e-01	-2.291667e-01
370.531430	1.766584	dec_nonsocial_reject_low	1.766584	16.000000	n/a	2	2.884615e-02	-9.615385e-02
