onset	duration	trial_type	response_time	Endowment	Endowment_pmod	Decision	Decision_pmod	Offer_pmod
4.516122	2	cue_nonsocial	n/a	16	-7	n/a	n/a	n/a
4.516122	2	cue_nonsocial_low	n/a	16	-7	n/a	n/a	n/a
12.166263	2	cue_nonsocial	n/a	16	-7	n/a	n/a	n/a
12.166263	2	cue_nonsocial_low	n/a	16	-7	n/a	n/a	n/a
18.999512	2	cue_nonsocial	n/a	16	-7	n/a	n/a	n/a
18.999512	2	cue_nonsocial_low	n/a	16	-7	n/a	n/a	n/a
25.832676	2	cue_nonsocial	n/a	32	9	n/a	n/a	n/a
25.832676	2	cue_nonsocial_high	n/a	32	9	n/a	n/a	n/a
33.509586	2	cue_social	n/a	16	-7	n/a	n/a	n/a
33.509586	2	cue_social_low	n/a	16	-7	n/a	n/a	n/a
40.316050	2	cue_nonsocial	n/a	16	-7	n/a	n/a	n/a
40.316050	2	cue_nonsocial_low	n/a	16	-7	n/a	n/a	n/a
48.034054	2	cue_social	n/a	32	9	n/a	n/a	n/a
48.034054	2	cue_social_high	n/a	32	9	n/a	n/a	n/a
57.304615	2	cue_social	n/a	16	-7	n/a	n/a	n/a
57.304615	2	cue_social_low	n/a	16	-7	n/a	n/a	n/a
66.553986	2	cue_social	n/a	32	9	n/a	n/a	n/a
66.553986	2	cue_social_high	n/a	32	9	n/a	n/a	n/a
74.204690	2	cue_social	n/a	16	-7	n/a	n/a	n/a
74.204690	2	cue_social_low	n/a	16	-7	n/a	n/a	n/a
81.782810	2	cue_nonsocial	n/a	16	-7	n/a	n/a	n/a
81.782810	2	cue_nonsocial_low	n/a	16	-7	n/a	n/a	n/a
91.111320	2	cue_social	n/a	32	9	n/a	n/a	n/a
91.111320	2	cue_social_high	n/a	32	9	n/a	n/a	n/a
103.599990	2	cue_social	n/a	32	9	n/a	n/a	n/a
103.599990	2	cue_social_high	n/a	32	9	n/a	n/a	n/a
110.349270	2	cue_nonsocial	n/a	32	9	n/a	n/a	n/a
110.349270	2	cue_nonsocial_high	n/a	32	9	n/a	n/a	n/a
117.999290	2	cue_nonsocial	n/a	32	9	n/a	n/a	n/a
117.999290	2	cue_nonsocial_high	n/a	32	9	n/a	n/a	n/a
128.866010	2	cue_nonsocial	n/a	32	9	n/a	n/a	n/a
128.866010	2	cue_nonsocial_high	n/a	32	9	n/a	n/a	n/a
135.776720	2	cue_social	n/a	16	-7	n/a	n/a	n/a
135.776720	2	cue_social_low	n/a	16	-7	n/a	n/a	n/a
146.646360	2	cue_social	n/a	16	-7	n/a	n/a	n/a
146.646360	2	cue_social_low	n/a	16	-7	n/a	n/a	n/a
154.199100	2	cue_nonsocial	n/a	16	-7	n/a	n/a	n/a
154.199100	2	cue_nonsocial_low	n/a	16	-7	n/a	n/a	n/a
161.096160	2	cue_social	n/a	16	-7	n/a	n/a	n/a
161.096160	2	cue_social_low	n/a	16	-7	n/a	n/a	n/a
167.865720	2	cue_nonsocial	n/a	32	9	n/a	n/a	n/a
167.865720	2	cue_nonsocial_high	n/a	32	9	n/a	n/a	n/a
174.783500	2	cue_social	n/a	16	-7	n/a	n/a	n/a
174.783500	2	cue_social_low	n/a	16	-7	n/a	n/a	n/a
181.656080	2	cue_social	n/a	16	-7	n/a	n/a	n/a
181.656080	2	cue_social_low	n/a	16	-7	n/a	n/a	n/a
189.296360	2	cue_social	n/a	16	-7	n/a	n/a	n/a
189.296360	2	cue_social_low	n/a	16	-7	n/a	n/a	n/a
196.032760	2	cue_nonsocial	n/a	16	-7	n/a	n/a	n/a
196.032760	2	cue_nonsocial_low	n/a	16	-7	n/a	n/a	n/a
202.865700	2	cue_nonsocial	n/a	16	-7	n/a	n/a	n/a
202.865700	2	cue_nonsocial_low	n/a	16	-7	n/a	n/a	n/a
213.807940	2	cue_social	n/a	32	9	n/a	n/a	n/a
213.807940	2	cue_social_high	n/a	32	9	n/a	n/a	n/a
221.443590	2	cue_social	n/a	16	-7	n/a	n/a	n/a
221.443590	2	cue_social_low	n/a	16	-7	n/a	n/a	n/a
228.215910	2	cue_nonsocial	n/a	32	9	n/a	n/a	n/a
228.215910	2	cue_nonsocial_high	n/a	32	9	n/a	n/a	n/a
235.120470	2	cue_social	n/a	32	9	n/a	n/a	n/a
235.120470	2	cue_social_high	n/a	32	9	n/a	n/a	n/a
244.298830	2	cue_nonsocial	n/a	16	-7	n/a	n/a	n/a
244.298830	2	cue_nonsocial_low	n/a	16	-7	n/a	n/a	n/a
251.132370	2	cue_nonsocial	n/a	32	9	n/a	n/a	n/a
251.132370	2	cue_nonsocial_high	n/a	32	9	n/a	n/a	n/a
257.965670	2	cue_nonsocial	n/a	16	-7	n/a	n/a	n/a
257.965670	2	cue_nonsocial_low	n/a	16	-7	n/a	n/a	n/a
264.869800	2	cue_social	n/a	16	-7	n/a	n/a	n/a
264.869800	2	cue_social_low	n/a	16	-7	n/a	n/a	n/a
272.448880	2	cue_nonsocial	n/a	16	-7	n/a	n/a	n/a
272.448880	2	cue_nonsocial_low	n/a	16	-7	n/a	n/a	n/a
280.142270	2	cue_social	n/a	32	9	n/a	n/a	n/a
280.142270	2	cue_social_high	n/a	32	9	n/a	n/a	n/a
286.932300	2	cue_nonsocial	n/a	32	9	n/a	n/a	n/a
286.932300	2	cue_nonsocial_high	n/a	32	9	n/a	n/a	n/a
296.198880	2	cue_nonsocial	n/a	16	-7	n/a	n/a	n/a
296.198880	2	cue_nonsocial_low	n/a	16	-7	n/a	n/a	n/a
303.089540	2	cue_social	n/a	16	-7	n/a	n/a	n/a
303.089540	2	cue_social_low	n/a	16	-7	n/a	n/a	n/a
310.755680	2	cue_social	n/a	16	-7	n/a	n/a	n/a
310.755680	2	cue_social_low	n/a	16	-7	n/a	n/a	n/a
317.572360	2	cue_social	n/a	32	9	n/a	n/a	n/a
317.572360	2	cue_social_high	n/a	32	9	n/a	n/a	n/a
326.781950	2	cue_nonsocial	n/a	32	9	n/a	n/a	n/a
326.781950	2	cue_nonsocial_high	n/a	32	9	n/a	n/a	n/a
333.671230	2	cue_social	n/a	32	9	n/a	n/a	n/a
333.671230	2	cue_social_high	n/a	32	9	n/a	n/a	n/a
340.448700	2	cue_nonsocial	n/a	16	-7	n/a	n/a	n/a
340.448700	2	cue_nonsocial_low	n/a	16	-7	n/a	n/a	n/a
349.790300	2	cue_social	n/a	32	9	n/a	n/a	n/a
349.790300	2	cue_social_high	n/a	32	9	n/a	n/a	n/a
356.548700	2	cue_nonsocial	n/a	16	-7	n/a	n/a	n/a
356.548700	2	cue_nonsocial_low	n/a	16	-7	n/a	n/a	n/a
363.457600	2	cue_social	n/a	32	9	n/a	n/a	n/a
363.457600	2	cue_social_high	n/a	32	9	n/a	n/a	n/a
371.032040	2	cue_nonsocial	n/a	32	9	n/a	n/a	n/a
371.032040	2	cue_nonsocial_high	n/a	32	9	n/a	n/a	n/a
6.524084	0.999060	dec_nonsocial_choice	0.999060	16.000000	n/a	1	-1.604167e-01	-1.604167e-01
6.524084	0.999060	dec_choice	0.999060	16.000000	n/a	1	-1.488095e-01	-1.488095e-01
6.524084	0.999060	dec_nonsocial_accept	0.999060	16.000000	n/a	1	-1.541193e-01	-1.541193e-01
6.524084	0.999060	dec_accept	0.999060	16.000000	n/a	1	-1.488095e-01	-1.488095e-01
6.524084	0.999060	dec_nonsocial_low	0.999060	16.000000	n/a	1	-1.488095e-01	-1.488095e-01
6.524084	0.999060	dec_nonsocial_accept_low	0.999060	16.000000	n/a	1	-1.488095e-01	-1.488095e-01
14.173039	0.950436	dec_nonsocial_choice	0.950436	16.000000	n/a	4	2.708333e-02	2.708333e-02
14.173039	0.950436	dec_choice	0.950436	16.000000	n/a	4	3.869048e-02	3.869048e-02
14.173039	0.950436	dec_nonsocial_accept	0.950436	16.000000	n/a	4	3.338068e-02	3.338068e-02
14.173039	0.950436	dec_accept	0.950436	16.000000	n/a	4	3.869048e-02	3.869048e-02
14.173039	0.950436	dec_nonsocial_accept_high	0.950436	16.000000	n/a	4	2.853261e-02	2.853261e-02
21.007048	0.732994	dec_nonsocial_choice	0.732994	16.000000	n/a	2	-9.791667e-02	-9.791667e-02
21.007048	0.732994	dec_choice	0.732994	16.000000	n/a	2	-8.630952e-02	-8.630952e-02
21.007048	0.732994	dec_nonsocial_accept	0.732994	16.000000	n/a	2	-9.161932e-02	-9.161932e-02
21.007048	0.732994	dec_accept	0.732994	16.000000	n/a	2	-8.630952e-02	-8.630952e-02
21.007048	0.732994	dec_nonsocial_low	0.732994	16.000000	n/a	2	-8.630952e-02	-8.630952e-02
21.007048	0.732994	dec_nonsocial_accept_low	0.732994	16.000000	n/a	2	-8.630952e-02	-8.630952e-02
27.840445	1.316267	dec_nonsocial_choice	1.316267	32.000000	n/a	16	2.770833e-01	2.770833e-01
27.840445	1.316267	dec_choice	1.316267	32.000000	n/a	16	2.886905e-01	2.886905e-01
27.840445	1.316267	dec_nonsocial_accept	1.316267	32.000000	n/a	16	2.833807e-01	2.833807e-01
27.840445	1.316267	dec_accept	1.316267	32.000000	n/a	16	2.886905e-01	2.886905e-01
27.840445	1.316267	dec_nonsocial_high	1.316267	32.000000	n/a	16	2.886905e-01	2.886905e-01
27.840445	1.316267	dec_nonsocial_accept_high	1.316267	32.000000	n/a	16	2.886905e-01	2.886905e-01
35.488940	1.001084	dec_social_choice	1.001084	16.000000	n/a	8	2.770833e-01	2.770833e-01
35.488940	1.001084	dec_choice	1.001084	16.000000	n/a	8	2.669271e-01	2.669271e-01
35.488940	1.001084	dec_social_accept	1.001084	16.000000	n/a	8	2.833807e-01	2.833807e-01
35.488940	1.001084	dec_accept	1.001084	16.000000	n/a	8	2.785326e-01	2.785326e-01
35.488940	1.001084	dec_social_accept_high	1.001084	16.000000	n/a	8	2.669271e-01	2.669271e-01
42.324055	0.832859	dec_nonsocial_choice	0.832859	16.000000	n/a	4	2.708333e-02	2.708333e-02
42.324055	0.832859	dec_choice	0.832859	16.000000	n/a	4	3.869048e-02	3.869048e-02
42.324055	0.832859	dec_nonsocial_accept	0.832859	16.000000	n/a	4	3.338068e-02	3.338068e-02
42.324055	0.832859	dec_accept	0.832859	16.000000	n/a	4	3.869048e-02	3.869048e-02
42.324055	0.832859	dec_nonsocial_accept_high	0.832859	16.000000	n/a	4	2.853261e-02	2.853261e-02
49.973038	1.216242	dec_social_choice	1.216242	32.000000	n/a	2	-1.604167e-01	-1.604167e-01
49.973038	1.216242	dec_choice	1.216242	32.000000	n/a	2	-1.705729e-01	-1.705729e-01
49.973038	1.216242	dec_social_accept	1.216242	32.000000	n/a	2	-1.541193e-01	-1.541193e-01
49.973038	1.216242	dec_accept	1.216242	32.000000	n/a	2	-1.589674e-01	-1.589674e-01
49.973038	1.216242	dec_social_low	1.216242	32.000000	n/a	2	-1.705729e-01	-1.705729e-01
49.973038	1.216242	dec_social_accept_low	1.216242	32.000000	n/a	2	-1.705729e-01	-1.705729e-01
59.224080	1.182899	dec_social_choice	1.182899	16.000000	n/a	2	-9.791667e-02	-9.791667e-02
59.224080	1.182899	dec_choice	1.182899	16.000000	n/a	2	-1.080729e-01	-1.080729e-01
59.224080	1.182899	dec_social_accept	1.182899	16.000000	n/a	2	-9.161932e-02	-9.161932e-02
59.224080	1.182899	dec_accept	1.182899	16.000000	n/a	2	-9.646739e-02	-9.646739e-02
59.224080	1.182899	dec_social_accept_low	1.182899	16.000000	n/a	2	-1.080729e-01	-1.080729e-01
68.489140	0.967364	dec_social_choice	0.967364	32.000000	n/a	8	2.708333e-02	2.708333e-02
68.489140	0.967364	dec_choice	0.967364	32.000000	n/a	8	1.692708e-02	1.692708e-02
68.489140	0.967364	dec_social_accept	0.967364	32.000000	n/a	8	3.338068e-02	3.338068e-02
68.489140	0.967364	dec_accept	0.967364	32.000000	n/a	8	2.853261e-02	2.853261e-02
68.489140	0.967364	dec_social_high	0.967364	32.000000	n/a	8	1.692708e-02	1.692708e-02
68.489140	0.967364	dec_social_accept_high	0.967364	32.000000	n/a	8	1.692708e-02	1.692708e-02
76.139260	1.200702	dec_social_choice	1.200702	16.000000	n/a	1	-1.604167e-01	-1.604167e-01
76.139260	1.200702	dec_choice	1.200702	16.000000	n/a	1	-1.705729e-01	-1.705729e-01
76.139260	1.200702	dec_social_accept	1.200702	16.000000	n/a	1	-1.541193e-01	-1.541193e-01
76.139260	1.200702	dec_accept	1.200702	16.000000	n/a	1	-1.589674e-01	-1.589674e-01
76.139260	1.200702	dec_social_accept_low	1.200702	16.000000	n/a	1	-1.705729e-01	-1.705729e-01
83.789030	1.184805	dec_nonsocial_choice	1.184805	16.000000	n/a	1	-1.604167e-01	-1.604167e-01
83.789030	1.184805	dec_choice	1.184805	16.000000	n/a	1	-1.488095e-01	-1.488095e-01
83.789030	1.184805	dec_nonsocial_accept	1.184805	16.000000	n/a	1	-1.541193e-01	-1.541193e-01
83.789030	1.184805	dec_accept	1.184805	16.000000	n/a	1	-1.488095e-01	-1.488095e-01
83.789030	1.184805	dec_nonsocial_accept_low	1.184805	16.000000	n/a	1	-1.589674e-01	-1.589674e-01
93.039040	1.517458	dec_social_choice	1.517458	32.000000	n/a	3	-1.291667e-01	-1.291667e-01
93.039040	1.517458	dec_choice	1.517458	32.000000	n/a	3	-1.393229e-01	-1.393229e-01
93.039040	1.517458	dec_social_accept	1.517458	32.000000	n/a	3	-1.228693e-01	-1.228693e-01
93.039040	1.517458	dec_accept	1.517458	32.000000	n/a	3	-1.277174e-01	-1.277174e-01
93.039040	1.517458	dec_social_low	1.517458	32.000000	n/a	3	-1.393229e-01	-1.393229e-01
93.039040	1.517458	dec_social_accept_low	1.517458	32.000000	n/a	3	-1.393229e-01	-1.393229e-01
105.523040	0.967088	dec_social_choice	0.967088	32.000000	n/a	2	-1.604167e-01	-1.604167e-01
105.523040	0.967088	dec_choice	0.967088	32.000000	n/a	2	-1.705729e-01	-1.705729e-01
105.523040	0.967088	dec_social_accept	0.967088	32.000000	n/a	2	-1.541193e-01	-1.541193e-01
105.523040	0.967088	dec_accept	0.967088	32.000000	n/a	2	-1.589674e-01	-1.589674e-01
105.523040	0.967088	dec_social_low	0.967088	32.000000	n/a	2	-1.705729e-01	-1.705729e-01
105.523040	0.967088	dec_social_accept_low	0.967088	32.000000	n/a	2	-1.705729e-01	-1.705729e-01
112.357060	0.748987	dec_nonsocial_choice	0.748987	32.000000	n/a	2	-1.604167e-01	-1.604167e-01
112.357060	0.748987	dec_choice	0.748987	32.000000	n/a	2	-1.488095e-01	-1.488095e-01
112.357060	0.748987	dec_nonsocial_accept	0.748987	32.000000	n/a	2	-1.541193e-01	-1.541193e-01
112.357060	0.748987	dec_accept	0.748987	32.000000	n/a	2	-1.488095e-01	-1.488095e-01
112.357060	0.748987	dec_nonsocial_low	0.748987	32.000000	n/a	2	-1.488095e-01	-1.488095e-01
112.357060	0.748987	dec_nonsocial_accept_low	0.748987	32.000000	n/a	2	-1.488095e-01	-1.488095e-01
120.005974	0.799999	dec_nonsocial_choice	0.799999	32.000000	n/a	3	-1.291667e-01	-1.291667e-01
120.005974	0.799999	dec_choice	0.799999	32.000000	n/a	3	-1.175595e-01	-1.175595e-01
120.005974	0.799999	dec_nonsocial_accept	0.799999	32.000000	n/a	3	-1.228693e-01	-1.228693e-01
120.005974	0.799999	dec_accept	0.799999	32.000000	n/a	3	-1.175595e-01	-1.175595e-01
120.005974	0.799999	dec_nonsocial_accept_low	0.799999	32.000000	n/a	3	-1.277174e-01	-1.277174e-01
130.873060	1.000304	dec_nonsocial_choice	1.000304	32.000000	n/a	8	2.708333e-02	2.708333e-02
130.873060	1.000304	dec_choice	1.000304	32.000000	n/a	8	3.869048e-02	3.869048e-02
130.873060	1.000304	dec_nonsocial_accept	1.000304	32.000000	n/a	8	3.338068e-02	3.338068e-02
130.873060	1.000304	dec_accept	1.000304	32.000000	n/a	8	3.869048e-02	3.869048e-02
130.873060	1.000304	dec_nonsocial_accept_high	1.000304	32.000000	n/a	8	2.853261e-02	2.853261e-02
137.706070	1.300267	dec_social_choice	1.300267	16.000000	n/a	4	2.708333e-02	2.708333e-02
137.706070	1.300267	dec_choice	1.300267	16.000000	n/a	4	1.692708e-02	1.692708e-02
137.706070	1.300267	dec_social_accept	1.300267	16.000000	n/a	4	3.338068e-02	3.338068e-02
137.706070	1.300267	dec_accept	1.300267	16.000000	n/a	4	2.853261e-02	2.853261e-02
137.706070	1.300267	dec_social_accept_high	1.300267	16.000000	n/a	4	1.692708e-02	1.692708e-02
148.572040	1.167520	dec_social_choice	1.167520	16.000000	n/a	2	-9.791667e-02	-9.791667e-02
148.572040	1.167520	dec_choice	1.167520	16.000000	n/a	2	-1.080729e-01	-1.080729e-01
148.572040	1.167520	dec_social_accept	1.167520	16.000000	n/a	2	-9.161932e-02	-9.161932e-02
148.572040	1.167520	dec_accept	1.167520	16.000000	n/a	2	-9.646739e-02	-9.646739e-02
148.572040	1.167520	dec_social_low	1.167520	16.000000	n/a	2	-1.080729e-01	-1.080729e-01
148.572040	1.167520	dec_social_accept_low	1.167520	16.000000	n/a	2	-1.080729e-01	-1.080729e-01
156.206970	0.966007	dec_nonsocial_choice	0.966007	16.000000	n/a	1	-1.604167e-01	-1.604167e-01
156.206970	0.966007	dec_choice	0.966007	16.000000	n/a	1	-1.488095e-01	-1.488095e-01
156.206970	0.966007	dec_nonsocial_accept	0.966007	16.000000	n/a	1	-1.541193e-01	-1.541193e-01
156.206970	0.966007	dec_accept	0.966007	16.000000	n/a	1	-1.488095e-01	-1.488095e-01
156.206970	0.966007	dec_nonsocial_accept_low	0.966007	16.000000	n/a	1	-1.589674e-01	-1.589674e-01
163.040070	0.983032	dec_social_choice	0.983032	16.000000	n/a	2	-9.791667e-02	-9.791667e-02
163.040070	0.983032	dec_choice	0.983032	16.000000	n/a	2	-1.080729e-01	-1.080729e-01
163.040070	0.983032	dec_social_accept	0.983032	16.000000	n/a	2	-9.161932e-02	-9.161932e-02
163.040070	0.983032	dec_accept	0.983032	16.000000	n/a	2	-9.646739e-02	-9.646739e-02
163.040070	0.983032	dec_social_low	0.983032	16.000000	n/a	2	-1.080729e-01	-1.080729e-01
163.040070	0.983032	dec_social_accept_low	0.983032	16.000000	n/a	2	-1.080729e-01	-1.080729e-01
169.873050	3.766946	missed_trial	3.766946	32.000000	n/a	n/a	n/a	n/a
176.723080	2.983610	dec_social_choice	2.983610	16.000000	n/a	1	-1.604167e-01	-1.604167e-01
176.723080	2.983610	dec_choice	2.983610	16.000000	n/a	1	-1.705729e-01	-1.705729e-01
176.723080	2.983610	dec_social_accept	2.983610	16.000000	n/a	1	-1.541193e-01	-1.541193e-01
176.723080	2.983610	dec_accept	2.983610	16.000000	n/a	1	-1.589674e-01	-1.589674e-01
176.723080	2.983610	dec_social_low	2.983610	16.000000	n/a	1	-1.705729e-01	-1.705729e-01
176.723080	2.983610	dec_social_accept_low	2.983610	16.000000	n/a	1	-1.705729e-01	-1.705729e-01
183.556210	1.015847	dec_social_choice	1.015847	16.000000	n/a	1	-1.604167e-01	-1.604167e-01
183.556210	1.015847	dec_choice	1.015847	16.000000	n/a	1	-1.705729e-01	-1.705729e-01
183.556210	1.015847	dec_social_accept	1.015847	16.000000	n/a	1	-1.541193e-01	-1.541193e-01
183.556210	1.015847	dec_accept	1.015847	16.000000	n/a	1	-1.589674e-01	-1.589674e-01
183.556210	1.015847	dec_social_accept_low	1.015847	16.000000	n/a	1	-1.705729e-01	-1.705729e-01
191.206070	1.000099	dec_social_choice	1.000099	16.000000	n/a	4	2.708333e-02	2.708333e-02
191.206070	1.000099	dec_choice	1.000099	16.000000	n/a	4	1.692708e-02	1.692708e-02
191.206070	1.000099	dec_social_accept	1.000099	16.000000	n/a	4	3.338068e-02	3.338068e-02
191.206070	1.000099	dec_accept	1.000099	16.000000	n/a	4	2.853261e-02	2.853261e-02
191.206070	1.000099	dec_social_accept_high	1.000099	16.000000	n/a	4	1.692708e-02	1.692708e-02
198.038910	0.751140	dec_nonsocial_choice	0.751140	16.000000	n/a	8	2.770833e-01	2.770833e-01
198.038910	0.751140	dec_choice	0.751140	16.000000	n/a	8	2.886905e-01	2.886905e-01
198.038910	0.751140	dec_nonsocial_accept	0.751140	16.000000	n/a	8	2.833807e-01	2.833807e-01
198.038910	0.751140	dec_accept	0.751140	16.000000	n/a	8	2.886905e-01	2.886905e-01
198.038910	0.751140	dec_nonsocial_accept_high	0.751140	16.000000	n/a	8	2.785326e-01	2.785326e-01
204.872860	0.699831	dec_nonsocial_choice	0.699831	16.000000	n/a	2	-9.791667e-02	-9.791667e-02
204.872860	0.699831	dec_choice	0.699831	16.000000	n/a	2	-8.630952e-02	-8.630952e-02
204.872860	0.699831	dec_nonsocial_accept	0.699831	16.000000	n/a	2	-9.161932e-02	-9.161932e-02
204.872860	0.699831	dec_accept	0.699831	16.000000	n/a	2	-8.630952e-02	-8.630952e-02
204.872860	0.699831	dec_nonsocial_accept_low	0.699831	16.000000	n/a	2	-9.646739e-02	-9.646739e-02
215.738940	0.767036	dec_social_choice	0.767036	32.000000	n/a	16	2.770833e-01	2.770833e-01
215.738940	0.767036	dec_choice	0.767036	32.000000	n/a	16	2.669271e-01	2.669271e-01
215.738940	0.767036	dec_social_accept	0.767036	32.000000	n/a	16	2.833807e-01	2.833807e-01
215.738940	0.767036	dec_accept	0.767036	32.000000	n/a	16	2.785326e-01	2.785326e-01
215.738940	0.767036	dec_social_accept_high	0.767036	32.000000	n/a	16	2.669271e-01	2.669271e-01
223.389190	0.984258	dec_social_choice	0.984258	16.000000	n/a	4	2.708333e-02	2.708333e-02
223.389190	0.984258	dec_choice	0.984258	16.000000	n/a	4	1.692708e-02	1.692708e-02
223.389190	0.984258	dec_social_accept	0.984258	16.000000	n/a	4	3.338068e-02	3.338068e-02
223.389190	0.984258	dec_accept	0.984258	16.000000	n/a	4	2.853261e-02	2.853261e-02
223.389190	0.984258	dec_social_accept_high	0.984258	16.000000	n/a	4	1.692708e-02	1.692708e-02
230.223050	0.849778	dec_nonsocial_choice	0.849778	32.000000	n/a	16	2.770833e-01	2.770833e-01
230.223050	0.849778	dec_choice	0.849778	32.000000	n/a	16	2.886905e-01	2.886905e-01
230.223050	0.849778	dec_nonsocial_accept	0.849778	32.000000	n/a	16	2.833807e-01	2.833807e-01
230.223050	0.849778	dec_accept	0.849778	32.000000	n/a	16	2.886905e-01	2.886905e-01
230.223050	0.849778	dec_nonsocial_accept_high	0.849778	32.000000	n/a	16	2.785326e-01	2.785326e-01
237.056060	0.949936	dec_social_choice	0.949936	32.000000	n/a	2	-1.604167e-01	-1.604167e-01
237.056060	0.949936	dec_choice	0.949936	32.000000	n/a	2	-1.705729e-01	-1.705729e-01
237.056060	0.949936	dec_social_accept	0.949936	32.000000	n/a	2	-1.541193e-01	-1.541193e-01
237.056060	0.949936	dec_accept	0.949936	32.000000	n/a	2	-1.589674e-01	-1.589674e-01
237.056060	0.949936	dec_social_low	0.949936	32.000000	n/a	2	-1.705729e-01	-1.705729e-01
237.056060	0.949936	dec_social_accept_low	0.949936	32.000000	n/a	2	-1.705729e-01	-1.705729e-01
246.306500	1.733230	dec_nonsocial_choice	1.733230	16.000000	n/a	4	2.708333e-02	2.708333e-02
246.306500	1.733230	dec_choice	1.733230	16.000000	n/a	4	3.869048e-02	3.869048e-02
246.306500	1.733230	dec_nonsocial_accept	1.733230	16.000000	n/a	4	3.338068e-02	3.338068e-02
246.306500	1.733230	dec_accept	1.733230	16.000000	n/a	4	3.869048e-02	3.869048e-02
246.306500	1.733230	dec_nonsocial_accept_high	1.733230	16.000000	n/a	4	2.853261e-02	2.853261e-02
253.140060	0.899077	dec_nonsocial_choice	0.899077	32.000000	n/a	8	2.708333e-02	2.708333e-02
253.140060	0.899077	dec_choice	0.899077	32.000000	n/a	8	3.869048e-02	3.869048e-02
253.140060	0.899077	dec_nonsocial_accept	0.899077	32.000000	n/a	8	3.338068e-02	3.338068e-02
253.140060	0.899077	dec_accept	0.899077	32.000000	n/a	8	3.869048e-02	3.869048e-02
253.140060	0.899077	dec_nonsocial_high	0.899077	32.000000	n/a	8	3.869048e-02	3.869048e-02
253.140060	0.899077	dec_nonsocial_accept_high	0.899077	32.000000	n/a	8	3.869048e-02	3.869048e-02
259.973080	1.083520	dec_nonsocial_choice	1.083520	16.000000	n/a	8	2.770833e-01	2.770833e-01
259.973080	1.083520	dec_choice	1.083520	16.000000	n/a	8	2.886905e-01	2.886905e-01
259.973080	1.083520	dec_nonsocial_accept	1.083520	16.000000	n/a	8	2.833807e-01	2.833807e-01
259.973080	1.083520	dec_accept	1.083520	16.000000	n/a	8	2.886905e-01	2.886905e-01
259.973080	1.083520	dec_nonsocial_accept_high	1.083520	16.000000	n/a	8	2.785326e-01	2.785326e-01
266.806060	0.849670	dec_social_choice	0.849670	16.000000	n/a	2	-9.791667e-02	-9.791667e-02
266.806060	0.849670	dec_choice	0.849670	16.000000	n/a	2	-1.080729e-01	-1.080729e-01
266.806060	0.849670	dec_social_accept	0.849670	16.000000	n/a	2	-9.161932e-02	-9.161932e-02
266.806060	0.849670	dec_accept	0.849670	16.000000	n/a	2	-9.646739e-02	-9.646739e-02
266.806060	0.849670	dec_social_accept_low	0.849670	16.000000	n/a	2	-1.080729e-01	-1.080729e-01
274.456100	0.866290	dec_nonsocial_choice	0.866290	16.000000	n/a	1	-1.604167e-01	-1.604167e-01
274.456100	0.866290	dec_choice	0.866290	16.000000	n/a	1	-1.488095e-01	-1.488095e-01
274.456100	0.866290	dec_nonsocial_accept	0.866290	16.000000	n/a	1	-1.541193e-01	-1.541193e-01
274.456100	0.866290	dec_accept	0.866290	16.000000	n/a	1	-1.488095e-01	-1.488095e-01
274.456100	0.866290	dec_nonsocial_low	0.866290	16.000000	n/a	1	-1.488095e-01	-1.488095e-01
274.456100	0.866290	dec_nonsocial_accept_low	0.866290	16.000000	n/a	1	-1.488095e-01	-1.488095e-01
282.107060	1.582143	dec_social_choice	1.582143	32.000000	n/a	0	0	-2.229167e-01
282.107060	1.582143	dec_choice	1.582143	32.000000	n/a	0	0	-2.330729e-01
282.107060	1.582143	dec_social_reject	1.582143	32.000000	n/a	0	0	2.500000e-01
282.107060	1.582143	dec_reject	1.582143	32.000000	n/a	0	0	0
282.107060	1.582143	dec_social_reject_low	1.582143	32.000000	n/a	16	2.669271e-01	-2.330729e-01
288.940060	3.766946	missed_trial	3.766946	32.000000	n/a	n/a	n/a	n/a
298.207060	1.181811	dec_nonsocial_choice	1.181811	16.000000	n/a	2	-9.791667e-02	-9.791667e-02
298.207060	1.181811	dec_choice	1.181811	16.000000	n/a	2	-8.630952e-02	-8.630952e-02
298.207060	1.181811	dec_nonsocial_accept	1.181811	16.000000	n/a	2	-9.161932e-02	-9.161932e-02
298.207060	1.181811	dec_accept	1.181811	16.000000	n/a	2	-8.630952e-02	-8.630952e-02
298.207060	1.181811	dec_nonsocial_accept_low	1.181811	16.000000	n/a	2	-9.646739e-02	-9.646739e-02
305.040070	0.915401	dec_social_choice	0.915401	16.000000	n/a	4	2.708333e-02	2.708333e-02
305.040070	0.915401	dec_choice	0.915401	16.000000	n/a	4	1.692708e-02	1.692708e-02
305.040070	0.915401	dec_social_accept	0.915401	16.000000	n/a	4	3.338068e-02	3.338068e-02
305.040070	0.915401	dec_accept	0.915401	16.000000	n/a	4	2.853261e-02	2.853261e-02
305.040070	0.915401	dec_social_high	0.915401	16.000000	n/a	4	1.692708e-02	1.692708e-02
305.040070	0.915401	dec_social_accept_high	0.915401	16.000000	n/a	4	1.692708e-02	1.692708e-02
312.689060	1.000219	dec_social_choice	1.000219	16.000000	n/a	2	-9.791667e-02	-9.791667e-02
312.689060	1.000219	dec_choice	1.000219	16.000000	n/a	2	-1.080729e-01	-1.080729e-01
312.689060	1.000219	dec_social_accept	1.000219	16.000000	n/a	2	-9.161932e-02	-9.161932e-02
312.689060	1.000219	dec_accept	1.000219	16.000000	n/a	2	-9.646739e-02	-9.646739e-02
312.689060	1.000219	dec_social_accept_low	1.000219	16.000000	n/a	2	-1.080729e-01	-1.080729e-01
319.523070	0.932678	dec_social_choice	0.932678	32.000000	n/a	16	2.770833e-01	2.770833e-01
319.523070	0.932678	dec_choice	0.932678	32.000000	n/a	16	2.669271e-01	2.669271e-01
319.523070	0.932678	dec_social_accept	0.932678	32.000000	n/a	16	2.833807e-01	2.833807e-01
319.523070	0.932678	dec_accept	0.932678	32.000000	n/a	16	2.785326e-01	2.785326e-01
319.523070	0.932678	dec_social_high	0.932678	32.000000	n/a	16	2.669271e-01	2.669271e-01
319.523070	0.932678	dec_social_accept_high	0.932678	32.000000	n/a	16	2.669271e-01	2.669271e-01
328.789200	1.150568	dec_nonsocial_choice	1.150568	32.000000	n/a	3	-1.291667e-01	-1.291667e-01
328.789200	1.150568	dec_choice	1.150568	32.000000	n/a	3	-1.175595e-01	-1.175595e-01
328.789200	1.150568	dec_nonsocial_accept	1.150568	32.000000	n/a	3	-1.228693e-01	-1.228693e-01
328.789200	1.150568	dec_accept	1.150568	32.000000	n/a	3	-1.175595e-01	-1.175595e-01
328.789200	1.150568	dec_nonsocial_accept_low	1.150568	32.000000	n/a	3	-1.277174e-01	-1.277174e-01
335.622040	2.001337	dec_social_choice	2.001337	32.000000	n/a	8	2.708333e-02	2.708333e-02
335.622040	2.001337	dec_choice	2.001337	32.000000	n/a	8	1.692708e-02	1.692708e-02
335.622040	2.001337	dec_social_accept	2.001337	32.000000	n/a	8	3.338068e-02	3.338068e-02
335.622040	2.001337	dec_accept	2.001337	32.000000	n/a	8	2.853261e-02	2.853261e-02
335.622040	2.001337	dec_social_accept_high	2.001337	32.000000	n/a	8	1.692708e-02	1.692708e-02
342.456050	3.766946	missed_trial	3.766946	16.000000	n/a	n/a	n/a	n/a
351.722100	2.083354	dec_social_choice	2.083354	32.000000	n/a	16	2.770833e-01	2.770833e-01
351.722100	2.083354	dec_choice	2.083354	32.000000	n/a	16	2.669271e-01	2.669271e-01
351.722100	2.083354	dec_social_accept	2.083354	32.000000	n/a	16	2.833807e-01	2.833807e-01
351.722100	2.083354	dec_accept	2.083354	32.000000	n/a	16	2.785326e-01	2.785326e-01
351.722100	2.083354	dec_social_high	2.083354	32.000000	n/a	16	2.669271e-01	2.669271e-01
351.722100	2.083354	dec_social_accept_high	2.083354	32.000000	n/a	16	2.669271e-01	2.669271e-01
358.556000	1.466087	dec_nonsocial_choice	1.466087	16.000000	n/a	1	-1.604167e-01	-1.604167e-01
358.556000	1.466087	dec_choice	1.466087	16.000000	n/a	1	-1.488095e-01	-1.488095e-01
358.556000	1.466087	dec_nonsocial_accept	1.466087	16.000000	n/a	1	-1.541193e-01	-1.541193e-01
358.556000	1.466087	dec_accept	1.466087	16.000000	n/a	1	-1.488095e-01	-1.488095e-01
358.556000	1.466087	dec_nonsocial_accept_low	1.466087	16.000000	n/a	1	-1.589674e-01	-1.589674e-01
365.388120	0.983800	dec_social_choice	0.983800	32.000000	n/a	16	2.770833e-01	2.770833e-01
365.388120	0.983800	dec_choice	0.983800	32.000000	n/a	16	2.669271e-01	2.669271e-01
365.388120	0.983800	dec_social_accept	0.983800	32.000000	n/a	16	2.833807e-01	2.833807e-01
365.388120	0.983800	dec_accept	0.983800	32.000000	n/a	16	2.785326e-01	2.785326e-01
365.388120	0.983800	dec_social_accept_high	0.983800	32.000000	n/a	16	2.669271e-01	2.669271e-01
373.039060	0.916625	dec_nonsocial_choice	0.916625	32.000000	n/a	8	2.708333e-02	2.708333e-02
373.039060	0.916625	dec_choice	0.916625	32.000000	n/a	8	3.869048e-02	3.869048e-02
373.039060	0.916625	dec_nonsocial_accept	0.916625	32.000000	n/a	8	3.338068e-02	3.338068e-02
373.039060	0.916625	dec_accept	0.916625	32.000000	n/a	8	3.869048e-02	3.869048e-02
373.039060	0.916625	dec_nonsocial_high	0.916625	32.000000	n/a	8	3.869048e-02	3.869048e-02
373.039060	0.916625	dec_nonsocial_accept_high	0.916625	32.000000	n/a	8	3.869048e-02	3.869048e-02
