TrialNumber,Trial,cLeft,cRight,Partner,Reciprocate,ISI,ITI,ran,order,onset,bpress,resp,resp_onset,highlow,rt,ISIpad,ISI_onset,ISI_offset,outcome_onset,outcome_offset,duration,ITI_onset,ITI_offset
1,1,8,4,2,1,3.500000e+00,8.075000e-01,1.0,0.0,4.1340623,1.0,8,6.3315234,high,2.1974611,0.8025388,6.8511667,12.383863,12.387642,14.389043,10.254981,14.38949,15.191775
2,2,2,4,3,0,3.500000e+00,8.075000e-01,1.0,1.0,15.224151,2.0,4,17.48162,high,2.2574708,0.7425291,18.00243,23.473969,23.47793,25.480965,10.256815,25.48136,26.283003
3,3,2,4,3,1,5.000000e-01,8.075000e-01,1.0,2.0,26.297565,1.0,2,28.381716,low,2.0841498,0.9158502,28.901972,31.547836,31.549799,33.552113,7.254545,33.55249,34.35502
4,4,8,2,2,1,5.000000e-01,2.422500e+00,1.0,3.0,34.46778,2.0,2,36.66476,low,2.196979,0.8030209,37.185123,39.71815,39.720024,41.72234,7.254558,41.72273,44.14101
5,5,0,2,3,1,5.000000e-01,5.652500e+00,1.0,4.0,44.158085,2.0,2,46.4985,high,2.3404171,0.6595829,47.018307,49.408676,49.41058,51.412315,7.25423,51.412704,57.061405
6,6,0,4,2,1,5.000000e-01,8.075000e-01,1.0,5.0,57.17645,2.0,4,58.71482,high,1.5383708,1.4616292,59.23413,62.427002,62.428856,64.43071,7.2542615,64.43109,65.23411
7,7,2,8,1,1,5.000000e-01,8.075000e-01,1.0,6.0,65.24207,1.0,2,67.54843,low,2.306359,0.6936409,68.06753,70.49296,70.49514,72.49704,7.2549706,72.49743,73.3
8,8,0,2,2,0,5.000000e-01,8.075000e-01,1.0,7.0,73.411896,1.0,0,75.58222,low,2.1703296,0.8296705,76.10148,78.66179,78.66191,80.6641,7.2522078,80.66449,81.46978
9,9,8,2,3,0,2,2.422500e+00,1.0,8.0,81.48706,1.0,8,84.33191,high,2.8448448,0.1551553,84.85073,88.23802,88.23991,90.24188,8.754825,90.242256,92.660065
10,10,4,8,2,0,5.000000e-01,2.422500e+00,1.0,9.0,92.77064,2.0,8,94.83174,high,2.0611033,0.9388966,95.3511,98.02122,98.02297,100.025,7.254359,100.02538,102.44368
11,11,2,8,3,0,2,8.075000e-01,1.0,10.0,102.46077,1.0,2,104.23192,low,1.771143,1.228857,104.75117,109.21087,109.212746,111.215065,8.754293,111.21545,112.0189
12,12,2,8,3,1,5.000000e-01,8.075000e-01,1.0,11.0,112.0335,1.0,2,114.54839,low,2.5148933,0.4851067,115.068214,117.28421,117.28611,119.288,7.2545004,119.28838,120.09199
13,13,0,4,1,0,5.000000e-01,4.037500e+00,1.0,12.0,120.097855,2.0,4,121.83139,high,1.7335317,1.2664683,122.35113,125.349,125.350945,127.35266,7.2548075,127.35304,131.38637
14,14,4,0,3,1,5.000000e-01,7.267500e+00,1.0,13.0,131.4045,1.0,4,133.43199,high,2.0274932,0.9725068,133.95184,136.65497,136.6569,138.6586,7.2541,138.65898,145.922
15,15,2,4,1,1,2,2.422500e+00,1.0,14.0,145.92754,1.0,2,147.79825,low,1.8707068,1.1292932,148.31717,152.67775,152.6797,154.68137,8.753821,154.68175,157.10088
16,16,0,2,2,1,5.000000e-01,4.037500e+00,1.0,15.0,157.2147,2.0,2,159.28209,high,2.067397,0.932603,159.80096,162.46486,162.46674,164.46858,7.2538843,164.46896,168.50389
17,17,0,4,3,0,2,2.422500e+00,1.0,16.0,168.52107,2.0,4,170.84848,high,2.3274035,0.6725964,171.3672,175.27159,175.27347,177.27602,8.754938,177.2764,179.694
18,18,8,2,1,1,2,2.422500e+00,1.0,17.0,179.6999,2.0,2,181.83131,low,2.1314013,0.8685986,182.35109,186.45093,186.45288,188.45497,8.75507,188.45537,190.87344
19,19,8,2,3,1,5.000000e-01,8.075000e-01,1.0,18.0,190.88948,2.0,2,192.5816,low,1.6921254,1.3078746,193.10065,196.14003,196.142,198.14363,7.2541494,198.14401,198.94795
20,20,8,4,1,0,5.000000e-01,8.075000e-01,1.0,19.0,198.95218,2.0,4,200.89821,low,1.9460284,1.0539716,201.41786,204.20299,204.2049,206.20808,7.2559114,206.20847,207.00961
21,21,0,8,1,0,5.000000e-01,8.075000e-01,1.0,20.0,207.01407,2.0,8,209.51483,high,2.5007577,0.4992423,210.03505,212.26501,212.26541,214.26813,7.254065,214.26851,215.07184
22,22,2,0,1,0,2,5.652500e+00,1.0,21.0,215.07608,1.0,2,217.09816,high,2.0220754,0.9779246,217.6172,221.8267,221.82712,223.82999,8.7539,223.83037,229.48001
23,23,0,8,3,1,5.000000e-01,2.422500e+00,1.0,22.0,229.49844,1.0,0,231.34839,low,1.8499392,1.1500608,231.86816,234.75018,234.7503,236.75179,7.253345,236.75218,239.17209
24,24,8,4,1,1,2,2.422500e+00,1.0,23.0,239.1774,2.0,4,241.0981,low,1.920702,1.079298,241.61716,245.92773,245.92969,247.932,8.754606,247.9324,250.3507
25,25,8,4,3,1,2,4.037500e+00,1.0,24.0,250.3662,2.0,4,251.96512,low,1.5989244,1.4010756,252.48378,257.1171,257.1191,259.12198,8.75578,259.12238,263.154
26,26,2,8,1,0,2,7.267500e+00,1.0,25.0,263.15936,1.0,2,264.86444,low,1.7050761,1.2949239,265.3841,269.91006,269.912,271.91483,8.755457,271.91522,279.17703
27,27,2,8,2,0,2,8.075000e-01,1.0,26.0,279.2945,1.0,2,281.1147,low,1.8202096,1.1797904,281.63367,286.0465,286.04825,288.05,8.755485,288.05035,288.85287
28,28,4,0,1,1,2,8.075000e-01,1.0,27.0,288.85913,2.0,0,291.0642,low,2.2050796,0.7949204,291.58484,295.60956,295.60968,297.61154,8.752417,297.61194,298.41702
29,29,2,0,1,1,5.000000e-01,4.037500e+00,1.0,28.0,298.42014,1.0,2,300.68088,high,2.260738,0.7392621,301.2012,303.66995,303.6719,305.67358,7.253452,305.67398,309.70798
30,30,4,2,1,0,5.000000e-01,8.075000e-01,1.0,29.0,309.71243,1.0,4,311.86456,high,2.1521447,0.8478553,312.38397,314.96298,314.9651,316.96698,7.254549,316.96735,317.76953
31,31,2,8,1,0,2,8.075000e-01,1.0,30.0,317.7739,1.0,2,319.73087,low,1.9569608,1.0430392,320.25018,324.52344,324.52386,326.52594,8.75206,326.52634,327.33215
32,32,2,4,2,1,3.500000e+00,8.075000e-01,1.0,31.0,327.44577,2.0,4,329.3648,high,1.9190559,1.0809441,329.8846,335.69647,335.6985,337.70004,10.254289,337.70044,338.50397
33,33,0,4,2,0,5.000000e-01,8.075000e-01,1.0,32.0,338.6161,2.0,4,341.0142,high,2.3980913,0.6019087,341.5344,343.86688,343.86865,345.87054,7.254438,345.87094,346.67294
34,34,0,8,3,0,2,4.037500e+00,1.0,33.0,346.6907,2.0,8,348.8974,high,2.2066867,0.7933132,349.41733,353.44205,353.4439,355.44574,8.755023,355.4461,359.47897
35,35,0,8,1,1,5.000000e-01,8.075000e-01,1.0,34.0,359.48264,1.0,0,361.6474,low,2.164754,0.8352462,362.16745,364.7328,364.7329,366.73444,7.251806,366.73483,367.54013
36,36,8,0,2,1,5.000000e-01,2.422500e+00,1.0,35.0,367.65198,1.0,8,369.63104,high,1.9790659,1.0209341,370.1502,372.9027,372.9046,374.90628,7.254307,374.90668,377.32495
37,37,2,8,2,0,5.000000e-01,8.075000e-01,1.0,36.0,377.43622,1.0,2,379.61435,low,2.178137,0.821863,380.13354,382.687,382.68875,384.69104,7.254827,384.69144,385.49362
38,38,2,0,3,0,3.500000e+00,2.422500e+00,1.0,37.0,385.52155,1.0,2,387.0147,high,1.4931642,1.5068358,387.53424,393.77237,393.77426,395.77795,10.256423,395.77835,398.19464
39,39,4,2,2,0,2,8.075000e-01,1.0,38.0,398.3083,2.0,2,400.5311,low,2.2228081,0.7771919,401.0511,405.05795,405.05966,407.06216,8.753868,407.06256,407.8657
40,40,4,8,3,0,2,8.075000e-01,1.0,39.0,407.88324,1.0,4,409.96432,low,2.0810592,0.9189407,410.48312,414.63318,414.63516,416.63684,8.753594,416.63724,417.4409
41,41,8,2,2,1,5.000000e-01,2.422500e+00,1.0,40.0,417.55124,1.0,8,420.0309,high,2.4796662,0.5203338,420.55017,422.8016,422.80353,424.80597,7.254741,424.8064,427.22366
42,42,8,0,2,0,5.000000e-01,8.882500e+00,1.0,41.0,427.33585,2.0,0,428.79776,low,1.4619064,1.5380936,429.31708,432.58594,432.58606,434.58798,7.2521377,434.58838,443.46902
