onset	duration	trial_type	response_time	Endowment	Endowment_pmod	Decision	Decision_pmod	Offer_pmod
4.600223	2	cue_social	n/a	32	8	n/a	n/a	n/a
4.600223	2	cue_social_high	n/a	32	7	n/a	n/a	n/a
13.862986	2	cue_social	n/a	32	8	n/a	n/a	n/a
13.862986	2	cue_social_high	n/a	32	7	n/a	n/a	n/a
20.614265	2	cue_nonsocial	n/a	16	-9	n/a	n/a	n/a
20.614265	2	cue_nonsocial_low	n/a	16	-8	n/a	n/a	n/a
27.530077	2	cue_social	n/a	16	-8	n/a	n/a	n/a
27.530077	2	cue_social_low	n/a	16	-9	n/a	n/a	n/a
34.363087	2	cue_social	n/a	32	8	n/a	n/a	n/a
34.363087	2	cue_social_high	n/a	32	7	n/a	n/a	n/a
41.930794	2	cue_nonsocial	n/a	32	7	n/a	n/a	n/a
41.930794	2	cue_nonsocial_high	n/a	32	8	n/a	n/a	n/a
52.877857	2	cue_social	n/a	32	8	n/a	n/a	n/a
52.877857	2	cue_social_high	n/a	32	7	n/a	n/a	n/a
59.630420	2	cue_nonsocial	n/a	16	-9	n/a	n/a	n/a
59.630420	2	cue_nonsocial_low	n/a	16	-8	n/a	n/a	n/a
68.880840	2	cue_nonsocial	n/a	32	7	n/a	n/a	n/a
68.880840	2	cue_nonsocial_high	n/a	32	8	n/a	n/a	n/a
75.785670	2	cue_social	n/a	32	8	n/a	n/a	n/a
75.785670	2	cue_social_high	n/a	32	7	n/a	n/a	n/a
84.980810	2	cue_nonsocial	n/a	16	-9	n/a	n/a	n/a
84.980810	2	cue_nonsocial_low	n/a	16	-8	n/a	n/a	n/a
91.814125	2	cue_nonsocial	n/a	16	-9	n/a	n/a	n/a
91.814125	2	cue_nonsocial_low	n/a	16	-8	n/a	n/a	n/a
98.743680	2	cue_social	n/a	32	8	n/a	n/a	n/a
98.743680	2	cue_social_high	n/a	32	7	n/a	n/a	n/a
107.913990	2	cue_nonsocial	n/a	32	7	n/a	n/a	n/a
107.913990	2	cue_nonsocial_high	n/a	32	8	n/a	n/a	n/a
115.564170	2	cue_nonsocial	n/a	32	7	n/a	n/a	n/a
115.564170	2	cue_nonsocial_high	n/a	32	8	n/a	n/a	n/a
122.473656	2	cue_social	n/a	32	8	n/a	n/a	n/a
122.473656	2	cue_social_high	n/a	32	7	n/a	n/a	n/a
130.121550	2	cue_social	n/a	16	-8	n/a	n/a	n/a
130.121550	2	cue_social_low	n/a	16	-9	n/a	n/a	n/a
137.741120	2	cue_social	n/a	32	8	n/a	n/a	n/a
137.741120	2	cue_social_high	n/a	32	7	n/a	n/a	n/a
144.514180	2	cue_nonsocial	n/a	32	7	n/a	n/a	n/a
144.514180	2	cue_nonsocial_high	n/a	32	8	n/a	n/a	n/a
151.347440	2	cue_nonsocial	n/a	32	7	n/a	n/a	n/a
151.347440	2	cue_nonsocial_high	n/a	32	8	n/a	n/a	n/a
158.180970	2	cue_nonsocial	n/a	32	7	n/a	n/a	n/a
158.180970	2	cue_nonsocial_high	n/a	32	8	n/a	n/a	n/a
169.072340	2	cue_social	n/a	16	-8	n/a	n/a	n/a
169.072340	2	cue_social_low	n/a	16	-9	n/a	n/a	n/a
176.752180	2	cue_social	n/a	16	-8	n/a	n/a	n/a
176.752180	2	cue_social_low	n/a	16	-9	n/a	n/a	n/a
183.598190	2	cue_social	n/a	32	8	n/a	n/a	n/a
183.598190	2	cue_social_high	n/a	32	7	n/a	n/a	n/a
191.180740	2	cue_nonsocial	n/a	16	-9	n/a	n/a	n/a
191.180740	2	cue_nonsocial_low	n/a	16	-8	n/a	n/a	n/a
198.091200	2	cue_social	n/a	16	-8	n/a	n/a	n/a
198.091200	2	cue_social_low	n/a	16	-9	n/a	n/a	n/a
205.664100	2	cue_nonsocial	n/a	32	7	n/a	n/a	n/a
205.664100	2	cue_nonsocial_high	n/a	32	8	n/a	n/a	n/a
212.549220	2	cue_social	n/a	16	-8	n/a	n/a	n/a
212.549220	2	cue_social_low	n/a	16	-9	n/a	n/a	n/a
219.330800	2	cue_nonsocial	n/a	16	-9	n/a	n/a	n/a
219.330800	2	cue_nonsocial_low	n/a	16	-8	n/a	n/a	n/a
231.814030	2	cue_nonsocial	n/a	16	-9	n/a	n/a	n/a
231.814030	2	cue_nonsocial_low	n/a	16	-8	n/a	n/a	n/a
241.080370	2	cue_nonsocial	n/a	32	7	n/a	n/a	n/a
241.080370	2	cue_nonsocial_high	n/a	32	8	n/a	n/a	n/a
248.730320	2	cue_nonsocial	n/a	16	-9	n/a	n/a	n/a
248.730320	2	cue_nonsocial_low	n/a	16	-8	n/a	n/a	n/a
255.563830	2	cue_nonsocial	n/a	32	7	n/a	n/a	n/a
255.563830	2	cue_nonsocial_high	n/a	32	8	n/a	n/a	n/a
262.396940	2	cue_nonsocial	n/a	32	7	n/a	n/a	n/a
262.396940	2	cue_nonsocial_high	n/a	32	8	n/a	n/a	n/a
270.079740	2	cue_social	n/a	32	8	n/a	n/a	n/a
270.079740	2	cue_social_high	n/a	32	7	n/a	n/a	n/a
276.863900	2	cue_nonsocial	n/a	16	-9	n/a	n/a	n/a
276.863900	2	cue_nonsocial_low	n/a	16	-8	n/a	n/a	n/a
283.743000	2	cue_social	n/a	16	-8	n/a	n/a	n/a
283.743000	2	cue_social_low	n/a	16	-9	n/a	n/a	n/a
292.988430	2	cue_social	n/a	16	-8	n/a	n/a	n/a
292.988430	2	cue_social_low	n/a	16	-9	n/a	n/a	n/a
299.780200	2	cue_nonsocial	n/a	16	-9	n/a	n/a	n/a
299.780200	2	cue_nonsocial_low	n/a	16	-8	n/a	n/a	n/a
310.686520	2	cue_social	n/a	16	-8	n/a	n/a	n/a
310.686520	2	cue_social_low	n/a	16	-9	n/a	n/a	n/a
317.481000	2	cue_nonsocial	n/a	32	7	n/a	n/a	n/a
317.481000	2	cue_nonsocial_high	n/a	32	8	n/a	n/a	n/a
326.782100	2	cue_social	n/a	32	8	n/a	n/a	n/a
326.782100	2	cue_social_high	n/a	32	7	n/a	n/a	n/a
334.380200	2	cue_nonsocial	n/a	32	7	n/a	n/a	n/a
334.380200	2	cue_nonsocial_high	n/a	32	8	n/a	n/a	n/a
342.098450	2	cue_social	n/a	32	8	n/a	n/a	n/a
342.098450	2	cue_social_high	n/a	32	7	n/a	n/a	n/a
348.908100	2	cue_social	n/a	16	-8	n/a	n/a	n/a
348.908100	2	cue_social_low	n/a	16	-9	n/a	n/a	n/a
355.697020	2	cue_nonsocial	n/a	32	7	n/a	n/a	n/a
355.697020	2	cue_nonsocial_high	n/a	32	8	n/a	n/a	n/a
363.395750	2	cue_social	n/a	16	-8	n/a	n/a	n/a
363.395750	2	cue_social_low	n/a	16	-9	n/a	n/a	n/a
370.226560	2	cue_social	n/a	16	-8	n/a	n/a	n/a
370.226560	2	cue_social_low	n/a	16	-9	n/a	n/a	n/a
6.521157	2.249667	dec_social_choice	2.249667	32.000000	n/a	16	2.682292e-01	2.682292e-01
6.521157	2.249667	dec_choice	2.249667	32.000000	n/a	16	2.682292e-01	2.682292e-01
6.521157	2.249667	dec_social_accept	2.249667	32.000000	n/a	16	2.646277e-01	2.646277e-01
6.521157	2.249667	dec_accept	2.249667	32.000000	n/a	16	2.682292e-01	2.682292e-01
6.521157	2.249667	dec_social_high	2.249667	32.000000	n/a	16	2.682292e-01	2.682292e-01
6.521157	2.249667	dec_social_accept_high	2.249667	32.000000	n/a	16	2.682292e-01	2.682292e-01
15.786693	1.633841	dec_social_choice	1.633841	32.000000	n/a	3	-1.380208e-01	-1.380208e-01
15.786693	1.633841	dec_choice	1.633841	32.000000	n/a	3	-1.380208e-01	-1.380208e-01
15.786693	1.633841	dec_social_accept	1.633841	32.000000	n/a	3	-1.416223e-01	-1.416223e-01
15.786693	1.633841	dec_accept	1.633841	32.000000	n/a	3	-1.380208e-01	-1.380208e-01
15.786693	1.633841	dec_social_low	1.633841	32.000000	n/a	3	-1.380208e-01	-1.380208e-01
15.786693	1.633841	dec_social_accept_low	1.633841	32.000000	n/a	3	-1.380208e-01	-1.380208e-01
22.620235	1.134312	dec_nonsocial_choice	1.134312	16.000000	n/a	8	2.682292e-01	2.682292e-01
22.620235	1.134312	dec_choice	1.134312	16.000000	n/a	8	2.682292e-01	2.682292e-01
22.620235	1.134312	dec_nonsocial_accept	1.134312	16.000000	n/a	8	2.646277e-01	2.646277e-01
22.620235	1.134312	dec_accept	1.134312	16.000000	n/a	8	2.608696e-01	2.608696e-01
22.620235	1.134312	dec_nonsocial_high	1.134312	16.000000	n/a	8	2.682292e-01	2.682292e-01
22.620235	1.134312	dec_nonsocial_accept_high	1.134312	16.000000	n/a	8	2.608696e-01	2.608696e-01
29.454010	1.633266	dec_social_choice	1.633266	16.000000	n/a	2	-1.067708e-01	-1.067708e-01
29.454010	1.633266	dec_choice	1.633266	16.000000	n/a	2	-1.067708e-01	-1.067708e-01
29.454010	1.633266	dec_social_accept	1.633266	16.000000	n/a	2	-1.103723e-01	-1.103723e-01
29.454010	1.633266	dec_accept	1.633266	16.000000	n/a	2	-1.067708e-01	-1.067708e-01
29.454010	1.633266	dec_social_low	1.633266	16.000000	n/a	2	-1.067708e-01	-1.067708e-01
29.454010	1.633266	dec_social_accept_low	1.633266	16.000000	n/a	2	-1.067708e-01	-1.067708e-01
36.287453	1.366458	dec_social_choice	1.366458	32.000000	n/a	16	2.682292e-01	2.682292e-01
36.287453	1.366458	dec_choice	1.366458	32.000000	n/a	16	2.682292e-01	2.682292e-01
36.287453	1.366458	dec_social_accept	1.366458	32.000000	n/a	16	2.646277e-01	2.646277e-01
36.287453	1.366458	dec_accept	1.366458	32.000000	n/a	16	2.682292e-01	2.682292e-01
36.287453	1.366458	dec_social_high	1.366458	32.000000	n/a	16	2.682292e-01	2.682292e-01
36.287453	1.366458	dec_social_accept_high	1.366458	32.000000	n/a	16	2.682292e-01	2.682292e-01
43.937965	1.249696	dec_nonsocial_choice	1.249696	32.000000	n/a	8	1.822917e-02	1.822917e-02
43.937965	1.249696	dec_choice	1.249696	32.000000	n/a	8	1.822917e-02	1.822917e-02
43.937965	1.249696	dec_nonsocial_accept	1.249696	32.000000	n/a	8	1.462766e-02	1.462766e-02
43.937965	1.249696	dec_accept	1.249696	32.000000	n/a	8	1.086957e-02	1.086957e-02
43.937965	1.249696	dec_nonsocial_high	1.249696	32.000000	n/a	8	1.822917e-02	1.822917e-02
43.937965	1.249696	dec_nonsocial_accept_high	1.249696	32.000000	n/a	8	1.086957e-02	1.086957e-02
54.804060	1.083239	dec_social_choice	1.083239	32.000000	n/a	16	2.682292e-01	2.682292e-01
54.804060	1.083239	dec_choice	1.083239	32.000000	n/a	16	2.682292e-01	2.682292e-01
54.804060	1.083239	dec_social_accept	1.083239	32.000000	n/a	16	2.646277e-01	2.646277e-01
54.804060	1.083239	dec_accept	1.083239	32.000000	n/a	16	2.682292e-01	2.682292e-01
54.804060	1.083239	dec_social_high	1.083239	32.000000	n/a	16	2.682292e-01	2.682292e-01
54.804060	1.083239	dec_social_accept_high	1.083239	32.000000	n/a	16	2.682292e-01	2.682292e-01
61.638140	1.499621	dec_nonsocial_choice	1.499621	16.000000	n/a	2	-1.067708e-01	-1.067708e-01
61.638140	1.499621	dec_choice	1.499621	16.000000	n/a	2	-1.067708e-01	-1.067708e-01
61.638140	1.499621	dec_nonsocial_accept	1.499621	16.000000	n/a	2	-1.103723e-01	-1.103723e-01
61.638140	1.499621	dec_accept	1.499621	16.000000	n/a	2	-1.141304e-01	-1.141304e-01
61.638140	1.499621	dec_nonsocial_low	1.499621	16.000000	n/a	2	-1.067708e-01	-1.067708e-01
61.638140	1.499621	dec_nonsocial_accept_low	1.499621	16.000000	n/a	2	-1.141304e-01	-1.141304e-01
70.887870	1.365828	dec_nonsocial_choice	1.365828	32.000000	n/a	0	0	-2.317708e-01
70.887870	1.365828	dec_choice	1.365828	32.000000	n/a	0	0	-2.317708e-01
70.887870	1.365828	dec_nonsocial_reject	1.365828	32.000000	n/a	0	0	3.125000e-02
70.887870	1.365828	dec_reject	1.365828	32.000000	n/a	0	0	0
70.887870	1.365828	dec_nonsocial_reject_low	1.365828	32.000000	n/a	2	6.250000e-02	0
77.720030	1.733714	dec_social_choice	1.733714	32.000000	n/a	3	-1.380208e-01	-1.380208e-01
77.720030	1.733714	dec_choice	1.733714	32.000000	n/a	3	-1.380208e-01	-1.380208e-01
77.720030	1.733714	dec_social_accept	1.733714	32.000000	n/a	3	-1.416223e-01	-1.416223e-01
77.720030	1.733714	dec_accept	1.733714	32.000000	n/a	3	-1.380208e-01	-1.380208e-01
77.720030	1.733714	dec_social_accept_low	1.733714	32.000000	n/a	3	-1.380208e-01	-1.380208e-01
86.988300	1.449409	dec_nonsocial_choice	1.449409	16.000000	n/a	2	-1.067708e-01	-1.067708e-01
86.988300	1.449409	dec_choice	1.449409	16.000000	n/a	2	-1.067708e-01	-1.067708e-01
86.988300	1.449409	dec_nonsocial_accept	1.449409	16.000000	n/a	2	-1.103723e-01	-1.103723e-01
86.988300	1.449409	dec_accept	1.449409	16.000000	n/a	2	-1.141304e-01	-1.141304e-01
86.988300	1.449409	dec_nonsocial_accept_low	1.449409	16.000000	n/a	2	-1.067708e-01	-1.067708e-01
93.821090	1.616084	dec_nonsocial_choice	1.616084	16.000000	n/a	8	2.682292e-01	2.682292e-01
93.821090	1.616084	dec_choice	1.616084	16.000000	n/a	8	2.682292e-01	2.682292e-01
93.821090	1.616084	dec_nonsocial_accept	1.616084	16.000000	n/a	8	2.646277e-01	2.646277e-01
93.821090	1.616084	dec_accept	1.616084	16.000000	n/a	8	2.608696e-01	2.608696e-01
93.821090	1.616084	dec_nonsocial_accept_high	1.616084	16.000000	n/a	8	2.682292e-01	2.682292e-01
100.655110	1.799019	dec_social_choice	1.799019	32.000000	n/a	2	-1.692708e-01	-1.692708e-01
100.655110	1.799019	dec_choice	1.799019	32.000000	n/a	2	-1.692708e-01	-1.692708e-01
100.655110	1.799019	dec_social_accept	1.799019	32.000000	n/a	2	-1.728723e-01	-1.728723e-01
100.655110	1.799019	dec_accept	1.799019	32.000000	n/a	2	-1.692708e-01	-1.692708e-01
100.655110	1.799019	dec_social_accept_low	1.799019	32.000000	n/a	2	-1.692708e-01	-1.692708e-01
109.920950	1.250021	dec_nonsocial_choice	1.250021	32.000000	n/a	2	-1.692708e-01	-1.692708e-01
109.920950	1.250021	dec_choice	1.250021	32.000000	n/a	2	-1.692708e-01	-1.692708e-01
109.920950	1.250021	dec_nonsocial_accept	1.250021	32.000000	n/a	2	-1.728723e-01	-1.728723e-01
109.920950	1.250021	dec_accept	1.250021	32.000000	n/a	2	-1.766304e-01	-1.766304e-01
109.920950	1.250021	dec_nonsocial_low	1.250021	32.000000	n/a	2	-1.692708e-01	-1.692708e-01
109.920950	1.250021	dec_nonsocial_accept_low	1.250021	32.000000	n/a	2	-1.766304e-01	-1.766304e-01
117.571920	1.299169	dec_nonsocial_choice	1.299169	32.000000	n/a	16	2.682292e-01	2.682292e-01
117.571920	1.299169	dec_choice	1.299169	32.000000	n/a	16	2.682292e-01	2.682292e-01
117.571920	1.299169	dec_nonsocial_accept	1.299169	32.000000	n/a	16	2.646277e-01	2.646277e-01
117.571920	1.299169	dec_accept	1.299169	32.000000	n/a	16	2.608696e-01	2.608696e-01
117.571920	1.299169	dec_nonsocial_high	1.299169	32.000000	n/a	16	2.682292e-01	2.682292e-01
117.571920	1.299169	dec_nonsocial_accept_high	1.299169	32.000000	n/a	16	2.608696e-01	2.608696e-01
124.403150	1.567986	dec_social_choice	1.567986	32.000000	n/a	8	1.822917e-02	1.822917e-02
124.403150	1.567986	dec_choice	1.567986	32.000000	n/a	8	1.822917e-02	1.822917e-02
124.403150	1.567986	dec_social_accept	1.567986	32.000000	n/a	8	1.462766e-02	1.462766e-02
124.403150	1.567986	dec_accept	1.567986	32.000000	n/a	8	1.822917e-02	1.822917e-02
124.403150	1.567986	dec_social_accept_high	1.567986	32.000000	n/a	8	1.822917e-02	1.822917e-02
132.038070	1.533042	dec_social_choice	1.533042	16.000000	n/a	4	1.822917e-02	1.822917e-02
132.038070	1.533042	dec_choice	1.533042	16.000000	n/a	4	1.822917e-02	1.822917e-02
132.038070	1.533042	dec_social_accept	1.533042	16.000000	n/a	4	1.462766e-02	1.462766e-02
132.038070	1.533042	dec_accept	1.533042	16.000000	n/a	4	1.822917e-02	1.822917e-02
132.038070	1.533042	dec_social_high	1.533042	16.000000	n/a	4	1.822917e-02	1.822917e-02
132.038070	1.533042	dec_social_accept_high	1.533042	16.000000	n/a	4	1.822917e-02	1.822917e-02
139.687060	1.450142	dec_social_choice	1.450142	32.000000	n/a	16	2.682292e-01	2.682292e-01
139.687060	1.450142	dec_choice	1.450142	32.000000	n/a	16	2.682292e-01	2.682292e-01
139.687060	1.450142	dec_social_accept	1.450142	32.000000	n/a	16	2.646277e-01	2.646277e-01
139.687060	1.450142	dec_accept	1.450142	32.000000	n/a	16	2.682292e-01	2.682292e-01
139.687060	1.450142	dec_social_high	1.450142	32.000000	n/a	16	2.682292e-01	2.682292e-01
139.687060	1.450142	dec_social_accept_high	1.450142	32.000000	n/a	16	2.682292e-01	2.682292e-01
146.521030	1.399830	dec_nonsocial_choice	1.399830	32.000000	n/a	2	-1.692708e-01	-1.692708e-01
146.521030	1.399830	dec_choice	1.399830	32.000000	n/a	2	-1.692708e-01	-1.692708e-01
146.521030	1.399830	dec_nonsocial_accept	1.399830	32.000000	n/a	2	-1.728723e-01	-1.728723e-01
146.521030	1.399830	dec_accept	1.399830	32.000000	n/a	2	-1.766304e-01	-1.766304e-01
146.521030	1.399830	dec_nonsocial_accept_low	1.399830	32.000000	n/a	2	-1.692708e-01	-1.692708e-01
153.354000	1.216241	dec_nonsocial_choice	1.216241	32.000000	n/a	8	1.822917e-02	1.822917e-02
153.354000	1.216241	dec_choice	1.216241	32.000000	n/a	8	1.822917e-02	1.822917e-02
153.354000	1.216241	dec_nonsocial_accept	1.216241	32.000000	n/a	8	1.462766e-02	1.462766e-02
153.354000	1.216241	dec_accept	1.216241	32.000000	n/a	8	1.086957e-02	1.086957e-02
153.354000	1.216241	dec_nonsocial_high	1.216241	32.000000	n/a	8	1.822917e-02	1.822917e-02
153.354000	1.216241	dec_nonsocial_accept_high	1.216241	32.000000	n/a	8	1.086957e-02	1.086957e-02
160.188060	1.432688	dec_nonsocial_choice	1.432688	32.000000	n/a	3	-1.380208e-01	-1.380208e-01
160.188060	1.432688	dec_choice	1.432688	32.000000	n/a	3	-1.380208e-01	-1.380208e-01
160.188060	1.432688	dec_nonsocial_accept	1.432688	32.000000	n/a	3	-1.416223e-01	-1.416223e-01
160.188060	1.432688	dec_accept	1.432688	32.000000	n/a	3	-1.453804e-01	-1.453804e-01
160.188060	1.432688	dec_nonsocial_accept_low	1.432688	32.000000	n/a	3	-1.380208e-01	-1.380208e-01
171.053090	1.567419	dec_social_choice	1.567419	16.000000	n/a	2	-1.067708e-01	-1.067708e-01
171.053090	1.567419	dec_choice	1.567419	16.000000	n/a	2	-1.067708e-01	-1.067708e-01
171.053090	1.567419	dec_social_accept	1.567419	16.000000	n/a	2	-1.103723e-01	-1.103723e-01
171.053090	1.567419	dec_accept	1.567419	16.000000	n/a	2	-1.067708e-01	-1.067708e-01
171.053090	1.567419	dec_social_low	1.567419	16.000000	n/a	2	-1.067708e-01	-1.067708e-01
171.053090	1.567419	dec_social_accept_low	1.567419	16.000000	n/a	2	-1.067708e-01	-1.067708e-01
178.704200	1.550236	dec_social_choice	1.550236	16.000000	n/a	8	2.682292e-01	2.682292e-01
178.704200	1.550236	dec_choice	1.550236	16.000000	n/a	8	2.682292e-01	2.682292e-01
178.704200	1.550236	dec_social_accept	1.550236	16.000000	n/a	8	2.646277e-01	2.646277e-01
178.704200	1.550236	dec_accept	1.550236	16.000000	n/a	8	2.682292e-01	2.682292e-01
178.704200	1.550236	dec_social_accept_high	1.550236	16.000000	n/a	8	2.682292e-01	2.682292e-01
185.537520	1.416329	dec_social_choice	1.416329	32.000000	n/a	2	-1.692708e-01	-1.692708e-01
185.537520	1.416329	dec_choice	1.416329	32.000000	n/a	2	-1.692708e-01	-1.692708e-01
185.537520	1.416329	dec_social_accept	1.416329	32.000000	n/a	2	-1.728723e-01	-1.728723e-01
185.537520	1.416329	dec_accept	1.416329	32.000000	n/a	2	-1.692708e-01	-1.692708e-01
185.537520	1.416329	dec_social_low	1.416329	32.000000	n/a	2	-1.692708e-01	-1.692708e-01
185.537520	1.416329	dec_social_accept_low	1.416329	32.000000	n/a	2	-1.692708e-01	-1.692708e-01
193.187150	1.449862	dec_nonsocial_choice	1.449862	16.000000	n/a	4	1.822917e-02	1.822917e-02
193.187150	1.449862	dec_choice	1.449862	16.000000	n/a	4	1.822917e-02	1.822917e-02
193.187150	1.449862	dec_nonsocial_accept	1.449862	16.000000	n/a	4	1.462766e-02	1.462766e-02
193.187150	1.449862	dec_accept	1.449862	16.000000	n/a	4	1.086957e-02	1.086957e-02
193.187150	1.449862	dec_nonsocial_accept_high	1.449862	16.000000	n/a	4	1.822917e-02	1.822917e-02
200.021010	1.382706	dec_social_choice	1.382706	16.000000	n/a	1	-1.692708e-01	-1.692708e-01
200.021010	1.382706	dec_choice	1.382706	16.000000	n/a	1	-1.692708e-01	-1.692708e-01
200.021010	1.382706	dec_social_accept	1.382706	16.000000	n/a	1	-1.728723e-01	-1.728723e-01
200.021010	1.382706	dec_accept	1.382706	16.000000	n/a	1	-1.692708e-01	-1.692708e-01
200.021010	1.382706	dec_social_low	1.382706	16.000000	n/a	1	-1.692708e-01	-1.692708e-01
200.021010	1.382706	dec_social_accept_low	1.382706	16.000000	n/a	1	-1.692708e-01	-1.692708e-01
207.670850	1.133199	dec_nonsocial_choice	1.133199	32.000000	n/a	16	2.682292e-01	2.682292e-01
207.670850	1.133199	dec_choice	1.133199	32.000000	n/a	16	2.682292e-01	2.682292e-01
207.670850	1.133199	dec_nonsocial_accept	1.133199	32.000000	n/a	16	2.646277e-01	2.646277e-01
207.670850	1.133199	dec_accept	1.133199	32.000000	n/a	16	2.608696e-01	2.608696e-01
207.670850	1.133199	dec_nonsocial_high	1.133199	32.000000	n/a	16	2.682292e-01	2.682292e-01
207.670850	1.133199	dec_nonsocial_accept_high	1.133199	32.000000	n/a	16	2.608696e-01	2.608696e-01
214.504930	1.432403	dec_social_choice	1.432403	16.000000	n/a	2	-1.067708e-01	-1.067708e-01
214.504930	1.432403	dec_choice	1.432403	16.000000	n/a	2	-1.067708e-01	-1.067708e-01
214.504930	1.432403	dec_social_accept	1.432403	16.000000	n/a	2	-1.103723e-01	-1.103723e-01
214.504930	1.432403	dec_accept	1.432403	16.000000	n/a	2	-1.067708e-01	-1.067708e-01
214.504930	1.432403	dec_social_accept_low	1.432403	16.000000	n/a	2	-1.067708e-01	-1.067708e-01
221.337070	1.166511	dec_nonsocial_choice	1.166511	16.000000	n/a	2	-1.067708e-01	-1.067708e-01
221.337070	1.166511	dec_choice	1.166511	16.000000	n/a	2	-1.067708e-01	-1.067708e-01
221.337070	1.166511	dec_nonsocial_accept	1.166511	16.000000	n/a	2	-1.103723e-01	-1.103723e-01
221.337070	1.166511	dec_accept	1.166511	16.000000	n/a	2	-1.141304e-01	-1.141304e-01
221.337070	1.166511	dec_nonsocial_low	1.166511	16.000000	n/a	2	-1.067708e-01	-1.067708e-01
221.337070	1.166511	dec_nonsocial_accept_low	1.166511	16.000000	n/a	2	-1.141304e-01	-1.141304e-01
233.821080	1.333081	dec_nonsocial_choice	1.333081	16.000000	n/a	1	-1.692708e-01	-1.692708e-01
233.821080	1.333081	dec_choice	1.333081	16.000000	n/a	1	-1.692708e-01	-1.692708e-01
233.821080	1.333081	dec_nonsocial_accept	1.333081	16.000000	n/a	1	-1.728723e-01	-1.728723e-01
233.821080	1.333081	dec_accept	1.333081	16.000000	n/a	1	-1.766304e-01	-1.766304e-01
233.821080	1.333081	dec_nonsocial_accept_low	1.333081	16.000000	n/a	1	-1.692708e-01	-1.692708e-01
243.087070	1.116439	dec_nonsocial_choice	1.116439	32.000000	n/a	2	-1.692708e-01	-1.692708e-01
243.087070	1.116439	dec_choice	1.116439	32.000000	n/a	2	-1.692708e-01	-1.692708e-01
243.087070	1.116439	dec_nonsocial_accept	1.116439	32.000000	n/a	2	-1.728723e-01	-1.728723e-01
243.087070	1.116439	dec_accept	1.116439	32.000000	n/a	2	-1.766304e-01	-1.766304e-01
243.087070	1.116439	dec_nonsocial_accept_low	1.116439	32.000000	n/a	2	-1.692708e-01	-1.692708e-01
250.737100	1.133541	dec_nonsocial_choice	1.133541	16.000000	n/a	2	-1.067708e-01	-1.067708e-01
250.737100	1.133541	dec_choice	1.133541	16.000000	n/a	2	-1.067708e-01	-1.067708e-01
250.737100	1.133541	dec_nonsocial_accept	1.133541	16.000000	n/a	2	-1.103723e-01	-1.103723e-01
250.737100	1.133541	dec_accept	1.133541	16.000000	n/a	2	-1.141304e-01	-1.141304e-01
250.737100	1.133541	dec_nonsocial_accept_low	1.133541	16.000000	n/a	2	-1.067708e-01	-1.067708e-01
257.571000	1.249248	dec_nonsocial_choice	1.249248	32.000000	n/a	3	-1.380208e-01	-1.380208e-01
257.571000	1.249248	dec_choice	1.249248	32.000000	n/a	3	-1.380208e-01	-1.380208e-01
257.571000	1.249248	dec_nonsocial_accept	1.249248	32.000000	n/a	3	-1.416223e-01	-1.416223e-01
257.571000	1.249248	dec_accept	1.249248	32.000000	n/a	3	-1.453804e-01	-1.453804e-01
257.571000	1.249248	dec_nonsocial_low	1.249248	32.000000	n/a	3	-1.380208e-01	-1.380208e-01
257.571000	1.249248	dec_nonsocial_accept_low	1.249248	32.000000	n/a	3	-1.453804e-01	-1.453804e-01
264.403300	1.400596	dec_nonsocial_choice	1.400596	32.000000	n/a	2	-1.692708e-01	-1.692708e-01
264.403300	1.400596	dec_choice	1.400596	32.000000	n/a	2	-1.692708e-01	-1.692708e-01
264.403300	1.400596	dec_nonsocial_accept	1.400596	32.000000	n/a	2	-1.728723e-01	-1.728723e-01
264.403300	1.400596	dec_accept	1.400596	32.000000	n/a	2	-1.766304e-01	-1.766304e-01
264.403300	1.400596	dec_nonsocial_accept_low	1.400596	32.000000	n/a	2	-1.692708e-01	-1.692708e-01
272.038150	1.348816	dec_social_choice	1.348816	32.000000	n/a	2	-1.692708e-01	-1.692708e-01
272.038150	1.348816	dec_choice	1.348816	32.000000	n/a	2	-1.692708e-01	-1.692708e-01
272.038150	1.348816	dec_social_accept	1.348816	32.000000	n/a	2	-1.728723e-01	-1.728723e-01
272.038150	1.348816	dec_accept	1.348816	32.000000	n/a	2	-1.692708e-01	-1.692708e-01
272.038150	1.348816	dec_social_low	1.348816	32.000000	n/a	2	-1.692708e-01	-1.692708e-01
272.038150	1.348816	dec_social_accept_low	1.348816	32.000000	n/a	2	-1.692708e-01	-1.692708e-01
278.870360	1.300221	dec_nonsocial_choice	1.300221	16.000000	n/a	4	1.822917e-02	1.822917e-02
278.870360	1.300221	dec_choice	1.300221	16.000000	n/a	4	1.822917e-02	1.822917e-02
278.870360	1.300221	dec_nonsocial_accept	1.300221	16.000000	n/a	4	1.462766e-02	1.462766e-02
278.870360	1.300221	dec_accept	1.300221	16.000000	n/a	4	1.086957e-02	1.086957e-02
278.870360	1.300221	dec_nonsocial_accept_high	1.300221	16.000000	n/a	4	1.822917e-02	1.822917e-02
285.703770	1.200144	dec_social_choice	1.200144	16.000000	n/a	4	1.822917e-02	1.822917e-02
285.703770	1.200144	dec_choice	1.200144	16.000000	n/a	4	1.822917e-02	1.822917e-02
285.703770	1.200144	dec_social_accept	1.200144	16.000000	n/a	4	1.462766e-02	1.462766e-02
285.703770	1.200144	dec_accept	1.200144	16.000000	n/a	4	1.822917e-02	1.822917e-02
285.703770	1.200144	dec_social_accept_high	1.200144	16.000000	n/a	4	1.822917e-02	1.822917e-02
294.953100	1.100798	dec_social_choice	1.100798	16.000000	n/a	4	1.822917e-02	1.822917e-02
294.953100	1.100798	dec_choice	1.100798	16.000000	n/a	4	1.822917e-02	1.822917e-02
294.953100	1.100798	dec_social_accept	1.100798	16.000000	n/a	4	1.462766e-02	1.462766e-02
294.953100	1.100798	dec_accept	1.100798	16.000000	n/a	4	1.822917e-02	1.822917e-02
294.953100	1.100798	dec_social_accept_high	1.100798	16.000000	n/a	4	1.822917e-02	1.822917e-02
301.787100	1.199877	dec_nonsocial_choice	1.199877	16.000000	n/a	4	1.822917e-02	1.822917e-02
301.787100	1.199877	dec_choice	1.199877	16.000000	n/a	4	1.822917e-02	1.822917e-02
301.787100	1.199877	dec_nonsocial_accept	1.199877	16.000000	n/a	4	1.462766e-02	1.462766e-02
301.787100	1.199877	dec_accept	1.199877	16.000000	n/a	4	1.086957e-02	1.086957e-02
301.787100	1.199877	dec_nonsocial_high	1.199877	16.000000	n/a	4	1.822917e-02	1.822917e-02
301.787100	1.199877	dec_nonsocial_accept_high	1.199877	16.000000	n/a	4	1.086957e-02	1.086957e-02
312.654100	1.149709	dec_social_choice	1.149709	16.000000	n/a	1	-1.692708e-01	-1.692708e-01
312.654100	1.149709	dec_choice	1.149709	16.000000	n/a	1	-1.692708e-01	-1.692708e-01
312.654100	1.149709	dec_social_accept	1.149709	16.000000	n/a	1	-1.728723e-01	-1.728723e-01
312.654100	1.149709	dec_accept	1.149709	16.000000	n/a	1	-1.692708e-01	-1.692708e-01
312.654100	1.149709	dec_social_accept_low	1.149709	16.000000	n/a	1	-1.692708e-01	-1.692708e-01
319.486880	1.150605	dec_nonsocial_choice	1.150605	32.000000	n/a	8	1.822917e-02	1.822917e-02
319.486880	1.150605	dec_choice	1.150605	32.000000	n/a	8	1.822917e-02	1.822917e-02
319.486880	1.150605	dec_nonsocial_accept	1.150605	32.000000	n/a	8	1.462766e-02	1.462766e-02
319.486880	1.150605	dec_accept	1.150605	32.000000	n/a	8	1.086957e-02	1.086957e-02
319.486880	1.150605	dec_nonsocial_accept_high	1.150605	32.000000	n/a	8	1.822917e-02	1.822917e-02
328.737120	1.416192	dec_social_choice	1.416192	32.000000	n/a	8	1.822917e-02	1.822917e-02
328.737120	1.416192	dec_choice	1.416192	32.000000	n/a	8	1.822917e-02	1.822917e-02
328.737120	1.416192	dec_social_accept	1.416192	32.000000	n/a	8	1.462766e-02	1.462766e-02
328.737120	1.416192	dec_accept	1.416192	32.000000	n/a	8	1.822917e-02	1.822917e-02
328.737120	1.416192	dec_social_accept_high	1.416192	32.000000	n/a	8	1.822917e-02	1.822917e-02
336.387100	1.232950	dec_nonsocial_choice	1.232950	32.000000	n/a	16	2.682292e-01	2.682292e-01
336.387100	1.232950	dec_choice	1.232950	32.000000	n/a	16	2.682292e-01	2.682292e-01
336.387100	1.232950	dec_nonsocial_accept	1.232950	32.000000	n/a	16	2.646277e-01	2.646277e-01
336.387100	1.232950	dec_accept	1.232950	32.000000	n/a	16	2.608696e-01	2.608696e-01
336.387100	1.232950	dec_nonsocial_accept_high	1.232950	32.000000	n/a	16	2.682292e-01	2.682292e-01
344.037080	1.249630	dec_social_choice	1.249630	32.000000	n/a	2	-1.692708e-01	-1.692708e-01
344.037080	1.249630	dec_choice	1.249630	32.000000	n/a	2	-1.692708e-01	-1.692708e-01
344.037080	1.249630	dec_social_accept	1.249630	32.000000	n/a	2	-1.728723e-01	-1.728723e-01
344.037080	1.249630	dec_accept	1.249630	32.000000	n/a	2	-1.692708e-01	-1.692708e-01
344.037080	1.249630	dec_social_accept_low	1.249630	32.000000	n/a	2	-1.692708e-01	-1.692708e-01
350.871120	1.515452	dec_social_choice	1.515452	16.000000	n/a	4	1.822917e-02	1.822917e-02
350.871120	1.515452	dec_choice	1.515452	16.000000	n/a	4	1.822917e-02	1.822917e-02
350.871120	1.515452	dec_social_accept	1.515452	16.000000	n/a	4	1.462766e-02	1.462766e-02
350.871120	1.515452	dec_accept	1.515452	16.000000	n/a	4	1.822917e-02	1.822917e-02
350.871120	1.515452	dec_social_high	1.515452	16.000000	n/a	4	1.822917e-02	1.822917e-02
350.871120	1.515452	dec_social_accept_high	1.515452	16.000000	n/a	4	1.822917e-02	1.822917e-02
357.703220	1.616567	dec_nonsocial_choice	1.616567	32.000000	n/a	16	2.682292e-01	2.682292e-01
357.703220	1.616567	dec_choice	1.616567	32.000000	n/a	16	2.682292e-01	2.682292e-01
357.703220	1.616567	dec_nonsocial_accept	1.616567	32.000000	n/a	16	2.646277e-01	2.646277e-01
357.703220	1.616567	dec_accept	1.616567	32.000000	n/a	16	2.608696e-01	2.608696e-01
357.703220	1.616567	dec_nonsocial_high	1.616567	32.000000	n/a	16	2.682292e-01	2.682292e-01
357.703220	1.616567	dec_nonsocial_accept_high	1.616567	32.000000	n/a	16	2.608696e-01	2.608696e-01
365.354060	1.199518	dec_social_choice	1.199518	16.000000	n/a	2	-1.067708e-01	-1.067708e-01
365.354060	1.199518	dec_choice	1.199518	16.000000	n/a	2	-1.067708e-01	-1.067708e-01
365.354060	1.199518	dec_social_accept	1.199518	16.000000	n/a	2	-1.103723e-01	-1.103723e-01
365.354060	1.199518	dec_accept	1.199518	16.000000	n/a	2	-1.067708e-01	-1.067708e-01
365.354060	1.199518	dec_social_accept_low	1.199518	16.000000	n/a	2	-1.067708e-01	-1.067708e-01
372.186950	1.483466	dec_social_choice	1.483466	16.000000	n/a	8	2.682292e-01	2.682292e-01
372.186950	1.483466	dec_choice	1.483466	16.000000	n/a	8	2.682292e-01	2.682292e-01
372.186950	1.483466	dec_social_accept	1.483466	16.000000	n/a	8	2.646277e-01	2.646277e-01
372.186950	1.483466	dec_accept	1.483466	16.000000	n/a	8	2.682292e-01	2.682292e-01
372.186950	1.483466	dec_social_accept_high	1.483466	16.000000	n/a	8	2.682292e-01	2.682292e-01
