onset	duration	trial_type	response_time	Endowment	Decision	Offer
4.505658	2	cue_nonsocial	n/a	16	n/a	n/a
4.505658	2	cue_nonsocial_low	n/a	16	n/a	n/a
6.512011	1.216591	dec_nonsocial_low	1.216591	16	n/a	4
6.512011	1.216591	dec_nonsocial_low_accept	1.216591	16	accept	4
11.407676	2	cue_social	n/a	16	n/a	n/a
11.407676	2	cue_social_low	n/a	16	n/a	n/a
13.344681	1.251133	dec_social_low	1.251133	16	n/a	1
13.344681	1.251133	dec_social_low_reject	1.251133	16	reject	1
19.026604	2	cue_social	n/a	16	n/a	n/a
19.026604	2	cue_social_low	n/a	16	n/a	n/a
20.978860	1.083191	dec_social_low	1.083191	16	n/a	1
20.978860	1.083191	dec_social_low_reject	1.083191	16	reject	1
25.890648	2	cue_social	n/a	16	n/a	n/a
25.890648	2	cue_social_low	n/a	16	n/a	n/a
27.811874	1.133417	dec_social_low	1.133417	16	n/a	4
27.811874	1.133417	dec_social_low_accept	1.133417	16	accept	4
35.073425	2	cue_nonsocial	n/a	16	n/a	n/a
35.073425	2	cue_nonsocial_low	n/a	16	n/a	n/a
37.079563	0.999374	dec_nonsocial_low	0.999374	16	n/a	4
37.079563	0.999374	dec_nonsocial_low_accept	0.999374	16	accept	4
41.905180	2	cue_nonsocial	n/a	32	n/a	n/a
41.905180	2	cue_nonsocial_high	n/a	32	n/a	n/a
43.911858	1.250766	dec_nonsocial_high	1.250766	32	n/a	16
43.911858	1.250766	dec_nonsocial_high_accept	1.250766	32	accept	16
48.782207	2	cue_social	n/a	32	n/a	n/a
48.782207	2	cue_social_high	n/a	32	n/a	n/a
50.745840	1.483101	dec_social_high	1.483101	32	n/a	3
50.745840	1.483101	dec_social_high_reject	1.483101	32	reject	3
56.431830	2	cue_social	n/a	16	n/a	n/a
56.431830	2	cue_social_low	n/a	16	n/a	n/a
58.379790	0.865036	dec_social_low	0.865036	16	n/a	8
58.379790	0.865036	dec_social_low_accept	0.865036	16	accept	8
64.064230	2	cue_social	n/a	16	n/a	n/a
64.064230	2	cue_social_low	n/a	16	n/a	n/a
66.027830	1.133877	dec_social_low	1.133877	16	n/a	2
66.027830	1.133877	dec_social_low_reject	1.133877	16	reject	2
71.672310	2	cue_nonsocial	n/a	16	n/a	n/a
71.672310	2	cue_nonsocial_low	n/a	16	n/a	n/a
73.678790	0.999779	dec_nonsocial_low	0.999779	16	n/a	2
73.678790	0.999779	dec_nonsocial_low_reject	0.999779	16	reject	2
84.155520	2	cue_nonsocial	n/a	32	n/a	n/a
84.155520	2	cue_nonsocial_high	n/a	32	n/a	n/a
86.161770	0.950207	dec_nonsocial_high	0.950207	32	n/a	8
86.161770	0.950207	dec_nonsocial_high_accept	0.950207	32	accept	8
90.988960	2	cue_nonsocial	n/a	16	n/a	n/a
90.988960	2	cue_nonsocial_low	n/a	16	n/a	n/a
92.995590	1.082684	dec_nonsocial_low	1.082684	16	n/a	1
92.995590	1.082684	dec_nonsocial_low_reject	1.082684	16	reject	1
97.916435	2	cue_social	n/a	16	n/a	n/a
97.916435	2	cue_social_low	n/a	16	n/a	n/a
99.827736	1.100857	dec_social_low	1.100857	16	n/a	1
99.827736	1.100857	dec_social_low_reject	1.100857	16	reject	1
105.537470	2	cue_social	n/a	32	n/a	n/a
105.537470	2	cue_social_high	n/a	32	n/a	n/a
107.477750	0.967304	dec_social_high	0.967304	32	n/a	8
107.477750	0.967304	dec_social_high_accept	0.967304	32	accept	8
112.305850	2	cue_nonsocial	n/a	32	n/a	n/a
112.305850	2	cue_nonsocial_high	n/a	32	n/a	n/a
114.311356	1.233894	dec_nonsocial_high	1.233894	32	n/a	16
114.311356	1.233894	dec_nonsocial_high_accept	1.233894	32	accept	16
119.138710	2	cue_nonsocial	n/a	16	n/a	n/a
119.138710	2	cue_nonsocial_low	n/a	16	n/a	n/a
121.145730	1.065438	dec_nonsocial_low	1.065438	16	n/a	1
121.145730	1.065438	dec_nonsocial_low_reject	1.065438	16	reject	1
130.005740	2	cue_nonsocial	n/a	16	n/a	n/a
130.005740	2	cue_nonsocial_low	n/a	16	n/a	n/a
132.011720	1.033409	dec_nonsocial_low	1.033409	16	n/a	2
132.011720	1.033409	dec_nonsocial_low_reject	1.033409	16	reject	2
137.654920	2	cue_nonsocial	n/a	16	n/a	n/a
137.654920	2	cue_nonsocial_low	n/a	16	n/a	n/a
139.662060	0.966138	dec_nonsocial_low	0.966138	16	n/a	2
139.662060	0.966138	dec_nonsocial_low_reject	0.966138	16	reject	2
145.338710	2	cue_social	n/a	32	n/a	n/a
145.338710	2	cue_social_high	n/a	32	n/a	n/a
147.310710	0.968154	dec_social_high	0.968154	32	n/a	8
147.310710	0.968154	dec_social_high_accept	0.968154	32	accept	8
152.138260	2	cue_nonsocial	n/a	32	n/a	n/a
152.138260	2	cue_nonsocial_high	n/a	32	n/a	n/a
154.144670	1.100100	dec_nonsocial_high	1.100100	32	n/a	8
154.144670	1.100100	dec_nonsocial_high_accept	1.100100	32	accept	8
159.029590	2	cue_social	n/a	16	n/a	n/a
159.029590	2	cue_social_low	n/a	16	n/a	n/a
160.978040	0.966821	dec_social_low	0.966821	16	n/a	8
160.978040	0.966821	dec_social_low_accept	0.966821	16	accept	8
168.285110	2	cue_social	n/a	16	n/a	n/a
168.285110	2	cue_social_low	n/a	16	n/a	n/a
170.244830	0.983884	dec_social_low	0.983884	16	n/a	8
170.244830	0.983884	dec_social_low_accept	0.983884	16	accept	8
175.071580	2	cue_nonsocial	n/a	16	n/a	n/a
175.071580	2	cue_nonsocial_low	n/a	16	n/a	n/a
177.077760	1.000172	dec_nonsocial_low	1.000172	16	n/a	8
177.077760	1.000172	dec_nonsocial_low_accept	1.000172	16	accept	8
182.817000	2	cue_social	n/a	32	n/a	n/a
182.817000	2	cue_social_high	n/a	32	n/a	n/a
184.712650	1.148829	dec_social_high	1.148829	32	n/a	2
184.712650	1.148829	dec_social_high_reject	1.148829	32	reject	2
191.971600	2	cue_nonsocial	n/a	16	n/a	n/a
191.971600	2	cue_nonsocial_low	n/a	16	n/a	n/a
193.978410	1.150051	dec_nonsocial_low	1.150051	16	n/a	1
193.978410	1.150051	dec_nonsocial_low_reject	1.150051	16	reject	1
198.855800	2	cue_social	n/a	32	n/a	n/a
198.855800	2	cue_social_high	n/a	32	n/a	n/a
200.811630	1.416329	dec_social_high	1.416329	32	n/a	3
200.811630	1.416329	dec_social_high_reject	1.416329	32	reject	3
205.638290	2	cue_nonsocial	n/a	32	n/a	n/a
205.638290	2	cue_nonsocial_high	n/a	32	n/a	n/a
207.645480	1.065867	dec_nonsocial_high	1.065867	32	n/a	3
207.645480	1.065867	dec_nonsocial_high_reject	1.065867	32	reject	3
212.471630	2	cue_nonsocial	n/a	32	n/a	n/a
212.471630	2	cue_nonsocial_high	n/a	32	n/a	n/a
214.477250	1.300827	dec_nonsocial_high	1.300827	32	n/a	3
214.477250	1.300827	dec_nonsocial_high_reject	1.300827	32	reject	3
220.104750	2	cue_nonsocial	n/a	16	n/a	n/a
220.104750	2	cue_nonsocial_low	n/a	16	n/a	n/a
222.111590	1.150050	dec_nonsocial_low	1.150050	16	n/a	1
222.111590	1.150050	dec_nonsocial_low_reject	1.150050	16	reject	1
226.937880	2	cue_nonsocial	n/a	32	n/a	n/a
226.937880	2	cue_nonsocial_high	n/a	32	n/a	n/a
228.945040	1.032982	dec_nonsocial_high	1.032982	32	n/a	16
228.945040	1.032982	dec_nonsocial_high_accept	1.032982	32	accept	16
234.588400	2	cue_nonsocial	n/a	16	n/a	n/a
234.588400	2	cue_nonsocial_low	n/a	16	n/a	n/a
236.594570	1.100205	dec_nonsocial_low	1.100205	16	n/a	8
236.594570	1.100205	dec_nonsocial_low_accept	1.100205	16	accept	8
241.454940	2	cue_social	n/a	32	n/a	n/a
241.454940	2	cue_social_high	n/a	32	n/a	n/a
243.427380	0.883787	dec_social_high	0.883787	32	n/a	16
243.427380	0.883787	dec_social_high_accept	0.883787	32	accept	16
252.287890	2	cue_nonsocial	n/a	32	n/a	n/a
252.287890	2	cue_nonsocial_high	n/a	32	n/a	n/a
254.294570	1.216557	dec_nonsocial_high	1.216557	32	n/a	8
254.294570	1.216557	dec_nonsocial_high_accept	1.216557	32	accept	8
259.168240	2	cue_social	n/a	16	n/a	n/a
259.168240	2	cue_social_low	n/a	16	n/a	n/a
261.128570	1.165395	dec_social_low	1.165395	16	n/a	4
261.128570	1.165395	dec_social_low_accept	1.165395	16	accept	4
266.814180	2	cue_social	n/a	16	n/a	n/a
266.814180	2	cue_social_low	n/a	16	n/a	n/a
268.777040	1.001095	dec_social_low	1.001095	16	n/a	8
268.777040	1.001095	dec_social_low_accept	1.001095	16	accept	8
273.604060	2	cue_nonsocial	n/a	32	n/a	n/a
273.604060	2	cue_nonsocial_high	n/a	32	n/a	n/a
275.612520	1.315006	dec_nonsocial_high	1.315006	32	n/a	2
275.612520	1.315006	dec_nonsocial_high_reject	1.315006	32	reject	2
280.495120	2	cue_social	n/a	32	n/a	n/a
280.495120	2	cue_social_high	n/a	32	n/a	n/a
282.444430	1.083792	dec_social_high	1.083792	32	n/a	2
282.444430	1.083792	dec_social_high_reject	1.083792	32	reject	2
289.727000	2	cue_social	n/a	32	n/a	n/a
289.727000	2	cue_social_high	n/a	32	n/a	n/a
291.710170	1.117436	dec_social_high	1.117436	32	n/a	8
291.710170	1.117436	dec_social_high_accept	1.117436	32	accept	8
296.538100	2	cue_nonsocial	n/a	16	n/a	n/a
296.538100	2	cue_nonsocial_low	n/a	16	n/a	n/a
298.544500	0.915930	dec_nonsocial_low	0.915930	16	n/a	8
298.544500	0.915930	dec_nonsocial_low_accept	0.915930	16	accept	8
305.854600	2	cue_social	n/a	16	n/a	n/a
305.854600	2	cue_social_low	n/a	16	n/a	n/a
307.810700	1.050629	dec_social_low	1.050629	16	n/a	1
307.810700	1.050629	dec_social_low_reject	1.050629	16	reject	1
312.699980	2	cue_social	n/a	16	n/a	n/a
312.699980	2	cue_social_low	n/a	16	n/a	n/a
314.644650	0.983333	dec_social_low	0.983333	16	n/a	4
314.644650	0.983333	dec_social_low_accept	0.983333	16	accept	4
321.887300	2	cue_nonsocial	n/a	16	n/a	n/a
321.887300	2	cue_nonsocial_low	n/a	16	n/a	n/a
323.895420	1.048942	dec_nonsocial_low	1.048942	16	n/a	4
323.895420	1.048942	dec_nonsocial_low_accept	1.048942	16	accept	4
328.721370	2	cue_nonsocial	n/a	16	n/a	n/a
328.721370	2	cue_nonsocial_low	n/a	16	n/a	n/a
330.727570	1.366341	dec_nonsocial_low	1.366341	16	n/a	2
330.727570	1.366341	dec_nonsocial_low_reject	1.366341	16	reject	2
335.620760	2	cue_social	n/a	16	n/a	n/a
335.620760	2	cue_social_low	n/a	16	n/a	n/a
337.561300	1.249617	dec_social_low	1.249617	16	n/a	2
337.561300	1.249617	dec_social_low_reject	1.249617	16	reject	2
344.885070	2	cue_social	n/a	32	n/a	n/a
344.885070	2	cue_social_high	n/a	32	n/a	n/a
346.811430	1.132490	dec_social_high	1.132490	32	n/a	16
346.811430	1.132490	dec_social_high_accept	1.132490	32	accept	16
351.684140	2	cue_social	n/a	16	n/a	n/a
351.684140	2	cue_social_low	n/a	16	n/a	n/a
353.644380	1.233316	dec_social_low	1.233316	16	n/a	2
353.644380	1.233316	dec_social_low_reject	1.233316	16	reject	2
359.328280	2	cue_social	n/a	16	n/a	n/a
359.328280	2	cue_social_low	n/a	16	n/a	n/a
361.293550	1.234162	dec_social_low	1.234162	16	n/a	2
361.293550	1.234162	dec_social_low_reject	1.234162	16	reject	2
366.937530	2	cue_nonsocial	n/a	32	n/a	n/a
366.937530	2	cue_nonsocial_high	n/a	32	n/a	n/a
368.944120	1.150263	dec_nonsocial_high	1.150263	32	n/a	2
368.944120	1.150263	dec_nonsocial_high_reject	1.150263	32	reject	2
