onset	duration	trial_type	response_time	Endowment	Endowment_pmod	Decision	Decision_pmod	Offer_pmod
4.505658	2	cue_nonsocial	n/a	16	-7	n/a	n/a	n/a
4.505658	2	cue_nonsocial_low	n/a	16	-6	n/a	n/a	n/a
11.407676	2	cue_social	n/a	16	-6	n/a	n/a	n/a
11.407676	2	cue_social_low	n/a	16	-7	n/a	n/a	n/a
19.026604	2	cue_social	n/a	16	-6	n/a	n/a	n/a
19.026604	2	cue_social_low	n/a	16	-7	n/a	n/a	n/a
25.890648	2	cue_social	n/a	16	-6	n/a	n/a	n/a
25.890648	2	cue_social_low	n/a	16	-7	n/a	n/a	n/a
35.073425	2	cue_nonsocial	n/a	16	-7	n/a	n/a	n/a
35.073425	2	cue_nonsocial_low	n/a	16	-6	n/a	n/a	n/a
41.905180	2	cue_nonsocial	n/a	32	9	n/a	n/a	n/a
41.905180	2	cue_nonsocial_high	n/a	32	10	n/a	n/a	n/a
48.782207	2	cue_social	n/a	32	10	n/a	n/a	n/a
48.782207	2	cue_social_high	n/a	32	9	n/a	n/a	n/a
56.431830	2	cue_social	n/a	16	-6	n/a	n/a	n/a
56.431830	2	cue_social_low	n/a	16	-7	n/a	n/a	n/a
64.064230	2	cue_social	n/a	16	-6	n/a	n/a	n/a
64.064230	2	cue_social_low	n/a	16	-7	n/a	n/a	n/a
71.672310	2	cue_nonsocial	n/a	16	-7	n/a	n/a	n/a
71.672310	2	cue_nonsocial_low	n/a	16	-6	n/a	n/a	n/a
84.155520	2	cue_nonsocial	n/a	32	9	n/a	n/a	n/a
84.155520	2	cue_nonsocial_high	n/a	32	10	n/a	n/a	n/a
90.988960	2	cue_nonsocial	n/a	16	-7	n/a	n/a	n/a
90.988960	2	cue_nonsocial_low	n/a	16	-6	n/a	n/a	n/a
97.916435	2	cue_social	n/a	16	-6	n/a	n/a	n/a
97.916435	2	cue_social_low	n/a	16	-7	n/a	n/a	n/a
105.537470	2	cue_social	n/a	32	10	n/a	n/a	n/a
105.537470	2	cue_social_high	n/a	32	9	n/a	n/a	n/a
112.305850	2	cue_nonsocial	n/a	32	9	n/a	n/a	n/a
112.305850	2	cue_nonsocial_high	n/a	32	10	n/a	n/a	n/a
119.138710	2	cue_nonsocial	n/a	16	-7	n/a	n/a	n/a
119.138710	2	cue_nonsocial_low	n/a	16	-6	n/a	n/a	n/a
130.005740	2	cue_nonsocial	n/a	16	-7	n/a	n/a	n/a
130.005740	2	cue_nonsocial_low	n/a	16	-6	n/a	n/a	n/a
137.654920	2	cue_nonsocial	n/a	16	-7	n/a	n/a	n/a
137.654920	2	cue_nonsocial_low	n/a	16	-6	n/a	n/a	n/a
145.338710	2	cue_social	n/a	32	10	n/a	n/a	n/a
145.338710	2	cue_social_high	n/a	32	9	n/a	n/a	n/a
152.138260	2	cue_nonsocial	n/a	32	9	n/a	n/a	n/a
152.138260	2	cue_nonsocial_high	n/a	32	10	n/a	n/a	n/a
159.029590	2	cue_social	n/a	16	-6	n/a	n/a	n/a
159.029590	2	cue_social_low	n/a	16	-7	n/a	n/a	n/a
168.285110	2	cue_social	n/a	16	-6	n/a	n/a	n/a
168.285110	2	cue_social_low	n/a	16	-7	n/a	n/a	n/a
175.071580	2	cue_nonsocial	n/a	16	-7	n/a	n/a	n/a
175.071580	2	cue_nonsocial_low	n/a	16	-6	n/a	n/a	n/a
182.817000	2	cue_social	n/a	32	10	n/a	n/a	n/a
182.817000	2	cue_social_high	n/a	32	9	n/a	n/a	n/a
191.971600	2	cue_nonsocial	n/a	16	-7	n/a	n/a	n/a
191.971600	2	cue_nonsocial_low	n/a	16	-6	n/a	n/a	n/a
198.855800	2	cue_social	n/a	32	10	n/a	n/a	n/a
198.855800	2	cue_social_high	n/a	32	9	n/a	n/a	n/a
205.638290	2	cue_nonsocial	n/a	32	9	n/a	n/a	n/a
205.638290	2	cue_nonsocial_high	n/a	32	10	n/a	n/a	n/a
212.471630	2	cue_nonsocial	n/a	32	9	n/a	n/a	n/a
212.471630	2	cue_nonsocial_high	n/a	32	10	n/a	n/a	n/a
220.104750	2	cue_nonsocial	n/a	16	-7	n/a	n/a	n/a
220.104750	2	cue_nonsocial_low	n/a	16	-6	n/a	n/a	n/a
226.937880	2	cue_nonsocial	n/a	32	9	n/a	n/a	n/a
226.937880	2	cue_nonsocial_high	n/a	32	10	n/a	n/a	n/a
234.588400	2	cue_nonsocial	n/a	16	-7	n/a	n/a	n/a
234.588400	2	cue_nonsocial_low	n/a	16	-6	n/a	n/a	n/a
241.454940	2	cue_social	n/a	32	10	n/a	n/a	n/a
241.454940	2	cue_social_high	n/a	32	9	n/a	n/a	n/a
252.287890	2	cue_nonsocial	n/a	32	9	n/a	n/a	n/a
252.287890	2	cue_nonsocial_high	n/a	32	10	n/a	n/a	n/a
259.168240	2	cue_social	n/a	16	-6	n/a	n/a	n/a
259.168240	2	cue_social_low	n/a	16	-7	n/a	n/a	n/a
266.814180	2	cue_social	n/a	16	-6	n/a	n/a	n/a
266.814180	2	cue_social_low	n/a	16	-7	n/a	n/a	n/a
273.604060	2	cue_nonsocial	n/a	32	9	n/a	n/a	n/a
273.604060	2	cue_nonsocial_high	n/a	32	10	n/a	n/a	n/a
280.495120	2	cue_social	n/a	32	10	n/a	n/a	n/a
280.495120	2	cue_social_high	n/a	32	9	n/a	n/a	n/a
289.727000	2	cue_social	n/a	32	10	n/a	n/a	n/a
289.727000	2	cue_social_high	n/a	32	9	n/a	n/a	n/a
296.538100	2	cue_nonsocial	n/a	16	-7	n/a	n/a	n/a
296.538100	2	cue_nonsocial_low	n/a	16	-6	n/a	n/a	n/a
305.854600	2	cue_social	n/a	16	-6	n/a	n/a	n/a
305.854600	2	cue_social_low	n/a	16	-7	n/a	n/a	n/a
312.699980	2	cue_social	n/a	16	-6	n/a	n/a	n/a
312.699980	2	cue_social_low	n/a	16	-7	n/a	n/a	n/a
321.887300	2	cue_nonsocial	n/a	16	-7	n/a	n/a	n/a
321.887300	2	cue_nonsocial_low	n/a	16	-6	n/a	n/a	n/a
328.721370	2	cue_nonsocial	n/a	16	-7	n/a	n/a	n/a
328.721370	2	cue_nonsocial_low	n/a	16	-6	n/a	n/a	n/a
335.620760	2	cue_social	n/a	16	-6	n/a	n/a	n/a
335.620760	2	cue_social_low	n/a	16	-7	n/a	n/a	n/a
344.885070	2	cue_social	n/a	32	10	n/a	n/a	n/a
344.885070	2	cue_social_high	n/a	32	9	n/a	n/a	n/a
351.684140	2	cue_social	n/a	16	-6	n/a	n/a	n/a
351.684140	2	cue_social_low	n/a	16	-7	n/a	n/a	n/a
359.328280	2	cue_social	n/a	16	-6	n/a	n/a	n/a
359.328280	2	cue_social_low	n/a	16	-7	n/a	n/a	n/a
366.937530	2	cue_nonsocial	n/a	32	9	n/a	n/a	n/a
366.937530	2	cue_nonsocial_high	n/a	32	10	n/a	n/a	n/a
6.512011	1.216591	dec_nonsocial_choice	1.216591	16.000000	n/a	4	1.822917e-02	1.822917e-02
6.512011	1.216591	dec_choice	1.216591	16.000000	n/a	4	1.822917e-02	1.822917e-02
6.512011	1.216591	dec_nonsocial_accept	1.216591	16.000000	n/a	4	-1.250000e-01	-1.250000e-01
6.512011	1.216591	dec_accept	1.216591	16.000000	n/a	4	-1.250000e-01	-1.250000e-01
6.512011	1.216591	dec_nonsocial_accept_high	1.216591	16.000000	n/a	4	-1.250000e-01	-1.250000e-01
13.344681	1.251133	dec_social_choice	1.251133	16.000000	n/a	0	0	-2.317708e-01
13.344681	1.251133	dec_choice	1.251133	16.000000	n/a	0	0	-2.317708e-01
13.344681	1.251133	dec_social_reject	1.251133	16.000000	n/a	0	0	-2.604167e-02
13.344681	1.251133	dec_reject	1.251133	16.000000	n/a	0	0	-2.604167e-02
13.344681	1.251133	dec_social_reject_low	1.251133	16.000000	n/a	1	-1.692708e-01	-2.317708e-01
20.978860	1.083191	dec_social_choice	1.083191	16.000000	n/a	0	0	-2.317708e-01
20.978860	1.083191	dec_choice	1.083191	16.000000	n/a	0	0	-2.317708e-01
20.978860	1.083191	dec_social_reject	1.083191	16.000000	n/a	0	0	-2.604167e-02
20.978860	1.083191	dec_reject	1.083191	16.000000	n/a	0	0	-2.604167e-02
20.978860	1.083191	dec_social_low	1.083191	16.000000	n/a	0	-2.317708e-01	-2.317708e-01
20.978860	1.083191	dec_social_reject_low	1.083191	16.000000	n/a	1	-1.692708e-01	-2.317708e-01
27.811874	1.133417	dec_social_choice	1.133417	16.000000	n/a	4	1.822917e-02	1.822917e-02
27.811874	1.133417	dec_choice	1.133417	16.000000	n/a	4	1.822917e-02	1.822917e-02
27.811874	1.133417	dec_social_accept	1.133417	16.000000	n/a	4	-1.250000e-01	-1.250000e-01
27.811874	1.133417	dec_accept	1.133417	16.000000	n/a	4	-1.250000e-01	-1.250000e-01
27.811874	1.133417	dec_social_high	1.133417	16.000000	n/a	4	1.822917e-02	1.822917e-02
27.811874	1.133417	dec_social_accept_high	1.133417	16.000000	n/a	4	1.822917e-02	1.822917e-02
37.079563	0.999374	dec_nonsocial_choice	0.999374	16.000000	n/a	4	1.822917e-02	1.822917e-02
37.079563	0.999374	dec_choice	0.999374	16.000000	n/a	4	1.822917e-02	1.822917e-02
37.079563	0.999374	dec_nonsocial_accept	0.999374	16.000000	n/a	4	-1.250000e-01	-1.250000e-01
37.079563	0.999374	dec_accept	0.999374	16.000000	n/a	4	-1.250000e-01	-1.250000e-01
37.079563	0.999374	dec_nonsocial_high	0.999374	16.000000	n/a	4	1.822917e-02	1.822917e-02
37.079563	0.999374	dec_nonsocial_accept_high	0.999374	16.000000	n/a	4	-1.250000e-01	-1.250000e-01
43.911858	1.250766	dec_nonsocial_choice	1.250766	32.000000	n/a	16	2.682292e-01	2.682292e-01
43.911858	1.250766	dec_choice	1.250766	32.000000	n/a	16	2.682292e-01	2.682292e-01
43.911858	1.250766	dec_nonsocial_accept	1.250766	32.000000	n/a	16	1.250000e-01	1.250000e-01
43.911858	1.250766	dec_accept	1.250766	32.000000	n/a	16	1.250000e-01	1.250000e-01
43.911858	1.250766	dec_nonsocial_accept_high	1.250766	32.000000	n/a	16	1.250000e-01	1.250000e-01
50.745840	1.483101	dec_social_choice	1.483101	32.000000	n/a	0	0	-2.317708e-01
50.745840	1.483101	dec_choice	1.483101	32.000000	n/a	0	0	-2.317708e-01
50.745840	1.483101	dec_social_reject	1.483101	32.000000	n/a	0	0	5.208333e-03
50.745840	1.483101	dec_reject	1.483101	32.000000	n/a	0	0	5.208333e-03
50.745840	1.483101	dec_social_reject_low	1.483101	32.000000	n/a	3	-1.380208e-01	-2.317708e-01
58.379790	0.865036	dec_social_choice	0.865036	16.000000	n/a	8	2.682292e-01	2.682292e-01
58.379790	0.865036	dec_choice	0.865036	16.000000	n/a	8	2.682292e-01	2.682292e-01
58.379790	0.865036	dec_social_accept	0.865036	16.000000	n/a	8	1.250000e-01	1.250000e-01
58.379790	0.865036	dec_accept	0.865036	16.000000	n/a	8	1.250000e-01	1.250000e-01
58.379790	0.865036	dec_social_high	0.865036	16.000000	n/a	8	2.682292e-01	2.682292e-01
58.379790	0.865036	dec_social_accept_high	0.865036	16.000000	n/a	8	2.682292e-01	2.682292e-01
66.027830	1.133877	dec_social_choice	1.133877	16.000000	n/a	0	0	-2.317708e-01
66.027830	1.133877	dec_choice	1.133877	16.000000	n/a	0	0	-2.317708e-01
66.027830	1.133877	dec_social_reject	1.133877	16.000000	n/a	0	0	3.645833e-02
66.027830	1.133877	dec_reject	1.133877	16.000000	n/a	0	0	3.645833e-02
66.027830	1.133877	dec_social_reject_low	1.133877	16.000000	n/a	2	-1.067708e-01	-2.317708e-01
73.678790	0.999779	dec_nonsocial_choice	0.999779	16.000000	n/a	0	0	-2.317708e-01
73.678790	0.999779	dec_choice	0.999779	16.000000	n/a	0	0	-2.317708e-01
73.678790	0.999779	dec_nonsocial_reject	0.999779	16.000000	n/a	0	0	3.645833e-02
73.678790	0.999779	dec_reject	0.999779	16.000000	n/a	0	0	3.645833e-02
73.678790	0.999779	dec_nonsocial_low	0.999779	16.000000	n/a	0	-2.317708e-01	-2.317708e-01
73.678790	0.999779	dec_nonsocial_reject_low	0.999779	16.000000	n/a	2	3.645833e-02	-8.854167e-02
86.161770	0.950207	dec_nonsocial_choice	0.950207	32.000000	n/a	8	1.822917e-02	1.822917e-02
86.161770	0.950207	dec_choice	0.950207	32.000000	n/a	8	1.822917e-02	1.822917e-02
86.161770	0.950207	dec_nonsocial_accept	0.950207	32.000000	n/a	8	-1.250000e-01	-1.250000e-01
86.161770	0.950207	dec_accept	0.950207	32.000000	n/a	8	-1.250000e-01	-1.250000e-01
86.161770	0.950207	dec_nonsocial_accept_high	0.950207	32.000000	n/a	8	-1.250000e-01	-1.250000e-01
92.995590	1.082684	dec_nonsocial_choice	1.082684	16.000000	n/a	0	0	-2.317708e-01
92.995590	1.082684	dec_choice	1.082684	16.000000	n/a	0	0	-2.317708e-01
92.995590	1.082684	dec_nonsocial_reject	1.082684	16.000000	n/a	0	0	-2.604167e-02
92.995590	1.082684	dec_reject	1.082684	16.000000	n/a	0	0	-2.604167e-02
92.995590	1.082684	dec_nonsocial_reject_low	1.082684	16.000000	n/a	1	-2.604167e-02	-8.854167e-02
99.827736	1.100857	dec_social_choice	1.100857	16.000000	n/a	0	0	-2.317708e-01
99.827736	1.100857	dec_choice	1.100857	16.000000	n/a	0	0	-2.317708e-01
99.827736	1.100857	dec_social_reject	1.100857	16.000000	n/a	0	0	-2.604167e-02
99.827736	1.100857	dec_reject	1.100857	16.000000	n/a	0	0	-2.604167e-02
99.827736	1.100857	dec_social_low	1.100857	16.000000	n/a	0	-2.317708e-01	-2.317708e-01
99.827736	1.100857	dec_social_reject_low	1.100857	16.000000	n/a	1	-1.692708e-01	-2.317708e-01
107.477750	0.967304	dec_social_choice	0.967304	32.000000	n/a	8	1.822917e-02	1.822917e-02
107.477750	0.967304	dec_choice	0.967304	32.000000	n/a	8	1.822917e-02	1.822917e-02
107.477750	0.967304	dec_social_accept	0.967304	32.000000	n/a	8	-1.250000e-01	-1.250000e-01
107.477750	0.967304	dec_accept	0.967304	32.000000	n/a	8	-1.250000e-01	-1.250000e-01
107.477750	0.967304	dec_social_high	0.967304	32.000000	n/a	8	1.822917e-02	1.822917e-02
107.477750	0.967304	dec_social_accept_high	0.967304	32.000000	n/a	8	1.822917e-02	1.822917e-02
114.311356	1.233894	dec_nonsocial_choice	1.233894	32.000000	n/a	16	2.682292e-01	2.682292e-01
114.311356	1.233894	dec_choice	1.233894	32.000000	n/a	16	2.682292e-01	2.682292e-01
114.311356	1.233894	dec_nonsocial_accept	1.233894	32.000000	n/a	16	1.250000e-01	1.250000e-01
114.311356	1.233894	dec_accept	1.233894	32.000000	n/a	16	1.250000e-01	1.250000e-01
114.311356	1.233894	dec_nonsocial_high	1.233894	32.000000	n/a	16	2.682292e-01	2.682292e-01
114.311356	1.233894	dec_nonsocial_accept_high	1.233894	32.000000	n/a	16	1.250000e-01	1.250000e-01
121.145730	1.065438	dec_nonsocial_choice	1.065438	16.000000	n/a	0	0	-2.317708e-01
121.145730	1.065438	dec_choice	1.065438	16.000000	n/a	0	0	-2.317708e-01
121.145730	1.065438	dec_nonsocial_reject	1.065438	16.000000	n/a	0	0	-2.604167e-02
121.145730	1.065438	dec_reject	1.065438	16.000000	n/a	0	0	-2.604167e-02
121.145730	1.065438	dec_nonsocial_reject_low	1.065438	16.000000	n/a	1	-2.604167e-02	-8.854167e-02
132.011720	1.033409	dec_nonsocial_choice	1.033409	16.000000	n/a	0	0	-2.317708e-01
132.011720	1.033409	dec_choice	1.033409	16.000000	n/a	0	0	-2.317708e-01
132.011720	1.033409	dec_nonsocial_reject	1.033409	16.000000	n/a	0	0	3.645833e-02
132.011720	1.033409	dec_reject	1.033409	16.000000	n/a	0	0	3.645833e-02
132.011720	1.033409	dec_nonsocial_reject_low	1.033409	16.000000	n/a	2	3.645833e-02	-8.854167e-02
139.662060	0.966138	dec_nonsocial_choice	0.966138	16.000000	n/a	0	0	-2.317708e-01
139.662060	0.966138	dec_choice	0.966138	16.000000	n/a	0	0	-2.317708e-01
139.662060	0.966138	dec_nonsocial_reject	0.966138	16.000000	n/a	0	0	3.645833e-02
139.662060	0.966138	dec_reject	0.966138	16.000000	n/a	0	0	3.645833e-02
139.662060	0.966138	dec_nonsocial_low	0.966138	16.000000	n/a	0	-2.317708e-01	-2.317708e-01
139.662060	0.966138	dec_nonsocial_reject_low	0.966138	16.000000	n/a	2	3.645833e-02	-8.854167e-02
147.310710	0.968154	dec_social_choice	0.968154	32.000000	n/a	8	1.822917e-02	1.822917e-02
147.310710	0.968154	dec_choice	0.968154	32.000000	n/a	8	1.822917e-02	1.822917e-02
147.310710	0.968154	dec_social_accept	0.968154	32.000000	n/a	8	-1.250000e-01	-1.250000e-01
147.310710	0.968154	dec_accept	0.968154	32.000000	n/a	8	-1.250000e-01	-1.250000e-01
147.310710	0.968154	dec_social_high	0.968154	32.000000	n/a	8	1.822917e-02	1.822917e-02
147.310710	0.968154	dec_social_accept_high	0.968154	32.000000	n/a	8	1.822917e-02	1.822917e-02
154.144670	1.100100	dec_nonsocial_choice	1.100100	32.000000	n/a	8	1.822917e-02	1.822917e-02
154.144670	1.100100	dec_choice	1.100100	32.000000	n/a	8	1.822917e-02	1.822917e-02
154.144670	1.100100	dec_nonsocial_accept	1.100100	32.000000	n/a	8	-1.250000e-01	-1.250000e-01
154.144670	1.100100	dec_accept	1.100100	32.000000	n/a	8	-1.250000e-01	-1.250000e-01
154.144670	1.100100	dec_nonsocial_accept_high	1.100100	32.000000	n/a	8	-1.250000e-01	-1.250000e-01
160.978040	0.966821	dec_social_choice	0.966821	16.000000	n/a	8	2.682292e-01	2.682292e-01
160.978040	0.966821	dec_choice	0.966821	16.000000	n/a	8	2.682292e-01	2.682292e-01
160.978040	0.966821	dec_social_accept	0.966821	16.000000	n/a	8	1.250000e-01	1.250000e-01
160.978040	0.966821	dec_accept	0.966821	16.000000	n/a	8	1.250000e-01	1.250000e-01
160.978040	0.966821	dec_social_accept_high	0.966821	16.000000	n/a	8	2.682292e-01	2.682292e-01
170.244830	0.983884	dec_social_choice	0.983884	16.000000	n/a	8	2.682292e-01	2.682292e-01
170.244830	0.983884	dec_choice	0.983884	16.000000	n/a	8	2.682292e-01	2.682292e-01
170.244830	0.983884	dec_social_accept	0.983884	16.000000	n/a	8	1.250000e-01	1.250000e-01
170.244830	0.983884	dec_accept	0.983884	16.000000	n/a	8	1.250000e-01	1.250000e-01
170.244830	0.983884	dec_social_high	0.983884	16.000000	n/a	8	2.682292e-01	2.682292e-01
170.244830	0.983884	dec_social_accept_high	0.983884	16.000000	n/a	8	2.682292e-01	2.682292e-01
177.077760	1.000172	dec_nonsocial_choice	1.000172	16.000000	n/a	8	2.682292e-01	2.682292e-01
177.077760	1.000172	dec_choice	1.000172	16.000000	n/a	8	2.682292e-01	2.682292e-01
177.077760	1.000172	dec_nonsocial_accept	1.000172	16.000000	n/a	8	1.250000e-01	1.250000e-01
177.077760	1.000172	dec_accept	1.000172	16.000000	n/a	8	1.250000e-01	1.250000e-01
177.077760	1.000172	dec_nonsocial_accept_high	1.000172	16.000000	n/a	8	1.250000e-01	1.250000e-01
184.712650	1.148829	dec_social_choice	1.148829	32.000000	n/a	0	0	-2.317708e-01
184.712650	1.148829	dec_choice	1.148829	32.000000	n/a	0	0	-2.317708e-01
184.712650	1.148829	dec_social_reject	1.148829	32.000000	n/a	0	0	-2.604167e-02
184.712650	1.148829	dec_reject	1.148829	32.000000	n/a	0	0	-2.604167e-02
184.712650	1.148829	dec_social_low	1.148829	32.000000	n/a	0	-2.317708e-01	-2.317708e-01
184.712650	1.148829	dec_social_reject_low	1.148829	32.000000	n/a	2	-1.692708e-01	-2.317708e-01
193.978410	1.150051	dec_nonsocial_choice	1.150051	16.000000	n/a	0	0	-2.317708e-01
193.978410	1.150051	dec_choice	1.150051	16.000000	n/a	0	0	-2.317708e-01
193.978410	1.150051	dec_nonsocial_reject	1.150051	16.000000	n/a	0	0	-2.604167e-02
193.978410	1.150051	dec_reject	1.150051	16.000000	n/a	0	0	-2.604167e-02
193.978410	1.150051	dec_nonsocial_low	1.150051	16.000000	n/a	0	-2.317708e-01	-2.317708e-01
193.978410	1.150051	dec_nonsocial_reject_low	1.150051	16.000000	n/a	1	-2.604167e-02	-8.854167e-02
200.811630	1.416329	dec_social_choice	1.416329	32.000000	n/a	0	0	-2.317708e-01
200.811630	1.416329	dec_choice	1.416329	32.000000	n/a	0	0	-2.317708e-01
200.811630	1.416329	dec_social_reject	1.416329	32.000000	n/a	0	0	5.208333e-03
200.811630	1.416329	dec_reject	1.416329	32.000000	n/a	0	0	5.208333e-03
200.811630	1.416329	dec_social_reject_low	1.416329	32.000000	n/a	3	-1.380208e-01	-2.317708e-01
207.645480	1.065867	dec_nonsocial_choice	1.065867	32.000000	n/a	0	0	-2.317708e-01
207.645480	1.065867	dec_choice	1.065867	32.000000	n/a	0	0	-2.317708e-01
207.645480	1.065867	dec_nonsocial_reject	1.065867	32.000000	n/a	0	0	5.208333e-03
207.645480	1.065867	dec_reject	1.065867	32.000000	n/a	0	0	5.208333e-03
207.645480	1.065867	dec_nonsocial_low	1.065867	32.000000	n/a	0	-2.317708e-01	-2.317708e-01
207.645480	1.065867	dec_nonsocial_reject_low	1.065867	32.000000	n/a	3	5.208333e-03	-8.854167e-02
214.477250	1.300827	dec_nonsocial_choice	1.300827	32.000000	n/a	0	0	-2.317708e-01
214.477250	1.300827	dec_choice	1.300827	32.000000	n/a	0	0	-2.317708e-01
214.477250	1.300827	dec_nonsocial_reject	1.300827	32.000000	n/a	0	0	5.208333e-03
214.477250	1.300827	dec_reject	1.300827	32.000000	n/a	0	0	5.208333e-03
214.477250	1.300827	dec_nonsocial_reject_low	1.300827	32.000000	n/a	3	5.208333e-03	-8.854167e-02
222.111590	1.150050	dec_nonsocial_choice	1.150050	16.000000	n/a	0	0	-2.317708e-01
222.111590	1.150050	dec_choice	1.150050	16.000000	n/a	0	0	-2.317708e-01
222.111590	1.150050	dec_nonsocial_reject	1.150050	16.000000	n/a	0	0	-2.604167e-02
222.111590	1.150050	dec_reject	1.150050	16.000000	n/a	0	0	-2.604167e-02
222.111590	1.150050	dec_nonsocial_reject_low	1.150050	16.000000	n/a	1	-2.604167e-02	-8.854167e-02
228.945040	1.032982	dec_nonsocial_choice	1.032982	32.000000	n/a	16	2.682292e-01	2.682292e-01
228.945040	1.032982	dec_choice	1.032982	32.000000	n/a	16	2.682292e-01	2.682292e-01
228.945040	1.032982	dec_nonsocial_accept	1.032982	32.000000	n/a	16	1.250000e-01	1.250000e-01
228.945040	1.032982	dec_accept	1.032982	32.000000	n/a	16	1.250000e-01	1.250000e-01
228.945040	1.032982	dec_nonsocial_high	1.032982	32.000000	n/a	16	2.682292e-01	2.682292e-01
228.945040	1.032982	dec_nonsocial_accept_high	1.032982	32.000000	n/a	16	1.250000e-01	1.250000e-01
236.594570	1.100205	dec_nonsocial_choice	1.100205	16.000000	n/a	8	2.682292e-01	2.682292e-01
236.594570	1.100205	dec_choice	1.100205	16.000000	n/a	8	2.682292e-01	2.682292e-01
236.594570	1.100205	dec_nonsocial_accept	1.100205	16.000000	n/a	8	1.250000e-01	1.250000e-01
236.594570	1.100205	dec_accept	1.100205	16.000000	n/a	8	1.250000e-01	1.250000e-01
236.594570	1.100205	dec_nonsocial_accept_high	1.100205	16.000000	n/a	8	1.250000e-01	1.250000e-01
243.427380	0.883787	dec_social_choice	0.883787	32.000000	n/a	16	2.682292e-01	2.682292e-01
243.427380	0.883787	dec_choice	0.883787	32.000000	n/a	16	2.682292e-01	2.682292e-01
243.427380	0.883787	dec_social_accept	0.883787	32.000000	n/a	16	1.250000e-01	1.250000e-01
243.427380	0.883787	dec_accept	0.883787	32.000000	n/a	16	1.250000e-01	1.250000e-01
243.427380	0.883787	dec_social_high	0.883787	32.000000	n/a	16	2.682292e-01	2.682292e-01
243.427380	0.883787	dec_social_accept_high	0.883787	32.000000	n/a	16	2.682292e-01	2.682292e-01
254.294570	1.216557	dec_nonsocial_choice	1.216557	32.000000	n/a	8	1.822917e-02	1.822917e-02
254.294570	1.216557	dec_choice	1.216557	32.000000	n/a	8	1.822917e-02	1.822917e-02
254.294570	1.216557	dec_nonsocial_accept	1.216557	32.000000	n/a	8	-1.250000e-01	-1.250000e-01
254.294570	1.216557	dec_accept	1.216557	32.000000	n/a	8	-1.250000e-01	-1.250000e-01
254.294570	1.216557	dec_nonsocial_accept_high	1.216557	32.000000	n/a	8	-1.250000e-01	-1.250000e-01
261.128570	1.165395	dec_social_choice	1.165395	16.000000	n/a	4	1.822917e-02	1.822917e-02
261.128570	1.165395	dec_choice	1.165395	16.000000	n/a	4	1.822917e-02	1.822917e-02
261.128570	1.165395	dec_social_accept	1.165395	16.000000	n/a	4	-1.250000e-01	-1.250000e-01
261.128570	1.165395	dec_accept	1.165395	16.000000	n/a	4	-1.250000e-01	-1.250000e-01
261.128570	1.165395	dec_social_accept_high	1.165395	16.000000	n/a	4	1.822917e-02	1.822917e-02
268.777040	1.001095	dec_social_choice	1.001095	16.000000	n/a	8	2.682292e-01	2.682292e-01
268.777040	1.001095	dec_choice	1.001095	16.000000	n/a	8	2.682292e-01	2.682292e-01
268.777040	1.001095	dec_social_accept	1.001095	16.000000	n/a	8	1.250000e-01	1.250000e-01
268.777040	1.001095	dec_accept	1.001095	16.000000	n/a	8	1.250000e-01	1.250000e-01
268.777040	1.001095	dec_social_accept_high	1.001095	16.000000	n/a	8	2.682292e-01	2.682292e-01
275.612520	1.315006	dec_nonsocial_choice	1.315006	32.000000	n/a	0	0	-2.317708e-01
275.612520	1.315006	dec_choice	1.315006	32.000000	n/a	0	0	-2.317708e-01
275.612520	1.315006	dec_nonsocial_reject	1.315006	32.000000	n/a	0	0	-2.604167e-02
275.612520	1.315006	dec_reject	1.315006	32.000000	n/a	0	0	-2.604167e-02
275.612520	1.315006	dec_nonsocial_reject_low	1.315006	32.000000	n/a	2	-2.604167e-02	-8.854167e-02
282.444430	1.083792	dec_social_choice	1.083792	32.000000	n/a	0	0	-2.317708e-01
282.444430	1.083792	dec_choice	1.083792	32.000000	n/a	0	0	-2.317708e-01
282.444430	1.083792	dec_social_reject	1.083792	32.000000	n/a	0	0	-2.604167e-02
282.444430	1.083792	dec_reject	1.083792	32.000000	n/a	0	0	-2.604167e-02
282.444430	1.083792	dec_social_low	1.083792	32.000000	n/a	0	-2.317708e-01	-2.317708e-01
282.444430	1.083792	dec_social_reject_low	1.083792	32.000000	n/a	2	-1.692708e-01	-2.317708e-01
291.710170	1.117436	dec_social_choice	1.117436	32.000000	n/a	8	1.822917e-02	1.822917e-02
291.710170	1.117436	dec_choice	1.117436	32.000000	n/a	8	1.822917e-02	1.822917e-02
291.710170	1.117436	dec_social_accept	1.117436	32.000000	n/a	8	-1.250000e-01	-1.250000e-01
291.710170	1.117436	dec_accept	1.117436	32.000000	n/a	8	-1.250000e-01	-1.250000e-01
291.710170	1.117436	dec_social_accept_high	1.117436	32.000000	n/a	8	1.822917e-02	1.822917e-02
298.544500	0.915930	dec_nonsocial_choice	0.915930	16.000000	n/a	8	2.682292e-01	2.682292e-01
298.544500	0.915930	dec_choice	0.915930	16.000000	n/a	8	2.682292e-01	2.682292e-01
298.544500	0.915930	dec_nonsocial_accept	0.915930	16.000000	n/a	8	1.250000e-01	1.250000e-01
298.544500	0.915930	dec_accept	0.915930	16.000000	n/a	8	1.250000e-01	1.250000e-01
298.544500	0.915930	dec_nonsocial_high	0.915930	16.000000	n/a	8	2.682292e-01	2.682292e-01
298.544500	0.915930	dec_nonsocial_accept_high	0.915930	16.000000	n/a	8	1.250000e-01	1.250000e-01
307.810700	1.050629	dec_social_choice	1.050629	16.000000	n/a	0	0	-2.317708e-01
307.810700	1.050629	dec_choice	1.050629	16.000000	n/a	0	0	-2.317708e-01
307.810700	1.050629	dec_social_reject	1.050629	16.000000	n/a	0	0	-2.604167e-02
307.810700	1.050629	dec_reject	1.050629	16.000000	n/a	0	0	-2.604167e-02
307.810700	1.050629	dec_social_low	1.050629	16.000000	n/a	0	-2.317708e-01	-2.317708e-01
307.810700	1.050629	dec_social_reject_low	1.050629	16.000000	n/a	1	-1.692708e-01	-2.317708e-01
314.644650	0.983333	dec_social_choice	0.983333	16.000000	n/a	4	1.822917e-02	1.822917e-02
314.644650	0.983333	dec_choice	0.983333	16.000000	n/a	4	1.822917e-02	1.822917e-02
314.644650	0.983333	dec_social_accept	0.983333	16.000000	n/a	4	-1.250000e-01	-1.250000e-01
314.644650	0.983333	dec_accept	0.983333	16.000000	n/a	4	-1.250000e-01	-1.250000e-01
314.644650	0.983333	dec_social_accept_high	0.983333	16.000000	n/a	4	1.822917e-02	1.822917e-02
323.895420	1.048942	dec_nonsocial_choice	1.048942	16.000000	n/a	4	1.822917e-02	1.822917e-02
323.895420	1.048942	dec_choice	1.048942	16.000000	n/a	4	1.822917e-02	1.822917e-02
323.895420	1.048942	dec_nonsocial_accept	1.048942	16.000000	n/a	4	-1.250000e-01	-1.250000e-01
323.895420	1.048942	dec_accept	1.048942	16.000000	n/a	4	-1.250000e-01	-1.250000e-01
323.895420	1.048942	dec_nonsocial_high	1.048942	16.000000	n/a	4	1.822917e-02	1.822917e-02
323.895420	1.048942	dec_nonsocial_accept_high	1.048942	16.000000	n/a	4	-1.250000e-01	-1.250000e-01
330.727570	1.366341	dec_nonsocial_choice	1.366341	16.000000	n/a	0	0	-2.317708e-01
330.727570	1.366341	dec_choice	1.366341	16.000000	n/a	0	0	-2.317708e-01
330.727570	1.366341	dec_nonsocial_reject	1.366341	16.000000	n/a	0	0	3.645833e-02
330.727570	1.366341	dec_reject	1.366341	16.000000	n/a	0	0	3.645833e-02
330.727570	1.366341	dec_nonsocial_low	1.366341	16.000000	n/a	0	-2.317708e-01	-2.317708e-01
330.727570	1.366341	dec_nonsocial_reject_low	1.366341	16.000000	n/a	2	3.645833e-02	-8.854167e-02
337.561300	1.249617	dec_social_choice	1.249617	16.000000	n/a	0	0	-2.317708e-01
337.561300	1.249617	dec_choice	1.249617	16.000000	n/a	0	0	-2.317708e-01
337.561300	1.249617	dec_social_reject	1.249617	16.000000	n/a	0	0	3.645833e-02
337.561300	1.249617	dec_reject	1.249617	16.000000	n/a	0	0	3.645833e-02
337.561300	1.249617	dec_social_low	1.249617	16.000000	n/a	0	-2.317708e-01	-2.317708e-01
337.561300	1.249617	dec_social_reject_low	1.249617	16.000000	n/a	2	-1.067708e-01	-2.317708e-01
346.811430	1.132490	dec_social_choice	1.132490	32.000000	n/a	16	2.682292e-01	2.682292e-01
346.811430	1.132490	dec_choice	1.132490	32.000000	n/a	16	2.682292e-01	2.682292e-01
346.811430	1.132490	dec_social_accept	1.132490	32.000000	n/a	16	1.250000e-01	1.250000e-01
346.811430	1.132490	dec_accept	1.132490	32.000000	n/a	16	1.250000e-01	1.250000e-01
346.811430	1.132490	dec_social_high	1.132490	32.000000	n/a	16	2.682292e-01	2.682292e-01
346.811430	1.132490	dec_social_accept_high	1.132490	32.000000	n/a	16	2.682292e-01	2.682292e-01
353.644380	1.233316	dec_social_choice	1.233316	16.000000	n/a	0	0	-2.317708e-01
353.644380	1.233316	dec_choice	1.233316	16.000000	n/a	0	0	-2.317708e-01
353.644380	1.233316	dec_social_reject	1.233316	16.000000	n/a	0	0	3.645833e-02
353.644380	1.233316	dec_reject	1.233316	16.000000	n/a	0	0	3.645833e-02
353.644380	1.233316	dec_social_reject_low	1.233316	16.000000	n/a	2	-1.067708e-01	-2.317708e-01
361.293550	1.234162	dec_social_choice	1.234162	16.000000	n/a	0	0	-2.317708e-01
361.293550	1.234162	dec_choice	1.234162	16.000000	n/a	0	0	-2.317708e-01
361.293550	1.234162	dec_social_reject	1.234162	16.000000	n/a	0	0	3.645833e-02
361.293550	1.234162	dec_reject	1.234162	16.000000	n/a	0	0	3.645833e-02
361.293550	1.234162	dec_social_low	1.234162	16.000000	n/a	0	-2.317708e-01	-2.317708e-01
361.293550	1.234162	dec_social_reject_low	1.234162	16.000000	n/a	2	-1.067708e-01	-2.317708e-01
368.944120	1.150263	dec_nonsocial_choice	1.150263	32.000000	n/a	0	0	-2.317708e-01
368.944120	1.150263	dec_choice	1.150263	32.000000	n/a	0	0	-2.317708e-01
368.944120	1.150263	dec_nonsocial_reject	1.150263	32.000000	n/a	0	0	-2.604167e-02
368.944120	1.150263	dec_reject	1.150263	32.000000	n/a	0	0	-2.604167e-02
368.944120	1.150263	dec_nonsocial_reject_low	1.150263	32.000000	n/a	2	-2.604167e-02	-8.854167e-02
