onset	duration	trial_type	response_time	Endowment	Endowment_pmod	Decision	Decision_pmod	Offer_pmod
4.516532	2	cue_nonsocial	n/a	32	9	n/a	n/a	n/a
4.516532	2	cue_nonsocial_high	n/a	32	7	n/a	n/a	n/a
11.456297	2	cue_social	n/a	16	-9	n/a	n/a	n/a
11.456297	2	cue_social_low	n/a	16	-7	n/a	n/a	n/a
20.599703	2	cue_nonsocial	n/a	16	-7	n/a	n/a	n/a
20.599703	2	cue_nonsocial_low	n/a	16	-9	n/a	n/a	n/a
27.569569	2	cue_social	n/a	32	7	n/a	n/a	n/a
27.569569	2	cue_social_high	n/a	32	9	n/a	n/a	n/a
38.445150	2	cue_social	n/a	32	7	n/a	n/a	n/a
38.445150	2	cue_social_high	n/a	32	9	n/a	n/a	n/a
45.956177	2	cue_social	n/a	16	-9	n/a	n/a	n/a
45.956177	2	cue_social_low	n/a	16	-7	n/a	n/a	n/a
53.714317	2	cue_social	n/a	32	7	n/a	n/a	n/a
53.714317	2	cue_social_high	n/a	32	9	n/a	n/a	n/a
60.503180	2	cue_social	n/a	32	7	n/a	n/a	n/a
60.503180	2	cue_social_high	n/a	32	9	n/a	n/a	n/a
67.311646	2	cue_nonsocial	n/a	32	9	n/a	n/a	n/a
67.311646	2	cue_nonsocial_high	n/a	32	7	n/a	n/a	n/a
74.932740	2	cue_nonsocial	n/a	32	9	n/a	n/a	n/a
74.932740	2	cue_nonsocial_high	n/a	32	7	n/a	n/a	n/a
81.766380	2	cue_nonsocial	n/a	32	9	n/a	n/a	n/a
81.766380	2	cue_nonsocial_high	n/a	32	7	n/a	n/a	n/a
88.684820	2	cue_social	n/a	32	7	n/a	n/a	n/a
88.684820	2	cue_social_high	n/a	32	9	n/a	n/a	n/a
95.433330	2	cue_nonsocial	n/a	16	-7	n/a	n/a	n/a
95.433330	2	cue_nonsocial_low	n/a	16	-9	n/a	n/a	n/a
102.266914	2	cue_nonsocial	n/a	16	-7	n/a	n/a	n/a
102.266914	2	cue_nonsocial_low	n/a	16	-9	n/a	n/a	n/a
109.899610	2	cue_nonsocial	n/a	16	-7	n/a	n/a	n/a
109.899610	2	cue_nonsocial_low	n/a	16	-9	n/a	n/a	n/a
116.733610	2	cue_nonsocial	n/a	16	-7	n/a	n/a	n/a
116.733610	2	cue_nonsocial_low	n/a	16	-9	n/a	n/a	n/a
123.566210	2	cue_nonsocial	n/a	16	-7	n/a	n/a	n/a
123.566210	2	cue_nonsocial_low	n/a	16	-9	n/a	n/a	n/a
131.216870	2	cue_nonsocial	n/a	16	-7	n/a	n/a	n/a
131.216870	2	cue_nonsocial_low	n/a	16	-9	n/a	n/a	n/a
138.049510	2	cue_nonsocial	n/a	16	-7	n/a	n/a	n/a
138.049510	2	cue_nonsocial_low	n/a	16	-9	n/a	n/a	n/a
144.984150	2	cue_social	n/a	16	-9	n/a	n/a	n/a
144.984150	2	cue_social_low	n/a	16	-7	n/a	n/a	n/a
151.728300	2	cue_social	n/a	32	7	n/a	n/a	n/a
151.728300	2	cue_social_high	n/a	32	9	n/a	n/a	n/a
158.549600	2	cue_nonsocial	n/a	16	-7	n/a	n/a	n/a
158.549600	2	cue_nonsocial_low	n/a	16	-9	n/a	n/a	n/a
166.306810	2	cue_social	n/a	16	-9	n/a	n/a	n/a
166.306810	2	cue_social_low	n/a	16	-7	n/a	n/a	n/a
173.944560	2	cue_social	n/a	16	-9	n/a	n/a	n/a
173.944560	2	cue_social_low	n/a	16	-7	n/a	n/a	n/a
181.597810	2	cue_social	n/a	32	7	n/a	n/a	n/a
181.597810	2	cue_social_high	n/a	32	9	n/a	n/a	n/a
189.149770	2	cue_nonsocial	n/a	32	9	n/a	n/a	n/a
189.149770	2	cue_nonsocial_high	n/a	32	7	n/a	n/a	n/a
195.982560	2	cue_nonsocial	n/a	16	-7	n/a	n/a	n/a
195.982560	2	cue_nonsocial_low	n/a	16	-9	n/a	n/a	n/a
205.337360	2	cue_social	n/a	32	7	n/a	n/a	n/a
205.337360	2	cue_social_high	n/a	32	9	n/a	n/a	n/a
212.065950	2	cue_nonsocial	n/a	16	-7	n/a	n/a	n/a
212.065950	2	cue_nonsocial_low	n/a	16	-9	n/a	n/a	n/a
219.790730	2	cue_social	n/a	16	-9	n/a	n/a	n/a
219.790730	2	cue_social_low	n/a	16	-7	n/a	n/a	n/a
226.549770	2	cue_nonsocial	n/a	32	9	n/a	n/a	n/a
226.549770	2	cue_nonsocial_high	n/a	32	7	n/a	n/a	n/a
235.799240	2	cue_nonsocial	n/a	16	-7	n/a	n/a	n/a
235.799240	2	cue_nonsocial_low	n/a	16	-9	n/a	n/a	n/a
242.724720	2	cue_social	n/a	32	7	n/a	n/a	n/a
242.724720	2	cue_social_high	n/a	32	9	n/a	n/a	n/a
253.592910	2	cue_social	n/a	16	-9	n/a	n/a	n/a
253.592910	2	cue_social_low	n/a	16	-7	n/a	n/a	n/a
261.150270	2	cue_nonsocial	n/a	32	9	n/a	n/a	n/a
261.150270	2	cue_nonsocial_high	n/a	32	7	n/a	n/a	n/a
268.082670	2	cue_social	n/a	16	-9	n/a	n/a	n/a
268.082670	2	cue_social_low	n/a	16	-7	n/a	n/a	n/a
277.233250	2	cue_nonsocial	n/a	16	-7	n/a	n/a	n/a
277.233250	2	cue_nonsocial_low	n/a	16	-9	n/a	n/a	n/a
284.065770	2	cue_nonsocial	n/a	32	9	n/a	n/a	n/a
284.065770	2	cue_nonsocial_high	n/a	32	7	n/a	n/a	n/a
293.400180	2	cue_social	n/a	16	-9	n/a	n/a	n/a
293.400180	2	cue_social_low	n/a	16	-7	n/a	n/a	n/a
302.582550	2	cue_nonsocial	n/a	32	9	n/a	n/a	n/a
302.582550	2	cue_nonsocial_high	n/a	32	7	n/a	n/a	n/a
311.934660	2	cue_social	n/a	32	7	n/a	n/a	n/a
311.934660	2	cue_social_high	n/a	32	9	n/a	n/a	n/a
318.779660	2	cue_social	n/a	16	-9	n/a	n/a	n/a
318.779660	2	cue_social_low	n/a	16	-7	n/a	n/a	n/a
325.615600	2	cue_social	n/a	16	-9	n/a	n/a	n/a
325.615600	2	cue_social_low	n/a	16	-7	n/a	n/a	n/a
333.282800	2	cue_social	n/a	32	7	n/a	n/a	n/a
333.282800	2	cue_social_high	n/a	32	9	n/a	n/a	n/a
340.898560	2	cue_social	n/a	32	7	n/a	n/a	n/a
340.898560	2	cue_social_high	n/a	32	9	n/a	n/a	n/a
351.684200	2	cue_nonsocial	n/a	32	9	n/a	n/a	n/a
351.684200	2	cue_nonsocial_high	n/a	32	7	n/a	n/a	n/a
358.604640	2	cue_social	n/a	32	7	n/a	n/a	n/a
358.604640	2	cue_social_high	n/a	32	9	n/a	n/a	n/a
370.998800	2	cue_nonsocial	n/a	32	9	n/a	n/a	n/a
370.998800	2	cue_nonsocial_high	n/a	32	7	n/a	n/a	n/a
6.522147	2.283688	dec_nonsocial_choice	2.283688	32.000000	n/a	16	2.699468e-01	2.699468e-01
6.522147	2.283688	dec_choice	2.283688	32.000000	n/a	16	2.703804e-01	2.703804e-01
6.522147	2.283688	dec_nonsocial_accept	2.283688	32.000000	n/a	16	2.349537e-01	2.349537e-01
6.522147	2.283688	dec_accept	2.283688	32.000000	n/a	16	2.309028e-01	2.309028e-01
6.522147	2.283688	dec_nonsocial_accept_high	2.283688	32.000000	n/a	16	2.430556e-01	2.430556e-01
13.355585	1.616813	dec_social_choice	1.616813	16.000000	n/a	0	0	-2.300532e-01
13.355585	1.616813	dec_choice	1.616813	16.000000	n/a	0	0	-2.304688e-01
13.355585	1.616813	dec_social_reject	1.616813	16.000000	n/a	0	0	-1.203125e-01
13.355585	1.616813	dec_reject	1.616813	16.000000	n/a	0	0	-1.520833e-01
13.355585	1.616813	dec_social_low	1.616813	16.000000	n/a	0	-2.304688e-01	-2.304688e-01
13.355585	1.616813	dec_social_reject_low	1.616813	16.000000	n/a	1	-1.679688e-01	-2.304688e-01
22.622707	2.649792	dec_nonsocial_choice	2.649792	16.000000	n/a	1	-1.675532e-01	-1.675532e-01
22.622707	2.649792	dec_choice	2.649792	16.000000	n/a	1	-1.671196e-01	-1.671196e-01
22.622707	2.649792	dec_nonsocial_accept	2.649792	16.000000	n/a	1	-2.025463e-01	-2.025463e-01
22.622707	2.649792	dec_accept	2.649792	16.000000	n/a	1	-2.065972e-01	-2.065972e-01
22.622707	2.649792	dec_nonsocial_accept_low	2.649792	16.000000	n/a	1	-1.944444e-01	-1.944444e-01
29.456436	2.049104	dec_social_choice	2.049104	32.000000	n/a	0	0	-2.300532e-01
29.456436	2.049104	dec_choice	2.049104	32.000000	n/a	0	0	-2.304688e-01
29.456436	2.049104	dec_social_reject	2.049104	32.000000	n/a	0	0	-1.203125e-01
29.456436	2.049104	dec_reject	2.049104	32.000000	n/a	0	0	-1.520833e-01
29.456436	2.049104	dec_social_low	2.049104	32.000000	n/a	0	-2.304688e-01	-2.304688e-01
29.456436	2.049104	dec_social_reject_low	2.049104	32.000000	n/a	2	-1.679688e-01	-2.304688e-01
40.322010	0.917220	dec_social_choice	0.917220	32.000000	n/a	16	2.699468e-01	2.699468e-01
40.322010	0.917220	dec_choice	0.917220	32.000000	n/a	16	2.695312e-01	2.695312e-01
40.322010	0.917220	dec_social_accept	0.917220	32.000000	n/a	16	2.349537e-01	2.349537e-01
40.322010	0.917220	dec_accept	0.917220	32.000000	n/a	16	2.430556e-01	2.430556e-01
40.322010	0.917220	dec_social_accept_high	0.917220	32.000000	n/a	16	2.695312e-01	2.695312e-01
47.972878	1.266195	dec_social_choice	1.266195	16.000000	n/a	2	-1.050532e-01	-1.050532e-01
47.972878	1.266195	dec_choice	1.266195	16.000000	n/a	2	-1.054688e-01	-1.054688e-01
47.972878	1.266195	dec_social_accept	1.266195	16.000000	n/a	2	-1.400463e-01	-1.400463e-01
47.972878	1.266195	dec_accept	1.266195	16.000000	n/a	2	-1.319444e-01	-1.319444e-01
47.972878	1.266195	dec_social_low	1.266195	16.000000	n/a	2	-1.054688e-01	-1.054688e-01
47.972878	1.266195	dec_social_accept_low	1.266195	16.000000	n/a	2	-1.054688e-01	-1.054688e-01
55.622020	1.984116	dec_social_choice	1.984116	32.000000	n/a	0	0	-2.300532e-01
55.622020	1.984116	dec_choice	1.984116	32.000000	n/a	0	0	-2.304688e-01
55.622020	1.984116	dec_social_reject	1.984116	32.000000	n/a	0	0	3.171875e-01
55.622020	1.984116	dec_reject	1.984116	32.000000	n/a	0	0	2.854167e-01
55.622020	1.984116	dec_social_reject_low	1.984116	32.000000	n/a	16	2.695312e-01	-2.304688e-01
62.455597	1.383572	dec_social_choice	1.383572	32.000000	n/a	0	0	-2.300532e-01
62.455597	1.383572	dec_choice	1.383572	32.000000	n/a	0	0	-2.304688e-01
62.455597	1.383572	dec_social_reject	1.383572	32.000000	n/a	0	0	-1.203125e-01
62.455597	1.383572	dec_reject	1.383572	32.000000	n/a	0	0	-1.520833e-01
62.455597	1.383572	dec_social_low	1.383572	32.000000	n/a	0	-2.304688e-01	-2.304688e-01
62.455597	1.383572	dec_social_reject_low	1.383572	32.000000	n/a	2	-1.679688e-01	-2.304688e-01
69.289050	1.516496	dec_nonsocial_choice	1.516496	32.000000	n/a	3	-1.363032e-01	-1.363032e-01
69.289050	1.516496	dec_choice	1.516496	32.000000	n/a	3	-1.358696e-01	-1.358696e-01
69.289050	1.516496	dec_nonsocial_accept	1.516496	32.000000	n/a	3	-1.712963e-01	-1.712963e-01
69.289050	1.516496	dec_accept	1.516496	32.000000	n/a	3	-1.753472e-01	-1.753472e-01
69.289050	1.516496	dec_nonsocial_accept_low	1.516496	32.000000	n/a	3	-1.631944e-01	-1.631944e-01
76.938934	1.633292	dec_nonsocial_choice	1.633292	32.000000	n/a	2	-1.675532e-01	-1.675532e-01
76.938934	1.633292	dec_choice	1.633292	32.000000	n/a	2	-1.671196e-01	-1.671196e-01
76.938934	1.633292	dec_nonsocial_accept	1.633292	32.000000	n/a	2	-2.025463e-01	-2.025463e-01
76.938934	1.633292	dec_accept	1.633292	32.000000	n/a	2	-2.065972e-01	-2.065972e-01
76.938934	1.633292	dec_nonsocial_accept_low	1.633292	32.000000	n/a	2	-1.944444e-01	-1.944444e-01
83.772950	1.033102	dec_nonsocial_choice	1.033102	32.000000	n/a	3	-1.363032e-01	-1.363032e-01
83.772950	1.033102	dec_choice	1.033102	32.000000	n/a	3	-1.358696e-01	-1.358696e-01
83.772950	1.033102	dec_nonsocial_accept	1.033102	32.000000	n/a	3	-1.712963e-01	-1.712963e-01
83.772950	1.033102	dec_accept	1.033102	32.000000	n/a	3	-1.753472e-01	-1.753472e-01
83.772950	1.033102	dec_nonsocial_accept_low	1.033102	32.000000	n/a	3	-1.631944e-01	-1.631944e-01
90.606000	1.816556	dec_social_choice	1.816556	32.000000	n/a	0	0	-2.300532e-01
90.606000	1.816556	dec_choice	1.816556	32.000000	n/a	0	0	-2.304688e-01
90.606000	1.816556	dec_social_reject	1.816556	32.000000	n/a	0	0	3.171875e-01
90.606000	1.816556	dec_reject	1.816556	32.000000	n/a	0	0	2.854167e-01
90.606000	1.816556	dec_social_low	1.816556	32.000000	n/a	0	-2.304688e-01	-2.304688e-01
90.606000	1.816556	dec_social_reject_low	1.816556	32.000000	n/a	16	2.695312e-01	-2.304688e-01
97.439896	1.082843	dec_nonsocial_choice	1.082843	16.000000	n/a	0	0	-2.300532e-01
97.439896	1.082843	dec_choice	1.082843	16.000000	n/a	0	0	-2.296196e-01
97.439896	1.082843	dec_nonsocial_reject	1.082843	16.000000	n/a	0	0	-1.203125e-01
97.439896	1.082843	dec_reject	1.082843	16.000000	n/a	0	0	-2.500000e-02
97.439896	1.082843	dec_nonsocial_low	1.082843	16.000000	n/a	0	-2.296196e-01	-2.296196e-01
97.439896	1.082843	dec_nonsocial_reject_low	1.082843	16.000000	n/a	1	-2.500000e-02	-8.750000e-02
104.272080	0.750045	dec_nonsocial_choice	0.750045	16.000000	n/a	4	1.994681e-02	1.994681e-02
104.272080	0.750045	dec_choice	0.750045	16.000000	n/a	4	2.038043e-02	2.038043e-02
104.272080	0.750045	dec_nonsocial_accept	0.750045	16.000000	n/a	4	-1.504630e-02	-1.504630e-02
104.272080	0.750045	dec_accept	0.750045	16.000000	n/a	4	-1.909722e-02	-1.909722e-02
104.272080	0.750045	dec_nonsocial_accept_high	0.750045	16.000000	n/a	4	-6.944444e-03	-6.944444e-03
111.905950	0.865585	dec_nonsocial_choice	0.865585	16.000000	n/a	4	1.994681e-02	1.994681e-02
111.905950	0.865585	dec_choice	0.865585	16.000000	n/a	4	2.038043e-02	2.038043e-02
111.905950	0.865585	dec_nonsocial_accept	0.865585	16.000000	n/a	4	-1.504630e-02	-1.504630e-02
111.905950	0.865585	dec_accept	0.865585	16.000000	n/a	4	-1.909722e-02	-1.909722e-02
111.905950	0.865585	dec_nonsocial_accept_high	0.865585	16.000000	n/a	4	-6.944444e-03	-6.944444e-03
118.738670	1.683526	dec_nonsocial_choice	1.683526	16.000000	n/a	2	-1.050532e-01	-1.050532e-01
118.738670	1.683526	dec_choice	1.683526	16.000000	n/a	2	-1.046196e-01	-1.046196e-01
118.738670	1.683526	dec_nonsocial_accept	1.683526	16.000000	n/a	2	-1.400463e-01	-1.400463e-01
118.738670	1.683526	dec_accept	1.683526	16.000000	n/a	2	-1.440972e-01	-1.440972e-01
118.738670	1.683526	dec_nonsocial_accept_low	1.683526	16.000000	n/a	2	-1.319444e-01	-1.319444e-01
125.572490	1.682935	dec_nonsocial_choice	1.682935	16.000000	n/a	0	0	-2.300532e-01
125.572490	1.682935	dec_choice	1.682935	16.000000	n/a	0	0	-2.296196e-01
125.572490	1.682935	dec_nonsocial_reject	1.682935	16.000000	n/a	0	0	-5.781250e-02
125.572490	1.682935	dec_reject	1.682935	16.000000	n/a	0	0	3.750000e-02
125.572490	1.682935	dec_nonsocial_reject_low	1.682935	16.000000	n/a	2	-8.958333e-02	-2.145833e-01
133.223000	0.965531	dec_nonsocial_choice	0.965531	16.000000	n/a	0	0	-2.300532e-01
133.223000	0.965531	dec_choice	0.965531	16.000000	n/a	0	0	-2.296196e-01
133.223000	0.965531	dec_nonsocial_reject	0.965531	16.000000	n/a	0	0	-1.203125e-01
133.223000	0.965531	dec_reject	0.965531	16.000000	n/a	0	0	-2.500000e-02
133.223000	0.965531	dec_nonsocial_low	0.965531	16.000000	n/a	0	-2.296196e-01	-2.296196e-01
133.223000	0.965531	dec_nonsocial_reject_low	0.965531	16.000000	n/a	1	-2.500000e-02	-8.750000e-02
140.055740	1.433053	dec_nonsocial_choice	1.433053	16.000000	n/a	8	2.699468e-01	2.699468e-01
140.055740	1.433053	dec_choice	1.433053	16.000000	n/a	8	2.703804e-01	2.703804e-01
140.055740	1.433053	dec_nonsocial_accept	1.433053	16.000000	n/a	8	2.349537e-01	2.349537e-01
140.055740	1.433053	dec_accept	1.433053	16.000000	n/a	8	2.309028e-01	2.309028e-01
140.055740	1.433053	dec_nonsocial_accept_high	1.433053	16.000000	n/a	8	2.430556e-01	2.430556e-01
146.888350	1.033291	dec_social_choice	1.033291	16.000000	n/a	0	0	-2.300532e-01
146.888350	1.033291	dec_choice	1.033291	16.000000	n/a	0	0	-2.304688e-01
146.888350	1.033291	dec_social_reject	1.033291	16.000000	n/a	0	0	-1.203125e-01
146.888350	1.033291	dec_reject	1.033291	16.000000	n/a	0	0	-1.520833e-01
146.888350	1.033291	dec_social_reject_low	1.033291	16.000000	n/a	1	-1.679688e-01	-2.304688e-01
153.722200	1.316222	dec_social_choice	1.316222	32.000000	n/a	8	1.994681e-02	1.994681e-02
153.722200	1.316222	dec_choice	1.316222	32.000000	n/a	8	1.953125e-02	1.953125e-02
153.722200	1.316222	dec_social_accept	1.316222	32.000000	n/a	8	-1.504630e-02	-1.504630e-02
153.722200	1.316222	dec_accept	1.316222	32.000000	n/a	8	-6.944444e-03	-6.944444e-03
153.722200	1.316222	dec_social_high	1.316222	32.000000	n/a	8	1.953125e-02	1.953125e-02
153.722200	1.316222	dec_social_accept_high	1.316222	32.000000	n/a	8	1.953125e-02	1.953125e-02
160.555950	1.565731	dec_nonsocial_choice	1.565731	16.000000	n/a	8	2.699468e-01	2.699468e-01
160.555950	1.565731	dec_choice	1.565731	16.000000	n/a	8	2.703804e-01	2.703804e-01
160.555950	1.565731	dec_nonsocial_accept	1.565731	16.000000	n/a	8	2.349537e-01	2.349537e-01
160.555950	1.565731	dec_accept	1.565731	16.000000	n/a	8	2.309028e-01	2.309028e-01
160.555950	1.565731	dec_nonsocial_high	1.565731	16.000000	n/a	8	2.703804e-01	2.703804e-01
160.555950	1.565731	dec_nonsocial_accept_high	1.565731	16.000000	n/a	8	2.309028e-01	2.309028e-01
168.204970	1.866965	dec_social_choice	1.866965	16.000000	n/a	4	1.994681e-02	1.994681e-02
168.204970	1.866965	dec_choice	1.866965	16.000000	n/a	4	1.953125e-02	1.953125e-02
168.204970	1.866965	dec_social_accept	1.866965	16.000000	n/a	4	-1.504630e-02	-1.504630e-02
168.204970	1.866965	dec_accept	1.866965	16.000000	n/a	4	-6.944444e-03	-6.944444e-03
168.204970	1.866965	dec_social_accept_high	1.866965	16.000000	n/a	4	1.953125e-02	1.953125e-02
175.856000	1.115358	dec_social_choice	1.115358	16.000000	n/a	0	0	-2.300532e-01
175.856000	1.115358	dec_choice	1.115358	16.000000	n/a	0	0	-2.304688e-01
175.856000	1.115358	dec_social_reject	1.115358	16.000000	n/a	0	0	-5.781250e-02
175.856000	1.115358	dec_reject	1.115358	16.000000	n/a	0	0	-8.958333e-02
175.856000	1.115358	dec_social_low	1.115358	16.000000	n/a	0	-2.304688e-01	-2.304688e-01
175.856000	1.115358	dec_social_reject_low	1.115358	16.000000	n/a	2	-1.054688e-01	-2.304688e-01
183.506010	0.982518	dec_social_choice	0.982518	32.000000	n/a	16	2.699468e-01	2.699468e-01
183.506010	0.982518	dec_choice	0.982518	32.000000	n/a	16	2.695312e-01	2.695312e-01
183.506010	0.982518	dec_social_accept	0.982518	32.000000	n/a	16	2.349537e-01	2.349537e-01
183.506010	0.982518	dec_accept	0.982518	32.000000	n/a	16	2.430556e-01	2.430556e-01
183.506010	0.982518	dec_social_accept_high	0.982518	32.000000	n/a	16	2.695312e-01	2.695312e-01
191.155650	1.649528	dec_nonsocial_choice	1.649528	32.000000	n/a	2	-1.675532e-01	-1.675532e-01
191.155650	1.649528	dec_choice	1.649528	32.000000	n/a	2	-1.671196e-01	-1.671196e-01
191.155650	1.649528	dec_nonsocial_accept	1.649528	32.000000	n/a	2	-2.025463e-01	-2.025463e-01
191.155650	1.649528	dec_accept	1.649528	32.000000	n/a	2	-2.065972e-01	-2.065972e-01
191.155650	1.649528	dec_nonsocial_accept_low	1.649528	32.000000	n/a	2	-1.944444e-01	-1.944444e-01
197.988920	0.950225	dec_nonsocial_choice	0.950225	16.000000	n/a	4	1.994681e-02	1.994681e-02
197.988920	0.950225	dec_choice	0.950225	16.000000	n/a	4	2.038043e-02	2.038043e-02
197.988920	0.950225	dec_nonsocial_accept	0.950225	16.000000	n/a	4	-1.504630e-02	-1.504630e-02
197.988920	0.950225	dec_accept	0.950225	16.000000	n/a	4	-1.909722e-02	-1.909722e-02
197.988920	0.950225	dec_nonsocial_accept_high	0.950225	16.000000	n/a	4	-6.944444e-03	-6.944444e-03
207.238950	2.132857	dec_social_choice	2.132857	32.000000	n/a	0	0	-2.300532e-01
207.238950	2.132857	dec_choice	2.132857	32.000000	n/a	0	0	-2.304688e-01
207.238950	2.132857	dec_social_reject	2.132857	32.000000	n/a	0	0	-1.203125e-01
207.238950	2.132857	dec_reject	2.132857	32.000000	n/a	0	0	-1.520833e-01
207.238950	2.132857	dec_social_reject_low	2.132857	32.000000	n/a	2	-1.679688e-01	-2.304688e-01
214.072160	1.299785	dec_nonsocial_choice	1.299785	16.000000	n/a	8	2.699468e-01	2.699468e-01
214.072160	1.299785	dec_choice	1.299785	16.000000	n/a	8	2.703804e-01	2.703804e-01
214.072160	1.299785	dec_nonsocial_accept	1.299785	16.000000	n/a	8	2.349537e-01	2.349537e-01
214.072160	1.299785	dec_accept	1.299785	16.000000	n/a	8	2.309028e-01	2.309028e-01
214.072160	1.299785	dec_nonsocial_high	1.299785	16.000000	n/a	8	2.703804e-01	2.703804e-01
214.072160	1.299785	dec_nonsocial_accept_high	1.299785	16.000000	n/a	8	2.309028e-01	2.309028e-01
221.720960	2.001324	dec_social_choice	2.001324	16.000000	n/a	0	0	-2.300532e-01
221.720960	2.001324	dec_choice	2.001324	16.000000	n/a	0	0	-2.304688e-01
221.720960	2.001324	dec_social_reject	2.001324	16.000000	n/a	0	0	3.171875e-01
221.720960	2.001324	dec_reject	2.001324	16.000000	n/a	0	0	2.854167e-01
221.720960	2.001324	dec_social_reject_low	2.001324	16.000000	n/a	8	2.695312e-01	-2.304688e-01
228.555920	0.866190	dec_nonsocial_choice	0.866190	32.000000	n/a	8	1.994681e-02	1.994681e-02
228.555920	0.866190	dec_choice	0.866190	32.000000	n/a	8	2.038043e-02	2.038043e-02
228.555920	0.866190	dec_nonsocial_accept	0.866190	32.000000	n/a	8	-1.504630e-02	-1.504630e-02
228.555920	0.866190	dec_accept	0.866190	32.000000	n/a	8	-1.909722e-02	-1.909722e-02
228.555920	0.866190	dec_nonsocial_accept_high	0.866190	32.000000	n/a	8	-6.944444e-03	-6.944444e-03
237.805970	1.215784	dec_nonsocial_choice	1.215784	16.000000	n/a	8	2.699468e-01	2.699468e-01
237.805970	1.215784	dec_choice	1.215784	16.000000	n/a	8	2.703804e-01	2.703804e-01
237.805970	1.215784	dec_nonsocial_accept	1.215784	16.000000	n/a	8	2.349537e-01	2.349537e-01
237.805970	1.215784	dec_accept	1.215784	16.000000	n/a	8	2.309028e-01	2.309028e-01
237.805970	1.215784	dec_nonsocial_high	1.215784	16.000000	n/a	8	2.703804e-01	2.703804e-01
237.805970	1.215784	dec_nonsocial_accept_high	1.215784	16.000000	n/a	8	2.309028e-01	2.309028e-01
244.638900	1.565510	dec_social_choice	1.565510	32.000000	n/a	8	1.994681e-02	1.994681e-02
244.638900	1.565510	dec_choice	1.565510	32.000000	n/a	8	1.953125e-02	1.953125e-02
244.638900	1.565510	dec_social_accept	1.565510	32.000000	n/a	8	-1.504630e-02	-1.504630e-02
244.638900	1.565510	dec_accept	1.565510	32.000000	n/a	8	-6.944444e-03	-6.944444e-03
244.638900	1.565510	dec_social_accept_high	1.565510	32.000000	n/a	8	1.953125e-02	1.953125e-02
255.504880	1.466764	dec_social_choice	1.466764	16.000000	n/a	0	0	-2.300532e-01
255.504880	1.466764	dec_choice	1.466764	16.000000	n/a	0	0	-2.304688e-01
255.504880	1.466764	dec_social_reject	1.466764	16.000000	n/a	0	0	6.718750e-02
255.504880	1.466764	dec_reject	1.466764	16.000000	n/a	0	0	3.541667e-02
255.504880	1.466764	dec_social_reject_low	1.466764	16.000000	n/a	4	1.953125e-02	-2.304688e-01
263.155060	0.833682	dec_nonsocial_choice	0.833682	32.000000	n/a	8	1.994681e-02	1.994681e-02
263.155060	0.833682	dec_choice	0.833682	32.000000	n/a	8	2.038043e-02	2.038043e-02
263.155060	0.833682	dec_nonsocial_accept	0.833682	32.000000	n/a	8	-1.504630e-02	-1.504630e-02
263.155060	0.833682	dec_accept	0.833682	32.000000	n/a	8	-1.909722e-02	-1.909722e-02
263.155060	0.833682	dec_nonsocial_accept_high	0.833682	32.000000	n/a	8	-6.944444e-03	-6.944444e-03
269.988250	1.883836	dec_social_choice	1.883836	16.000000	n/a	0	0	-2.300532e-01
269.988250	1.883836	dec_choice	1.883836	16.000000	n/a	0	0	-2.304688e-01
269.988250	1.883836	dec_social_reject	1.883836	16.000000	n/a	0	0	6.718750e-02
269.988250	1.883836	dec_reject	1.883836	16.000000	n/a	0	0	3.541667e-02
269.988250	1.883836	dec_social_low	1.883836	16.000000	n/a	0	-2.304688e-01	-2.304688e-01
269.988250	1.883836	dec_social_reject_low	1.883836	16.000000	n/a	4	1.953125e-02	-2.304688e-01
279.239140	1.516015	dec_nonsocial_choice	1.516015	16.000000	n/a	0	0	-2.300532e-01
279.239140	1.516015	dec_choice	1.516015	16.000000	n/a	0	0	-2.296196e-01
279.239140	1.516015	dec_nonsocial_reject	1.516015	16.000000	n/a	0	0	-5.781250e-02
279.239140	1.516015	dec_reject	1.516015	16.000000	n/a	0	0	3.750000e-02
279.239140	1.516015	dec_nonsocial_low	1.516015	16.000000	n/a	0	-2.296196e-01	-2.296196e-01
279.239140	1.516015	dec_nonsocial_reject_low	1.516015	16.000000	n/a	2	3.750000e-02	-8.750000e-02
286.072000	1.449923	dec_nonsocial_choice	1.449923	32.000000	n/a	3	-1.363032e-01	-1.363032e-01
286.072000	1.449923	dec_choice	1.449923	32.000000	n/a	3	-1.358696e-01	-1.358696e-01
286.072000	1.449923	dec_nonsocial_accept	1.449923	32.000000	n/a	3	-1.712963e-01	-1.712963e-01
286.072000	1.449923	dec_accept	1.449923	32.000000	n/a	3	-1.753472e-01	-1.753472e-01
286.072000	1.449923	dec_nonsocial_accept_low	1.449923	32.000000	n/a	3	-1.631944e-01	-1.631944e-01
295.338130	1.950973	dec_social_choice	1.950973	16.000000	n/a	0	0	-2.300532e-01
295.338130	1.950973	dec_choice	1.950973	16.000000	n/a	0	0	-2.304688e-01
295.338130	1.950973	dec_social_reject	1.950973	16.000000	n/a	0	0	3.171875e-01
295.338130	1.950973	dec_reject	1.950973	16.000000	n/a	0	0	2.854167e-01
295.338130	1.950973	dec_social_reject_low	1.950973	16.000000	n/a	8	2.695312e-01	-2.304688e-01
304.588680	3.766946	missed_trial	3.766946	32.000000	n/a	n/a	n/a	n/a
313.871920	1.566745	dec_social_choice	1.566745	32.000000	n/a	0	0	-2.300532e-01
313.871920	1.566745	dec_choice	1.566745	32.000000	n/a	0	0	-2.304688e-01
313.871920	1.566745	dec_social_reject	1.566745	32.000000	n/a	0	0	-8.906250e-02
313.871920	1.566745	dec_reject	1.566745	32.000000	n/a	0	0	-1.208333e-01
313.871920	1.566745	dec_social_reject_low	1.566745	32.000000	n/a	3	-1.367188e-01	-2.304688e-01
320.703920	1.001260	dec_social_choice	1.001260	16.000000	n/a	0	0	-2.300532e-01
320.703920	1.001260	dec_choice	1.001260	16.000000	n/a	0	0	-2.304688e-01
320.703920	1.001260	dec_social_reject	1.001260	16.000000	n/a	0	0	-1.203125e-01
320.703920	1.001260	dec_reject	1.001260	16.000000	n/a	0	0	-1.520833e-01
320.703920	1.001260	dec_social_low	1.001260	16.000000	n/a	0	-2.304688e-01	-2.304688e-01
320.703920	1.001260	dec_social_reject_low	1.001260	16.000000	n/a	1	-1.679688e-01	-2.304688e-01
327.537870	1.350880	dec_social_choice	1.350880	16.000000	n/a	0	0	-2.300532e-01
327.537870	1.350880	dec_choice	1.350880	16.000000	n/a	0	0	-2.304688e-01
327.537870	1.350880	dec_social_reject	1.350880	16.000000	n/a	0	0	-5.781250e-02
327.537870	1.350880	dec_reject	1.350880	16.000000	n/a	0	0	-8.958333e-02
327.537870	1.350880	dec_social_reject_low	1.350880	16.000000	n/a	2	-1.054688e-01	-2.304688e-01
335.171000	1.633842	dec_social_choice	1.633842	32.000000	n/a	3	-1.363032e-01	-1.363032e-01
335.171000	1.633842	dec_choice	1.633842	32.000000	n/a	3	-1.367188e-01	-1.367188e-01
335.171000	1.633842	dec_social_accept	1.633842	32.000000	n/a	3	-1.712963e-01	-1.712963e-01
335.171000	1.633842	dec_accept	1.633842	32.000000	n/a	3	-1.631944e-01	-1.631944e-01
335.171000	1.633842	dec_social_low	1.633842	32.000000	n/a	3	-1.367188e-01	-1.367188e-01
335.171000	1.633842	dec_social_accept_low	1.633842	32.000000	n/a	3	-1.367188e-01	-1.367188e-01
342.820830	1.533705	dec_social_choice	1.533705	32.000000	n/a	8	1.994681e-02	1.994681e-02
342.820830	1.533705	dec_choice	1.533705	32.000000	n/a	8	1.953125e-02	1.953125e-02
342.820830	1.533705	dec_social_accept	1.533705	32.000000	n/a	8	-1.504630e-02	-1.504630e-02
342.820830	1.533705	dec_accept	1.533705	32.000000	n/a	8	-6.944444e-03	-6.944444e-03
342.820830	1.533705	dec_social_high	1.533705	32.000000	n/a	8	1.953125e-02	1.953125e-02
342.820830	1.533705	dec_social_accept_high	1.533705	32.000000	n/a	8	1.953125e-02	1.953125e-02
353.688700	1.365727	dec_nonsocial_choice	1.365727	32.000000	n/a	0	0	-2.300532e-01
353.688700	1.365727	dec_choice	1.365727	32.000000	n/a	0	0	-2.296196e-01
353.688700	1.365727	dec_nonsocial_reject	1.365727	32.000000	n/a	0	0	-1.203125e-01
353.688700	1.365727	dec_reject	1.365727	32.000000	n/a	0	0	-2.500000e-02
353.688700	1.365727	dec_nonsocial_low	1.365727	32.000000	n/a	0	-2.296196e-01	-2.296196e-01
353.688700	1.365727	dec_nonsocial_reject_low	1.365727	32.000000	n/a	2	-2.500000e-02	-8.750000e-02
360.521180	1.617108	dec_social_choice	1.617108	32.000000	n/a	3	-1.363032e-01	-1.363032e-01
360.521180	1.617108	dec_choice	1.617108	32.000000	n/a	3	-1.367188e-01	-1.367188e-01
360.521180	1.617108	dec_social_accept	1.617108	32.000000	n/a	3	-1.712963e-01	-1.712963e-01
360.521180	1.617108	dec_accept	1.617108	32.000000	n/a	3	-1.631944e-01	-1.631944e-01
360.521180	1.617108	dec_social_low	1.617108	32.000000	n/a	3	-1.367188e-01	-1.367188e-01
360.521180	1.617108	dec_social_accept_low	1.617108	32.000000	n/a	3	-1.367188e-01	-1.367188e-01
373.004850	1.233759	dec_nonsocial_choice	1.233759	32.000000	n/a	16	2.699468e-01	2.699468e-01
373.004850	1.233759	dec_choice	1.233759	32.000000	n/a	16	2.703804e-01	2.703804e-01
373.004850	1.233759	dec_nonsocial_accept	1.233759	32.000000	n/a	16	2.349537e-01	2.349537e-01
373.004850	1.233759	dec_accept	1.233759	32.000000	n/a	16	2.309028e-01	2.309028e-01
373.004850	1.233759	dec_nonsocial_high	1.233759	32.000000	n/a	16	2.703804e-01	2.703804e-01
373.004850	1.233759	dec_nonsocial_accept_high	1.233759	32.000000	n/a	16	2.309028e-01	2.309028e-01
