onset	duration	trial_type	response_time	Endowment	Endowment_pmod	Decision	Decision_pmod	Offer_pmod
4.517037	2	cue_nonsocial	n/a	16	-7	n/a	n/a	n/a
4.517037	2	cue_nonsocial_low	n/a	16	-9	n/a	n/a	n/a
13.841632	2	cue_social	n/a	16	-9	n/a	n/a	n/a
13.841632	2	cue_social_low	n/a	16	-7	n/a	n/a	n/a
20.617378	2	cue_nonsocial	n/a	32	9	n/a	n/a	n/a
20.617378	2	cue_nonsocial_high	n/a	32	7	n/a	n/a	n/a
29.967740	2	cue_social	n/a	32	7	n/a	n/a	n/a
29.967740	2	cue_social_high	n/a	32	9	n/a	n/a	n/a
36.700294	2	cue_nonsocial	n/a	32	9	n/a	n/a	n/a
36.700294	2	cue_nonsocial_high	n/a	32	7	n/a	n/a	n/a
44.424812	2	cue_social	n/a	32	7	n/a	n/a	n/a
44.424812	2	cue_social_high	n/a	32	9	n/a	n/a	n/a
52.000360	2	cue_nonsocial	n/a	16	-7	n/a	n/a	n/a
52.000360	2	cue_nonsocial_low	n/a	16	-9	n/a	n/a	n/a
59.650303	2	cue_nonsocial	n/a	16	-7	n/a	n/a	n/a
59.650303	2	cue_nonsocial_low	n/a	16	-9	n/a	n/a	n/a
68.983300	2	cue_social	n/a	16	-9	n/a	n/a	n/a
68.983300	2	cue_social_low	n/a	16	-7	n/a	n/a	n/a
76.637930	2	cue_social	n/a	32	7	n/a	n/a	n/a
76.637930	2	cue_social_high	n/a	32	9	n/a	n/a	n/a
83.452550	2	cue_social	n/a	32	7	n/a	n/a	n/a
83.452550	2	cue_social_high	n/a	32	9	n/a	n/a	n/a
91.016594	2	cue_nonsocial	n/a	32	9	n/a	n/a	n/a
91.016594	2	cue_nonsocial_high	n/a	32	7	n/a	n/a	n/a
97.851130	2	cue_nonsocial	n/a	32	9	n/a	n/a	n/a
97.851130	2	cue_nonsocial_high	n/a	32	7	n/a	n/a	n/a
104.683670	2	cue_nonsocial	n/a	32	9	n/a	n/a	n/a
104.683670	2	cue_nonsocial_high	n/a	32	7	n/a	n/a	n/a
112.446050	2	cue_social	n/a	32	7	n/a	n/a	n/a
112.446050	2	cue_social_high	n/a	32	9	n/a	n/a	n/a
119.246910	2	cue_social	n/a	16	-9	n/a	n/a	n/a
119.246910	2	cue_social_low	n/a	16	-7	n/a	n/a	n/a
126.097300	2	cue_social	n/a	16	-9	n/a	n/a	n/a
126.097300	2	cue_social_low	n/a	16	-7	n/a	n/a	n/a
132.837600	2	cue_nonsocial	n/a	32	9	n/a	n/a	n/a
132.837600	2	cue_nonsocial_high	n/a	32	7	n/a	n/a	n/a
139.729110	2	cue_social	n/a	32	7	n/a	n/a	n/a
139.729110	2	cue_social_high	n/a	32	9	n/a	n/a	n/a
146.500980	2	cue_nonsocial	n/a	16	-7	n/a	n/a	n/a
146.500980	2	cue_nonsocial_low	n/a	16	-9	n/a	n/a	n/a
153.333200	2	cue_nonsocial	n/a	16	-7	n/a	n/a	n/a
153.333200	2	cue_nonsocial_low	n/a	16	-9	n/a	n/a	n/a
162.583220	2	cue_nonsocial	n/a	16	-7	n/a	n/a	n/a
162.583220	2	cue_nonsocial_low	n/a	16	-9	n/a	n/a	n/a
169.502640	2	cue_social	n/a	16	-9	n/a	n/a	n/a
169.502640	2	cue_social_low	n/a	16	-7	n/a	n/a	n/a
176.250320	2	cue_nonsocial	n/a	16	-7	n/a	n/a	n/a
176.250320	2	cue_nonsocial_low	n/a	16	-9	n/a	n/a	n/a
183.083370	2	cue_nonsocial	n/a	16	-7	n/a	n/a	n/a
183.083370	2	cue_nonsocial_low	n/a	16	-9	n/a	n/a	n/a
190.734180	2	cue_nonsocial	n/a	32	9	n/a	n/a	n/a
190.734180	2	cue_nonsocial_high	n/a	32	7	n/a	n/a	n/a
197.598940	2	cue_social	n/a	16	-9	n/a	n/a	n/a
197.598940	2	cue_social_low	n/a	16	-7	n/a	n/a	n/a
204.400790	2	cue_nonsocial	n/a	32	9	n/a	n/a	n/a
204.400790	2	cue_nonsocial_high	n/a	32	7	n/a	n/a	n/a
211.319260	2	cue_social	n/a	32	7	n/a	n/a	n/a
211.319260	2	cue_social_high	n/a	32	9	n/a	n/a	n/a
220.567860	2	cue_social	n/a	16	-9	n/a	n/a	n/a
220.567860	2	cue_social_low	n/a	16	-7	n/a	n/a	n/a
228.224620	2	cue_social	n/a	32	7	n/a	n/a	n/a
228.224620	2	cue_social_high	n/a	32	9	n/a	n/a	n/a
239.003310	2	cue_social	n/a	32	7	n/a	n/a	n/a
239.003310	2	cue_social_high	n/a	32	9	n/a	n/a	n/a
245.910430	2	cue_social	n/a	16	-9	n/a	n/a	n/a
245.910430	2	cue_social_low	n/a	16	-7	n/a	n/a	n/a
252.667110	2	cue_nonsocial	n/a	16	-7	n/a	n/a	n/a
252.667110	2	cue_nonsocial_low	n/a	16	-9	n/a	n/a	n/a
259.576570	2	cue_social	n/a	32	7	n/a	n/a	n/a
259.576570	2	cue_social_high	n/a	32	9	n/a	n/a	n/a
267.149630	2	cue_nonsocial	n/a	16	-7	n/a	n/a	n/a
267.149630	2	cue_nonsocial_low	n/a	16	-9	n/a	n/a	n/a
274.846300	2	cue_social	n/a	32	7	n/a	n/a	n/a
274.846300	2	cue_social_high	n/a	32	9	n/a	n/a	n/a
284.149720	2	cue_social	n/a	16	-9	n/a	n/a	n/a
284.149720	2	cue_social_low	n/a	16	-7	n/a	n/a	n/a
290.886780	2	cue_nonsocial	n/a	16	-7	n/a	n/a	n/a
290.886780	2	cue_nonsocial_low	n/a	16	-9	n/a	n/a	n/a
303.454440	2	cue_social	n/a	16	-9	n/a	n/a	n/a
303.454440	2	cue_social_low	n/a	16	-7	n/a	n/a	n/a
314.233120	2	cue_nonsocial	n/a	32	9	n/a	n/a	n/a
314.233120	2	cue_nonsocial_high	n/a	32	7	n/a	n/a	n/a
321.935240	2	cue_social	n/a	16	-9	n/a	n/a	n/a
321.935240	2	cue_social_low	n/a	16	-7	n/a	n/a	n/a
329.549740	2	cue_nonsocial	n/a	16	-7	n/a	n/a	n/a
329.549740	2	cue_nonsocial_low	n/a	16	-9	n/a	n/a	n/a
338.799620	2	cue_nonsocial	n/a	32	9	n/a	n/a	n/a
338.799620	2	cue_nonsocial_high	n/a	32	7	n/a	n/a	n/a
349.666870	2	cue_nonsocial	n/a	32	9	n/a	n/a	n/a
349.666870	2	cue_nonsocial_high	n/a	32	7	n/a	n/a	n/a
356.597320	2	cue_social	n/a	32	7	n/a	n/a	n/a
356.597320	2	cue_social_high	n/a	32	9	n/a	n/a	n/a
364.167080	2	cue_nonsocial	n/a	16	-7	n/a	n/a	n/a
364.167080	2	cue_nonsocial_low	n/a	16	-9	n/a	n/a	n/a
371.089870	2	cue_social	n/a	32	7	n/a	n/a	n/a
371.089870	2	cue_social_high	n/a	32	9	n/a	n/a	n/a
6.523532	1.549474	dec_nonsocial_choice	1.549474	16.000000	n/a	4	1.426630e-02	1.426630e-02
6.523532	1.549474	dec_choice	1.549474	16.000000	n/a	4	2.083333e-02	2.083333e-02
6.523532	1.549474	dec_nonsocial_accept	1.549474	16.000000	n/a	4	-1.160714e-01	-1.160714e-01
6.523532	1.549474	dec_accept	1.549474	16.000000	n/a	4	-1.180556e-01	-1.180556e-01
6.523532	1.549474	dec_nonsocial_accept_high	1.549474	16.000000	n/a	4	-1.145833e-01	-1.145833e-01
15.789597	1.566301	dec_social_choice	1.566301	16.000000	n/a	4	1.426630e-02	1.426630e-02
15.789597	1.566301	dec_choice	1.566301	16.000000	n/a	4	7.102273e-03	7.102273e-03
15.789597	1.566301	dec_social_accept	1.566301	16.000000	n/a	4	-1.160714e-01	-1.160714e-01
15.789597	1.566301	dec_accept	1.566301	16.000000	n/a	4	-1.145833e-01	-1.145833e-01
15.789597	1.566301	dec_social_accept_high	1.566301	16.000000	n/a	4	7.102273e-03	7.102273e-03
22.622755	0.833807	dec_nonsocial_choice	0.833807	32.000000	n/a	16	2.642663e-01	2.642663e-01
22.622755	0.833807	dec_choice	0.833807	32.000000	n/a	16	2.708333e-01	2.708333e-01
22.622755	0.833807	dec_nonsocial_accept	0.833807	32.000000	n/a	16	1.339286e-01	1.339286e-01
22.622755	0.833807	dec_accept	0.833807	32.000000	n/a	16	1.319444e-01	1.319444e-01
22.622755	0.833807	dec_nonsocial_accept_high	0.833807	32.000000	n/a	16	1.354167e-01	1.354167e-01
31.872700	1.016283	dec_social_choice	1.016283	32.000000	n/a	16	2.642663e-01	2.642663e-01
31.872700	1.016283	dec_choice	1.016283	32.000000	n/a	16	2.571023e-01	2.571023e-01
31.872700	1.016283	dec_social_accept	1.016283	32.000000	n/a	16	1.339286e-01	1.339286e-01
31.872700	1.016283	dec_accept	1.016283	32.000000	n/a	16	1.354167e-01	1.354167e-01
31.872700	1.016283	dec_social_accept_high	1.016283	32.000000	n/a	16	2.571023e-01	2.571023e-01
38.706837	1.383270	dec_nonsocial_choice	1.383270	32.000000	n/a	0	0	-2.357337e-01
38.706837	1.383270	dec_choice	1.383270	32.000000	n/a	0	0	-2.291667e-01
38.706837	1.383270	dec_nonsocial_reject	1.383270	32.000000	n/a	0	0	-3.250000e-02
38.706837	1.383270	dec_reject	1.383270	32.000000	n/a	0	0	-5.208333e-02
38.706837	1.383270	dec_nonsocial_reject_low	1.383270	32.000000	n/a	3	-3.125000e-03	-9.687500e-02
46.355030	1.433832	dec_social_choice	1.433832	32.000000	n/a	16	2.642663e-01	2.642663e-01
46.355030	1.433832	dec_choice	1.433832	32.000000	n/a	16	2.571023e-01	2.571023e-01
46.355030	1.433832	dec_social_accept	1.433832	32.000000	n/a	16	1.339286e-01	1.339286e-01
46.355030	1.433832	dec_accept	1.433832	32.000000	n/a	16	1.354167e-01	1.354167e-01
46.355030	1.433832	dec_social_high	1.433832	32.000000	n/a	16	2.571023e-01	2.571023e-01
46.355030	1.433832	dec_social_accept_high	1.433832	32.000000	n/a	16	2.571023e-01	2.571023e-01
54.006800	1.815619	dec_nonsocial_choice	1.815619	16.000000	n/a	0	0	-2.357337e-01
54.006800	1.815619	dec_choice	1.815619	16.000000	n/a	0	0	-2.291667e-01
54.006800	1.815619	dec_nonsocial_reject	1.815619	16.000000	n/a	0	0	1.237500e-01
54.006800	1.815619	dec_reject	1.815619	16.000000	n/a	0	0	1.041667e-01
54.006800	1.815619	dec_nonsocial_reject_low	1.815619	16.000000	n/a	4	1.531250e-01	-9.687500e-02
61.656273	1.050042	dec_nonsocial_choice	1.050042	16.000000	n/a	8	2.642663e-01	2.642663e-01
61.656273	1.050042	dec_choice	1.050042	16.000000	n/a	8	2.708333e-01	2.708333e-01
61.656273	1.050042	dec_nonsocial_accept	1.050042	16.000000	n/a	8	1.339286e-01	1.339286e-01
61.656273	1.050042	dec_accept	1.050042	16.000000	n/a	8	1.319444e-01	1.319444e-01
61.656273	1.050042	dec_nonsocial_high	1.050042	16.000000	n/a	8	2.708333e-01	2.708333e-01
61.656273	1.050042	dec_nonsocial_accept_high	1.050042	16.000000	n/a	8	1.319444e-01	1.319444e-01
70.905190	1.567380	dec_social_choice	1.567380	16.000000	n/a	4	1.426630e-02	1.426630e-02
70.905190	1.567380	dec_choice	1.567380	16.000000	n/a	4	7.102273e-03	7.102273e-03
70.905190	1.567380	dec_social_accept	1.567380	16.000000	n/a	4	-1.160714e-01	-1.160714e-01
70.905190	1.567380	dec_accept	1.567380	16.000000	n/a	4	-1.145833e-01	-1.145833e-01
70.905190	1.567380	dec_social_high	1.567380	16.000000	n/a	4	7.102273e-03	7.102273e-03
70.905190	1.567380	dec_social_accept_high	1.567380	16.000000	n/a	4	7.102273e-03	7.102273e-03
78.539730	1.366583	dec_social_choice	1.366583	32.000000	n/a	0	0	-2.357337e-01
78.539730	1.366583	dec_choice	1.366583	32.000000	n/a	0	0	-2.428977e-01
78.539730	1.366583	dec_social_reject	1.366583	32.000000	n/a	0	0	-3.250000e-02
78.539730	1.366583	dec_reject	1.366583	32.000000	n/a	0	0	-3.125000e-03
78.539730	1.366583	dec_social_low	1.366583	32.000000	n/a	0	-2.428977e-01	-2.428977e-01
78.539730	1.366583	dec_social_reject_low	1.366583	32.000000	n/a	3	-1.491477e-01	-2.428977e-01
85.372520	1.250499	dec_social_choice	1.250499	32.000000	n/a	0	0	-2.357337e-01
85.372520	1.250499	dec_choice	1.250499	32.000000	n/a	0	0	-2.428977e-01
85.372520	1.250499	dec_social_reject	1.250499	32.000000	n/a	0	0	-3.250000e-02
85.372520	1.250499	dec_reject	1.250499	32.000000	n/a	0	0	-3.125000e-03
85.372520	1.250499	dec_social_low	1.250499	32.000000	n/a	0	-2.428977e-01	-2.428977e-01
85.372520	1.250499	dec_social_reject_low	1.250499	32.000000	n/a	3	-1.491477e-01	-2.428977e-01
93.022705	2.266681	dec_nonsocial_choice	2.266681	32.000000	n/a	0	0	-2.357337e-01
93.022705	2.266681	dec_choice	2.266681	32.000000	n/a	0	0	-2.291667e-01
93.022705	2.266681	dec_nonsocial_reject	2.266681	32.000000	n/a	0	0	-3.250000e-02
93.022705	2.266681	dec_reject	2.266681	32.000000	n/a	0	0	-5.208333e-02
93.022705	2.266681	dec_nonsocial_reject_low	2.266681	32.000000	n/a	3	-3.125000e-03	-9.687500e-02
99.856224	1.249786	dec_nonsocial_choice	1.249786	32.000000	n/a	0	0	-2.357337e-01
99.856224	1.249786	dec_choice	1.249786	32.000000	n/a	0	0	-2.291667e-01
99.856224	1.249786	dec_nonsocial_reject	1.249786	32.000000	n/a	0	0	-3.250000e-02
99.856224	1.249786	dec_reject	1.249786	32.000000	n/a	0	0	-5.208333e-02
99.856224	1.249786	dec_nonsocial_low	1.249786	32.000000	n/a	0	-2.291667e-01	-2.291667e-01
99.856224	1.249786	dec_nonsocial_reject_low	1.249786	32.000000	n/a	3	-5.208333e-02	-1.458333e-01
106.689660	0.849469	dec_nonsocial_choice	0.849469	32.000000	n/a	16	2.642663e-01	2.642663e-01
106.689660	0.849469	dec_choice	0.849469	32.000000	n/a	16	2.708333e-01	2.708333e-01
106.689660	0.849469	dec_nonsocial_accept	0.849469	32.000000	n/a	16	1.339286e-01	1.339286e-01
106.689660	0.849469	dec_accept	0.849469	32.000000	n/a	16	1.319444e-01	1.319444e-01
106.689660	0.849469	dec_nonsocial_high	0.849469	32.000000	n/a	16	2.708333e-01	2.708333e-01
106.689660	0.849469	dec_nonsocial_accept_high	0.849469	32.000000	n/a	16	1.319444e-01	1.319444e-01
114.339590	2.466196	dec_social_choice	2.466196	32.000000	n/a	0	0	-2.357337e-01
114.339590	2.466196	dec_choice	2.466196	32.000000	n/a	0	0	-2.428977e-01
114.339590	2.466196	dec_social_reject	2.466196	32.000000	n/a	0	0	-6.375000e-02
114.339590	2.466196	dec_reject	2.466196	32.000000	n/a	0	0	-3.437500e-02
114.339590	2.466196	dec_social_reject_low	2.466196	32.000000	n/a	2	-1.803977e-01	-2.428977e-01
121.172750	0.766763	dec_social_choice	0.766763	16.000000	n/a	2	-1.107337e-01	-1.107337e-01
121.172750	0.766763	dec_choice	0.766763	16.000000	n/a	2	-1.178977e-01	-1.178977e-01
121.172750	0.766763	dec_social_accept	0.766763	16.000000	n/a	2	-2.410714e-01	-2.410714e-01
121.172750	0.766763	dec_accept	0.766763	16.000000	n/a	2	-2.395833e-01	-2.395833e-01
121.172750	0.766763	dec_social_low	0.766763	16.000000	n/a	2	-1.178977e-01	-1.178977e-01
121.172750	0.766763	dec_social_accept_low	0.766763	16.000000	n/a	2	-1.178977e-01	-1.178977e-01
128.005660	1.916778	dec_social_choice	1.916778	16.000000	n/a	0	0	-2.357337e-01
128.005660	1.916778	dec_choice	1.916778	16.000000	n/a	0	0	-2.428977e-01
128.005660	1.916778	dec_social_reject	1.916778	16.000000	n/a	0	0	1.237500e-01
128.005660	1.916778	dec_reject	1.916778	16.000000	n/a	0	0	1.531250e-01
128.005660	1.916778	dec_social_low	1.916778	16.000000	n/a	0	-2.428977e-01	-2.428977e-01
128.005660	1.916778	dec_social_reject_low	1.916778	16.000000	n/a	4	7.102273e-03	-2.428977e-01
134.839660	1.783236	dec_nonsocial_choice	1.783236	32.000000	n/a	0	0	-2.357337e-01
134.839660	1.783236	dec_choice	1.783236	32.000000	n/a	0	0	-2.291667e-01
134.839660	1.783236	dec_nonsocial_reject	1.783236	32.000000	n/a	0	0	-6.375000e-02
134.839660	1.783236	dec_reject	1.783236	32.000000	n/a	0	0	-8.333333e-02
134.839660	1.783236	dec_nonsocial_reject_low	1.783236	32.000000	n/a	2	-3.437500e-02	-9.687500e-02
141.674700	1.414195	dec_social_choice	1.414195	32.000000	n/a	8	1.426630e-02	1.426630e-02
141.674700	1.414195	dec_choice	1.414195	32.000000	n/a	8	7.102273e-03	7.102273e-03
141.674700	1.414195	dec_social_accept	1.414195	32.000000	n/a	8	-1.160714e-01	-1.160714e-01
141.674700	1.414195	dec_accept	1.414195	32.000000	n/a	8	-1.145833e-01	-1.145833e-01
141.674700	1.414195	dec_social_high	1.414195	32.000000	n/a	8	7.102273e-03	7.102273e-03
141.674700	1.414195	dec_social_accept_high	1.414195	32.000000	n/a	8	7.102273e-03	7.102273e-03
148.506850	1.199215	dec_nonsocial_choice	1.199215	16.000000	n/a	0	0	-2.357337e-01
148.506850	1.199215	dec_choice	1.199215	16.000000	n/a	0	0	-2.291667e-01
148.506850	1.199215	dec_nonsocial_reject	1.199215	16.000000	n/a	0	0	-1.250000e-03
148.506850	1.199215	dec_reject	1.199215	16.000000	n/a	0	0	-2.083333e-02
148.506850	1.199215	dec_nonsocial_low	1.199215	16.000000	n/a	0	-2.291667e-01	-2.291667e-01
148.506850	1.199215	dec_nonsocial_reject_low	1.199215	16.000000	n/a	2	-2.083333e-02	-1.458333e-01
155.339460	2.083348	dec_nonsocial_choice	2.083348	16.000000	n/a	0	0	-2.357337e-01
155.339460	2.083348	dec_choice	2.083348	16.000000	n/a	0	0	-2.291667e-01
155.339460	2.083348	dec_nonsocial_reject	2.083348	16.000000	n/a	0	0	1.237500e-01
155.339460	2.083348	dec_reject	2.083348	16.000000	n/a	0	0	1.041667e-01
155.339460	2.083348	dec_nonsocial_low	2.083348	16.000000	n/a	0	-2.291667e-01	-2.291667e-01
155.339460	2.083348	dec_nonsocial_reject_low	2.083348	16.000000	n/a	4	1.041667e-01	-1.458333e-01
164.589630	1.715652	dec_nonsocial_choice	1.715652	16.000000	n/a	0	0	-2.357337e-01
164.589630	1.715652	dec_choice	1.715652	16.000000	n/a	0	0	-2.291667e-01
164.589630	1.715652	dec_nonsocial_reject	1.715652	16.000000	n/a	0	0	-1.250000e-03
164.589630	1.715652	dec_reject	1.715652	16.000000	n/a	0	0	-2.083333e-02
164.589630	1.715652	dec_nonsocial_low	1.715652	16.000000	n/a	0	-2.291667e-01	-2.291667e-01
164.589630	1.715652	dec_nonsocial_reject_low	1.715652	16.000000	n/a	2	-2.083333e-02	-1.458333e-01
171.422320	1.317171	dec_social_choice	1.317171	16.000000	n/a	8	2.642663e-01	2.642663e-01
171.422320	1.317171	dec_choice	1.317171	16.000000	n/a	8	2.571023e-01	2.571023e-01
171.422320	1.317171	dec_social_accept	1.317171	16.000000	n/a	8	1.339286e-01	1.339286e-01
171.422320	1.317171	dec_accept	1.317171	16.000000	n/a	8	1.354167e-01	1.354167e-01
171.422320	1.317171	dec_social_high	1.317171	16.000000	n/a	8	2.571023e-01	2.571023e-01
171.422320	1.317171	dec_social_accept_high	1.317171	16.000000	n/a	8	2.571023e-01	2.571023e-01
178.255830	2.066795	dec_nonsocial_choice	2.066795	16.000000	n/a	8	2.642663e-01	2.642663e-01
178.255830	2.066795	dec_choice	2.066795	16.000000	n/a	8	2.708333e-01	2.708333e-01
178.255830	2.066795	dec_nonsocial_accept	2.066795	16.000000	n/a	8	1.339286e-01	1.339286e-01
178.255830	2.066795	dec_accept	2.066795	16.000000	n/a	8	1.319444e-01	1.319444e-01
178.255830	2.066795	dec_nonsocial_accept_high	2.066795	16.000000	n/a	8	1.354167e-01	1.354167e-01
185.089900	1.299327	dec_nonsocial_choice	1.299327	16.000000	n/a	0	0	-2.357337e-01
185.089900	1.299327	dec_choice	1.299327	16.000000	n/a	0	0	-2.291667e-01
185.089900	1.299327	dec_nonsocial_reject	1.299327	16.000000	n/a	0	0	-6.375000e-02
185.089900	1.299327	dec_reject	1.299327	16.000000	n/a	0	0	-8.333333e-02
185.089900	1.299327	dec_nonsocial_low	1.299327	16.000000	n/a	0	-2.291667e-01	-2.291667e-01
185.089900	1.299327	dec_nonsocial_reject_low	1.299327	16.000000	n/a	1	-8.333333e-02	-1.458333e-01
192.739270	2.100285	dec_nonsocial_choice	2.100285	32.000000	n/a	2	-1.732337e-01	-1.732337e-01
192.739270	2.100285	dec_choice	2.100285	32.000000	n/a	2	-1.666667e-01	-1.666667e-01
192.739270	2.100285	dec_nonsocial_accept	2.100285	32.000000	n/a	2	-3.035714e-01	-3.035714e-01
192.739270	2.100285	dec_accept	2.100285	32.000000	n/a	2	-3.055556e-01	-3.055556e-01
192.739270	2.100285	dec_nonsocial_accept_low	2.100285	32.000000	n/a	2	-3.020833e-01	-3.020833e-01
199.571990	1.517812	dec_social_choice	1.517812	16.000000	n/a	8	2.642663e-01	2.642663e-01
199.571990	1.517812	dec_choice	1.517812	16.000000	n/a	8	2.571023e-01	2.571023e-01
199.571990	1.517812	dec_social_accept	1.517812	16.000000	n/a	8	1.339286e-01	1.339286e-01
199.571990	1.517812	dec_accept	1.517812	16.000000	n/a	8	1.354167e-01	1.354167e-01
199.571990	1.517812	dec_social_high	1.517812	16.000000	n/a	8	2.571023e-01	2.571023e-01
199.571990	1.517812	dec_social_accept_high	1.517812	16.000000	n/a	8	2.571023e-01	2.571023e-01
206.405790	1.683075	dec_nonsocial_choice	1.683075	32.000000	n/a	0	0	-2.357337e-01
206.405790	1.683075	dec_choice	1.683075	32.000000	n/a	0	0	-2.291667e-01
206.405790	1.683075	dec_nonsocial_reject	1.683075	32.000000	n/a	0	0	-3.250000e-02
206.405790	1.683075	dec_reject	1.683075	32.000000	n/a	0	0	-5.208333e-02
206.405790	1.683075	dec_nonsocial_reject_low	1.683075	32.000000	n/a	3	-3.125000e-03	-9.687500e-02
213.239700	1.416244	dec_social_choice	1.416244	32.000000	n/a	0	0	-2.357337e-01
213.239700	1.416244	dec_choice	1.416244	32.000000	n/a	0	0	-2.428977e-01
213.239700	1.416244	dec_social_reject	1.416244	32.000000	n/a	0	0	-3.250000e-02
213.239700	1.416244	dec_reject	1.416244	32.000000	n/a	0	0	-3.125000e-03
213.239700	1.416244	dec_social_low	1.416244	32.000000	n/a	0	-2.428977e-01	-2.428977e-01
213.239700	1.416244	dec_social_reject_low	1.416244	32.000000	n/a	3	-1.491477e-01	-2.428977e-01
222.489530	1.065910	dec_social_choice	1.065910	16.000000	n/a	8	2.642663e-01	2.642663e-01
222.489530	1.065910	dec_choice	1.065910	16.000000	n/a	8	2.571023e-01	2.571023e-01
222.489530	1.065910	dec_social_accept	1.065910	16.000000	n/a	8	1.339286e-01	1.339286e-01
222.489530	1.065910	dec_accept	1.065910	16.000000	n/a	8	1.354167e-01	1.354167e-01
222.489530	1.065910	dec_social_accept_high	1.065910	16.000000	n/a	8	2.571023e-01	2.571023e-01
230.138670	0.816941	dec_social_choice	0.816941	32.000000	n/a	8	1.426630e-02	1.426630e-02
230.138670	0.816941	dec_choice	0.816941	32.000000	n/a	8	7.102273e-03	7.102273e-03
230.138670	0.816941	dec_social_accept	0.816941	32.000000	n/a	8	-1.160714e-01	-1.160714e-01
230.138670	0.816941	dec_accept	0.816941	32.000000	n/a	8	-1.145833e-01	-1.145833e-01
230.138670	0.816941	dec_social_high	0.816941	32.000000	n/a	8	7.102273e-03	7.102273e-03
230.138670	0.816941	dec_social_accept_high	0.816941	32.000000	n/a	8	7.102273e-03	7.102273e-03
241.006090	1.382885	dec_social_choice	1.382885	32.000000	n/a	0	0	-2.357337e-01
241.006090	1.382885	dec_choice	1.382885	32.000000	n/a	0	0	-2.428977e-01
241.006090	1.382885	dec_social_reject	1.382885	32.000000	n/a	0	0	-3.250000e-02
241.006090	1.382885	dec_reject	1.382885	32.000000	n/a	0	0	-3.125000e-03
241.006090	1.382885	dec_social_low	1.382885	32.000000	n/a	0	-2.428977e-01	-2.428977e-01
241.006090	1.382885	dec_social_reject_low	1.382885	32.000000	n/a	3	-1.491477e-01	-2.428977e-01
247.839300	1.616413	dec_social_choice	1.616413	16.000000	n/a	4	1.426630e-02	1.426630e-02
247.839300	1.616413	dec_choice	1.616413	16.000000	n/a	4	7.102273e-03	7.102273e-03
247.839300	1.616413	dec_social_accept	1.616413	16.000000	n/a	4	-1.160714e-01	-1.160714e-01
247.839300	1.616413	dec_accept	1.616413	16.000000	n/a	4	-1.145833e-01	-1.145833e-01
247.839300	1.616413	dec_social_high	1.616413	16.000000	n/a	4	7.102273e-03	7.102273e-03
247.839300	1.616413	dec_social_accept_high	1.616413	16.000000	n/a	4	7.102273e-03	7.102273e-03
254.672740	2.150035	dec_nonsocial_choice	2.150035	16.000000	n/a	4	1.426630e-02	1.426630e-02
254.672740	2.150035	dec_choice	2.150035	16.000000	n/a	4	2.083333e-02	2.083333e-02
254.672740	2.150035	dec_nonsocial_accept	2.150035	16.000000	n/a	4	-1.160714e-01	-1.160714e-01
254.672740	2.150035	dec_accept	2.150035	16.000000	n/a	4	-1.180556e-01	-1.180556e-01
254.672740	2.150035	dec_nonsocial_accept_high	2.150035	16.000000	n/a	4	-1.145833e-01	-1.145833e-01
261.505740	1.532834	dec_social_choice	1.532834	32.000000	n/a	0	0	-2.357337e-01
261.505740	1.532834	dec_choice	1.532834	32.000000	n/a	0	0	-2.428977e-01
261.505740	1.532834	dec_social_reject	1.532834	32.000000	n/a	0	0	-6.375000e-02
261.505740	1.532834	dec_reject	1.532834	32.000000	n/a	0	0	-3.437500e-02
261.505740	1.532834	dec_social_low	1.532834	32.000000	n/a	0	-2.428977e-01	-2.428977e-01
261.505740	1.532834	dec_social_reject_low	1.532834	32.000000	n/a	2	-1.803977e-01	-2.428977e-01
269.155600	2.566780	dec_nonsocial_choice	2.566780	16.000000	n/a	0	0	-2.357337e-01
269.155600	2.566780	dec_choice	2.566780	16.000000	n/a	0	0	-2.291667e-01
269.155600	2.566780	dec_nonsocial_reject	2.566780	16.000000	n/a	0	0	1.237500e-01
269.155600	2.566780	dec_reject	2.566780	16.000000	n/a	0	0	1.041667e-01
269.155600	2.566780	dec_nonsocial_reject_low	2.566780	16.000000	n/a	4	1.531250e-01	-9.687500e-02
276.805630	2.066501	dec_social_choice	2.066501	32.000000	n/a	0	0	-2.357337e-01
276.805630	2.066501	dec_choice	2.066501	32.000000	n/a	0	0	-2.428977e-01
276.805630	2.066501	dec_social_reject	2.066501	32.000000	n/a	0	0	-3.250000e-02
276.805630	2.066501	dec_reject	2.066501	32.000000	n/a	0	0	-3.125000e-03
276.805630	2.066501	dec_social_low	2.066501	32.000000	n/a	0	-2.428977e-01	-2.428977e-01
276.805630	2.066501	dec_social_reject_low	2.066501	32.000000	n/a	3	-1.491477e-01	-2.428977e-01
286.055700	1.216011	dec_social_choice	1.216011	16.000000	n/a	0	0	-2.357337e-01
286.055700	1.216011	dec_choice	1.216011	16.000000	n/a	0	0	-2.428977e-01
286.055700	1.216011	dec_social_reject	1.216011	16.000000	n/a	0	0	-6.375000e-02
286.055700	1.216011	dec_reject	1.216011	16.000000	n/a	0	0	-3.437500e-02
286.055700	1.216011	dec_social_low	1.216011	16.000000	n/a	0	-2.428977e-01	-2.428977e-01
286.055700	1.216011	dec_social_reject_low	1.216011	16.000000	n/a	1	-1.803977e-01	-2.428977e-01
292.889500	1.449382	dec_nonsocial_choice	1.449382	16.000000	n/a	0	0	-2.357337e-01
292.889500	1.449382	dec_choice	1.449382	16.000000	n/a	0	0	-2.291667e-01
292.889500	1.449382	dec_nonsocial_reject	1.449382	16.000000	n/a	0	0	-6.375000e-02
292.889500	1.449382	dec_reject	1.449382	16.000000	n/a	0	0	-8.333333e-02
292.889500	1.449382	dec_nonsocial_reject_low	1.449382	16.000000	n/a	1	-3.437500e-02	-9.687500e-02
305.372300	1.650695	dec_social_choice	1.650695	16.000000	n/a	0	0	-2.357337e-01
305.372300	1.650695	dec_choice	1.650695	16.000000	n/a	0	0	-2.428977e-01
305.372300	1.650695	dec_social_reject	1.650695	16.000000	n/a	0	0	-6.375000e-02
305.372300	1.650695	dec_reject	1.650695	16.000000	n/a	0	0	-3.437500e-02
305.372300	1.650695	dec_social_low	1.650695	16.000000	n/a	0	-2.428977e-01	-2.428977e-01
305.372300	1.650695	dec_social_reject_low	1.650695	16.000000	n/a	1	-1.803977e-01	-2.428977e-01
316.238650	2.583079	dec_nonsocial_choice	2.583079	32.000000	n/a	0	0	-2.357337e-01
316.238650	2.583079	dec_choice	2.583079	32.000000	n/a	0	0	-2.291667e-01
316.238650	2.583079	dec_nonsocial_reject	2.583079	32.000000	n/a	0	0	3.737500e-01
316.238650	2.583079	dec_reject	2.583079	32.000000	n/a	0	0	3.541667e-01
316.238650	2.583079	dec_nonsocial_reject_low	2.583079	32.000000	n/a	16	4.031250e-01	-9.687500e-02
323.889680	3.766946	missed_trial	3.766946	16.000000	n/a	n/a	n/a	n/a
331.555660	1.516234	dec_nonsocial_choice	1.516234	16.000000	n/a	0	0	-2.357337e-01
331.555660	1.516234	dec_choice	1.516234	16.000000	n/a	0	0	-2.291667e-01
331.555660	1.516234	dec_nonsocial_reject	1.516234	16.000000	n/a	0	0	-6.375000e-02
331.555660	1.516234	dec_reject	1.516234	16.000000	n/a	0	0	-8.333333e-02
331.555660	1.516234	dec_nonsocial_low	1.516234	16.000000	n/a	0	-2.291667e-01	-2.291667e-01
331.555660	1.516234	dec_nonsocial_reject_low	1.516234	16.000000	n/a	1	-8.333333e-02	-1.458333e-01
340.804840	1.934158	dec_nonsocial_choice	1.934158	32.000000	n/a	16	2.642663e-01	2.642663e-01
340.804840	1.934158	dec_choice	1.934158	32.000000	n/a	16	2.708333e-01	2.708333e-01
340.804840	1.934158	dec_nonsocial_accept	1.934158	32.000000	n/a	16	1.339286e-01	1.339286e-01
340.804840	1.934158	dec_accept	1.934158	32.000000	n/a	16	1.319444e-01	1.319444e-01
340.804840	1.934158	dec_nonsocial_accept_high	1.934158	32.000000	n/a	16	1.354167e-01	1.354167e-01
351.673130	1.048987	dec_nonsocial_choice	1.048987	32.000000	n/a	0	0	-2.357337e-01
351.673130	1.048987	dec_choice	1.048987	32.000000	n/a	0	0	-2.291667e-01
351.673130	1.048987	dec_nonsocial_reject	1.048987	32.000000	n/a	0	0	-6.375000e-02
351.673130	1.048987	dec_reject	1.048987	32.000000	n/a	0	0	-8.333333e-02
351.673130	1.048987	dec_nonsocial_reject_low	1.048987	32.000000	n/a	2	-3.437500e-02	-9.687500e-02
358.505700	3.766946	missed_trial	3.766946	32.000000	n/a	n/a	n/a	n/a
366.172520	1.966507	dec_nonsocial_choice	1.966507	16.000000	n/a	4	1.426630e-02	1.426630e-02
366.172520	1.966507	dec_choice	1.966507	16.000000	n/a	4	2.083333e-02	2.083333e-02
366.172520	1.966507	dec_nonsocial_accept	1.966507	16.000000	n/a	4	-1.160714e-01	-1.160714e-01
366.172520	1.966507	dec_accept	1.966507	16.000000	n/a	4	-1.180556e-01	-1.180556e-01
366.172520	1.966507	dec_nonsocial_accept_high	1.966507	16.000000	n/a	4	-1.145833e-01	-1.145833e-01
373.005650	0.999776	dec_social_choice	0.999776	32.000000	n/a	16	2.642663e-01	2.642663e-01
373.005650	0.999776	dec_choice	0.999776	32.000000	n/a	16	2.571023e-01	2.571023e-01
373.005650	0.999776	dec_social_accept	0.999776	32.000000	n/a	16	1.339286e-01	1.339286e-01
373.005650	0.999776	dec_accept	0.999776	32.000000	n/a	16	1.354167e-01	1.354167e-01
373.005650	0.999776	dec_social_high	0.999776	32.000000	n/a	16	2.571023e-01	2.571023e-01
373.005650	0.999776	dec_social_accept_high	0.999776	32.000000	n/a	16	2.571023e-01	2.571023e-01
