instrText,stimDoor,stimDoorLure,stimFace,stimFaceLure,Instructions.thisRepN,Instructions.thisTrialN,Instructions.thisN,Instructions.thisIndex,Trials.thisRepN,Trials.thisTrialN,Trials.thisN,Trials.thisIndex,Func,Keys,Text,RespTime,Onset,Offset,SystemTime_Start,SystemTime_Stop,Stim,Lure,Participant*,Age,date,expName,psychopyVersion,frameRate,
"In the earlier Feedback Games, you chose which doors contained a prize, and which peers liked you. 

You then saw positive or negative feedback (green check mark or red X) from the door or peer you selected.

You will now see a series of doors and peers, some of which you saw during the earlier Feedback Games, and some that you have never seen before.

Please press the spacebar to continue.",,,,,0,0,0,0,,,,,instrFunc,space,"In the earlier Feedback Games, you chose which doors contained a prize, and which peers liked you. 

You then saw positive or negative feedback (green check mark or red X) from the door or peer you selected.

You will now see a series of doors and peers, some of which you saw during the earlier Feedback Games, and some that you have never seen before.

Please press the spacebar to continue.",0.8325852998532355,14.968062399886549,15.90446214005351,2023-05-04 12:59:32.431825,2023-05-04 12:59:33.361351,,,10572,70-89+,2023_May_04_1259,Recall,2021.2.3,59.92250815256465,
"For doors/peers that you remember selecting and getting feedback from, your job is to RECALL what feedback you received. 

Press '1' if you recall positive feedback. 

Press '2' if you recall negative feedback

Press the spacebar to continue.",,,,,0,1,1,1,,,,,instrFunc,space,"For doors/peers that you remember selecting and getting feedback from, your job is to RECALL what feedback you received. 

Press '1' if you recall positive feedback. 

Press '2' if you recall negative feedback

Press the spacebar to continue.",0.14901089994236827,15.843539100140333,16.035917459987104,2023-05-04 12:59:33.362326,2023-05-04 12:59:33.543845,,,10572,70-89+,2023_May_04_1259,Recall,2021.2.3,59.92250815256465,
"For doors/peers that you don't remember getting feedback from, your job is to PREDICT what feedback you WOULD HAVE received.

Press '9' if you predict positive feedback.

Press '0' if you predict negative feedback. 

Please press the spacebar to continue.",,,,,0,2,2,2,,,,,instrFunc,space,"For doors/peers that you don't remember getting feedback from, your job is to PREDICT what feedback you WOULD HAVE received.

Press '9' if you predict positive feedback.

Press '0' if you predict negative feedback. 

Please press the spacebar to continue.",0.2933137998916209,16.02746699983254,16.37152625992894,2023-05-04 12:59:33.544842,2023-05-04 12:59:33.877976,,,10572,70-89+,2023_May_04_1259,Recall,2021.2.3,59.92250815256465,
"This task is self-paced, and the prompts will always stay on the screen so that you know which buttons to press.

On the next screen we will show you what those prompts look like, so that you know exactly what to expect. 

You will start with either doors or peers, and then switch halfway through. 

Please press the spacebar to continue.",,,,,0,3,3,3,,,,,instrFunc,space,"This task is self-paced, and the prompts will always stay on the screen so that you know which buttons to press.

On the next screen we will show you what those prompts look like, so that you know exactly what to expect. 

You will start with either doors or peers, and then switch halfway through. 

Please press the spacebar to continue.",0.333394099958241,16.363398499786854,16.756796560250223,2023-05-04 12:59:33.878952,2023-05-04 12:59:34.261932,,,10572,70-89+,2023_May_04_1259,Recall,2021.2.3,59.92250815256465,
,,,,,,,,,,,,,imgtextFunc,space,"Here is what the screen will look like while you make your ratings.
The green circles remind you to press 1 or 9 for positive feedback.
The red circles remind you to press 2 or 0 for positive feedback.









Please let the experimenter know if you have any questions.

Whenever you're ready, press the spacebar to start the task.",16.830259999725968,16.882371299900115,33.88543936004862,2023-05-04 12:59:34.272903,2023-05-04 12:59:51.275024,,,10572,70-89+,2023_May_04_1259,Recall,2021.2.3,59.92250815256465,
,L_SD504.jpg,1,L_MF504.jpg,1,,,,,0,0,0,93,imgFunc,1,NA,13.17051069997251,33.89411399979144,47.18512554001063,2023-05-04 12:59:51.330855,2023-05-04 13:00:04.617414,L_SD504.jpg,1,10572,70-89+,2023_May_04_1259,Recall,2021.2.3,59.92250815256465,
,DD035.jpg,0,FF035.jpg,0,,,,,0,1,1,34,imgFunc,1,NA,3.518947099801153,47.185768499970436,50.82373396027833,2023-05-04 13:00:04.629387,2023-05-04 13:00:08.269542,DD035.jpg,0,10572,70-89+,2023_May_04_1259,Recall,2021.2.3,59.92250815256465,
,L_DD507.jpg,1,L_FF507.jpg,1,,,,,0,2,2,46,imgFunc,1,NA,2.9045874001458287,50.80007549980655,53.7973869596608,2023-05-04 13:00:08.277493,2023-05-04 13:00:11.271680,L_DD507.jpg,1,10572,70-89+,2023_May_04_1259,Recall,2021.2.3,59.92250815256465,
,SD024.jpg,0,MF024.jpg,0,,,,,0,3,3,73,imgFunc,1,NA,1.847013599704951,53.80169089976698,55.731322759762406,2023-05-04 13:00:11.279659,2023-05-04 13:00:13.206535,SD024.jpg,0,10572,70-89+,2023_May_04_1259,Recall,2021.2.3,59.92250815256465,
,DD010.jpg,0,FF010.jpg,0,,,,,0,4,4,9,imgFunc,1,NA,3.7126846997998655,55.73589009977877,59.534552559722215,2023-05-04 13:00:13.213513,2023-05-04 13:00:17.009164,DD010.jpg,0,10572,70-89+,2023_May_04_1259,Recall,2021.2.3,59.92250815256465,
,SD035.jpg,0,MF035.jpg,0,,,,,0,5,5,84,imgFunc,2,NA,3.4222209001891315,59.538413300178945,63.053400760516524,2023-05-04 13:00:17.016146,2023-05-04 13:00:20.528573,SD035.jpg,0,10572,70-89+,2023_May_04_1259,Recall,2021.2.3,59.92250815256465,
,DD006.jpg,0,FF006.jpg,0,,,,,0,6,6,5,imgFunc,2,NA,1.9670536001212895,63.065516099799424,65.12907005986199,2023-05-04 13:00:20.535532,2023-05-04 13:00:22.596425,DD006.jpg,0,10572,70-89+,2023_May_04_1259,Recall,2021.2.3,59.92250815256465,
,L_SD508.jpg,1,L_MF508.jpg,1,,,,,0,7,7,97,imgFunc,0,NA,4.617868199944496,65.12677499977872,69.82611355977133,2023-05-04 13:00:22.603406,2023-05-04 13:00:27.299936,L_SD508.jpg,1,10572,70-89+,2023_May_04_1259,Recall,2021.2.3,59.92250815256465,
,L_SD503.jpg,1,L_MF503.jpg,1,,,,,0,8,8,92,imgFunc,0,NA,3.419827399775386,69.83672880008817,73.34830806031823,2023-05-04 13:00:27.308941,2023-05-04 13:00:30.819358,L_SD503.jpg,1,10572,70-89+,2023_May_04_1259,Recall,2021.2.3,59.92250815256465,
,DD008.jpg,0,FF008.jpg,0,,,,,0,9,9,7,imgFunc,9,NA,4.491977199912071,73.34867929993197,77.93017735984176,2023-05-04 13:00:30.826339,2023-05-04 13:00:35.405283,DD008.jpg,0,10572,70-89+,2023_May_04_1259,Recall,2021.2.3,59.92250815256465,
,SD008.jpg,0,MF008.jpg,0,,,,,0,10,10,57,imgFunc,0,NA,4.969956499990076,77.9426862001419,83.00704126013443,2023-05-04 13:00:35.414238,2023-05-04 13:00:40.476153,SD008.jpg,0,10572,70-89+,2023_May_04_1259,Recall,2021.2.3,59.92250815256465,
,DD021.jpg,0,FF021.jpg,0,,,,,0,11,11,20,imgFunc,1,NA,4.945810999721289,83.02272039977834,88.06933485949412,2023-05-04 13:00:40.485107,2023-05-04 13:00:45.530013,DD021.jpg,0,10572,70-89+,2023_May_04_1259,Recall,2021.2.3,59.92250815256465,
,SD034.jpg,0,MF034.jpg,0,,,,,0,12,12,83,imgFunc,2,NA,1.9044662001542747,88.064094199799,90.05772375967354,2023-05-04 13:00:45.539015,2023-05-04 13:00:47.530688,SD034.jpg,0,10572,70-89+,2023_May_04_1259,Recall,2021.2.3,59.92250815256465,
,SD002.jpg,0,MF002.jpg,0,,,,,0,13,13,51,imgFunc,0,NA,2.5580652998760343,90.05847589997575,92.70714256027713,2023-05-04 13:00:47.537670,2023-05-04 13:00:50.183411,SD002.jpg,0,10572,70-89+,2023_May_04_1259,Recall,2021.2.3,59.92250815256465,
,DD017.jpg,0,FF017.jpg,0,,,,,0,14,14,16,imgFunc,2,NA,4.920431099832058,92.71212559984997,97.71095095947385,2023-05-04 13:00:50.191367,2023-05-04 13:00:55.187293,DD017.jpg,0,10572,70-89+,2023_May_04_1259,Recall,2021.2.3,59.92250815256465,
,DD029.jpg,0,FF029.jpg,0,,,,,0,15,15,28,imgFunc,1,NA,1.5505536999553442,97.72997830016539,99.37374675972387,2023-05-04 13:00:55.196267,2023-05-04 13:00:56.839109,DD029.jpg,0,10572,70-89+,2023_May_04_1259,Recall,2021.2.3,59.92250815256465,
,SD009.jpg,0,MF009.jpg,0,,,,,0,16,16,58,imgFunc,0,NA,3.5177521998994052,99.38685669982806,103.00485521974042,2023-05-04 13:00:56.852074,2023-05-04 13:01:00.456787,SD009.jpg,0,10572,70-89+,2023_May_04_1259,Recall,2021.2.3,59.92250815256465,
,DD013.jpg,0,FF013.jpg,0,,,,,0,17,17,12,imgFunc,9,NA,3.122436400037259,102.99007060006261,106.20541835995391,2023-05-04 13:01:00.463768,2023-05-04 13:01:03.676242,DD013.jpg,0,10572,70-89+,2023_May_04_1259,Recall,2021.2.3,59.92250815256465,
,L_SD509.jpg,1,L_MF509.jpg,1,,,,,0,18,18,98,imgFunc,1,NA,3.8483246001414955,106.20817160001025,110.14058686047792,2023-05-04 13:01:03.683200,2023-05-04 13:01:07.612702,L_SD509.jpg,1,10572,70-89+,2023_May_04_1259,Recall,2021.2.3,59.92250815256465,
,SD006.jpg,0,MF006.jpg,0,,,,,0,19,19,55,imgFunc,2,NA,4.940207600127906,110.16427849978209,115.20624792017043,2023-05-04 13:01:07.631649,2023-05-04 13:01:12.666431,SD006.jpg,0,10572,70-89+,2023_May_04_1259,Recall,2021.2.3,59.92250815256465,
,DD022.jpg,0,FF022.jpg,0,,,,,0,20,20,21,imgFunc,2,NA,1.9094175999052823,115.20310539985076,117.1970876599662,2023-05-04 13:01:12.675384,2023-05-04 13:01:14.667780,DD022.jpg,0,10572,70-89+,2023_May_04_1259,Recall,2021.2.3,59.92250815256465,
,SD026.jpg,0,MF026.jpg,0,,,,,0,21,21,75,imgFunc,1,NA,2.9628113000653684,117.19770789984614,120.24561725975946,2023-05-04 13:01:14.674740,2023-05-04 13:01:17.720129,SD026.jpg,0,10572,70-89+,2023_May_04_1259,Recall,2021.2.3,59.92250815256465,
,DD024.jpg,0,FF024.jpg,0,,,,,0,22,22,23,imgFunc,2,NA,4.2067915997467935,120.24977019988,124.54753255983815,2023-05-04 13:01:17.727089,2023-05-04 13:01:22.022453,DD024.jpg,0,10572,70-89+,2023_May_04_1259,Recall,2021.2.3,59.92250815256465,
,DD023.jpg,0,FF023.jpg,0,,,,,0,23,23,22,imgFunc,0,NA,2.6287308000028133,124.55587390018627,127.27067776024342,2023-05-04 13:01:22.030409,2023-05-04 13:01:24.741945,DD023.jpg,0,10572,70-89+,2023_May_04_1259,Recall,2021.2.3,59.92250815256465,
,SD022.jpg,0,MF022.jpg,0,,,,,0,24,24,71,imgFunc,2,NA,3.8882393003441393,127.27229019999504,131.25266375998035,2023-05-04 13:01:24.749924,2023-05-04 13:01:28.727533,SD022.jpg,0,10572,70-89+,2023_May_04_1259,Recall,2021.2.3,59.92250815256465,
,SD036.jpg,0,MF036.jpg,0,,,,,0,25,25,85,imgFunc,1,NA,1.683627000078559,131.26881369994953,133.0487834601663,2023-05-04 13:01:28.734521,2023-05-04 13:01:30.511784,SD036.jpg,0,10572,70-89+,2023_May_04_1259,Recall,2021.2.3,59.92250815256465,
,DD032.jpg,0,FF032.jpg,0,,,,,0,26,26,31,imgFunc,0,NA,1.5201276000589132,133.0403164997697,134.6379998596385,2023-05-04 13:01:30.518773,2023-05-04 13:01:32.112998,DD032.jpg,0,10572,70-89+,2023_May_04_1259,Recall,2021.2.3,59.92250815256465,
,SD030.jpg,0,MF030.jpg,0,,,,,0,27,27,79,imgFunc,2,NA,3.4842145000584424,134.6442623999901,138.20929145999253,2023-05-04 13:01:32.120977,2023-05-04 13:01:35.682370,SD030.jpg,0,10572,70-89+,2023_May_04_1259,Recall,2021.2.3,59.92250815256465,
,SD005.jpg,0,MF005.jpg,0,,,,,0,28,28,54,imgFunc,0,NA,3.256040300242603,138.20861720014364,141.54085796047002,2023-05-04 13:01:35.689351,2023-05-04 13:01:39.018522,SD005.jpg,0,10572,70-89+,2023_May_04_1259,Recall,2021.2.3,59.92250815256465,
,L_SD507.jpg,1,L_MF507.jpg,1,,,,,0,29,29,96,imgFunc,9,NA,2.735854099970311,141.54481810005382,144.35886406013742,2023-05-04 13:01:39.025503,2023-05-04 13:01:41.836981,L_SD507.jpg,1,10572,70-89+,2023_May_04_1259,Recall,2021.2.3,59.92250815256465,
,SD001.jpg,0,MF001.jpg,0,,,,,0,30,30,50,imgFunc,1,NA,1.8177249999716878,144.36693640006706,146.26463486021385,2023-05-04 13:01:41.843964,2023-05-04 13:01:43.738425,SD001.jpg,0,10572,70-89+,2023_May_04_1259,Recall,2021.2.3,59.92250815256465,
,SD025.jpg,0,MF025.jpg,0,,,,,0,31,31,74,imgFunc,0,NA,4.957528700120747,146.2668884997256,151.31594165973365,2023-05-04 13:01:43.745406,2023-05-04 13:01:48.791735,SD025.jpg,0,10572,70-89+,2023_May_04_1259,Recall,2021.2.3,59.92250815256465,
,SD033.jpg,0,MF033.jpg,0,,,,,0,32,32,82,imgFunc,1,NA,1.8966254997067153,151.32780859991908,153.32280565984547,2023-05-04 13:01:48.800722,2023-05-04 13:01:50.793504,SD033.jpg,0,10572,70-89+,2023_May_04_1259,Recall,2021.2.3,59.92250815256465,
,SD028.jpg,0,MF028.jpg,0,,,,,0,33,33,77,imgFunc,9,NA,3.1080256002023816,153.32438550004736,156.5230503603816,2023-05-04 13:01:50.800494,2023-05-04 13:01:53.996179,SD028.jpg,0,10572,70-89+,2023_May_04_1259,Recall,2021.2.3,59.92250815256465,
,L_DD505.jpg,1,L_FF505.jpg,1,,,,,0,34,34,44,imgFunc,0,NA,2.3021140000782907,156.52231519995257,158.90283785993233,2023-05-04 13:01:54.003167,2023-05-04 13:01:56.381253,L_DD505.jpg,1,10572,70-89+,2023_May_04_1259,Recall,2021.2.3,59.92250815256465,
,SD016.jpg,0,MF016.jpg,0,,,,,0,35,35,65,imgFunc,9,NA,1.426994299981743,158.90943010011688,160.4222235600464,2023-05-04 13:01:56.389209,2023-05-04 13:01:57.899190,SD016.jpg,0,10572,70-89+,2023_May_04_1259,Recall,2021.2.3,59.92250815256465,
,L_DD502.jpg,1,L_FF502.jpg,1,,,,,0,36,36,41,imgFunc,0,NA,3.0953931999392807,160.4250261001289,163.604986960534,2023-05-04 13:01:57.907170,2023-05-04 13:02:01.084735,L_DD502.jpg,1,10572,70-89+,2023_May_04_1259,Recall,2021.2.3,59.92250815256465,
,DD007.jpg,0,FF007.jpg,0,,,,,0,37,37,6,imgFunc,0,NA,2.960735599976033,163.61575119988993,166.66314275981858,2023-05-04 13:02:01.091695,2023-05-04 13:02:04.136773,DD007.jpg,0,10572,70-89+,2023_May_04_1259,Recall,2021.2.3,59.92250815256465,
,DD033.jpg,0,FF033.jpg,0,,,,,0,38,38,32,imgFunc,9,NA,1.5099726999178529,166.67431649984792,168.26728892000392,2023-05-04 13:02:04.153728,2023-05-04 13:02:05.737514,DD033.jpg,0,10572,70-89+,2023_May_04_1259,Recall,2021.2.3,59.92250815256465,
,L_SD510.jpg,1,L_MF510.jpg,1,,,,,0,39,39,99,imgFunc,0,NA,1.810406000353396,168.26996049983427,170.16729186009616,2023-05-04 13:02:05.744495,2023-05-04 13:02:07.639450,L_SD510.jpg,1,10572,70-89+,2023_May_04_1259,Recall,2021.2.3,59.92250815256465,
,DD025.jpg,0,FF025.jpg,0,,,,,0,40,40,24,imgFunc,9,NA,2.4244109001010656,170.17615550011396,172.68826916022226,2023-05-04 13:02:07.647430,2023-05-04 13:02:10.157749,DD025.jpg,0,10572,70-89+,2023_May_04_1259,Recall,2021.2.3,59.92250815256465,
,SD012.jpg,0,MF012.jpg,0,,,,,0,41,41,61,imgFunc,1,NA,1.1968236998654902,172.6916875001043,173.97181625990197,2023-05-04 13:02:10.164731,2023-05-04 13:02:11.442330,SD012.jpg,0,10572,70-89+,2023_May_04_1259,Recall,2021.2.3,59.92250815256465,
,SD027.jpg,0,MF027.jpg,0,,,,,0,42,42,76,imgFunc,0,NA,2.6591062997467816,173.9733945997432,176.71948105981573,2023-05-04 13:02:11.450309,2023-05-04 13:02:14.194036,SD027.jpg,0,10572,70-89+,2023_May_04_1259,Recall,2021.2.3,59.92250815256465,
,L_DD506.jpg,1,L_FF506.jpg,1,,,,,0,43,43,45,imgFunc,0,NA,2.985526599921286,176.7267708000727,179.80606616009027,2023-05-04 13:02:14.201988,2023-05-04 13:02:17.279823,L_DD506.jpg,1,10572,70-89+,2023_May_04_1259,Recall,2021.2.3,59.92250815256465,
,DD015.jpg,0,FF015.jpg,0,,,,,0,44,44,14,imgFunc,9,NA,2.2331046001054347,179.80736309988424,182.1189921600744,2023-05-04 13:02:17.287774,2023-05-04 13:02:19.597656,DD015.jpg,0,10572,70-89+,2023_May_04_1259,Recall,2021.2.3,59.92250815256465,
,DD016.jpg,0,FF016.jpg,0,,,,,0,45,45,15,imgFunc,2,NA,2.3222024999558926,182.1341492999345,184.54793096054345,2023-05-04 13:02:19.605607,2023-05-04 13:02:22.016213,DD016.jpg,0,10572,70-89+,2023_May_04_1259,Recall,2021.2.3,59.92250815256465,
,L_DD508.jpg,1,L_FF508.jpg,1,,,,,0,46,46,47,imgFunc,0,NA,2.4084994001314044,184.55188479973003,187.0536559196189,2023-05-04 13:02:22.029184,2023-05-04 13:02:24.517533,L_DD508.jpg,1,10572,70-89+,2023_May_04_1259,Recall,2021.2.3,59.92250815256465,
,DD002.jpg,0,FF002.jpg,0,,,,,0,47,47,1,imgFunc,1,NA,3.137382199987769,187.0470626000315,190.2781960600987,2023-05-04 13:02:24.525541,2023-05-04 13:02:27.753943,DD002.jpg,0,10572,70-89+,2023_May_04_1259,Recall,2021.2.3,59.92250815256465,
,SD014.jpg,0,MF014.jpg,0,,,,,0,48,48,63,imgFunc,9,NA,1.7812828999012709,190.2832725001499,192.14437826024368,2023-05-04 13:02:27.762899,2023-05-04 13:02:29.621954,SD014.jpg,0,10572,70-89+,2023_May_04_1259,Recall,2021.2.3,59.92250815256465,
,DD037.jpg,0,FF037.jpg,0,,,,,0,49,49,36,imgFunc,0,NA,1.4318882999941707,192.15262279985473,193.66162515990436,2023-05-04 13:02:29.631951,2023-05-04 13:02:31.139941,DD037.jpg,0,10572,70-89+,2023_May_04_1259,Recall,2021.2.3,59.92250815256465,
,L_DD501.jpg,1,L_FF501.jpg,1,,,,,0,50,50,40,imgFunc,9,NA,1.4839648003689945,193.67645769985393,195.25339665962383,2023-05-04 13:02:31.147890,2023-05-04 13:02:32.723694,L_DD501.jpg,1,10572,70-89+,2023_May_04_1259,Recall,2021.2.3,59.92250815256465,
,SD011.jpg,0,MF011.jpg,0,,,,,0,51,51,60,imgFunc,0,NA,1.2763627995736897,195.25208440003917,196.6160294599831,2023-05-04 13:02:32.730675,2023-05-04 13:02:34.092053,SD011.jpg,0,10572,70-89+,2023_May_04_1259,Recall,2021.2.3,59.92250815256465,
,SD023.jpg,0,MF023.jpg,0,,,,,0,52,52,72,imgFunc,9,NA,1.688801399897784,196.6235370999202,198.4021181599237,2023-05-04 13:02:34.100032,2023-05-04 13:02:35.876796,SD023.jpg,0,10572,70-89+,2023_May_04_1259,Recall,2021.2.3,59.92250815256465,
,L_SD506.jpg,1,L_MF506.jpg,1,,,,,0,53,53,95,imgFunc,0,NA,2.4730528998188674,198.40729410015047,200.96993855992332,2023-05-04 13:02:35.883777,2023-05-04 13:02:38.444351,L_SD506.jpg,1,10572,70-89+,2023_May_04_1259,Recall,2021.2.3,59.92250815256465,
,DD004.jpg,0,FF004.jpg,0,,,,,0,54,54,3,imgFunc,2,NA,1.8143418999388814,200.9699021000415,202.86761225992814,2023-05-04 13:02:38.451313,2023-05-04 13:02:40.346112,DD004.jpg,0,10572,70-89+,2023_May_04_1259,Recall,2021.2.3,59.92250815256465,
,DD031.jpg,0,FF031.jpg,0,,,,,0,55,55,30,imgFunc,2,NA,1.5393369998782873,202.88511089980602,204.51260166009888,2023-05-04 13:02:40.355088,2023-05-04 13:02:41.980763,DD031.jpg,0,10572,70-89+,2023_May_04_1259,Recall,2021.2.3,59.92250815256465,
,SD018.jpg,0,MF018.jpg,0,,,,,0,56,56,67,imgFunc,0,NA,1.56021359981969,204.5121685997583,206.15852445969358,2023-05-04 13:02:41.988740,2023-05-04 13:02:43.632366,SD018.jpg,0,10572,70-89+,2023_May_04_1259,Recall,2021.2.3,59.92250815256465,
,L_DD504.jpg,1,L_FF504.jpg,1,,,,,0,57,57,43,imgFunc,9,NA,3.0451802001334727,206.16336809983477,209.29351925989613,2023-05-04 13:02:43.640344,2023-05-04 13:02:46.767807,L_DD504.jpg,1,10572,70-89+,2023_May_04_1259,Recall,2021.2.3,59.92250815256465,
,L_SD501.jpg,1,L_MF501.jpg,1,,,,,0,58,58,90,imgFunc,0,NA,1.1013225000351667,209.29102709982544,210.4697942598723,2023-05-04 13:02:46.775757,2023-05-04 13:02:47.951649,L_SD501.jpg,1,10572,70-89+,2023_May_04_1259,Recall,2021.2.3,59.92250815256465,
,L_DD509.jpg,1,L_FF509.jpg,1,,,,,0,59,59,48,imgFunc,0,NA,2.075554700102657,210.47695949999616,212.64061295986176,2023-05-04 13:02:47.958609,2023-05-04 13:02:50.119859,L_DD509.jpg,1,10572,70-89+,2023_May_04_1259,Recall,2021.2.3,59.92250815256465,
,SD039.jpg,0,MF039.jpg,0,,,,,0,60,60,88,imgFunc,1,NA,1.3621187997050583,212.64619630016387,214.09263796079904,2023-05-04 13:02:50.126840,2023-05-04 13:02:51.570415,SD039.jpg,0,10572,70-89+,2023_May_04_1259,Recall,2021.2.3,59.92250815256465,
,DD028.jpg,0,FF028.jpg,0,,,,,0,61,61,27,imgFunc,0,NA,1.5675766998901963,214.09681829996407,215.74366976041347,2023-05-04 13:02:51.578374,2023-05-04 13:02:53.221610,DD028.jpg,0,10572,70-89+,2023_May_04_1259,Recall,2021.2.3,59.92250815256465,
,DD027.jpg,0,FF027.jpg,0,,,,,0,62,62,26,imgFunc,9,NA,2.1557904998771846,215.76466570002958,218.02981455996633,2023-05-04 13:02:53.228592,2023-05-04 13:02:55.490814,DD027.jpg,0,10572,70-89+,2023_May_04_1259,Recall,2021.2.3,59.92250815256465,
,SD021.jpg,0,MF021.jpg,0,,,,,0,63,63,70,imgFunc,0,NA,1.5675728996284306,218.01677160011604,219.66202616039664,2023-05-04 13:02:55.498772,2023-05-04 13:02:57.141421,SD021.jpg,0,10572,70-89+,2023_May_04_1259,Recall,2021.2.3,59.92250815256465,
,DD019.jpg,0,FF019.jpg,0,,,,,0,64,64,18,imgFunc,9,NA,1.6887602000497282,219.6716428999789,221.4519063597545,2023-05-04 13:02:57.149406,2023-05-04 13:02:58.926669,DD019.jpg,0,10572,70-89+,2023_May_04_1259,Recall,2021.2.3,59.92250815256465,
,DD026.jpg,0,FF026.jpg,0,,,,,0,65,65,25,imgFunc,2,NA,3.2284039999358356,221.45199610013515,224.76478795986623,2023-05-04 13:02:58.933631,2023-05-04 13:03:02.244629,DD026.jpg,0,10572,70-89+,2023_May_04_1259,Recall,2021.2.3,59.92250815256465,
,DD038.jpg,0,FF038.jpg,0,,,,,0,66,66,37,imgFunc,0,NA,1.4845356000587344,224.77188290003687,226.33536515990272,2023-05-04 13:03:02.252572,2023-05-04 13:03:03.812927,DD038.jpg,0,10572,70-89+,2023_May_04_1259,Recall,2021.2.3,59.92250815256465,
,DD012.jpg,0,FF012.jpg,0,,,,,0,67,67,11,imgFunc,9,NA,1.7912620003335178,226.3370147999376,228.2171234600246,2023-05-04 13:03:03.820912,2023-05-04 13:03:05.697613,DD012.jpg,0,10572,70-89+,2023_May_04_1259,Recall,2021.2.3,59.92250815256465,
,SD004.jpg,0,MF004.jpg,0,,,,,0,68,68,53,imgFunc,2,NA,3.547805800102651,228.22049599979073,231.8526772595942,2023-05-04 13:03:05.704595,2023-05-04 13:03:09.333691,SD004.jpg,0,10572,70-89+,2023_May_04_1259,Recall,2021.2.3,59.92250815256465,
,DD020.jpg,0,FF020.jpg,0,,,,,0,69,69,19,imgFunc,0,NA,1.5197141002863646,231.86466720001772,233.47766376007348,2023-05-04 13:03:09.341647,2023-05-04 13:03:10.952043,DD020.jpg,0,10572,70-89+,2023_May_04_1259,Recall,2021.2.3,59.92250815256465,
,DD009.jpg,0,FF009.jpg,0,,,,,0,70,70,8,imgFunc,9,NA,2.1701978999190032,233.47809460014105,235.72456815978512,2023-05-04 13:03:10.959002,2023-05-04 13:03:13.203479,DD009.jpg,0,10572,70-89+,2023_May_04_1259,Recall,2021.2.3,59.92250815256465,
,SD032.jpg,0,MF032.jpg,0,,,,,0,71,71,81,imgFunc,2,NA,2.1910773999989033,235.72930689994246,238.0092569598928,2023-05-04 13:03:13.211435,2023-05-04 13:03:15.488427,SD032.jpg,0,10572,70-89+,2023_May_04_1259,Recall,2021.2.3,59.92250815256465,
,SD038.jpg,0,MF038.jpg,0,,,,,0,72,72,87,imgFunc,0,NA,1.197319799568504,238.0110591999255,239.2900399598293,2023-05-04 13:03:15.496385,2023-05-04 13:03:16.772507,SD038.jpg,0,10572,70-89+,2023_May_04_1259,Recall,2021.2.3,59.92250815256465,
,SD013.jpg,0,MF013.jpg,0,,,,,0,73,73,62,imgFunc,9,NA,1.77319910004735,239.29915140010417,241.16264715977013,2023-05-04 13:03:16.779495,2023-05-04 13:03:18.640550,SD013.jpg,0,10572,70-89+,2023_May_04_1259,Recall,2021.2.3,59.92250815256465,
,DD036.jpg,0,FF036.jpg,0,,,,,0,74,74,35,imgFunc,0,NA,2.095017899759114,241.16926199989393,243.3498239601031,2023-05-04 13:03:18.647531,2023-05-04 13:03:20.825733,DD036.jpg,0,10572,70-89+,2023_May_04_1259,Recall,2021.2.3,59.92250815256465,
,DD003.jpg,0,FF003.jpg,0,,,,,0,75,75,2,imgFunc,9,NA,1.450662299990654,243.35771910008043,244.90367275988683,2023-05-04 13:03:20.832714,2023-05-04 13:03:22.376331,DD003.jpg,0,10572,70-89+,2023_May_04_1259,Recall,2021.2.3,59.92250815256465,
,SD040.jpg,0,MF040.jpg,0,,,,,0,76,76,89,imgFunc,9,NA,1.9560740999877453,244.9002049001865,246.9313961607404,2023-05-04 13:03:22.383289,2023-05-04 13:03:24.411825,SD040.jpg,0,10572,70-89+,2023_May_04_1259,Recall,2021.2.3,59.92250815256465,
,SD037.jpg,0,MF037.jpg,0,,,,,0,77,77,86,imgFunc,0,NA,2.120501199737191,246.9437696998939,249.15705516003072,2023-05-04 13:03:24.418817,2023-05-04 13:03:26.630093,SD037.jpg,0,10572,70-89+,2023_May_04_1259,Recall,2021.2.3,59.92250815256465,
,L_SD505.jpg,1,L_MF505.jpg,1,,,,,0,78,78,94,imgFunc,9,NA,1.459366800263524,249.15690580010414,250.70221335953102,2023-05-04 13:03:26.637075,2023-05-04 13:03:28.180131,L_SD505.jpg,1,10572,70-89+,2023_May_04_1259,Recall,2021.2.3,59.92250815256465,
,DD005.jpg,0,FF005.jpg,0,,,,,0,79,79,4,imgFunc,9,NA,2.56325009977445,250.70902119996026,253.35790586005896,2023-05-04 13:03:28.187112,2023-05-04 13:03:30.833092,DD005.jpg,0,10572,70-89+,2023_May_04_1259,Recall,2021.2.3,59.92250815256465,
,SD007.jpg,0,MF007.jpg,0,,,,,0,80,80,56,imgFunc,0,NA,2.612678099889308,253.35558950016275,256.05178806046024,2023-05-04 13:03:30.840052,2023-05-04 13:03:33.534187,SD007.jpg,0,10572,70-89+,2023_May_04_1259,Recall,2021.2.3,59.92250815256465,
,DD040.jpg,0,FF040.jpg,0,,,,,0,81,81,39,imgFunc,0,NA,1.6913259997963905,256.06093679973856,257.8417386598885,2023-05-04 13:03:33.541178,2023-05-04 13:03:35.318942,DD040.jpg,0,10572,70-89+,2023_May_04_1259,Recall,2021.2.3,59.92250815256465,
,DD030.jpg,0,FF030.jpg,0,,,,,0,82,82,29,imgFunc,9,NA,1.6340374001301825,257.8462871997617,259.5600705598481,2023-05-04 13:03:35.325923,2023-05-04 13:03:37.037176,DD030.jpg,0,10572,70-89+,2023_May_04_1259,Recall,2021.2.3,59.92250815256465,
,DD011.jpg,0,FF011.jpg,0,,,,,0,83,83,10,imgFunc,0,NA,3.2786403000354767,259.5616236999631,262.9261263599619,2023-05-04 13:03:37.044161,2023-05-04 13:03:40.405900,DD011.jpg,0,10572,70-89+,2023_May_04_1259,Recall,2021.2.3,59.92250815256465,
,SD017.jpg,0,MF017.jpg,0,,,,,0,84,84,66,imgFunc,9,NA,2.9496368002146482,262.93058429984376,265.96153735974804,2023-05-04 13:03:40.412860,2023-05-04 13:03:43.441410,SD017.jpg,0,10572,70-89+,2023_May_04_1259,Recall,2021.2.3,59.92250815256465,
,SD019.jpg,0,MF019.jpg,0,,,,,0,85,85,68,imgFunc,9,NA,2.080460899975151,265.9677603999153,268.13155036000535,2023-05-04 13:03:43.448391,2023-05-04 13:03:45.609660,SD019.jpg,0,10572,70-89+,2023_May_04_1259,Recall,2021.2.3,59.92250815256465,
,L_DD503.jpg,1,L_FF503.jpg,1,,,,,0,86,86,42,imgFunc,9,NA,1.240204299800098,268.13601520005614,269.4666834603995,2023-05-04 13:03:45.616648,2023-05-04 13:03:46.944088,L_DD503.jpg,1,10572,70-89+,2023_May_04_1259,Recall,2021.2.3,59.92250815256465,
,DD018.jpg,0,FF018.jpg,0,,,,,0,87,87,17,imgFunc,0,NA,1.4909707000479102,269.46935389982536,271.0496728597209,2023-05-04 13:03:46.951069,2023-05-04 13:03:48.528890,DD018.jpg,0,10572,70-89+,2023_May_04_1259,Recall,2021.2.3,59.92250815256465,
,DD034.jpg,0,FF034.jpg,0,,,,,0,88,88,33,imgFunc,9,NA,1.2022738000378013,271.0540661001578,272.3336905599572,2023-05-04 13:03:48.535878,2023-05-04 13:03:49.812873,DD034.jpg,0,10572,70-89+,2023_May_04_1259,Recall,2021.2.3,59.92250815256465,
,DD001.jpg,0,FF001.jpg,0,,,,,0,89,89,0,imgFunc,0,NA,1.0232532997615635,272.3369554998353,273.44923105975613,2023-05-04 13:03:49.820832,2023-05-04 13:03:50.930898,DD001.jpg,0,10572,70-89+,2023_May_04_1259,Recall,2021.2.3,59.92250815256465,
,SD020.jpg,0,MF020.jpg,0,,,,,0,90,90,69,imgFunc,1,NA,2.417725999839604,273.4705678001046,275.9836476603523,2023-05-04 13:03:50.938856,2023-05-04 13:03:53.449199,SD020.jpg,0,10572,70-89+,2023_May_04_1259,Recall,2021.2.3,59.92250815256465,
,SD010.jpg,0,MF010.jpg,0,,,,,0,91,91,59,imgFunc,0,NA,1.265029499772936,275.97575919982046,277.32232085987926,2023-05-04 13:03:53.456156,2023-05-04 13:03:54.800497,SD010.jpg,0,10572,70-89+,2023_May_04_1259,Recall,2021.2.3,59.92250815256465,
,L_SD502.jpg,1,L_MF502.jpg,1,,,,,0,92,92,91,imgFunc,9,NA,1.7332052001729608,277.3229577001184,279.1356615596451,2023-05-04 13:03:54.807449,2023-05-04 13:03:56.617783,L_SD502.jpg,1,10572,70-89+,2023_May_04_1259,Recall,2021.2.3,59.92250815256465,
,SD031.jpg,0,MF031.jpg,0,,,,,0,93,93,80,imgFunc,9,NA,1.1069712000899017,279.14126060018316,280.3377403607592,2023-05-04 13:03:56.625740,2023-05-04 13:03:57.818982,SD031.jpg,0,10572,70-89+,2023_May_04_1259,Recall,2021.2.3,59.92250815256465,
,DD014.jpg,0,FF014.jpg,0,,,,,0,94,94,13,imgFunc,9,NA,2.186687699984759,280.3578721000813,282.63741686055437,2023-05-04 13:03:57.826932,2023-05-04 13:04:00.103901,DD014.jpg,0,10572,70-89+,2023_May_04_1259,Recall,2021.2.3,59.92250815256465,
,SD003.jpg,0,MF003.jpg,0,,,,,0,95,95,52,imgFunc,9,NA,3.288937699981034,282.63137950003147,286.0132704596035,2023-05-04 13:04:00.110852,2023-05-04 13:04:03.489860,SD003.jpg,0,10572,70-89+,2023_May_04_1259,Recall,2021.2.3,59.92250815256465,
,DD039.jpg,0,FF039.jpg,0,,,,,0,96,96,38,imgFunc,0,NA,3.0041907001286745,286.0200001997873,289.1092019593343,2023-05-04 13:04:03.500858,2023-05-04 13:04:06.591632,DD039.jpg,0,10572,70-89+,2023_May_04_1259,Recall,2021.2.3,59.92250815256465,
,L_DD510.jpg,1,L_FF510.jpg,1,,,,,0,97,97,49,imgFunc,0,NA,2.3492568996734917,289.1229693000205,291.5532241598703,2023-05-04 13:04:06.599605,2023-05-04 13:04:09.027152,L_DD510.jpg,1,10572,70-89+,2023_May_04_1259,Recall,2021.2.3,59.92250815256465,
,SD029.jpg,0,MF029.jpg,0,,,,,0,98,98,78,imgFunc,0,NA,2.125500400085002,291.5547766997479,293.7678160602227,2023-05-04 13:04:09.034103,2023-05-04 13:04:11.245220,SD029.jpg,0,10572,70-89+,2023_May_04_1259,Recall,2021.2.3,59.92250815256465,
,SD015.jpg,0,MF015.jpg,0,,,,,0,99,99,64,imgFunc,0,NA,1.6658545997925103,293.7744621001184,295.5212663603015,2023-05-04 13:04:11.252201,2023-05-04 13:04:12.996586,SD015.jpg,0,10572,70-89+,2023_May_04_1259,Recall,2021.2.3,59.92250815256465,
,,,,,,,,,,,,,instrFunc,space,"Great work! 

 Now you will switch to the other image type.

 Press the spacebar whenever you are ready to start.",3.310166200157255,295.4660474997945,298.8269137600437,2023-05-04 13:04:12.997556,2023-05-04 13:04:16.347640,,,10572,70-89+,2023_May_04_1259,Recall,2021.2.3,59.92250815256465,
,DD019.jpg,0,FF019.jpg,0,,,,,0,0,0,18,imgFunc,2,NA,2.9632985000498593,298.93296410003677,302.00623168004677,2023-05-04 13:04:16.384563,2023-05-04 13:04:19.451406,FF019.jpg,0,10572,70-89+,2023_May_04_1259,Recall,2021.2.3,59.92250815256465,
,L_SD504.jpg,1,L_MF504.jpg,1,,,,,0,1,1,93,imgFunc,1,NA,2.5559041001833975,301.99640299985185,304.6588008599356,2023-05-04 13:04:19.459357,2023-05-04 13:04:22.119279,L_MF504.jpg,1,10572,70-89+,2023_May_04_1259,Recall,2021.2.3,59.92250815256465,
,DD030.jpg,0,FF030.jpg,0,,,,,0,2,2,29,imgFunc,1,NA,2.8116530999541283,304.66058170003816,307.57490635989234,2023-05-04 13:04:22.127258,2023-05-04 13:04:25.038509,FF030.jpg,0,10572,70-89+,2023_May_04_1259,Recall,2021.2.3,59.92250815256465,
,DD032.jpg,0,FF032.jpg,0,,,,,0,3,3,31,imgFunc,2,NA,1.4506262000650167,307.5816282001324,309.12681626016274,2023-05-04 13:04:25.046487,2023-05-04 13:04:26.589388,FF032.jpg,0,10572,70-89+,2023_May_04_1259,Recall,2021.2.3,59.92250815256465,
,SD026.jpg,0,MF026.jpg,0,,,,,0,4,4,75,imgFunc,1,NA,1.1918371999636292,309.1364381997846,310.42975876061246,2023-05-04 13:04:26.598388,2023-05-04 13:04:27.889948,MF026.jpg,0,10572,70-89+,2023_May_04_1259,Recall,2021.2.3,59.92250815256465,
,L_SD502.jpg,1,L_MF502.jpg,1,,,,,0,5,5,91,imgFunc,9,NA,4.743194300215691,310.4329817998223,315.2826751600951,2023-05-04 13:04:27.897898,2023-05-04 13:04:32.744002,L_MF502.jpg,1,10572,70-89+,2023_May_04_1259,Recall,2021.2.3,59.92250815256465,
,DD010.jpg,0,FF010.jpg,0,,,,,0,6,6,9,imgFunc,1,NA,2.2479304997250438,315.2883958001621,317.6306357602589,2023-05-04 13:04:32.753975,2023-05-04 13:04:35.095742,FF010.jpg,0,10572,70-89+,2023_May_04_1259,Recall,2021.2.3,59.92250815256465,
,DD027.jpg,0,FF027.jpg,0,,,,,0,7,7,26,imgFunc,1,NA,1.5940646999515593,317.63809120003134,319.33239446021616,2023-05-04 13:04:35.104718,2023-05-04 13:04:36.797235,FF027.jpg,0,10572,70-89+,2023_May_04_1259,Recall,2021.2.3,59.92250815256465,
,SD013.jpg,0,MF013.jpg,0,,,,,0,8,8,62,imgFunc,1,NA,1.1317811999469995,319.3323555998504,320.5610031601973,2023-05-04 13:04:36.804223,2023-05-04 13:04:38.030647,MF013.jpg,0,10572,70-89+,2023_May_04_1259,Recall,2021.2.3,59.92250815256465,
,SD005.jpg,0,MF005.jpg,0,,,,,0,9,9,54,imgFunc,1,NA,2.0916663999669254,320.5645419000648,322.74584606010467,2023-05-04 13:04:38.037607,2023-05-04 13:04:40.216114,MF005.jpg,0,10572,70-89+,2023_May_04_1259,Recall,2021.2.3,59.92250815256465,
,DD001.jpg,0,FF001.jpg,0,,,,,0,10,10,0,imgFunc,0,NA,3.224714499898255,322.7594000999816,326.0821994598955,2023-05-04 13:04:40.228082,2023-05-04 13:04:43.551997,FF001.jpg,0,10572,70-89+,2023_May_04_1259,Recall,2021.2.3,59.92250815256465,
,SD019.jpg,0,MF019.jpg,0,,,,,0,11,11,68,imgFunc,1,NA,1.521224900148809,326.0869168001227,327.6995129608549,2023-05-04 13:04:43.558985,2023-05-04 13:04:45.169360,MF019.jpg,0,10572,70-89+,2023_May_04_1259,Recall,2021.2.3,59.92250815256465,
,DD034.jpg,0,FF034.jpg,0,,,,,0,12,12,33,imgFunc,1,NA,1.0390496999025345,327.70525769982487,328.83525856025517,2023-05-04 13:04:45.176342,2023-05-04 13:04:46.303625,FF034.jpg,0,10572,70-89+,2023_May_04_1259,Recall,2021.2.3,59.92250815256465,
,SD010.jpg,0,MF010.jpg,0,,,,,0,13,13,59,imgFunc,1,NA,1.6839095000177622,328.83620869973674,330.61668925965205,2023-05-04 13:04:46.311584,2023-05-04 13:04:48.088559,MF010.jpg,0,10572,70-89+,2023_May_04_1259,Recall,2021.2.3,59.92250815256465,
,DD036.jpg,0,FF036.jpg,0,,,,,0,14,14,35,imgFunc,2,NA,1.6649306998588145,330.6231466997415,332.38591426005587,2023-05-04 13:04:48.096517,2023-05-04 13:04:49.856376,FF036.jpg,0,10572,70-89+,2023_May_04_1259,Recall,2021.2.3,59.92250815256465,
,L_DD502.jpg,1,L_FF502.jpg,1,,,,,0,15,15,41,imgFunc,9,NA,2.169875900261104,332.3982291999273,334.66125886002555,2023-05-04 13:04:49.863358,2023-05-04 13:04:52.124362,L_FF502.jpg,1,10572,70-89+,2023_May_04_1259,Recall,2021.2.3,59.92250815256465,
,DD031.jpg,0,FF031.jpg,0,,,,,0,16,16,30,imgFunc,2,NA,1.7720798002555966,334.6604018001817,336.5250095599331,2023-05-04 13:04:52.131322,2023-05-04 13:04:53.993076,FF031.jpg,0,10572,70-89+,2023_May_04_1259,Recall,2021.2.3,59.92250815256465,
,DD026.jpg,0,FF026.jpg,0,,,,,0,17,17,25,imgFunc,2,NA,4.559613199904561,336.5445046997629,341.2097634598613,2023-05-04 13:04:54.000058,2023-05-04 13:04:58.663440,FF026.jpg,0,10572,70-89+,2023_May_04_1259,Recall,2021.2.3,59.92250815256465,
,SD006.jpg,0,MF006.jpg,0,,,,,0,18,18,55,imgFunc,1,NA,1.4661961002275348,341.20607260009274,342.7658250601962,2023-05-04 13:04:58.672394,2023-05-04 13:05:00.230407,MF006.jpg,0,10572,70-89+,2023_May_04_1259,Recall,2021.2.3,59.92250815256465,
,SD040.jpg,0,MF040.jpg,0,,,,,0,19,19,89,imgFunc,1,NA,1.6600901000201702,342.7719968999736,344.5354186599143,2023-05-04 13:05:00.238401,2023-05-04 13:05:01.998721,MF040.jpg,0,10572,70-89+,2023_May_04_1259,Recall,2021.2.3,59.92250815256465,
,L_SD508.jpg,1,L_MF508.jpg,1,,,,,0,20,20,97,imgFunc,1,NA,1.5081616998650134,344.53213790012524,346.1285453606397,2023-05-04 13:05:02.005702,2023-05-04 13:05:03.599466,L_MF508.jpg,1,10572,70-89+,2023_May_04_1259,Recall,2021.2.3,59.92250815256465,
,SD007.jpg,0,MF007.jpg,0,,,,,0,21,21,56,imgFunc,1,NA,5.125035500153899,346.1469962000847,351.37991766026244,2023-05-04 13:05:03.606448,2023-05-04 13:05:08.836630,MF007.jpg,0,10572,70-89+,2023_May_04_1259,Recall,2021.2.3,59.92250815256465,
,L_DD506.jpg,1,L_FF506.jpg,1,,,,,0,22,22,45,imgFunc,2,NA,1.2470597000792623,351.37700959993526,352.7218842599541,2023-05-04 13:05:08.844587,2023-05-04 13:05:10.188039,L_FF506.jpg,1,10572,70-89+,2023_May_04_1259,Recall,2021.2.3,59.92250815256465,
,DD016.jpg,0,FF016.jpg,0,,,,,0,23,23,15,imgFunc,2,NA,1.395800800062716,352.7242765999399,354.21952005987987,2023-05-04 13:05:10.195021,2023-05-04 13:05:11.688089,FF016.jpg,0,10572,70-89+,2023_May_04_1259,Recall,2021.2.3,59.92250815256465,
,DD004.jpg,0,FF004.jpg,0,,,,,0,24,24,3,imgFunc,1,NA,3.813719700090587,354.22637629974633,358.1438025604002,2023-05-04 13:05:11.695042,2023-05-04 13:05:15.609366,FF004.jpg,0,10572,70-89+,2023_May_04_1259,Recall,2021.2.3,59.92250815256465,
,SD011.jpg,0,MF011.jpg,0,,,,,0,25,25,60,imgFunc,1,NA,2.7444130000658333,358.14378000004217,360.98995546018705,2023-05-04 13:05:15.616347,2023-05-04 13:05:18.460522,MF011.jpg,0,10572,70-89+,2023_May_04_1259,Recall,2021.2.3,59.92250815256465,
,DD013.jpg,0,FF013.jpg,0,,,,,0,26,26,12,imgFunc,2,NA,1.7392525998875499,360.9968547001481,362.82518186047673,2023-05-04 13:05:18.468481,2023-05-04 13:05:20.294641,FF013.jpg,0,10572,70-89+,2023_May_04_1259,Recall,2021.2.3,59.92250815256465,
,DD033.jpg,0,FF033.jpg,0,,,,,0,27,27,32,imgFunc,2,NA,1.196087600197643,362.8280115001835,364.12512726010755,2023-05-04 13:05:20.302593,2023-05-04 13:05:21.596175,FF033.jpg,0,10572,70-89+,2023_May_04_1259,Recall,2021.2.3,59.92250815256465,
,DD040.jpg,0,FF040.jpg,0,,,,,0,28,28,39,imgFunc,1,NA,0.9468012996949255,364.1333352001384,365.1789523595944,2023-05-04 13:05:21.603158,2023-05-04 13:05:22.646382,FF040.jpg,0,10572,70-89+,2023_May_04_1259,Recall,2021.2.3,59.92250815256465,
,L_SD505.jpg,1,L_MF505.jpg,1,,,,,0,29,29,94,imgFunc,2,NA,2.0662576998583972,365.18181139975786,367.34623296000063,2023-05-04 13:05:22.653363,2023-05-04 13:05:24.815252,L_MF505.jpg,1,10572,70-89+,2023_May_04_1259,Recall,2021.2.3,59.92250815256465,
,DD021.jpg,0,FF021.jpg,0,,,,,0,30,30,20,imgFunc,2,NA,4.47369429981336,367.350581899751,371.91440575988963,2023-05-04 13:05:24.823209,2023-05-04 13:05:29.385463,FF021.jpg,0,10572,70-89+,2023_May_04_1259,Recall,2021.2.3,59.92250815256465,
,SD017.jpg,0,MF017.jpg,0,,,,,0,31,31,66,imgFunc,2,NA,2.7006901996210217,371.9233446000144,374.7169401603751,2023-05-04 13:05:29.394445,2023-05-04 13:05:32.186984,MF017.jpg,0,10572,70-89+,2023_May_04_1259,Recall,2021.2.3,59.92250815256465,
,SD030.jpg,0,MF030.jpg,0,,,,,0,32,32,79,imgFunc,1,NA,0.9099381999112666,374.72209780011326,375.734714360442,2023-05-04 13:05:32.193966,2023-05-04 13:05:33.204298,MF030.jpg,0,10572,70-89+,2023_May_04_1259,Recall,2021.2.3,59.92250815256465,
,SD031.jpg,0,MF031.jpg,0,,,,,0,33,33,80,imgFunc,1,NA,1.9189595002681017,375.73707649996504,377.75058186007664,2023-05-04 13:05:33.212256,2023-05-04 13:05:35.222936,MF031.jpg,0,10572,70-89+,2023_May_04_1259,Recall,2021.2.3,59.92250815256465,
,DD011.jpg,0,FF011.jpg,0,,,,,0,34,34,10,imgFunc,0,NA,1.4508207002654672,377.75719900010154,379.30193696031347,2023-05-04 13:05:35.230913,2023-05-04 13:05:36.773211,FF011.jpg,0,10572,70-89+,2023_May_04_1259,Recall,2021.2.3,59.92250815256465,
,SD033.jpg,0,MF033.jpg,0,,,,,0,35,35,82,imgFunc,9,NA,3.0505103999748826,379.30959310010076,382.45783946011215,2023-05-04 13:05:36.780202,2023-05-04 13:05:39.925838,MF033.jpg,0,10572,70-89+,2023_May_04_1259,Recall,2021.2.3,59.92250815256465,
,SD004.jpg,0,MF004.jpg,0,,,,,0,36,36,53,imgFunc,1,NA,1.857987199909985,382.46210489980876,384.4084837604314,2023-05-04 13:05:39.933797,2023-05-04 13:05:41.877117,MF004.jpg,0,10572,70-89+,2023_May_04_1259,Recall,2021.2.3,59.92250815256465,
,SD034.jpg,0,MF034.jpg,0,,,,,0,37,37,83,imgFunc,0,NA,1.95685000019148,384.4112125998363,386.4585329606198,2023-05-04 13:05:41.884099,2023-05-04 13:05:43.928418,MF034.jpg,0,10572,70-89+,2023_May_04_1259,Recall,2021.2.3,59.92250815256465,
,SD009.jpg,0,MF009.jpg,0,,,,,0,38,38,58,imgFunc,1,NA,1.5857425001449883,386.46220819978043,388.1430973596871,2023-05-04 13:05:43.935400,2023-05-04 13:05:45.613164,MF009.jpg,0,10572,70-89+,2023_May_04_1259,Recall,2021.2.3,59.92250815256465,
,SD015.jpg,0,MF015.jpg,0,,,,,0,39,39,64,imgFunc,1,NA,2.0679294001311064,388.1481178998947,390.3114026603289,2023-05-04 13:05:45.621114,2023-05-04 13:05:47.781225,MF015.jpg,0,10572,70-89+,2023_May_04_1259,Recall,2021.2.3,59.92250815256465,
,SD014.jpg,0,MF014.jpg,0,,,,,0,40,40,63,imgFunc,9,NA,1.6620217999443412,390.31409669993445,392.0621764604002,2023-05-04 13:05:47.788185,2023-05-04 13:05:49.533041,MF014.jpg,0,10572,70-89+,2023_May_04_1259,Recall,2021.2.3,59.92250815256465,
,DD007.jpg,0,FF007.jpg,0,,,,,0,41,41,6,imgFunc,0,NA,1.55712730018422,392.0748632000759,393.7372570601292,2023-05-04 13:05:49.540999,2023-05-04 13:05:51.200496,FF007.jpg,0,10572,70-89+,2023_May_04_1259,Recall,2021.2.3,59.92250815256465,
,L_DD508.jpg,1,L_FF508.jpg,1,,,,,0,42,42,47,imgFunc,0,NA,1.7355959000997245,393.73643120005727,395.56686765979975,2023-05-04 13:05:51.208477,2023-05-04 13:05:53.035644,L_FF508.jpg,1,10572,70-89+,2023_May_04_1259,Recall,2021.2.3,59.92250815256465,
,SD022.jpg,0,MF022.jpg,0,,,,,0,43,43,71,imgFunc,1,NA,1.797333599999547,395.57064560009167,397.4665627600625,2023-05-04 13:05:53.042622,2023-05-04 13:05:54.936228,MF022.jpg,0,10572,70-89+,2023_May_04_1259,Recall,2021.2.3,59.92250815256465,
,SD003.jpg,0,MF003.jpg,0,,,,,0,44,44,52,imgFunc,1,NA,1.4949529999867082,397.47308170003816,399.07038785982877,2023-05-04 13:05:54.943210,2023-05-04 13:05:56.537967,MF003.jpg,0,10572,70-89+,2023_May_04_1259,Recall,2021.2.3,59.92250815256465,
,SD002.jpg,0,MF002.jpg,0,,,,,0,45,45,51,imgFunc,2,NA,12.22402560012415,399.071940400172,411.39266776060686,2023-05-04 13:05:56.544949,2023-05-04 13:06:08.863142,MF002.jpg,0,10572,70-89+,2023_May_04_1259,Recall,2021.2.3,59.92250815256465,
,DD039.jpg,0,FF039.jpg,0,,,,,0,46,46,38,imgFunc,0,NA,1.424061399884522,411.42391650006175,412.96414696006104,2023-05-04 13:06:08.874113,2023-05-04 13:06:10.414368,FF039.jpg,0,10572,70-89+,2023_May_04_1259,Recall,2021.2.3,59.92250815256465,
,DD020.jpg,0,FF020.jpg,0,,,,,0,47,47,19,imgFunc,0,NA,1.978728000074625,412.9492382998578,415.0309041598812,2023-05-04 13:06:10.421355,2023-05-04 13:06:12.499817,FF020.jpg,0,10572,70-89+,2023_May_04_1259,Recall,2021.2.3,59.92250815256465,
,L_DD504.jpg,1,L_FF504.jpg,1,,,,,0,48,48,43,imgFunc,0,NA,10.384843799751252,415.0311223999597,425.49966406077147,2023-05-04 13:06:12.506807,2023-05-04 13:06:22.973035,L_FF504.jpg,1,10572,70-89+,2023_May_04_1259,Recall,2021.2.3,59.92250815256465,
,DD022.jpg,0,FF022.jpg,0,,,,,0,49,49,21,imgFunc,2,NA,2.2096135998144746,425.52633620006964,427.85395236033946,2023-05-04 13:06:22.982010,2023-05-04 13:06:25.308666,FF022.jpg,0,10572,70-89+,2023_May_04_1259,Recall,2021.2.3,59.92250815256465,
,L_SD503.jpg,1,L_MF503.jpg,1,,,,,0,50,50,92,imgFunc,0,NA,6.110084900166839,427.8418926000595,434.0418941597454,2023-05-04 13:06:25.315646,2023-05-04 13:06:31.513177,L_MF503.jpg,1,10572,70-89+,2023_May_04_1259,Recall,2021.2.3,59.92250815256465,
,DD038.jpg,0,FF038.jpg,0,,,,,0,51,51,37,imgFunc,9,NA,3.4430970000103116,434.05284690018743,437.59819576051086,2023-05-04 13:06:31.522157,2023-05-04 13:06:35.065364,FF038.jpg,0,10572,70-89+,2023_May_04_1259,Recall,2021.2.3,59.92250815256465,
,SD021.jpg,0,MF021.jpg,0,,,,,0,52,52,70,imgFunc,9,NA,1.7553551001474261,437.5966773000546,439.4439637600444,2023-05-04 13:06:35.072346,2023-05-04 13:06:36.916409,MF021.jpg,0,10572,70-89+,2023_May_04_1259,Recall,2021.2.3,59.92250815256465,
,SD025.jpg,0,MF025.jpg,0,,,,,0,53,53,74,imgFunc,1,NA,1.4940055003389716,439.44991659978405,441.03061656001955,2023-05-04 13:06:36.923390,2023-05-04 13:06:38.501213,MF025.jpg,0,10572,70-89+,2023_May_04_1259,Recall,2021.2.3,59.92250815256465,
,SD018.jpg,0,MF018.jpg,0,,,,,0,54,54,67,imgFunc,1,NA,1.594899700023234,441.0371607998386,442.73417006013915,2023-05-04 13:06:38.508204,2023-05-04 13:06:40.202194,MF018.jpg,0,10572,70-89+,2023_May_04_1259,Recall,2021.2.3,59.92250815256465,
,L_DD509.jpg,1,L_FF509.jpg,1,,,,,0,55,55,48,imgFunc,0,NA,1.3378077996894717,442.73401350015774,444.1642585606314,2023-05-04 13:06:40.210183,2023-05-04 13:06:41.637354,L_FF509.jpg,1,10572,70-89+,2023_May_04_1259,Recall,2021.2.3,59.92250815256465,
,SD039.jpg,0,MF039.jpg,0,,,,,0,56,56,88,imgFunc,9,NA,2.3046876001171768,444.1832559998147,446.59362385980785,2023-05-04 13:06:41.646331,2023-05-04 13:06:44.055531,MF039.jpg,0,10572,70-89+,2023_May_04_1259,Recall,2021.2.3,59.92250815256465,
,SD012.jpg,0,MF012.jpg,0,,,,,0,57,57,61,imgFunc,9,NA,2.2912082001566887,446.5886794999242,448.9694608603604,2023-05-04 13:06:44.062490,2023-05-04 13:06:46.440463,MF012.jpg,0,10572,70-89+,2023_May_04_1259,Recall,2021.2.3,59.92250815256465,
,L_DD501.jpg,1,L_FF501.jpg,1,,,,,0,58,58,40,imgFunc,0,NA,2.0594533002004027,448.97251119976863,451.11971215950325,2023-05-04 13:06:46.447423,2023-05-04 13:06:48.591872,L_FF501.jpg,1,10572,70-89+,2023_May_04_1259,Recall,2021.2.3,59.92250815256465,
,SD024.jpg,0,MF024.jpg,0,,,,,0,59,59,73,imgFunc,1,NA,1.490409200079739,451.1256103999913,452.70585035998374,2023-05-04 13:06:48.599825,2023-05-04 13:06:50.176648,MF024.jpg,0,10572,70-89+,2023_May_04_1259,Recall,2021.2.3,59.92250815256465,
,DD014.jpg,0,FF014.jpg,0,,,,,0,60,60,13,imgFunc,2,NA,6.921328100375831,452.71066140010953,459.7277579600923,2023-05-04 13:06:50.183609,2023-05-04 13:06:57.198301,FF014.jpg,0,10572,70-89+,2023_May_04_1259,Recall,2021.2.3,59.92250815256465,
,SD036.jpg,0,MF036.jpg,0,,,,,0,61,61,85,imgFunc,1,NA,1.5786329000256956,459.7413133000955,461.41621146025136,2023-05-04 13:06:57.208274,2023-05-04 13:06:58.882370,MF036.jpg,0,10572,70-89+,2023_May_04_1259,Recall,2021.2.3,59.92250815256465,
,DD009.jpg,0,FF009.jpg,0,,,,,0,62,62,8,imgFunc,1,NA,1.075728400144726,461.42008779989555,462.6006179600954,2023-05-04 13:06:58.890349,2023-05-04 13:07:00.067299,FF009.jpg,0,10572,70-89+,2023_May_04_1259,Recall,2021.2.3,59.92250815256465,
,DD028.jpg,0,FF028.jpg,0,,,,,0,63,63,27,imgFunc,0,NA,1.8480295003391802,462.607930699829,464.55774581991136,2023-05-04 13:07:00.081262,2023-05-04 13:07:02.018362,FF028.jpg,0,10572,70-89+,2023_May_04_1259,Recall,2021.2.3,59.92250815256465,
,SD037.jpg,0,MF037.jpg,0,,,,,0,64,64,86,imgFunc,0,NA,1.9297939999960363,464.55005540000275,466.58133905986324,2023-05-04 13:07:02.025344,2023-05-04 13:07:04.053624,MF037.jpg,0,10572,70-89+,2023_May_04_1259,Recall,2021.2.3,59.92250815256465,
,DD037.jpg,0,FF037.jpg,0,,,,,0,65,65,36,imgFunc,9,NA,1.5016506002284586,466.58623149991035,468.181968760211,2023-05-04 13:07:04.061582,2023-05-04 13:07:05.654645,FF037.jpg,0,10572,70-89+,2023_May_04_1259,Recall,2021.2.3,59.92250815256465,
,L_SD507.jpg,1,L_MF507.jpg,1,,,,,0,66,66,96,imgFunc,0,NA,2.244704999960959,468.1873746998608,470.5327517599799,2023-05-04 13:07:05.662622,2023-05-04 13:07:08.005896,L_MF507.jpg,1,10572,70-89+,2023_May_04_1259,Recall,2021.2.3,59.92250815256465,
,L_DD507.jpg,1,L_FF507.jpg,1,,,,,0,67,67,46,imgFunc,0,NA,1.9008247000165284,470.5391401001252,472.5372005603276,2023-05-04 13:07:08.012856,2023-05-04 13:07:10.007739,L_FF507.jpg,1,10572,70-89+,2023_May_04_1259,Recall,2021.2.3,59.92250815256465,
,DD003.jpg,0,FF003.jpg,0,,,,,0,68,68,2,imgFunc,9,NA,1.2426690999418497,472.5412265001796,473.87064255960286,2023-05-04 13:07:10.014722,2023-05-04 13:07:11.341364,FF003.jpg,0,10572,70-89+,2023_May_04_1259,Recall,2021.2.3,59.92250815256465,
,L_DD510.jpg,1,L_FF510.jpg,1,,,,,0,69,69,49,imgFunc,9,NA,1.2466823998838663,473.87321639992297,475.2204508604482,2023-05-04 13:07:11.348345,2023-05-04 13:07:12.692469,L_FF510.jpg,1,10572,70-89+,2023_May_04_1259,Recall,2021.2.3,59.92250815256465,
,SD023.jpg,0,MF023.jpg,0,,,,,0,70,70,72,imgFunc,9,NA,1.3840011996217072,475.223833899945,476.70401905989274,2023-05-04 13:07:12.699450,2023-05-04 13:07:14.176662,MF023.jpg,0,10572,70-89+,2023_May_04_1259,Recall,2021.2.3,59.92250815256465,
,SD032.jpg,0,MF032.jpg,0,,,,,0,71,71,81,imgFunc,9,NA,1.0516788000240922,476.708287499845,477.8553626597859,2023-05-04 13:07:14.183644,2023-05-04 13:07:15.327865,MF032.jpg,0,10572,70-89+,2023_May_04_1259,Recall,2021.2.3,59.92250815256465,
,DD024.jpg,0,FF024.jpg,0,,,,,0,72,72,23,imgFunc,2,NA,1.7646313002333045,477.8592556999065,479.72371845971793,2023-05-04 13:07:15.334825,2023-05-04 13:07:17.196070,FF024.jpg,0,10572,70-89+,2023_May_04_1259,Recall,2021.2.3,59.92250815256465,
,SD028.jpg,0,MF028.jpg,0,,,,,0,73,73,77,imgFunc,0,NA,2.0641964999958873,479.7276563998312,481.8912352598272,2023-05-04 13:07:17.203066,2023-05-04 13:07:19.364300,MF028.jpg,0,10572,70-89+,2023_May_04_1259,Recall,2021.2.3,59.92250815256465,
,DD035.jpg,0,FF035.jpg,0,,,,,0,74,74,34,imgFunc,9,NA,2.1338818999938667,481.89807390002534,484.1279911599122,2023-05-04 13:07:19.371290,2023-05-04 13:07:21.598812,FF035.jpg,0,10572,70-89+,2023_May_04_1259,Recall,2021.2.3,59.92250815256465,
,SD038.jpg,0,MF038.jpg,0,,,,,0,75,75,87,imgFunc,1,NA,1.2714335001073778,484.1364906001836,485.5010655601509,2023-05-04 13:07:21.605763,2023-05-04 13:07:22.967165,MF038.jpg,0,10572,70-89+,2023_May_04_1259,Recall,2021.2.3,59.92250815256465,
,L_SD501.jpg,1,L_MF501.jpg,1,,,,,0,76,76,90,imgFunc,0,NA,1.7081960998475552,485.49972249986604,487.2961048600264,2023-05-04 13:07:22.974125,2023-05-04 13:07:24.767976,L_MF501.jpg,1,10572,70-89+,2023_May_04_1259,Recall,2021.2.3,59.92250815256465,
,SD020.jpg,0,MF020.jpg,0,,,,,0,77,77,69,imgFunc,0,NA,1.180107300169766,487.29976029973477,488.57957876008004,2023-05-04 13:07:24.775955,2023-05-04 13:07:26.052579,MF020.jpg,0,10572,70-89+,2023_May_04_1259,Recall,2021.2.3,59.92250815256465,
,SD008.jpg,0,MF008.jpg,0,,,,,0,78,78,57,imgFunc,0,NA,1.3509951001033187,488.58485089987516,490.03189695999026,2023-05-04 13:07:26.059539,2023-05-04 13:07:27.503581,MF008.jpg,0,10572,70-89+,2023_May_04_1259,Recall,2021.2.3,59.92250815256465,
,L_DD505.jpg,1,L_FF505.jpg,1,,,,,0,79,79,44,imgFunc,0,NA,1.1155563998036087,490.0362851000391,491.2501122597605,2023-05-04 13:07:27.510562,2023-05-04 13:07:28.721632,L_FF505.jpg,1,10572,70-89+,2023_May_04_1259,Recall,2021.2.3,59.92250815256465,
,SD027.jpg,0,MF027.jpg,0,,,,,0,80,80,76,imgFunc,0,NA,3.1545782000757754,491.25329690007493,494.50019926019013,2023-05-04 13:07:28.728621,2023-05-04 13:07:31.973058,MF027.jpg,0,10572,70-89+,2023_May_04_1259,Recall,2021.2.3,59.92250815256465,
,DD018.jpg,0,FF018.jpg,0,,,,,0,81,81,17,imgFunc,1,NA,2.355283100157976,494.508587999735,496.956098660361,2023-05-04 13:07:31.980017,2023-05-04 13:07:34.424650,FF018.jpg,0,10572,70-89+,2023_May_04_1259,Recall,2021.2.3,59.92250815256465,
,L_SD509.jpg,1,L_MF509.jpg,1,,,,,0,82,82,98,imgFunc,0,NA,2.030913599766791,496.96092520002276,499.0907019600272,2023-05-04 13:07:34.432639,2023-05-04 13:07:36.560187,L_MF509.jpg,1,10572,70-89+,2023_May_04_1259,Recall,2021.2.3,59.92250815256465,
,DD005.jpg,0,FF005.jpg,0,,,,,0,83,83,4,imgFunc,9,NA,2.1802904000505805,499.09156019985676,501.3719530594535,2023-05-04 13:07:36.567148,2023-05-04 13:07:38.845377,FF005.jpg,0,10572,70-89+,2023_May_04_1259,Recall,2021.2.3,59.92250815256465,
,DD023.jpg,0,FF023.jpg,0,,,,,0,84,84,22,imgFunc,9,NA,2.0941576999612153,501.37765919975936,503.5571022601798,2023-05-04 13:07:38.852337,2023-05-04 13:07:41.029761,FF023.jpg,0,10572,70-89+,2023_May_04_1259,Recall,2021.2.3,59.92250815256465,
,SD001.jpg,0,MF001.jpg,0,,,,,0,85,85,50,imgFunc,1,NA,1.7571709998883307,503.56269099982455,505.41038275975734,2023-05-04 13:07:41.036722,2023-05-04 13:07:42.881639,MF001.jpg,0,10572,70-89+,2023_May_04_1259,Recall,2021.2.3,59.92250815256465,
,DD025.jpg,0,FF025.jpg,0,,,,,0,86,86,24,imgFunc,1,NA,1.0741404998116195,505.4137488999404,506.575434459839,2023-05-04 13:07:42.889596,2023-05-04 13:07:44.048533,FF025.jpg,0,10572,70-89+,2023_May_04_1259,Recall,2021.2.3,59.92250815256465,
,SD029.jpg,0,MF029.jpg,0,,,,,0,87,87,78,imgFunc,1,NA,1.2528375997208059,506.578981900122,507.9259094595909,2023-05-04 13:07:44.055493,2023-05-04 13:07:45.399402,MF029.jpg,0,10572,70-89+,2023_May_04_1259,Recall,2021.2.3,59.92250815256465,
,L_DD503.jpg,1,L_FF503.jpg,1,,,,,0,88,88,42,imgFunc,0,NA,1.5002390001900494,507.9315773998387,509.529205259867,2023-05-04 13:07:45.406390,2023-05-04 13:07:47.001217,L_FF503.jpg,1,10572,70-89+,2023_May_04_1259,Recall,2021.2.3,59.92250815256465,
,DD006.jpg,0,FF006.jpg,0,,,,,0,89,89,5,imgFunc,2,NA,3.5934891998767853,509.53440670017153,513.2154243602417,2023-05-04 13:07:47.008175,2023-05-04 13:07:50.686585,FF006.jpg,0,10572,70-89+,2023_May_04_1259,Recall,2021.2.3,59.92250815256465,
,DD008.jpg,0,FF008.jpg,0,,,,,0,90,90,7,imgFunc,2,NA,1.5189610999077559,513.2168363998644,514.8312225602567,2023-05-04 13:07:50.693566,2023-05-04 13:07:52.304830,FF008.jpg,0,10572,70-89+,2023_May_04_1259,Recall,2021.2.3,59.92250815256465,
,SD016.jpg,0,MF016.jpg,0,,,,,0,91,91,65,imgFunc,0,NA,1.3786193002015352,514.8371967999265,516.3172527598217,2023-05-04 13:07:52.311812,2023-05-04 13:07:53.789215,MF016.jpg,0,10572,70-89+,2023_May_04_1259,Recall,2021.2.3,59.92250815256465,
,DD015.jpg,0,FF015.jpg,0,,,,,0,92,92,14,imgFunc,1,NA,1.3437076997943223,516.3202248001471,517.7496761605144,2023-05-04 13:07:53.796196,2023-05-04 13:07:55.223550,FF015.jpg,0,10572,70-89+,2023_May_04_1259,Recall,2021.2.3,59.92250815256465,
,DD002.jpg,0,FF002.jpg,0,,,,,0,93,93,1,imgFunc,2,NA,3.0349370003677905,517.7568994998,520.8879385599867,2023-05-04 13:07:55.230540,2023-05-04 13:07:58.359338,FF002.jpg,0,10572,70-89+,2023_May_04_1259,Recall,2021.2.3,59.92250815256465,
,SD035.jpg,0,MF035.jpg,0,,,,,0,94,94,84,imgFunc,0,NA,1.3484725002199411,520.8912570001557,522.3378361603245,2023-05-04 13:07:58.366328,2023-05-04 13:07:59.810475,MF035.jpg,0,10572,70-89+,2023_May_04_1259,Recall,2021.2.3,59.92250815256465,
,DD029.jpg,0,FF029.jpg,0,,,,,0,95,95,28,imgFunc,1,NA,2.2992920000106096,522.3485591998324,524.7448668596335,2023-05-04 13:07:59.818432,2023-05-04 13:08:02.212169,FF029.jpg,0,10572,70-89+,2023_May_04_1259,Recall,2021.2.3,59.92250815256465,
,L_SD506.jpg,1,L_MF506.jpg,1,,,,,0,96,96,95,imgFunc,1,NA,1.118721999693662,524.7451442000456,525.9572394597344,2023-05-04 13:08:02.219151,2023-05-04 13:08:03.428960,L_MF506.jpg,1,10572,70-89+,2023_May_04_1259,Recall,2021.2.3,59.92250815256465,
,DD012.jpg,0,FF012.jpg,0,,,,,0,97,97,11,imgFunc,0,NA,1.5100575000979006,525.9617337998934,527.5580753600225,2023-05-04 13:08:03.436939,2023-05-04 13:08:05.030668,FF012.jpg,0,10572,70-89+,2023_May_04_1259,Recall,2021.2.3,59.92250815256465,
,DD017.jpg,0,FF017.jpg,0,,,,,0,98,98,16,imgFunc,0,NA,1.3481664001010358,527.5636253999546,529.0102842599154,2023-05-04 13:08:05.037649,2023-05-04 13:08:06.481379,FF017.jpg,0,10572,70-89+,2023_May_04_1259,Recall,2021.2.3,59.92250815256465,
,L_SD510.jpg,1,L_MF510.jpg,1,,,,,0,99,99,99,imgFunc,2,NA,3.5804983000271022,529.0112624000758,532.6767089599743,2023-05-04 13:08:06.488368,2023-05-04 13:08:10.150612,L_MF510.jpg,1,10572,70-89+,2023_May_04_1259,Recall,2021.2.3,59.92250815256465,
