TrialNumber,nTrial,Block,Endowment,ITI,ISI,L_Option,R_Option,ran,order,cue_Onset,endowment_onset,endowment_offset,ISI_onset,ISI_offset,decision_onset,resp,rt,resp_onset,decision_offset,trialDuration,ITIonset,ITIoffset
1,1,2,16,0.5575,1,0,1,1.0,0.0,4.517161,5.506221,5.523229,5.5233808,6.5244937,6.524677,1.0,1.2987742,7.823451,10.2919,3.7678545,10.292661,10.852832
2,2,3,16,0.5575,1,0,8,1.0,1.0,11.419523,12.339466,12.356495,12.356577,13.35733,13.357482,2.0,1.299313,14.656795,17.123108,3.7661672,17.123756,17.683048
3,3,2,32,1.365,1,0,3,1.0,2.0,18.184015,19.17266,19.189875,19.189991,20.191065,20.191223,1.0,1.4652458,21.656467,23.958183,3.767524,23.958858,25.324938
4,4,2,16,4.595,1,0,4,1.0,3.0,25.833773,26.822798,26.839827,26.83991,27.839853,27.840004,2.0,1.1165389,28.956543,31.606531,3.7670777,31.607195,36.20386
5,5,2,16,0.5575,1,8,0,1.0,4.0,36.701035,37.689373,37.706524,37.70665,38.70686,38.70701,1.0,1.7160244,40.423035,42.473377,3.7669282,42.47405,43.03384
6,6,3,16,1.365,1,2,0,1.0,5.0,43.657047,44.523193,44.539326,44.539436,45.538963,45.539112,2.0,1.5677819,47.10689,49.305847,3.7673054,49.30653,50.672913
7,7,3,32,0.5575,1,3,0,1.0,6.0,51.264473,52.173,52.189438,52.189564,53.18984,53.189987,2.0,1.5167803,54.706768,56.956585,3.7671783,56.957275,57.516777
8,8,2,32,1.365,1,0,3,1.0,7.0,58.017216,59.006187,59.02313,59.023254,60.02275,60.022903,1.0,1.516689,61.539593,63.789837,3.767478,63.790493,65.156876
9,9,3,16,2.98,1,1,0,1.0,8.0,65.76091,66.65649,66.67352,66.67364,67.67294,67.6731,2.0,1.516493,69.18959,71.4409,3.7683618,71.441574,74.42354
10,10,3,32,0.5575,1,0,16,1.0,9.0,74.97061,75.92314,75.9393,75.93939,76.93897,76.93912,2.0,1.4007846,78.339905,80.70649,3.767918,80.707146,81.26683
11,11,3,16,0.5575,1,4,0,1.0,10.0,81.85574,82.756516,82.77309,82.77319,83.77294,83.773094,1.0,1.5001307,85.27323,87.53886,3.7663207,87.53953,88.09879
12,12,3,32,1.365,1,0,3,1.0,11.0,88.66955,89.589264,89.6065,89.60663,90.606514,90.60667,1.0,1.5833104,92.18998,94.372955,3.7668376,94.37361,95.73996
13,13,2,16,0.5575,1,8,0,1.0,12.0,96.250145,97.239265,97.25638,97.25647,98.25681,98.256966,1.0,1.6660957,99.92306,102.023926,3.767907,102.02505,102.585144
14,14,3,16,0.5575,1,8,0,1.0,13.0,103.170685,104.073044,104.089226,104.08934,105.08878,105.088936,1.0,1.2510427,106.33998,108.85453,3.7661536,108.85521,109.41449
15,15,3,32,4.595,1,0,8,1.0,14.0,110.00704,110.90631,110.92292,110.92302,111.922905,111.92305,2.0,1.550167,113.47321,115.69006,3.7675648,115.69076,120.2868
16,16,2,16,0.5575,1,0,4,1.0,15.0,120.7836,121.77258,121.78963,121.789734,122.78993,122.790085,2.0,2.1498647,124.93995,126.55673,3.767219,126.55742,127.11622
17,17,2,16,0.5575,1,1,0,1.0,16.0,127.61795,128.60591,128.62297,128.6231,129.62288,129.62302,2.0,1.8665583,131.48958,133.38983,3.7673736,133.3905,133.94984
18,18,3,32,1.365,1,0,16,1.0,17.0,134.55699,135.43927,135.45639,135.45651,136.45584,136.456,2.0,1.4335656,137.88956,140.22363,3.7682047,140.2243,141.59021
19,19,2,32,1.365,1,8,0,1.0,18.0,142.1002,143.08917,143.10623,143.10635,144.10577,144.10594,1.0,1.7339216,145.83986,147.87315,3.767784,147.87384,149.24017
20,20,3,16,0.5575,1,4,0,1.0,19.0,149.81302,150.7389,150.7563,150.75645,151.75627,151.75642,1.0,1.2498496,153.00627,155.52414,3.768258,155.52478,156.08368
21,21,2,16,0.5575,1,0,2,1.0,20.0,156.5836,157.57257,157.58952,157.58965,158.5907,158.59085,1.0,1.5992347,160.1901,162.35733,3.767025,162.35799,162.91782
22,22,3,32,0.5575,1,8,0,1.0,21.0,163.48499,164.40582,164.42293,164.42307,165.42256,165.42273,1.0,1.3664092,166.78914,169.1898,3.7676404,169.19048,169.75046
23,23,3,32,1.365,1,0,2,1.0,22.0,170.33705,171.23958,171.25584,171.25595,172.2565,172.25665,1.0,1.6665235,173.92317,176.02344,3.7673373,176.0241,177.39076
24,24,2,16,1.365,1,0,4,1.0,23.0,177.90012,178.88918,178.90622,178.90636,179.9061,179.90625,2.0,1.6002079,181.50645,183.67278,3.76711,183.67348,185.03938
25,25,2,32,0.5575,1,3,0,1.0,24.0,185.5495,186.53908,186.55615,186.55627,187.55632,187.55647,2.0,1.7500672,189.30653,191.3227,3.7667801,191.32336,191.88287
26,26,2,16,4.595,1,0,1,1.0,25.0,192.3833,193.3724,193.38957,193.3897,194.3896,194.38976,1.0,2.0162444,196.406,198.15695,3.7677586,198.15762,202.75441
27,27,3,16,0.5575,1,2,0,1.0,26.0,203.33334,204.2395,204.25574,204.25584,205.2558,205.25595,2.0,2.050435,207.30638,209.02385,3.7684617,209.02452,209.58383
28,28,3,32,0.5575,1,0,2,1.0,27.0,210.16805,211.07275,211.08894,211.08904,212.08887,212.08902,1.0,1.4007466,213.48976,215.8567,3.7682433,215.85738,216.4163
29,29,2,32,2.98,1,0,8,1.0,28.0,216.91684,217.90565,217.9227,217.92282,218.92348,218.92363,2.0,1.7325388,220.65617,222.69089,3.7678075,222.69154,225.67456
30,30,3,16,0.5575,1,0,4,1.0,29.0,226.24112,227.17224,227.18938,227.18947,228.1899,228.19005,2.0,1.0829109,229.27295,231.95679,3.767302,231.95746,232.51733
31,31,2,16,0.5575,1,0,1,1.0,30.0,233.01672,234.00548,234.02267,234.0228,235.02287,235.02303,1.0,1.3663065,236.38933,238.78992,3.7674513,238.79059,239.35031
32,32,2,32,0.5575,1,16,0,1.0,31.0,239.8499,240.83902,240.85603,240.85614,241.85658,241.85674,1.0,1.3495274,243.20627,245.62366,3.7674842,245.62433,246.1838
33,33,2,16,2.98,1,8,0,1.0,32.0,246.6834,247.6722,247.68933,247.68942,248.68977,248.68993,1.0,1.4329311,250.12286,252.45734,3.7679634,252.45801,255.44064
34,34,2,16,0.5575,1,0,1,1.0,33.0,255.9499,256.93896,256.95612,256.95624,257.9568,257.95694,1.0,1.2826142,259.23956,261.72467,3.768294,261.72534,262.28424
35,35,2,16,0.5575,1,2,0,1.0,34.0,262.78314,263.77216,263.78937,263.7895,264.78967,264.78983,2.0,1.8331057,266.62292,268.55624,3.7669795,268.55692,269.11768
36,36,2,16,1.365,1,8,0,1.0,35.0,269.61633,270.60562,270.62256,270.62265,271.62323,271.62338,999.0,999.0,999.0,274.88892,3.7824662,275.406,276.7728
37,37,3,16,1.365,1,0,1,1.0,36.0,277.34955,278.2721,278.28934,278.2894,279.2898,279.28995,1.0,1.8497483,281.13968,283.05612,3.7667305,283.0568,284.4228
38,38,2,32,2.98,1,0,16,1.0,37.0,284.9329,285.92215,285.93924,285.93933,286.93903,286.93918,2.0,1.5164647,288.45566,290.70682,3.768172,290.70746,293.68942
39,39,3,32,6.21,1,16,0,1.0,38.0,294.31424,295.18887,295.20584,295.20596,296.2068,296.20694,1.0,1.3493003,297.55624,299.97318,3.7668116,299.97388,306.18643
40,40,3,32,0.5575,1,0,3,1.0,39.0,306.7231,307.67273,307.68924,307.68933,308.68954,308.6897,1.0,1.865945,310.55566,312.45752,3.7683444,312.45816,313.0171
41,41,2,16,0.5575,1,0,1,1.0,40.0,313.51654,314.50534,314.52258,314.52277,315.5236,315.52383,1.0,1.7989196,317.32275,319.29068,3.7673764,319.29132,319.85114
42,42,3,32,2.98,1,8,0,1.0,41.0,320.42807,321.33914,321.35535,321.35544,322.35495,322.3551,1.0,1.2008353,323.55594,326.12192,3.767371,326.1226,329.10498
43,43,2,32,1.365,1,0,3,1.0,42.0,329.5997,330.58865,330.60583,330.60596,331.6063,331.60645,1.0,1.3990226,333.00546,335.37296,3.7670505,335.37363,336.74045
44,44,3,16,2.98,1,1,0,1.0,43.0,337.30777,338.2386,338.25574,338.25583,339.2561,339.25623,2.0,1.7660282,341.02228,343.0233,3.7675774,343.02393,346.00537
45,45,3,32,0.5575,1,3,0,1.0,44.0,346.57983,347.50525,347.52243,347.52255,348.52185,348.52203,2.0,1.9339952,350.45602,352.2898,3.7683153,352.29044,352.84964
46,46,2,16,1.365,1,4,0,1.0,45.0,353.3492,354.33878,354.3557,354.35583,355.35565,355.3558,1.0,1.8500644,357.20587,359.12152,3.76626,359.1222,360.4883
47,47,3,32,1.365,1,2,0,1.0,46.0,361.06726,361.98853,362.0056,362.00574,363.00656,363.0067,2.0,1.815267,364.822,366.77393,3.7677815,366.77463,368.14044
48,48,3,16,2.98,1,0,8,1.0,47.0,368.725,369.63892,369.6552,369.6553,370.6549,370.65506,2.0,1.7837505,372.4388,374.42242,3.7679071,374.4231,377.40482
