onset	duration	trial_type	response_time	Endowment	Endowment_pmod	Decision	Decision_pmod	Offer_pmod
4.595562	2	cue_social	n/a	16	-9	n/a	n/a	n/a
4.595562	2	cue_social_low	n/a	16	-8	n/a	n/a	n/a
11.349667	2	cue_nonsocial	n/a	32	8	n/a	n/a	n/a
11.349667	2	cue_nonsocial_high	n/a	32	7	n/a	n/a	n/a
18.183256	2	cue_nonsocial	n/a	16	-8	n/a	n/a	n/a
18.183256	2	cue_nonsocial_low	n/a	16	-9	n/a	n/a	n/a
25.927780	2	cue_social	n/a	16	-9	n/a	n/a	n/a
25.927780	2	cue_social_low	n/a	16	-8	n/a	n/a	n/a
32.745210	2	cue_social	n/a	32	7	n/a	n/a	n/a
32.745210	2	cue_social_high	n/a	32	8	n/a	n/a	n/a
41.989243	2	cue_social	n/a	32	7	n/a	n/a	n/a
41.989243	2	cue_social_high	n/a	32	8	n/a	n/a	n/a
48.749794	2	cue_nonsocial	n/a	16	-8	n/a	n/a	n/a
48.749794	2	cue_nonsocial_low	n/a	16	-9	n/a	n/a	n/a
55.656197	2	cue_social	n/a	32	7	n/a	n/a	n/a
55.656197	2	cue_social_high	n/a	32	8	n/a	n/a	n/a
62.416363	2	cue_nonsocial	n/a	32	8	n/a	n/a	n/a
62.416363	2	cue_nonsocial_high	n/a	32	7	n/a	n/a	n/a
74.899605	2	cue_nonsocial	n/a	32	8	n/a	n/a	n/a
74.899605	2	cue_nonsocial_high	n/a	32	7	n/a	n/a	n/a
82.593925	2	cue_social	n/a	16	-9	n/a	n/a	n/a
82.593925	2	cue_social_low	n/a	16	-8	n/a	n/a	n/a
89.383286	2	cue_nonsocial	n/a	16	-8	n/a	n/a	n/a
89.383286	2	cue_nonsocial_low	n/a	16	-9	n/a	n/a	n/a
97.016266	2	cue_nonsocial	n/a	16	-8	n/a	n/a	n/a
97.016266	2	cue_nonsocial_low	n/a	16	-9	n/a	n/a	n/a
103.849210	2	cue_nonsocial	n/a	32	8	n/a	n/a	n/a
103.849210	2	cue_nonsocial_high	n/a	32	7	n/a	n/a	n/a
111.561264	2	cue_social	n/a	32	7	n/a	n/a	n/a
111.561264	2	cue_social_high	n/a	32	8	n/a	n/a	n/a
118.408970	2	cue_social	n/a	32	7	n/a	n/a	n/a
118.408970	2	cue_social_high	n/a	32	8	n/a	n/a	n/a
127.582886	2	cue_nonsocial	n/a	32	8	n/a	n/a	n/a
127.582886	2	cue_nonsocial_high	n/a	32	7	n/a	n/a	n/a
134.416340	2	cue_nonsocial	n/a	16	-8	n/a	n/a	n/a
134.416340	2	cue_nonsocial_low	n/a	16	-9	n/a	n/a	n/a
141.249330	2	cue_nonsocial	n/a	32	8	n/a	n/a	n/a
141.249330	2	cue_nonsocial_high	n/a	32	7	n/a	n/a	n/a
148.082720	2	cue_nonsocial	n/a	32	8	n/a	n/a	n/a
148.082720	2	cue_nonsocial_high	n/a	32	7	n/a	n/a	n/a
155.798700	2	cue_social	n/a	32	7	n/a	n/a	n/a
155.798700	2	cue_social_high	n/a	32	8	n/a	n/a	n/a
165.057340	2	cue_social	n/a	16	-9	n/a	n/a	n/a
165.057340	2	cue_social_low	n/a	16	-8	n/a	n/a	n/a
175.865920	2	cue_nonsocial	n/a	16	-8	n/a	n/a	n/a
175.865920	2	cue_nonsocial_low	n/a	16	-9	n/a	n/a	n/a
182.773880	2	cue_social	n/a	16	-9	n/a	n/a	n/a
182.773880	2	cue_social_low	n/a	16	-8	n/a	n/a	n/a
190.349200	2	cue_nonsocial	n/a	32	8	n/a	n/a	n/a
190.349200	2	cue_nonsocial_high	n/a	32	7	n/a	n/a	n/a
197.999400	2	cue_nonsocial	n/a	32	8	n/a	n/a	n/a
197.999400	2	cue_nonsocial_high	n/a	32	7	n/a	n/a	n/a
204.881200	2	cue_social	n/a	16	-9	n/a	n/a	n/a
204.881200	2	cue_social_low	n/a	16	-8	n/a	n/a	n/a
212.559340	2	cue_social	n/a	16	-9	n/a	n/a	n/a
212.559340	2	cue_social_low	n/a	16	-8	n/a	n/a	n/a
220.116200	2	cue_nonsocial	n/a	32	8	n/a	n/a	n/a
220.116200	2	cue_nonsocial_high	n/a	32	7	n/a	n/a	n/a
226.949200	2	cue_nonsocial	n/a	32	8	n/a	n/a	n/a
226.949200	2	cue_nonsocial_high	n/a	32	7	n/a	n/a	n/a
233.845150	2	cue_social	n/a	32	7	n/a	n/a	n/a
233.845150	2	cue_social_high	n/a	32	8	n/a	n/a	n/a
240.684650	2	cue_social	n/a	16	-9	n/a	n/a	n/a
240.684650	2	cue_social_low	n/a	16	-8	n/a	n/a	n/a
247.506150	2	cue_social	n/a	16	-9	n/a	n/a	n/a
247.506150	2	cue_social_low	n/a	16	-8	n/a	n/a	n/a
254.283050	2	cue_nonsocial	n/a	16	-8	n/a	n/a	n/a
254.283050	2	cue_nonsocial_low	n/a	16	-9	n/a	n/a	n/a
261.932560	2	cue_nonsocial	n/a	32	8	n/a	n/a	n/a
261.932560	2	cue_nonsocial_high	n/a	32	7	n/a	n/a	n/a
272.799100	2	cue_nonsocial	n/a	16	-8	n/a	n/a	n/a
272.799100	2	cue_nonsocial_low	n/a	16	-9	n/a	n/a	n/a
280.491330	2	cue_social	n/a	32	7	n/a	n/a	n/a
280.491330	2	cue_social_high	n/a	32	8	n/a	n/a	n/a
288.152860	2	cue_social	n/a	32	7	n/a	n/a	n/a
288.152860	2	cue_social_high	n/a	32	8	n/a	n/a	n/a
295.732540	2	cue_nonsocial	n/a	16	-8	n/a	n/a	n/a
295.732540	2	cue_nonsocial_low	n/a	16	-9	n/a	n/a	n/a
305.039950	2	cue_social	n/a	32	7	n/a	n/a	n/a
305.039950	2	cue_social_high	n/a	32	8	n/a	n/a	n/a
311.815770	2	cue_nonsocial	n/a	16	-8	n/a	n/a	n/a
311.815770	2	cue_nonsocial_low	n/a	16	-9	n/a	n/a	n/a
322.739500	2	cue_social	n/a	16	-9	n/a	n/a	n/a
322.739500	2	cue_social_low	n/a	16	-8	n/a	n/a	n/a
329.515440	2	cue_nonsocial	n/a	16	-8	n/a	n/a	n/a
329.515440	2	cue_nonsocial_low	n/a	16	-9	n/a	n/a	n/a
336.405580	2	cue_social	n/a	32	7	n/a	n/a	n/a
336.405580	2	cue_social_high	n/a	32	8	n/a	n/a	n/a
345.667940	2	cue_social	n/a	32	7	n/a	n/a	n/a
345.667940	2	cue_social_high	n/a	32	8	n/a	n/a	n/a
354.903470	2	cue_social	n/a	32	7	n/a	n/a	n/a
354.903470	2	cue_social_high	n/a	32	8	n/a	n/a	n/a
364.145300	2	cue_social	n/a	16	-9	n/a	n/a	n/a
364.145300	2	cue_social_low	n/a	16	-8	n/a	n/a	n/a
370.932040	2	cue_nonsocial	n/a	16	-8	n/a	n/a	n/a
370.932040	2	cue_nonsocial_low	n/a	16	-9	n/a	n/a	n/a
6.523037	1.682805	dec_social_choice	1.682805	16.000000	n/a	4	1.953125e-02	1.953125e-02
6.523037	1.682805	dec_choice	1.682805	16.000000	n/a	4	1.953125e-02	1.953125e-02
6.523037	1.682805	dec_social_accept	1.682805	16.000000	n/a	4	-4.270833e-02	-4.270833e-02
6.523037	1.682805	dec_accept	1.682805	16.000000	n/a	4	-4.375000e-02	-4.375000e-02
6.523037	1.682805	dec_social_high	1.682805	16.000000	n/a	4	1.953125e-02	1.953125e-02
6.523037	1.682805	dec_social_accept_high	1.682805	16.000000	n/a	4	1.953125e-02	1.953125e-02
13.355922	1.033642	dec_nonsocial_choice	1.033642	32.000000	n/a	16	2.695312e-01	2.695312e-01
13.355922	1.033642	dec_choice	1.033642	32.000000	n/a	16	2.695312e-01	2.695312e-01
13.355922	1.033642	dec_nonsocial_accept	1.033642	32.000000	n/a	16	2.072917e-01	2.072917e-01
13.355922	1.033642	dec_accept	1.033642	32.000000	n/a	16	2.083333e-01	2.083333e-01
13.355922	1.033642	dec_nonsocial_high	1.033642	32.000000	n/a	16	2.695312e-01	2.695312e-01
13.355922	1.033642	dec_nonsocial_accept_high	1.033642	32.000000	n/a	16	2.083333e-01	2.083333e-01
20.189678	1.066328	dec_nonsocial_choice	1.066328	16.000000	n/a	2	-1.054688e-01	-1.054688e-01
20.189678	1.066328	dec_choice	1.066328	16.000000	n/a	2	-1.054688e-01	-1.054688e-01
20.189678	1.066328	dec_nonsocial_accept	1.066328	16.000000	n/a	2	-1.677083e-01	-1.677083e-01
20.189678	1.066328	dec_accept	1.066328	16.000000	n/a	2	-1.666667e-01	-1.666667e-01
20.189678	1.066328	dec_nonsocial_accept_low	1.066328	16.000000	n/a	2	-1.687500e-01	-1.687500e-01
27.839401	1.450531	dec_social_choice	1.450531	16.000000	n/a	0	0	-2.304688e-01
27.839401	1.450531	dec_choice	1.450531	16.000000	n/a	0	0	-2.304688e-01
27.839401	1.450531	dec_social_reject	1.450531	16.000000	n/a	0	0	-1.736111e-03
27.839401	1.450531	dec_reject	1.450531	16.000000	n/a	0	0	0
27.839401	1.450531	dec_social_low	1.450531	16.000000	n/a	0	-2.304688e-01	-2.304688e-01
27.839401	1.450531	dec_social_reject_low	1.450531	16.000000	n/a	2	-1.054688e-01	-2.304688e-01
34.672977	1.300241	dec_social_choice	1.300241	32.000000	n/a	16	2.695312e-01	2.695312e-01
34.672977	1.300241	dec_choice	1.300241	32.000000	n/a	16	2.695312e-01	2.695312e-01
34.672977	1.300241	dec_social_accept	1.300241	32.000000	n/a	16	2.072917e-01	2.072917e-01
34.672977	1.300241	dec_accept	1.300241	32.000000	n/a	16	2.062500e-01	2.062500e-01
34.672977	1.300241	dec_social_high	1.300241	32.000000	n/a	16	2.695312e-01	2.695312e-01
34.672977	1.300241	dec_social_accept_high	1.300241	32.000000	n/a	16	2.695312e-01	2.695312e-01
43.923035	1.483255	dec_social_choice	1.483255	32.000000	n/a	8	1.953125e-02	1.953125e-02
43.923035	1.483255	dec_choice	1.483255	32.000000	n/a	8	1.953125e-02	1.953125e-02
43.923035	1.483255	dec_social_accept	1.483255	32.000000	n/a	8	-4.270833e-02	-4.270833e-02
43.923035	1.483255	dec_accept	1.483255	32.000000	n/a	8	-4.375000e-02	-4.375000e-02
43.923035	1.483255	dec_social_high	1.483255	32.000000	n/a	8	1.953125e-02	1.953125e-02
43.923035	1.483255	dec_social_accept_high	1.483255	32.000000	n/a	8	1.953125e-02	1.953125e-02
50.755676	1.266777	dec_nonsocial_choice	1.266777	16.000000	n/a	8	2.695312e-01	2.695312e-01
50.755676	1.266777	dec_choice	1.266777	16.000000	n/a	8	2.695312e-01	2.695312e-01
50.755676	1.266777	dec_nonsocial_accept	1.266777	16.000000	n/a	8	2.072917e-01	2.072917e-01
50.755676	1.266777	dec_accept	1.266777	16.000000	n/a	8	2.083333e-01	2.083333e-01
50.755676	1.266777	dec_nonsocial_high	1.266777	16.000000	n/a	8	2.695312e-01	2.695312e-01
50.755676	1.266777	dec_nonsocial_accept_high	1.266777	16.000000	n/a	8	2.083333e-01	2.083333e-01
57.590010	1.616173	dec_social_choice	1.616173	32.000000	n/a	2	-1.679688e-01	-1.679688e-01
57.590010	1.616173	dec_choice	1.616173	32.000000	n/a	2	-1.679688e-01	-1.679688e-01
57.590010	1.616173	dec_social_accept	1.616173	32.000000	n/a	2	-2.302083e-01	-2.302083e-01
57.590010	1.616173	dec_accept	1.616173	32.000000	n/a	2	-2.312500e-01	-2.312500e-01
57.590010	1.616173	dec_social_accept_low	1.616173	32.000000	n/a	2	-1.679688e-01	-1.679688e-01
64.422676	1.833592	dec_nonsocial_choice	1.833592	32.000000	n/a	0	0	-2.304688e-01
64.422676	1.833592	dec_choice	1.833592	32.000000	n/a	0	0	-2.304688e-01
64.422676	1.833592	dec_nonsocial_reject	1.833592	32.000000	n/a	0	0	-3.298611e-02
64.422676	1.833592	dec_reject	1.833592	32.000000	n/a	0	0	-3.472222e-02
64.422676	1.833592	dec_nonsocial_low	1.833592	32.000000	n/a	0	-2.304688e-01	-2.304688e-01
64.422676	1.833592	dec_nonsocial_reject_low	1.833592	32.000000	n/a	3	-3.472222e-02	-1.284722e-01
76.907020	1.032630	dec_nonsocial_choice	1.032630	32.000000	n/a	16	2.695312e-01	2.695312e-01
76.907020	1.032630	dec_choice	1.032630	32.000000	n/a	16	2.695312e-01	2.695312e-01
76.907020	1.032630	dec_nonsocial_accept	1.032630	32.000000	n/a	16	2.072917e-01	2.072917e-01
76.907020	1.032630	dec_accept	1.032630	32.000000	n/a	16	2.083333e-01	2.083333e-01
76.907020	1.032630	dec_nonsocial_accept_high	1.032630	32.000000	n/a	16	2.062500e-01	2.062500e-01
84.556015	1.500179	dec_social_choice	1.500179	16.000000	n/a	4	1.953125e-02	1.953125e-02
84.556015	1.500179	dec_choice	1.500179	16.000000	n/a	4	1.953125e-02	1.953125e-02
84.556015	1.500179	dec_social_accept	1.500179	16.000000	n/a	4	-4.270833e-02	-4.270833e-02
84.556015	1.500179	dec_accept	1.500179	16.000000	n/a	4	-4.375000e-02	-4.375000e-02
84.556015	1.500179	dec_social_accept_high	1.500179	16.000000	n/a	4	1.953125e-02	1.953125e-02
91.389280	1.400293	dec_nonsocial_choice	1.400293	16.000000	n/a	4	1.953125e-02	1.953125e-02
91.389280	1.400293	dec_choice	1.400293	16.000000	n/a	4	1.953125e-02	1.953125e-02
91.389280	1.400293	dec_nonsocial_accept	1.400293	16.000000	n/a	4	-4.270833e-02	-4.270833e-02
91.389280	1.400293	dec_accept	1.400293	16.000000	n/a	4	-4.166667e-02	-4.166667e-02
91.389280	1.400293	dec_nonsocial_high	1.400293	16.000000	n/a	4	1.953125e-02	1.953125e-02
91.389280	1.400293	dec_nonsocial_accept_high	1.400293	16.000000	n/a	4	-4.166667e-02	-4.166667e-02
99.022990	1.183272	dec_nonsocial_choice	1.183272	16.000000	n/a	0	0	-2.304688e-01
99.022990	1.183272	dec_choice	1.183272	16.000000	n/a	0	0	-2.304688e-01
99.022990	1.183272	dec_nonsocial_reject	1.183272	16.000000	n/a	0	0	-6.423611e-02
99.022990	1.183272	dec_reject	1.183272	16.000000	n/a	0	0	-6.597222e-02
99.022990	1.183272	dec_nonsocial_low	1.183272	16.000000	n/a	0	-2.304688e-01	-2.304688e-01
99.022990	1.183272	dec_nonsocial_reject_low	1.183272	16.000000	n/a	1	-6.597222e-02	-1.284722e-01
105.857070	1.098746	dec_nonsocial_choice	1.098746	32.000000	n/a	8	1.953125e-02	1.953125e-02
105.857070	1.098746	dec_choice	1.098746	32.000000	n/a	8	1.953125e-02	1.953125e-02
105.857070	1.098746	dec_nonsocial_accept	1.098746	32.000000	n/a	8	-4.270833e-02	-4.270833e-02
105.857070	1.098746	dec_accept	1.098746	32.000000	n/a	8	-4.166667e-02	-4.166667e-02
105.857070	1.098746	dec_nonsocial_accept_high	1.098746	32.000000	n/a	8	-4.375000e-02	-4.375000e-02
113.505380	1.333931	dec_social_choice	1.333931	32.000000	n/a	0	0	-2.304688e-01
113.505380	1.333931	dec_choice	1.333931	32.000000	n/a	0	0	-2.304688e-01
113.505380	1.333931	dec_social_reject	1.333931	32.000000	n/a	0	0	-6.423611e-02
113.505380	1.333931	dec_reject	1.333931	32.000000	n/a	0	0	-6.250000e-02
113.505380	1.333931	dec_social_reject_low	1.333931	32.000000	n/a	2	-1.679688e-01	-2.304688e-01
120.338850	1.067312	dec_social_choice	1.067312	32.000000	n/a	0	0	-2.304688e-01
120.338850	1.067312	dec_choice	1.067312	32.000000	n/a	0	0	-2.304688e-01
120.338850	1.067312	dec_social_reject	1.067312	32.000000	n/a	0	0	3.732639e-01
120.338850	1.067312	dec_reject	1.067312	32.000000	n/a	0	0	3.750000e-01
120.338850	1.067312	dec_social_low	1.067312	32.000000	n/a	0	-2.304688e-01	-2.304688e-01
120.338850	1.067312	dec_social_reject_low	1.067312	32.000000	n/a	16	2.695312e-01	-2.304688e-01
129.589220	1.233642	dec_nonsocial_choice	1.233642	32.000000	n/a	0	0	-2.304688e-01
129.589220	1.233642	dec_choice	1.233642	32.000000	n/a	0	0	-2.304688e-01
129.589220	1.233642	dec_nonsocial_reject	1.233642	32.000000	n/a	0	0	-3.298611e-02
129.589220	1.233642	dec_reject	1.233642	32.000000	n/a	0	0	-3.472222e-02
129.589220	1.233642	dec_nonsocial_reject_low	1.233642	32.000000	n/a	3	-3.125000e-02	-1.250000e-01
136.423080	1.399476	dec_nonsocial_choice	1.399476	16.000000	n/a	4	1.953125e-02	1.953125e-02
136.423080	1.399476	dec_choice	1.399476	16.000000	n/a	4	1.953125e-02	1.953125e-02
136.423080	1.399476	dec_nonsocial_accept	1.399476	16.000000	n/a	4	-4.270833e-02	-4.270833e-02
136.423080	1.399476	dec_accept	1.399476	16.000000	n/a	4	-4.166667e-02	-4.166667e-02
136.423080	1.399476	dec_nonsocial_accept_high	1.399476	16.000000	n/a	4	-4.375000e-02	-4.375000e-02
143.255310	1.384234	dec_nonsocial_choice	1.384234	32.000000	n/a	2	-1.679688e-01	-1.679688e-01
143.255310	1.384234	dec_choice	1.384234	32.000000	n/a	2	-1.679688e-01	-1.679688e-01
143.255310	1.384234	dec_nonsocial_accept	1.384234	32.000000	n/a	2	-2.302083e-01	-2.302083e-01
143.255310	1.384234	dec_accept	1.384234	32.000000	n/a	2	-2.291667e-01	-2.291667e-01
143.255310	1.384234	dec_nonsocial_accept_low	1.384234	32.000000	n/a	2	-2.312500e-01	-2.312500e-01
150.089980	1.349504	dec_nonsocial_choice	1.349504	32.000000	n/a	2	-1.679688e-01	-1.679688e-01
150.089980	1.349504	dec_choice	1.349504	32.000000	n/a	2	-1.679688e-01	-1.679688e-01
150.089980	1.349504	dec_nonsocial_accept	1.349504	32.000000	n/a	2	-2.302083e-01	-2.302083e-01
150.089980	1.349504	dec_accept	1.349504	32.000000	n/a	2	-2.291667e-01	-2.291667e-01
150.089980	1.349504	dec_nonsocial_accept_low	1.349504	32.000000	n/a	2	-2.312500e-01	-2.312500e-01
157.740020	1.582872	dec_social_choice	1.582872	32.000000	n/a	0	0	-2.304688e-01
157.740020	1.582872	dec_choice	1.582872	32.000000	n/a	0	0	-2.304688e-01
157.740020	1.582872	dec_social_reject	1.582872	32.000000	n/a	0	0	-6.423611e-02
157.740020	1.582872	dec_reject	1.582872	32.000000	n/a	0	0	-6.250000e-02
157.740020	1.582872	dec_social_reject_low	1.582872	32.000000	n/a	2	-1.679688e-01	-2.304688e-01
167.006530	1.165748	dec_social_choice	1.165748	16.000000	n/a	0	0	-2.304688e-01
167.006530	1.165748	dec_choice	1.165748	16.000000	n/a	0	0	-2.304688e-01
167.006530	1.165748	dec_social_reject	1.165748	16.000000	n/a	0	0	-6.423611e-02
167.006530	1.165748	dec_reject	1.165748	16.000000	n/a	0	0	-6.250000e-02
167.006530	1.165748	dec_social_reject_low	1.165748	16.000000	n/a	1	-1.679688e-01	-2.304688e-01
177.872860	1.266144	dec_nonsocial_choice	1.266144	16.000000	n/a	0	0	-2.304688e-01
177.872860	1.266144	dec_choice	1.266144	16.000000	n/a	0	0	-2.304688e-01
177.872860	1.266144	dec_nonsocial_reject	1.266144	16.000000	n/a	0	0	-6.423611e-02
177.872860	1.266144	dec_reject	1.266144	16.000000	n/a	0	0	-6.597222e-02
177.872860	1.266144	dec_nonsocial_low	1.266144	16.000000	n/a	0	-2.304688e-01	-2.304688e-01
177.872860	1.266144	dec_nonsocial_reject_low	1.266144	16.000000	n/a	1	-6.597222e-02	-1.284722e-01
184.705150	1.633571	dec_social_choice	1.633571	16.000000	n/a	0	0	-2.304688e-01
184.705150	1.633571	dec_choice	1.633571	16.000000	n/a	0	0	-2.304688e-01
184.705150	1.633571	dec_social_reject	1.633571	16.000000	n/a	0	0	-6.423611e-02
184.705150	1.633571	dec_reject	1.633571	16.000000	n/a	0	0	-6.250000e-02
184.705150	1.633571	dec_social_reject_low	1.633571	16.000000	n/a	1	-1.679688e-01	-2.304688e-01
192.355960	1.200010	dec_nonsocial_choice	1.200010	32.000000	n/a	0	0	-2.304688e-01
192.355960	1.200010	dec_choice	1.200010	32.000000	n/a	0	0	-2.304688e-01
192.355960	1.200010	dec_nonsocial_reject	1.200010	32.000000	n/a	0	0	-6.423611e-02
192.355960	1.200010	dec_reject	1.200010	32.000000	n/a	0	0	-6.597222e-02
192.355960	1.200010	dec_nonsocial_low	1.200010	32.000000	n/a	0	-2.304688e-01	-2.304688e-01
192.355960	1.200010	dec_nonsocial_reject_low	1.200010	32.000000	n/a	2	-6.597222e-02	-1.284722e-01
200.005890	1.416375	dec_nonsocial_choice	1.416375	32.000000	n/a	8	1.953125e-02	1.953125e-02
200.005890	1.416375	dec_choice	1.416375	32.000000	n/a	8	1.953125e-02	1.953125e-02
200.005890	1.416375	dec_nonsocial_accept	1.416375	32.000000	n/a	8	-4.270833e-02	-4.270833e-02
200.005890	1.416375	dec_accept	1.416375	32.000000	n/a	8	-4.166667e-02	-4.166667e-02
200.005890	1.416375	dec_nonsocial_high	1.416375	32.000000	n/a	8	1.953125e-02	1.953125e-02
200.005890	1.416375	dec_nonsocial_accept_high	1.416375	32.000000	n/a	8	-4.166667e-02	-4.166667e-02
206.839190	1.400345	dec_social_choice	1.400345	16.000000	n/a	4	1.953125e-02	1.953125e-02
206.839190	1.400345	dec_choice	1.400345	16.000000	n/a	4	1.953125e-02	1.953125e-02
206.839190	1.400345	dec_social_accept	1.400345	16.000000	n/a	4	-4.270833e-02	-4.270833e-02
206.839190	1.400345	dec_accept	1.400345	16.000000	n/a	4	-4.375000e-02	-4.375000e-02
206.839190	1.400345	dec_social_high	1.400345	16.000000	n/a	4	1.953125e-02	1.953125e-02
206.839190	1.400345	dec_social_accept_high	1.400345	16.000000	n/a	4	1.953125e-02	1.953125e-02
214.488530	2.267376	dec_social_choice	2.267376	16.000000	n/a	2	-1.054688e-01	-1.054688e-01
214.488530	2.267376	dec_choice	2.267376	16.000000	n/a	2	-1.054688e-01	-1.054688e-01
214.488530	2.267376	dec_social_accept	2.267376	16.000000	n/a	2	-1.677083e-01	-1.677083e-01
214.488530	2.267376	dec_accept	2.267376	16.000000	n/a	2	-1.687500e-01	-1.687500e-01
214.488530	2.267376	dec_social_low	2.267376	16.000000	n/a	2	-1.054688e-01	-1.054688e-01
214.488530	2.267376	dec_social_accept_low	2.267376	16.000000	n/a	2	-1.054688e-01	-1.054688e-01
222.122650	1.799910	dec_nonsocial_choice	1.799910	32.000000	n/a	0	0	-2.304688e-01
222.122650	1.799910	dec_choice	1.799910	32.000000	n/a	0	0	-2.304688e-01
222.122650	1.799910	dec_nonsocial_reject	1.799910	32.000000	n/a	0	0	-3.298611e-02
222.122650	1.799910	dec_reject	1.799910	32.000000	n/a	0	0	-3.472222e-02
222.122650	1.799910	dec_nonsocial_low	1.799910	32.000000	n/a	0	-2.304688e-01	-2.304688e-01
222.122650	1.799910	dec_nonsocial_reject_low	1.799910	32.000000	n/a	3	-3.472222e-02	-1.284722e-01
228.955960	1.233212	dec_nonsocial_choice	1.233212	32.000000	n/a	8	1.953125e-02	1.953125e-02
228.955960	1.233212	dec_choice	1.233212	32.000000	n/a	8	1.953125e-02	1.953125e-02
228.955960	1.233212	dec_nonsocial_accept	1.233212	32.000000	n/a	8	-4.270833e-02	-4.270833e-02
228.955960	1.233212	dec_accept	1.233212	32.000000	n/a	8	-4.166667e-02	-4.166667e-02
228.955960	1.233212	dec_nonsocial_accept_high	1.233212	32.000000	n/a	8	-4.375000e-02	-4.375000e-02
235.789220	1.449982	dec_social_choice	1.449982	32.000000	n/a	0	0	-2.304688e-01
235.789220	1.449982	dec_choice	1.449982	32.000000	n/a	0	0	-2.304688e-01
235.789220	1.449982	dec_social_reject	1.449982	32.000000	n/a	0	0	-6.423611e-02
235.789220	1.449982	dec_reject	1.449982	32.000000	n/a	0	0	-6.250000e-02
235.789220	1.449982	dec_social_low	1.449982	32.000000	n/a	0	-2.304688e-01	-2.304688e-01
235.789220	1.449982	dec_social_reject_low	1.449982	32.000000	n/a	2	-1.679688e-01	-2.304688e-01
242.621870	1.234083	dec_social_choice	1.234083	16.000000	n/a	8	2.695312e-01	2.695312e-01
242.621870	1.234083	dec_choice	1.234083	16.000000	n/a	8	2.695312e-01	2.695312e-01
242.621870	1.234083	dec_social_accept	1.234083	16.000000	n/a	8	2.072917e-01	2.072917e-01
242.621870	1.234083	dec_accept	1.234083	16.000000	n/a	8	2.062500e-01	2.062500e-01
242.621870	1.234083	dec_social_accept_high	1.234083	16.000000	n/a	8	2.695312e-01	2.695312e-01
249.455930	1.066248	dec_social_choice	1.066248	16.000000	n/a	8	2.695312e-01	2.695312e-01
249.455930	1.066248	dec_choice	1.066248	16.000000	n/a	8	2.695312e-01	2.695312e-01
249.455930	1.066248	dec_social_accept	1.066248	16.000000	n/a	8	2.072917e-01	2.072917e-01
249.455930	1.066248	dec_accept	1.066248	16.000000	n/a	8	2.062500e-01	2.062500e-01
249.455930	1.066248	dec_social_accept_high	1.066248	16.000000	n/a	8	2.695312e-01	2.695312e-01
256.288400	1.050635	dec_nonsocial_choice	1.050635	16.000000	n/a	8	2.695312e-01	2.695312e-01
256.288400	1.050635	dec_choice	1.050635	16.000000	n/a	8	2.695312e-01	2.695312e-01
256.288400	1.050635	dec_nonsocial_accept	1.050635	16.000000	n/a	8	2.072917e-01	2.072917e-01
256.288400	1.050635	dec_accept	1.050635	16.000000	n/a	8	2.083333e-01	2.083333e-01
256.288400	1.050635	dec_nonsocial_accept_high	1.050635	16.000000	n/a	8	2.062500e-01	2.062500e-01
263.939060	1.016071	dec_nonsocial_choice	1.016071	32.000000	n/a	16	2.695312e-01	2.695312e-01
263.939060	1.016071	dec_choice	1.016071	32.000000	n/a	16	2.695312e-01	2.695312e-01
263.939060	1.016071	dec_nonsocial_accept	1.016071	32.000000	n/a	16	2.072917e-01	2.072917e-01
263.939060	1.016071	dec_accept	1.016071	32.000000	n/a	16	2.083333e-01	2.083333e-01
263.939060	1.016071	dec_nonsocial_accept_high	1.016071	32.000000	n/a	16	2.062500e-01	2.062500e-01
274.806060	1.165798	dec_nonsocial_choice	1.165798	16.000000	n/a	0	0	-2.304688e-01
274.806060	1.165798	dec_choice	1.165798	16.000000	n/a	0	0	-2.304688e-01
274.806060	1.165798	dec_nonsocial_reject	1.165798	16.000000	n/a	0	0	3.732639e-01
274.806060	1.165798	dec_reject	1.165798	16.000000	n/a	0	0	3.715278e-01
274.806060	1.165798	dec_nonsocial_reject_low	1.165798	16.000000	n/a	8	3.750000e-01	-1.250000e-01
282.455630	1.500123	dec_social_choice	1.500123	32.000000	n/a	3	-1.367188e-01	-1.367188e-01
282.455630	1.500123	dec_choice	1.500123	32.000000	n/a	3	-1.367188e-01	-1.367188e-01
282.455630	1.500123	dec_social_accept	1.500123	32.000000	n/a	3	-1.989583e-01	-1.989583e-01
282.455630	1.500123	dec_accept	1.500123	32.000000	n/a	3	-2.000000e-01	-2.000000e-01
282.455630	1.500123	dec_social_low	1.500123	32.000000	n/a	3	-1.367188e-01	-1.367188e-01
282.455630	1.500123	dec_social_accept_low	1.500123	32.000000	n/a	3	-1.367188e-01	-1.367188e-01
290.104980	1.934257	dec_social_choice	1.934257	32.000000	n/a	16	2.695312e-01	2.695312e-01
290.104980	1.934257	dec_choice	1.934257	32.000000	n/a	16	2.695312e-01	2.695312e-01
290.104980	1.934257	dec_social_accept	1.934257	32.000000	n/a	16	2.072917e-01	2.072917e-01
290.104980	1.934257	dec_accept	1.934257	32.000000	n/a	16	2.062500e-01	2.062500e-01
290.104980	1.934257	dec_social_accept_high	1.934257	32.000000	n/a	16	2.695312e-01	2.695312e-01
297.739840	1.349255	dec_nonsocial_choice	1.349255	16.000000	n/a	0	0	-2.304688e-01
297.739840	1.349255	dec_choice	1.349255	16.000000	n/a	0	0	-2.304688e-01
297.739840	1.349255	dec_nonsocial_reject	1.349255	16.000000	n/a	0	0	-6.423611e-02
297.739840	1.349255	dec_reject	1.349255	16.000000	n/a	0	0	-6.597222e-02
297.739840	1.349255	dec_nonsocial_reject_low	1.349255	16.000000	n/a	1	-6.250000e-02	-1.250000e-01
306.989930	1.265518	dec_social_choice	1.265518	32.000000	n/a	0	0	-2.304688e-01
306.989930	1.265518	dec_choice	1.265518	32.000000	n/a	0	0	-2.304688e-01
306.989930	1.265518	dec_social_reject	1.265518	32.000000	n/a	0	0	-3.298611e-02
306.989930	1.265518	dec_reject	1.265518	32.000000	n/a	0	0	-3.125000e-02
306.989930	1.265518	dec_social_reject_low	1.265518	32.000000	n/a	3	-1.367188e-01	-2.304688e-01
313.821700	1.100658	dec_nonsocial_choice	1.100658	16.000000	n/a	4	1.953125e-02	1.953125e-02
313.821700	1.100658	dec_choice	1.100658	16.000000	n/a	4	1.953125e-02	1.953125e-02
313.821700	1.100658	dec_nonsocial_accept	1.100658	16.000000	n/a	4	-4.270833e-02	-4.270833e-02
313.821700	1.100658	dec_accept	1.100658	16.000000	n/a	4	-4.166667e-02	-4.166667e-02
313.821700	1.100658	dec_nonsocial_accept_high	1.100658	16.000000	n/a	4	-4.375000e-02	-4.375000e-02
324.688930	1.466366	dec_social_choice	1.466366	16.000000	n/a	2	-1.054688e-01	-1.054688e-01
324.688930	1.466366	dec_choice	1.466366	16.000000	n/a	2	-1.054688e-01	-1.054688e-01
324.688930	1.466366	dec_social_accept	1.466366	16.000000	n/a	2	-1.677083e-01	-1.677083e-01
324.688930	1.466366	dec_accept	1.466366	16.000000	n/a	2	-1.687500e-01	-1.687500e-01
324.688930	1.466366	dec_social_accept_low	1.466366	16.000000	n/a	2	-1.054688e-01	-1.054688e-01
331.521880	1.316712	dec_nonsocial_choice	1.316712	16.000000	n/a	2	-1.054688e-01	-1.054688e-01
331.521880	1.316712	dec_choice	1.316712	16.000000	n/a	2	-1.054688e-01	-1.054688e-01
331.521880	1.316712	dec_nonsocial_accept	1.316712	16.000000	n/a	2	-1.677083e-01	-1.677083e-01
331.521880	1.316712	dec_accept	1.316712	16.000000	n/a	2	-1.666667e-01	-1.666667e-01
331.521880	1.316712	dec_nonsocial_low	1.316712	16.000000	n/a	2	-1.054688e-01	-1.054688e-01
331.521880	1.316712	dec_nonsocial_accept_low	1.316712	16.000000	n/a	2	-1.666667e-01	-1.666667e-01
338.355960	1.249343	dec_social_choice	1.249343	32.000000	n/a	0	0	-2.304688e-01
338.355960	1.249343	dec_choice	1.249343	32.000000	n/a	0	0	-2.304688e-01
338.355960	1.249343	dec_social_reject	1.249343	32.000000	n/a	0	0	-3.298611e-02
338.355960	1.249343	dec_reject	1.249343	32.000000	n/a	0	0	-3.125000e-02
338.355960	1.249343	dec_social_reject_low	1.249343	32.000000	n/a	3	-1.367188e-01	-2.304688e-01
347.605930	1.149776	dec_social_choice	1.149776	32.000000	n/a	8	1.953125e-02	1.953125e-02
347.605930	1.149776	dec_choice	1.149776	32.000000	n/a	8	1.953125e-02	1.953125e-02
347.605930	1.149776	dec_social_accept	1.149776	32.000000	n/a	8	-4.270833e-02	-4.270833e-02
347.605930	1.149776	dec_accept	1.149776	32.000000	n/a	8	-4.375000e-02	-4.375000e-02
347.605930	1.149776	dec_social_high	1.149776	32.000000	n/a	8	1.953125e-02	1.953125e-02
347.605930	1.149776	dec_social_accept_high	1.149776	32.000000	n/a	8	1.953125e-02	1.953125e-02
356.855040	1.334054	dec_social_choice	1.334054	32.000000	n/a	16	2.695312e-01	2.695312e-01
356.855040	1.334054	dec_choice	1.334054	32.000000	n/a	16	2.695312e-01	2.695312e-01
356.855040	1.334054	dec_social_accept	1.334054	32.000000	n/a	16	2.072917e-01	2.072917e-01
356.855040	1.334054	dec_accept	1.334054	32.000000	n/a	16	2.062500e-01	2.062500e-01
356.855040	1.334054	dec_social_accept_high	1.334054	32.000000	n/a	16	2.695312e-01	2.695312e-01
366.104950	1.150527	dec_social_choice	1.150527	16.000000	n/a	4	1.953125e-02	1.953125e-02
366.104950	1.150527	dec_choice	1.150527	16.000000	n/a	4	1.953125e-02	1.953125e-02
366.104950	1.150527	dec_social_accept	1.150527	16.000000	n/a	4	-4.270833e-02	-4.270833e-02
366.104950	1.150527	dec_accept	1.150527	16.000000	n/a	4	-4.375000e-02	-4.375000e-02
366.104950	1.150527	dec_social_high	1.150527	16.000000	n/a	4	1.953125e-02	1.953125e-02
366.104950	1.150527	dec_social_accept_high	1.150527	16.000000	n/a	4	1.953125e-02	1.953125e-02
372.938350	1.283894	dec_nonsocial_choice	1.283894	16.000000	n/a	0	0	-2.304688e-01
372.938350	1.283894	dec_choice	1.283894	16.000000	n/a	0	0	-2.304688e-01
372.938350	1.283894	dec_nonsocial_reject	1.283894	16.000000	n/a	0	0	-1.736111e-03
372.938350	1.283894	dec_reject	1.283894	16.000000	n/a	0	0	-3.472222e-03
372.938350	1.283894	dec_nonsocial_low	1.283894	16.000000	n/a	0	-2.304688e-01	-2.304688e-01
372.938350	1.283894	dec_nonsocial_reject_low	1.283894	16.000000	n/a	2	-3.472222e-03	-1.284722e-01
