onset	duration	trial_type	response_time	Endowment	Decision	Offer
4.595562	2	cue_social	n/a	16	n/a	n/a
4.595562	2	cue_social_low	n/a	16	n/a	n/a
6.523037	1.682805	dec_social_low	1.682805	16	n/a	4
6.523037	1.682805	dec_social_low_accept	1.682805	16	accept	4
11.349667	2	cue_nonsocial	n/a	32	n/a	n/a
11.349667	2	cue_nonsocial_high	n/a	32	n/a	n/a
13.355922	1.033642	dec_nonsocial_high	1.033642	32	n/a	16
13.355922	1.033642	dec_nonsocial_high_accept	1.033642	32	accept	16
18.183256	2	cue_nonsocial	n/a	16	n/a	n/a
18.183256	2	cue_nonsocial_low	n/a	16	n/a	n/a
20.189678	1.066328	dec_nonsocial_low	1.066328	16	n/a	2
20.189678	1.066328	dec_nonsocial_low_accept	1.066328	16	accept	2
25.927780	2	cue_social	n/a	16	n/a	n/a
25.927780	2	cue_social_low	n/a	16	n/a	n/a
27.839401	1.450531	dec_social_low	1.450531	16	n/a	2
27.839401	1.450531	dec_social_low_reject	1.450531	16	reject	2
32.745210	2	cue_social	n/a	32	n/a	n/a
32.745210	2	cue_social_high	n/a	32	n/a	n/a
34.672977	1.300241	dec_social_high	1.300241	32	n/a	16
34.672977	1.300241	dec_social_high_accept	1.300241	32	accept	16
41.989243	2	cue_social	n/a	32	n/a	n/a
41.989243	2	cue_social_high	n/a	32	n/a	n/a
43.923035	1.483255	dec_social_high	1.483255	32	n/a	8
43.923035	1.483255	dec_social_high_accept	1.483255	32	accept	8
48.749794	2	cue_nonsocial	n/a	16	n/a	n/a
48.749794	2	cue_nonsocial_low	n/a	16	n/a	n/a
50.755676	1.266777	dec_nonsocial_low	1.266777	16	n/a	8
50.755676	1.266777	dec_nonsocial_low_accept	1.266777	16	accept	8
55.656197	2	cue_social	n/a	32	n/a	n/a
55.656197	2	cue_social_high	n/a	32	n/a	n/a
57.590010	1.616173	dec_social_high	1.616173	32	n/a	2
57.590010	1.616173	dec_social_high_accept	1.616173	32	accept	2
62.416363	2	cue_nonsocial	n/a	32	n/a	n/a
62.416363	2	cue_nonsocial_high	n/a	32	n/a	n/a
64.422676	1.833592	dec_nonsocial_high	1.833592	32	n/a	3
64.422676	1.833592	dec_nonsocial_high_reject	1.833592	32	reject	3
74.899605	2	cue_nonsocial	n/a	32	n/a	n/a
74.899605	2	cue_nonsocial_high	n/a	32	n/a	n/a
76.907020	1.032630	dec_nonsocial_high	1.032630	32	n/a	16
76.907020	1.032630	dec_nonsocial_high_accept	1.032630	32	accept	16
82.593925	2	cue_social	n/a	16	n/a	n/a
82.593925	2	cue_social_low	n/a	16	n/a	n/a
84.556015	1.500179	dec_social_low	1.500179	16	n/a	4
84.556015	1.500179	dec_social_low_accept	1.500179	16	accept	4
89.383286	2	cue_nonsocial	n/a	16	n/a	n/a
89.383286	2	cue_nonsocial_low	n/a	16	n/a	n/a
91.389280	1.400293	dec_nonsocial_low	1.400293	16	n/a	4
91.389280	1.400293	dec_nonsocial_low_accept	1.400293	16	accept	4
97.016266	2	cue_nonsocial	n/a	16	n/a	n/a
97.016266	2	cue_nonsocial_low	n/a	16	n/a	n/a
99.022990	1.183272	dec_nonsocial_low	1.183272	16	n/a	1
99.022990	1.183272	dec_nonsocial_low_reject	1.183272	16	reject	1
103.849210	2	cue_nonsocial	n/a	32	n/a	n/a
103.849210	2	cue_nonsocial_high	n/a	32	n/a	n/a
105.857070	1.098746	dec_nonsocial_high	1.098746	32	n/a	8
105.857070	1.098746	dec_nonsocial_high_accept	1.098746	32	accept	8
111.561264	2	cue_social	n/a	32	n/a	n/a
111.561264	2	cue_social_high	n/a	32	n/a	n/a
113.505380	1.333931	dec_social_high	1.333931	32	n/a	2
113.505380	1.333931	dec_social_high_reject	1.333931	32	reject	2
118.408970	2	cue_social	n/a	32	n/a	n/a
118.408970	2	cue_social_high	n/a	32	n/a	n/a
120.338850	1.067312	dec_social_high	1.067312	32	n/a	16
120.338850	1.067312	dec_social_high_reject	1.067312	32	reject	16
127.582886	2	cue_nonsocial	n/a	32	n/a	n/a
127.582886	2	cue_nonsocial_high	n/a	32	n/a	n/a
129.589220	1.233642	dec_nonsocial_high	1.233642	32	n/a	3
129.589220	1.233642	dec_nonsocial_high_reject	1.233642	32	reject	3
134.416340	2	cue_nonsocial	n/a	16	n/a	n/a
134.416340	2	cue_nonsocial_low	n/a	16	n/a	n/a
136.423080	1.399476	dec_nonsocial_low	1.399476	16	n/a	4
136.423080	1.399476	dec_nonsocial_low_accept	1.399476	16	accept	4
141.249330	2	cue_nonsocial	n/a	32	n/a	n/a
141.249330	2	cue_nonsocial_high	n/a	32	n/a	n/a
143.255310	1.384234	dec_nonsocial_high	1.384234	32	n/a	2
143.255310	1.384234	dec_nonsocial_high_accept	1.384234	32	accept	2
148.082720	2	cue_nonsocial	n/a	32	n/a	n/a
148.082720	2	cue_nonsocial_high	n/a	32	n/a	n/a
150.089980	1.349504	dec_nonsocial_high	1.349504	32	n/a	2
150.089980	1.349504	dec_nonsocial_high_accept	1.349504	32	accept	2
155.798700	2	cue_social	n/a	32	n/a	n/a
155.798700	2	cue_social_high	n/a	32	n/a	n/a
157.740020	1.582872	dec_social_high	1.582872	32	n/a	2
157.740020	1.582872	dec_social_high_reject	1.582872	32	reject	2
165.057340	2	cue_social	n/a	16	n/a	n/a
165.057340	2	cue_social_low	n/a	16	n/a	n/a
167.006530	1.165748	dec_social_low	1.165748	16	n/a	1
167.006530	1.165748	dec_social_low_reject	1.165748	16	reject	1
175.865920	2	cue_nonsocial	n/a	16	n/a	n/a
175.865920	2	cue_nonsocial_low	n/a	16	n/a	n/a
177.872860	1.266144	dec_nonsocial_low	1.266144	16	n/a	1
177.872860	1.266144	dec_nonsocial_low_reject	1.266144	16	reject	1
182.773880	2	cue_social	n/a	16	n/a	n/a
182.773880	2	cue_social_low	n/a	16	n/a	n/a
184.705150	1.633571	dec_social_low	1.633571	16	n/a	1
184.705150	1.633571	dec_social_low_reject	1.633571	16	reject	1
190.349200	2	cue_nonsocial	n/a	32	n/a	n/a
190.349200	2	cue_nonsocial_high	n/a	32	n/a	n/a
192.355960	1.200010	dec_nonsocial_high	1.200010	32	n/a	2
192.355960	1.200010	dec_nonsocial_high_reject	1.200010	32	reject	2
197.999400	2	cue_nonsocial	n/a	32	n/a	n/a
197.999400	2	cue_nonsocial_high	n/a	32	n/a	n/a
200.005890	1.416375	dec_nonsocial_high	1.416375	32	n/a	8
200.005890	1.416375	dec_nonsocial_high_accept	1.416375	32	accept	8
204.881200	2	cue_social	n/a	16	n/a	n/a
204.881200	2	cue_social_low	n/a	16	n/a	n/a
206.839190	1.400345	dec_social_low	1.400345	16	n/a	4
206.839190	1.400345	dec_social_low_accept	1.400345	16	accept	4
212.559340	2	cue_social	n/a	16	n/a	n/a
212.559340	2	cue_social_low	n/a	16	n/a	n/a
214.488530	2.267376	dec_social_low	2.267376	16	n/a	2
214.488530	2.267376	dec_social_low_accept	2.267376	16	accept	2
220.116200	2	cue_nonsocial	n/a	32	n/a	n/a
220.116200	2	cue_nonsocial_high	n/a	32	n/a	n/a
222.122650	1.799910	dec_nonsocial_high	1.799910	32	n/a	3
222.122650	1.799910	dec_nonsocial_high_reject	1.799910	32	reject	3
226.949200	2	cue_nonsocial	n/a	32	n/a	n/a
226.949200	2	cue_nonsocial_high	n/a	32	n/a	n/a
228.955960	1.233212	dec_nonsocial_high	1.233212	32	n/a	8
228.955960	1.233212	dec_nonsocial_high_accept	1.233212	32	accept	8
233.845150	2	cue_social	n/a	32	n/a	n/a
233.845150	2	cue_social_high	n/a	32	n/a	n/a
235.789220	1.449982	dec_social_high	1.449982	32	n/a	2
235.789220	1.449982	dec_social_high_reject	1.449982	32	reject	2
240.684650	2	cue_social	n/a	16	n/a	n/a
240.684650	2	cue_social_low	n/a	16	n/a	n/a
242.621870	1.234083	dec_social_low	1.234083	16	n/a	8
242.621870	1.234083	dec_social_low_accept	1.234083	16	accept	8
247.506150	2	cue_social	n/a	16	n/a	n/a
247.506150	2	cue_social_low	n/a	16	n/a	n/a
249.455930	1.066248	dec_social_low	1.066248	16	n/a	8
249.455930	1.066248	dec_social_low_accept	1.066248	16	accept	8
254.283050	2	cue_nonsocial	n/a	16	n/a	n/a
254.283050	2	cue_nonsocial_low	n/a	16	n/a	n/a
256.288400	1.050635	dec_nonsocial_low	1.050635	16	n/a	8
256.288400	1.050635	dec_nonsocial_low_accept	1.050635	16	accept	8
261.932560	2	cue_nonsocial	n/a	32	n/a	n/a
261.932560	2	cue_nonsocial_high	n/a	32	n/a	n/a
263.939060	1.016071	dec_nonsocial_high	1.016071	32	n/a	16
263.939060	1.016071	dec_nonsocial_high_accept	1.016071	32	accept	16
272.799100	2	cue_nonsocial	n/a	16	n/a	n/a
272.799100	2	cue_nonsocial_low	n/a	16	n/a	n/a
274.806060	1.165798	dec_nonsocial_low	1.165798	16	n/a	8
274.806060	1.165798	dec_nonsocial_low_reject	1.165798	16	reject	8
280.491330	2	cue_social	n/a	32	n/a	n/a
280.491330	2	cue_social_high	n/a	32	n/a	n/a
282.455630	1.500123	dec_social_high	1.500123	32	n/a	3
282.455630	1.500123	dec_social_high_accept	1.500123	32	accept	3
288.152860	2	cue_social	n/a	32	n/a	n/a
288.152860	2	cue_social_high	n/a	32	n/a	n/a
290.104980	1.934257	dec_social_high	1.934257	32	n/a	16
290.104980	1.934257	dec_social_high_accept	1.934257	32	accept	16
295.732540	2	cue_nonsocial	n/a	16	n/a	n/a
295.732540	2	cue_nonsocial_low	n/a	16	n/a	n/a
297.739840	1.349255	dec_nonsocial_low	1.349255	16	n/a	1
297.739840	1.349255	dec_nonsocial_low_reject	1.349255	16	reject	1
305.039950	2	cue_social	n/a	32	n/a	n/a
305.039950	2	cue_social_high	n/a	32	n/a	n/a
306.989930	1.265518	dec_social_high	1.265518	32	n/a	3
306.989930	1.265518	dec_social_high_reject	1.265518	32	reject	3
311.815770	2	cue_nonsocial	n/a	16	n/a	n/a
311.815770	2	cue_nonsocial_low	n/a	16	n/a	n/a
313.821700	1.100658	dec_nonsocial_low	1.100658	16	n/a	4
313.821700	1.100658	dec_nonsocial_low_accept	1.100658	16	accept	4
322.739500	2	cue_social	n/a	16	n/a	n/a
322.739500	2	cue_social_low	n/a	16	n/a	n/a
324.688930	1.466366	dec_social_low	1.466366	16	n/a	2
324.688930	1.466366	dec_social_low_accept	1.466366	16	accept	2
329.515440	2	cue_nonsocial	n/a	16	n/a	n/a
329.515440	2	cue_nonsocial_low	n/a	16	n/a	n/a
331.521880	1.316712	dec_nonsocial_low	1.316712	16	n/a	2
331.521880	1.316712	dec_nonsocial_low_accept	1.316712	16	accept	2
336.405580	2	cue_social	n/a	32	n/a	n/a
336.405580	2	cue_social_high	n/a	32	n/a	n/a
338.355960	1.249343	dec_social_high	1.249343	32	n/a	3
338.355960	1.249343	dec_social_high_reject	1.249343	32	reject	3
345.667940	2	cue_social	n/a	32	n/a	n/a
345.667940	2	cue_social_high	n/a	32	n/a	n/a
347.605930	1.149776	dec_social_high	1.149776	32	n/a	8
347.605930	1.149776	dec_social_high_accept	1.149776	32	accept	8
354.903470	2	cue_social	n/a	32	n/a	n/a
354.903470	2	cue_social_high	n/a	32	n/a	n/a
356.855040	1.334054	dec_social_high	1.334054	32	n/a	16
356.855040	1.334054	dec_social_high_accept	1.334054	32	accept	16
364.145300	2	cue_social	n/a	16	n/a	n/a
364.145300	2	cue_social_low	n/a	16	n/a	n/a
366.104950	1.150527	dec_social_low	1.150527	16	n/a	4
366.104950	1.150527	dec_social_low_accept	1.150527	16	accept	4
370.932040	2	cue_nonsocial	n/a	16	n/a	n/a
370.932040	2	cue_nonsocial_low	n/a	16	n/a	n/a
372.938350	1.283894	dec_nonsocial_low	1.283894	16	n/a	2
372.938350	1.283894	dec_nonsocial_low_reject	1.283894	16	reject	2
