onset	duration	trial_type	response_time	Endowment	Endowment_pmod	Decision	Decision_pmod	Offer_pmod
4.596118	2	cue_social	n/a	16	-8	n/a	n/a	n/a
4.596118	2	cue_social_low	n/a	16	-9	n/a	n/a	n/a
12.146230	2	cue_nonsocial	n/a	32	7	n/a	n/a	n/a
12.146230	2	cue_nonsocial_high	n/a	32	8	n/a	n/a	n/a
18.978470	2	cue_nonsocial	n/a	32	7	n/a	n/a	n/a
18.978470	2	cue_nonsocial_high	n/a	32	8	n/a	n/a	n/a
25.812939	2	cue_nonsocial	n/a	16	-9	n/a	n/a	n/a
25.812939	2	cue_nonsocial_low	n/a	16	-8	n/a	n/a	n/a
32.726604	2	cue_social	n/a	32	8	n/a	n/a	n/a
32.726604	2	cue_social_high	n/a	32	7	n/a	n/a	n/a
39.566566	2	cue_social	n/a	16	-8	n/a	n/a	n/a
39.566566	2	cue_social_low	n/a	16	-9	n/a	n/a	n/a
46.428917	2	cue_social	n/a	32	8	n/a	n/a	n/a
46.428917	2	cue_social_high	n/a	32	7	n/a	n/a	n/a
53.145830	2	cue_nonsocial	n/a	16	-9	n/a	n/a	n/a
53.145830	2	cue_nonsocial_low	n/a	16	-8	n/a	n/a	n/a
60.795864	2	cue_nonsocial	n/a	32	7	n/a	n/a	n/a
60.795864	2	cue_nonsocial_high	n/a	32	8	n/a	n/a	n/a
67.719925	2	cue_social	n/a	32	8	n/a	n/a	n/a
67.719925	2	cue_social_high	n/a	32	7	n/a	n/a	n/a
75.280430	2	cue_nonsocial	n/a	16	-9	n/a	n/a	n/a
75.280430	2	cue_nonsocial_low	n/a	16	-8	n/a	n/a	n/a
83.011030	2	cue_social	n/a	16	-8	n/a	n/a	n/a
83.011030	2	cue_social_low	n/a	16	-9	n/a	n/a	n/a
89.885790	2	cue_social	n/a	32	8	n/a	n/a	n/a
89.885790	2	cue_social_high	n/a	32	7	n/a	n/a	n/a
102.245730	2	cue_nonsocial	n/a	16	-9	n/a	n/a	n/a
102.245730	2	cue_nonsocial_low	n/a	16	-8	n/a	n/a	n/a
111.583400	2	cue_social	n/a	16	-8	n/a	n/a	n/a
111.583400	2	cue_social_low	n/a	16	-9	n/a	n/a	n/a
118.470400	2	cue_social	n/a	32	8	n/a	n/a	n/a
118.470400	2	cue_social_high	n/a	32	7	n/a	n/a	n/a
125.293015	2	cue_social	n/a	16	-8	n/a	n/a	n/a
125.293015	2	cue_social_low	n/a	16	-9	n/a	n/a	n/a
132.079540	2	cue_social	n/a	32	8	n/a	n/a	n/a
132.079540	2	cue_social_high	n/a	32	7	n/a	n/a	n/a
138.933000	2	cue_social	n/a	32	8	n/a	n/a	n/a
138.933000	2	cue_social_high	n/a	32	7	n/a	n/a	n/a
145.764920	2	cue_social	n/a	32	8	n/a	n/a	n/a
145.764920	2	cue_social_high	n/a	32	7	n/a	n/a	n/a
154.929050	2	cue_nonsocial	n/a	16	-9	n/a	n/a	n/a
154.929050	2	cue_nonsocial_low	n/a	16	-8	n/a	n/a	n/a
164.178440	2	cue_nonsocial	n/a	32	7	n/a	n/a	n/a
164.178440	2	cue_nonsocial_high	n/a	32	8	n/a	n/a	n/a
171.828780	2	cue_nonsocial	n/a	32	7	n/a	n/a	n/a
171.828780	2	cue_nonsocial_high	n/a	32	8	n/a	n/a	n/a
178.661830	2	cue_nonsocial	n/a	32	7	n/a	n/a	n/a
178.661830	2	cue_nonsocial_high	n/a	32	8	n/a	n/a	n/a
185.549040	2	cue_social	n/a	32	8	n/a	n/a	n/a
185.549040	2	cue_social_high	n/a	32	7	n/a	n/a	n/a
192.328770	2	cue_nonsocial	n/a	16	-9	n/a	n/a	n/a
192.328770	2	cue_nonsocial_low	n/a	16	-8	n/a	n/a	n/a
199.162370	2	cue_nonsocial	n/a	32	7	n/a	n/a	n/a
199.162370	2	cue_nonsocial_high	n/a	32	8	n/a	n/a	n/a
206.053250	2	cue_social	n/a	16	-8	n/a	n/a	n/a
206.053250	2	cue_social_low	n/a	16	-9	n/a	n/a	n/a
213.709800	2	cue_social	n/a	32	8	n/a	n/a	n/a
213.709800	2	cue_social_high	n/a	32	7	n/a	n/a	n/a
221.295490	2	cue_nonsocial	n/a	32	7	n/a	n/a	n/a
221.295490	2	cue_nonsocial_high	n/a	32	8	n/a	n/a	n/a
230.561890	2	cue_nonsocial	n/a	16	-9	n/a	n/a	n/a
230.561890	2	cue_nonsocial_low	n/a	16	-8	n/a	n/a	n/a
239.811860	2	cue_nonsocial	n/a	32	7	n/a	n/a	n/a
239.811860	2	cue_nonsocial_high	n/a	32	8	n/a	n/a	n/a
247.461880	2	cue_nonsocial	n/a	32	7	n/a	n/a	n/a
247.461880	2	cue_nonsocial_high	n/a	32	8	n/a	n/a	n/a
254.295430	2	cue_nonsocial	n/a	16	-9	n/a	n/a	n/a
254.295430	2	cue_nonsocial_low	n/a	16	-8	n/a	n/a	n/a
265.162260	2	cue_nonsocial	n/a	16	-9	n/a	n/a	n/a
265.162260	2	cue_nonsocial_low	n/a	16	-8	n/a	n/a	n/a
272.101470	2	cue_social	n/a	16	-8	n/a	n/a	n/a
272.101470	2	cue_social_low	n/a	16	-9	n/a	n/a	n/a
282.932680	2	cue_social	n/a	16	-8	n/a	n/a	n/a
282.932680	2	cue_social_low	n/a	16	-9	n/a	n/a	n/a
289.695220	2	cue_nonsocial	n/a	32	7	n/a	n/a	n/a
289.695220	2	cue_nonsocial_high	n/a	32	8	n/a	n/a	n/a
297.407700	2	cue_social	n/a	32	8	n/a	n/a	n/a
297.407700	2	cue_social_high	n/a	32	7	n/a	n/a	n/a
306.669200	2	cue_social	n/a	16	-8	n/a	n/a	n/a
306.669200	2	cue_social_low	n/a	16	-9	n/a	n/a	n/a
313.488680	2	cue_social	n/a	16	-8	n/a	n/a	n/a
313.488680	2	cue_social_low	n/a	16	-9	n/a	n/a	n/a
321.119840	2	cue_social	n/a	16	-8	n/a	n/a	n/a
321.119840	2	cue_social_low	n/a	16	-9	n/a	n/a	n/a
330.328520	2	cue_nonsocial	n/a	16	-9	n/a	n/a	n/a
330.328520	2	cue_nonsocial_low	n/a	16	-8	n/a	n/a	n/a
338.003800	2	cue_social	n/a	16	-8	n/a	n/a	n/a
338.003800	2	cue_social_low	n/a	16	-9	n/a	n/a	n/a
345.611570	2	cue_nonsocial	n/a	32	7	n/a	n/a	n/a
345.611570	2	cue_nonsocial_high	n/a	32	8	n/a	n/a	n/a
352.445040	2	cue_nonsocial	n/a	16	-9	n/a	n/a	n/a
352.445040	2	cue_nonsocial_low	n/a	16	-8	n/a	n/a	n/a
359.347260	2	cue_social	n/a	32	8	n/a	n/a	n/a
359.347260	2	cue_social_high	n/a	32	7	n/a	n/a	n/a
370.145050	2	cue_nonsocial	n/a	32	7	n/a	n/a	n/a
370.145050	2	cue_nonsocial_high	n/a	32	8	n/a	n/a	n/a
6.518095	1.867555	dec_social_choice	1.867555	16.000000	n/a	4	1.888021e-02	1.888021e-02
6.518095	1.867555	dec_choice	1.867555	16.000000	n/a	4	1.822917e-02	1.822917e-02
6.518095	1.867555	dec_social_accept	1.867555	16.000000	n/a	4	-7.031250e-03	-7.031250e-03
6.518095	1.867555	dec_accept	1.867555	16.000000	n/a	4	-2.976190e-03	-2.976190e-03
6.518095	1.867555	dec_social_accept_high	1.867555	16.000000	n/a	4	1.822917e-02	1.822917e-02
14.152579	2.149820	dec_nonsocial_choice	2.149820	32.000000	n/a	16	2.688802e-01	2.688802e-01
14.152579	2.149820	dec_choice	2.149820	32.000000	n/a	16	2.695312e-01	2.695312e-01
14.152579	2.149820	dec_nonsocial_accept	2.149820	32.000000	n/a	16	2.429688e-01	2.429688e-01
14.152579	2.149820	dec_accept	2.149820	32.000000	n/a	16	2.384868e-01	2.384868e-01
14.152579	2.149820	dec_nonsocial_high	2.149820	32.000000	n/a	16	2.695312e-01	2.695312e-01
14.152579	2.149820	dec_nonsocial_accept_high	2.149820	32.000000	n/a	16	2.384868e-01	2.384868e-01
20.985254	1.516590	dec_nonsocial_choice	1.516590	32.000000	n/a	8	1.888021e-02	1.888021e-02
20.985254	1.516590	dec_choice	1.516590	32.000000	n/a	8	1.953125e-02	1.953125e-02
20.985254	1.516590	dec_nonsocial_accept	1.516590	32.000000	n/a	8	-7.031250e-03	-7.031250e-03
20.985254	1.516590	dec_accept	1.516590	32.000000	n/a	8	-1.151316e-02	-1.151316e-02
20.985254	1.516590	dec_nonsocial_high	1.516590	32.000000	n/a	8	1.953125e-02	1.953125e-02
20.985254	1.516590	dec_nonsocial_accept_high	1.516590	32.000000	n/a	8	-1.151316e-02	-1.151316e-02
27.820028	1.815007	dec_nonsocial_choice	1.815007	16.000000	n/a	2	-1.061198e-01	-1.061198e-01
27.820028	1.815007	dec_choice	1.815007	16.000000	n/a	2	-1.054688e-01	-1.054688e-01
27.820028	1.815007	dec_nonsocial_accept	1.815007	16.000000	n/a	2	-1.320312e-01	-1.320312e-01
27.820028	1.815007	dec_accept	1.815007	16.000000	n/a	2	-1.365132e-01	-1.365132e-01
27.820028	1.815007	dec_nonsocial_low	1.815007	16.000000	n/a	2	-1.054688e-01	-1.054688e-01
27.820028	1.815007	dec_nonsocial_accept_low	1.815007	16.000000	n/a	2	-1.365132e-01	-1.365132e-01
34.652252	1.682929	dec_social_choice	1.682929	32.000000	n/a	3	-1.373698e-01	-1.373698e-01
34.652252	1.682929	dec_choice	1.682929	32.000000	n/a	3	-1.380208e-01	-1.380208e-01
34.652252	1.682929	dec_social_accept	1.682929	32.000000	n/a	3	-1.632812e-01	-1.632812e-01
34.652252	1.682929	dec_accept	1.682929	32.000000	n/a	3	-1.592262e-01	-1.592262e-01
34.652252	1.682929	dec_social_accept_low	1.682929	32.000000	n/a	3	-1.380208e-01	-1.380208e-01
41.485615	1.532776	dec_social_choice	1.532776	16.000000	n/a	0	0	-2.311198e-01
41.485615	1.532776	dec_choice	1.532776	16.000000	n/a	0	0	-2.317708e-01
41.485615	1.532776	dec_social_reject	1.532776	16.000000	n/a	0	0	2.343750e-02
41.485615	1.532776	dec_reject	1.532776	16.000000	n/a	0	0	4.166667e-02
41.485615	1.532776	dec_social_reject_low	1.532776	16.000000	n/a	2	-1.067708e-01	-2.317708e-01
48.319740	1.765338	dec_social_choice	1.765338	32.000000	n/a	8	1.888021e-02	1.888021e-02
48.319740	1.765338	dec_choice	1.765338	32.000000	n/a	8	1.822917e-02	1.822917e-02
48.319740	1.765338	dec_social_accept	1.765338	32.000000	n/a	8	-7.031250e-03	-7.031250e-03
48.319740	1.765338	dec_accept	1.765338	32.000000	n/a	8	-2.976190e-03	-2.976190e-03
48.319740	1.765338	dec_social_accept_high	1.765338	32.000000	n/a	8	1.822917e-02	1.822917e-02
55.152890	1.765435	dec_nonsocial_choice	1.765435	16.000000	n/a	0	0	-2.311198e-01
55.152890	1.765435	dec_choice	1.765435	16.000000	n/a	0	0	-2.304688e-01
55.152890	1.765435	dec_nonsocial_reject	1.765435	16.000000	n/a	0	0	2.343750e-02
55.152890	1.765435	dec_reject	1.765435	16.000000	n/a	0	0	1.250000e-02
55.152890	1.765435	dec_nonsocial_low	1.765435	16.000000	n/a	0	-2.304688e-01	-2.304688e-01
55.152890	1.765435	dec_nonsocial_reject_low	1.765435	16.000000	n/a	2	1.250000e-02	-1.125000e-01
62.802208	1.516315	dec_nonsocial_choice	1.516315	32.000000	n/a	2	-1.686198e-01	-1.686198e-01
62.802208	1.516315	dec_choice	1.516315	32.000000	n/a	2	-1.679688e-01	-1.679688e-01
62.802208	1.516315	dec_nonsocial_accept	1.516315	32.000000	n/a	2	-1.945312e-01	-1.945312e-01
62.802208	1.516315	dec_accept	1.516315	32.000000	n/a	2	-1.990132e-01	-1.990132e-01
62.802208	1.516315	dec_nonsocial_accept_low	1.516315	32.000000	n/a	2	-1.904762e-01	-1.904762e-01
69.635414	1.533414	dec_social_choice	1.533414	32.000000	n/a	16	2.688802e-01	2.688802e-01
69.635414	1.533414	dec_choice	1.533414	32.000000	n/a	16	2.682292e-01	2.682292e-01
69.635414	1.533414	dec_social_accept	1.533414	32.000000	n/a	16	2.429688e-01	2.429688e-01
69.635414	1.533414	dec_accept	1.533414	32.000000	n/a	16	2.470238e-01	2.470238e-01
69.635414	1.533414	dec_social_accept_high	1.533414	32.000000	n/a	16	2.682292e-01	2.682292e-01
77.286270	1.732685	dec_nonsocial_choice	1.732685	16.000000	n/a	0	0	-2.311198e-01
77.286270	1.732685	dec_choice	1.732685	16.000000	n/a	0	0	-2.304688e-01
77.286270	1.732685	dec_nonsocial_reject	1.732685	16.000000	n/a	0	0	1.484375e-01
77.286270	1.732685	dec_reject	1.732685	16.000000	n/a	0	0	1.375000e-01
77.286270	1.732685	dec_nonsocial_reject_low	1.732685	16.000000	n/a	4	1.666667e-01	-8.333333e-02
84.935646	1.949797	dec_social_choice	1.949797	16.000000	n/a	1	-1.686198e-01	-1.686198e-01
84.935646	1.949797	dec_choice	1.949797	16.000000	n/a	1	-1.692708e-01	-1.692708e-01
84.935646	1.949797	dec_social_accept	1.949797	16.000000	n/a	1	-1.945312e-01	-1.945312e-01
84.935646	1.949797	dec_accept	1.949797	16.000000	n/a	1	-1.904762e-01	-1.904762e-01
84.935646	1.949797	dec_social_accept_low	1.949797	16.000000	n/a	1	-1.692708e-01	-1.692708e-01
91.767815	1.133764	dec_social_choice	1.133764	32.000000	n/a	16	2.688802e-01	2.688802e-01
91.767815	1.133764	dec_choice	1.133764	32.000000	n/a	16	2.682292e-01	2.682292e-01
91.767815	1.133764	dec_social_accept	1.133764	32.000000	n/a	16	2.429688e-01	2.429688e-01
91.767815	1.133764	dec_accept	1.133764	32.000000	n/a	16	2.470238e-01	2.470238e-01
91.767815	1.133764	dec_social_accept_high	1.133764	32.000000	n/a	16	2.682292e-01	2.682292e-01
104.252070	1.133425	dec_nonsocial_choice	1.133425	16.000000	n/a	1	-1.686198e-01	-1.686198e-01
104.252070	1.133425	dec_choice	1.133425	16.000000	n/a	1	-1.679688e-01	-1.679688e-01
104.252070	1.133425	dec_nonsocial_accept	1.133425	16.000000	n/a	1	-1.945312e-01	-1.945312e-01
104.252070	1.133425	dec_accept	1.133425	16.000000	n/a	1	-1.990132e-01	-1.990132e-01
104.252070	1.133425	dec_nonsocial_low	1.133425	16.000000	n/a	1	-1.679688e-01	-1.679688e-01
104.252070	1.133425	dec_nonsocial_accept_low	1.133425	16.000000	n/a	1	-1.990132e-01	-1.990132e-01
113.518570	1.799965	dec_social_choice	1.799965	16.000000	n/a	8	2.688802e-01	2.688802e-01
113.518570	1.799965	dec_choice	1.799965	16.000000	n/a	8	2.682292e-01	2.682292e-01
113.518570	1.799965	dec_social_accept	1.799965	16.000000	n/a	8	2.429688e-01	2.429688e-01
113.518570	1.799965	dec_accept	1.799965	16.000000	n/a	8	2.470238e-01	2.470238e-01
113.518570	1.799965	dec_social_high	1.799965	16.000000	n/a	8	2.682292e-01	2.682292e-01
113.518570	1.799965	dec_social_accept_high	1.799965	16.000000	n/a	8	2.682292e-01	2.682292e-01
120.351400	1.450669	dec_social_choice	1.450669	32.000000	n/a	8	1.888021e-02	1.888021e-02
120.351400	1.450669	dec_choice	1.450669	32.000000	n/a	8	1.822917e-02	1.822917e-02
120.351400	1.450669	dec_social_accept	1.450669	32.000000	n/a	8	-7.031250e-03	-7.031250e-03
120.351400	1.450669	dec_accept	1.450669	32.000000	n/a	8	-2.976190e-03	-2.976190e-03
120.351400	1.450669	dec_social_high	1.450669	32.000000	n/a	8	1.822917e-02	1.822917e-02
120.351400	1.450669	dec_social_accept_high	1.450669	32.000000	n/a	8	1.822917e-02	1.822917e-02
127.185090	2.033652	dec_social_choice	2.033652	16.000000	n/a	2	-1.061198e-01	-1.061198e-01
127.185090	2.033652	dec_choice	2.033652	16.000000	n/a	2	-1.067708e-01	-1.067708e-01
127.185090	2.033652	dec_social_accept	2.033652	16.000000	n/a	2	-1.320312e-01	-1.320312e-01
127.185090	2.033652	dec_accept	2.033652	16.000000	n/a	2	-1.279762e-01	-1.279762e-01
127.185090	2.033652	dec_social_low	2.033652	16.000000	n/a	2	-1.067708e-01	-1.067708e-01
127.185090	2.033652	dec_social_accept_low	2.033652	16.000000	n/a	2	-1.067708e-01	-1.067708e-01
134.019030	2.116006	dec_social_choice	2.116006	32.000000	n/a	2	-1.686198e-01	-1.686198e-01
134.019030	2.116006	dec_choice	2.116006	32.000000	n/a	2	-1.692708e-01	-1.692708e-01
134.019030	2.116006	dec_social_accept	2.116006	32.000000	n/a	2	-1.945312e-01	-1.945312e-01
134.019030	2.116006	dec_accept	2.116006	32.000000	n/a	2	-1.904762e-01	-1.904762e-01
134.019030	2.116006	dec_social_accept_low	2.116006	32.000000	n/a	2	-1.692708e-01	-1.692708e-01
140.852190	1.849800	dec_social_choice	1.849800	32.000000	n/a	16	2.688802e-01	2.688802e-01
140.852190	1.849800	dec_choice	1.849800	32.000000	n/a	16	2.682292e-01	2.682292e-01
140.852190	1.849800	dec_social_accept	1.849800	32.000000	n/a	16	2.429688e-01	2.429688e-01
140.852190	1.849800	dec_accept	1.849800	32.000000	n/a	16	2.470238e-01	2.470238e-01
140.852190	1.849800	dec_social_high	1.849800	32.000000	n/a	16	2.682292e-01	2.682292e-01
140.852190	1.849800	dec_social_accept_high	1.849800	32.000000	n/a	16	2.682292e-01	2.682292e-01
147.685130	1.967015	dec_social_choice	1.967015	32.000000	n/a	3	-1.373698e-01	-1.373698e-01
147.685130	1.967015	dec_choice	1.967015	32.000000	n/a	3	-1.380208e-01	-1.380208e-01
147.685130	1.967015	dec_social_accept	1.967015	32.000000	n/a	3	-1.632812e-01	-1.632812e-01
147.685130	1.967015	dec_accept	1.967015	32.000000	n/a	3	-1.592262e-01	-1.592262e-01
147.685130	1.967015	dec_social_accept_low	1.967015	32.000000	n/a	3	-1.380208e-01	-1.380208e-01
156.936020	1.482453	dec_nonsocial_choice	1.482453	16.000000	n/a	8	2.688802e-01	2.688802e-01
156.936020	1.482453	dec_choice	1.482453	16.000000	n/a	8	2.695312e-01	2.695312e-01
156.936020	1.482453	dec_nonsocial_accept	1.482453	16.000000	n/a	8	2.429688e-01	2.429688e-01
156.936020	1.482453	dec_accept	1.482453	16.000000	n/a	8	2.384868e-01	2.384868e-01
156.936020	1.482453	dec_nonsocial_accept_high	1.482453	16.000000	n/a	8	2.470238e-01	2.470238e-01
166.185130	1.266412	dec_nonsocial_choice	1.266412	32.000000	n/a	3	-1.373698e-01	-1.373698e-01
166.185130	1.266412	dec_choice	1.266412	32.000000	n/a	3	-1.367188e-01	-1.367188e-01
166.185130	1.266412	dec_nonsocial_accept	1.266412	32.000000	n/a	3	-1.632812e-01	-1.632812e-01
166.185130	1.266412	dec_accept	1.266412	32.000000	n/a	3	-1.677632e-01	-1.677632e-01
166.185130	1.266412	dec_nonsocial_low	1.266412	32.000000	n/a	3	-1.367188e-01	-1.367188e-01
166.185130	1.266412	dec_nonsocial_accept_low	1.266412	32.000000	n/a	3	-1.677632e-01	-1.677632e-01
173.835590	1.965801	dec_nonsocial_choice	1.965801	32.000000	n/a	3	-1.373698e-01	-1.373698e-01
173.835590	1.965801	dec_choice	1.965801	32.000000	n/a	3	-1.367188e-01	-1.367188e-01
173.835590	1.965801	dec_nonsocial_accept	1.965801	32.000000	n/a	3	-1.632812e-01	-1.632812e-01
173.835590	1.965801	dec_accept	1.965801	32.000000	n/a	3	-1.677632e-01	-1.677632e-01
173.835590	1.965801	dec_nonsocial_accept_low	1.965801	32.000000	n/a	3	-1.592262e-01	-1.592262e-01
180.669040	1.565920	dec_nonsocial_choice	1.565920	32.000000	n/a	8	1.888021e-02	1.888021e-02
180.669040	1.565920	dec_choice	1.565920	32.000000	n/a	8	1.953125e-02	1.953125e-02
180.669040	1.565920	dec_nonsocial_accept	1.565920	32.000000	n/a	8	-7.031250e-03	-7.031250e-03
180.669040	1.565920	dec_accept	1.565920	32.000000	n/a	8	-1.151316e-02	-1.151316e-02
180.669040	1.565920	dec_nonsocial_accept_high	1.565920	32.000000	n/a	8	-2.976190e-03	-2.976190e-03
187.503040	1.682167	dec_social_choice	1.682167	32.000000	n/a	2	-1.686198e-01	-1.686198e-01
187.503040	1.682167	dec_choice	1.682167	32.000000	n/a	2	-1.692708e-01	-1.692708e-01
187.503040	1.682167	dec_social_accept	1.682167	32.000000	n/a	2	-1.945312e-01	-1.945312e-01
187.503040	1.682167	dec_accept	1.682167	32.000000	n/a	2	-1.904762e-01	-1.904762e-01
187.503040	1.682167	dec_social_low	1.682167	32.000000	n/a	2	-1.692708e-01	-1.692708e-01
187.503040	1.682167	dec_social_accept_low	1.682167	32.000000	n/a	2	-1.692708e-01	-1.692708e-01
194.335140	1.266241	dec_nonsocial_choice	1.266241	16.000000	n/a	4	1.888021e-02	1.888021e-02
194.335140	1.266241	dec_choice	1.266241	16.000000	n/a	4	1.953125e-02	1.953125e-02
194.335140	1.266241	dec_nonsocial_accept	1.266241	16.000000	n/a	4	-7.031250e-03	-7.031250e-03
194.335140	1.266241	dec_accept	1.266241	16.000000	n/a	4	-1.151316e-02	-1.151316e-02
194.335140	1.266241	dec_nonsocial_accept_high	1.266241	16.000000	n/a	4	-2.976190e-03	-2.976190e-03
201.168050	1.383854	dec_nonsocial_choice	1.383854	32.000000	n/a	0	0	-2.311198e-01
201.168050	1.383854	dec_choice	1.383854	32.000000	n/a	0	0	-2.304688e-01
201.168050	1.383854	dec_nonsocial_reject	1.383854	32.000000	n/a	0	0	-3.906250e-02
201.168050	1.383854	dec_reject	1.383854	32.000000	n/a	0	0	-5.000000e-02
201.168050	1.383854	dec_nonsocial_reject_low	1.383854	32.000000	n/a	2	-2.083333e-02	-8.333333e-02
208.002030	1.249666	dec_social_choice	1.249666	16.000000	n/a	2	-1.061198e-01	-1.061198e-01
208.002030	1.249666	dec_choice	1.249666	16.000000	n/a	2	-1.067708e-01	-1.067708e-01
208.002030	1.249666	dec_social_accept	1.249666	16.000000	n/a	2	-1.320312e-01	-1.320312e-01
208.002030	1.249666	dec_accept	1.249666	16.000000	n/a	2	-1.279762e-01	-1.279762e-01
208.002030	1.249666	dec_social_accept_low	1.249666	16.000000	n/a	2	-1.067708e-01	-1.067708e-01
215.652540	1.199330	dec_social_choice	1.199330	32.000000	n/a	2	-1.686198e-01	-1.686198e-01
215.652540	1.199330	dec_choice	1.199330	32.000000	n/a	2	-1.692708e-01	-1.692708e-01
215.652540	1.199330	dec_social_accept	1.199330	32.000000	n/a	2	-1.945312e-01	-1.945312e-01
215.652540	1.199330	dec_accept	1.199330	32.000000	n/a	2	-1.904762e-01	-1.904762e-01
215.652540	1.199330	dec_social_accept_low	1.199330	32.000000	n/a	2	-1.692708e-01	-1.692708e-01
223.301060	1.016967	dec_nonsocial_choice	1.016967	32.000000	n/a	16	2.688802e-01	2.688802e-01
223.301060	1.016967	dec_choice	1.016967	32.000000	n/a	16	2.695312e-01	2.695312e-01
223.301060	1.016967	dec_nonsocial_accept	1.016967	32.000000	n/a	16	2.429688e-01	2.429688e-01
223.301060	1.016967	dec_accept	1.016967	32.000000	n/a	16	2.384868e-01	2.384868e-01
223.301060	1.016967	dec_nonsocial_accept_high	1.016967	32.000000	n/a	16	2.470238e-01	2.470238e-01
232.568710	1.350464	dec_nonsocial_choice	1.350464	16.000000	n/a	2	-1.061198e-01	-1.061198e-01
232.568710	1.350464	dec_choice	1.350464	16.000000	n/a	2	-1.054688e-01	-1.054688e-01
232.568710	1.350464	dec_nonsocial_accept	1.350464	16.000000	n/a	2	-1.320312e-01	-1.320312e-01
232.568710	1.350464	dec_accept	1.350464	16.000000	n/a	2	-1.365132e-01	-1.365132e-01
232.568710	1.350464	dec_nonsocial_accept_low	1.350464	16.000000	n/a	2	-1.279762e-01	-1.279762e-01
241.819490	1.432347	dec_nonsocial_choice	1.432347	32.000000	n/a	2	-1.686198e-01	-1.686198e-01
241.819490	1.432347	dec_choice	1.432347	32.000000	n/a	2	-1.679688e-01	-1.679688e-01
241.819490	1.432347	dec_nonsocial_accept	1.432347	32.000000	n/a	2	-1.945312e-01	-1.945312e-01
241.819490	1.432347	dec_accept	1.432347	32.000000	n/a	2	-1.990132e-01	-1.990132e-01
241.819490	1.432347	dec_nonsocial_low	1.432347	32.000000	n/a	2	-1.679688e-01	-1.679688e-01
241.819490	1.432347	dec_nonsocial_accept_low	1.432347	32.000000	n/a	2	-1.990132e-01	-1.990132e-01
249.468780	1.516051	dec_nonsocial_choice	1.516051	32.000000	n/a	8	1.888021e-02	1.888021e-02
249.468780	1.516051	dec_choice	1.516051	32.000000	n/a	8	1.953125e-02	1.953125e-02
249.468780	1.516051	dec_nonsocial_accept	1.516051	32.000000	n/a	8	-7.031250e-03	-7.031250e-03
249.468780	1.516051	dec_accept	1.516051	32.000000	n/a	8	-1.151316e-02	-1.151316e-02
249.468780	1.516051	dec_nonsocial_high	1.516051	32.000000	n/a	8	1.953125e-02	1.953125e-02
249.468780	1.516051	dec_nonsocial_accept_high	1.516051	32.000000	n/a	8	-1.151316e-02	-1.151316e-02
256.301330	1.166515	dec_nonsocial_choice	1.166515	16.000000	n/a	8	2.688802e-01	2.688802e-01
256.301330	1.166515	dec_choice	1.166515	16.000000	n/a	8	2.695312e-01	2.695312e-01
256.301330	1.166515	dec_nonsocial_accept	1.166515	16.000000	n/a	8	2.429688e-01	2.429688e-01
256.301330	1.166515	dec_accept	1.166515	16.000000	n/a	8	2.384868e-01	2.384868e-01
256.301330	1.166515	dec_nonsocial_high	1.166515	16.000000	n/a	8	2.695312e-01	2.695312e-01
256.301330	1.166515	dec_nonsocial_accept_high	1.166515	16.000000	n/a	8	2.384868e-01	2.384868e-01
267.168950	1.532935	dec_nonsocial_choice	1.532935	16.000000	n/a	8	2.688802e-01	2.688802e-01
267.168950	1.532935	dec_choice	1.532935	16.000000	n/a	8	2.695312e-01	2.695312e-01
267.168950	1.532935	dec_nonsocial_accept	1.532935	16.000000	n/a	8	2.429688e-01	2.429688e-01
267.168950	1.532935	dec_accept	1.532935	16.000000	n/a	8	2.384868e-01	2.384868e-01
267.168950	1.532935	dec_nonsocial_high	1.532935	16.000000	n/a	8	2.695312e-01	2.695312e-01
267.168950	1.532935	dec_nonsocial_accept_high	1.532935	16.000000	n/a	8	2.384868e-01	2.384868e-01
274.002100	1.665582	dec_social_choice	1.665582	16.000000	n/a	0	0	-2.311198e-01
274.002100	1.665582	dec_choice	1.665582	16.000000	n/a	0	0	-2.317708e-01
274.002100	1.665582	dec_social_reject	1.665582	16.000000	n/a	0	0	-3.906250e-02
274.002100	1.665582	dec_reject	1.665582	16.000000	n/a	0	0	-2.083333e-02
274.002100	1.665582	dec_social_low	1.665582	16.000000	n/a	0	-2.317708e-01	-2.317708e-01
274.002100	1.665582	dec_social_reject_low	1.665582	16.000000	n/a	1	-1.692708e-01	-2.317708e-01
284.867830	1.234173	dec_social_choice	1.234173	16.000000	n/a	8	2.688802e-01	2.688802e-01
284.867830	1.234173	dec_choice	1.234173	16.000000	n/a	8	2.682292e-01	2.682292e-01
284.867830	1.234173	dec_social_accept	1.234173	16.000000	n/a	8	2.429688e-01	2.429688e-01
284.867830	1.234173	dec_accept	1.234173	16.000000	n/a	8	2.470238e-01	2.470238e-01
284.867830	1.234173	dec_social_high	1.234173	16.000000	n/a	8	2.682292e-01	2.682292e-01
284.867830	1.234173	dec_social_accept_high	1.234173	16.000000	n/a	8	2.682292e-01	2.682292e-01
291.702000	1.349946	dec_nonsocial_choice	1.349946	32.000000	n/a	8	1.888021e-02	1.888021e-02
291.702000	1.349946	dec_choice	1.349946	32.000000	n/a	8	1.953125e-02	1.953125e-02
291.702000	1.349946	dec_nonsocial_accept	1.349946	32.000000	n/a	8	-7.031250e-03	-7.031250e-03
291.702000	1.349946	dec_accept	1.349946	32.000000	n/a	8	-1.151316e-02	-1.151316e-02
291.702000	1.349946	dec_nonsocial_high	1.349946	32.000000	n/a	8	1.953125e-02	1.953125e-02
291.702000	1.349946	dec_nonsocial_accept_high	1.349946	32.000000	n/a	8	-1.151316e-02	-1.151316e-02
299.351350	1.233951	dec_social_choice	1.233951	32.000000	n/a	8	1.888021e-02	1.888021e-02
299.351350	1.233951	dec_choice	1.233951	32.000000	n/a	8	1.822917e-02	1.822917e-02
299.351350	1.233951	dec_social_accept	1.233951	32.000000	n/a	8	-7.031250e-03	-7.031250e-03
299.351350	1.233951	dec_accept	1.233951	32.000000	n/a	8	-2.976190e-03	-2.976190e-03
299.351350	1.233951	dec_social_high	1.233951	32.000000	n/a	8	1.822917e-02	1.822917e-02
299.351350	1.233951	dec_social_accept_high	1.233951	32.000000	n/a	8	1.822917e-02	1.822917e-02
308.600900	1.683828	dec_social_choice	1.683828	16.000000	n/a	2	-1.061198e-01	-1.061198e-01
308.600900	1.683828	dec_choice	1.683828	16.000000	n/a	2	-1.067708e-01	-1.067708e-01
308.600900	1.683828	dec_social_accept	1.683828	16.000000	n/a	2	-1.320312e-01	-1.320312e-01
308.600900	1.683828	dec_accept	1.683828	16.000000	n/a	2	-1.279762e-01	-1.279762e-01
308.600900	1.683828	dec_social_accept_low	1.683828	16.000000	n/a	2	-1.067708e-01	-1.067708e-01
315.434840	1.500252	dec_social_choice	1.500252	16.000000	n/a	8	2.688802e-01	2.688802e-01
315.434840	1.500252	dec_choice	1.500252	16.000000	n/a	8	2.682292e-01	2.682292e-01
315.434840	1.500252	dec_social_accept	1.500252	16.000000	n/a	8	2.429688e-01	2.429688e-01
315.434840	1.500252	dec_accept	1.500252	16.000000	n/a	8	2.470238e-01	2.470238e-01
315.434840	1.500252	dec_social_high	1.500252	16.000000	n/a	8	2.682292e-01	2.682292e-01
315.434840	1.500252	dec_social_accept_high	1.500252	16.000000	n/a	8	2.682292e-01	2.682292e-01
323.069950	1.432230	dec_social_choice	1.432230	16.000000	n/a	4	1.888021e-02	1.888021e-02
323.069950	1.432230	dec_choice	1.432230	16.000000	n/a	4	1.822917e-02	1.822917e-02
323.069950	1.432230	dec_social_accept	1.432230	16.000000	n/a	4	-7.031250e-03	-7.031250e-03
323.069950	1.432230	dec_accept	1.432230	16.000000	n/a	4	-2.976190e-03	-2.976190e-03
323.069950	1.432230	dec_social_accept_high	1.432230	16.000000	n/a	4	1.822917e-02	1.822917e-02
332.335000	1.350319	dec_nonsocial_choice	1.350319	16.000000	n/a	8	2.688802e-01	2.688802e-01
332.335000	1.350319	dec_choice	1.350319	16.000000	n/a	8	2.695312e-01	2.695312e-01
332.335000	1.350319	dec_nonsocial_accept	1.350319	16.000000	n/a	8	2.429688e-01	2.429688e-01
332.335000	1.350319	dec_accept	1.350319	16.000000	n/a	8	2.384868e-01	2.384868e-01
332.335000	1.350319	dec_nonsocial_high	1.350319	16.000000	n/a	8	2.695312e-01	2.695312e-01
332.335000	1.350319	dec_nonsocial_accept_high	1.350319	16.000000	n/a	8	2.384868e-01	2.384868e-01
339.967620	1.766797	dec_social_choice	1.766797	16.000000	n/a	4	1.888021e-02	1.888021e-02
339.967620	1.766797	dec_choice	1.766797	16.000000	n/a	4	1.822917e-02	1.822917e-02
339.967620	1.766797	dec_social_accept	1.766797	16.000000	n/a	4	-7.031250e-03	-7.031250e-03
339.967620	1.766797	dec_accept	1.766797	16.000000	n/a	4	-2.976190e-03	-2.976190e-03
339.967620	1.766797	dec_social_high	1.766797	16.000000	n/a	4	1.822917e-02	1.822917e-02
339.967620	1.766797	dec_social_accept_high	1.766797	16.000000	n/a	4	1.822917e-02	1.822917e-02
347.618900	1.349645	dec_nonsocial_choice	1.349645	32.000000	n/a	3	-1.373698e-01	-1.373698e-01
347.618900	1.349645	dec_choice	1.349645	32.000000	n/a	3	-1.367188e-01	-1.367188e-01
347.618900	1.349645	dec_nonsocial_accept	1.349645	32.000000	n/a	3	-1.632812e-01	-1.632812e-01
347.618900	1.349645	dec_accept	1.349645	32.000000	n/a	3	-1.677632e-01	-1.677632e-01
347.618900	1.349645	dec_nonsocial_accept_low	1.349645	32.000000	n/a	3	-1.592262e-01	-1.592262e-01
354.451800	1.366246	dec_nonsocial_choice	1.366246	16.000000	n/a	0	0	-2.311198e-01
354.451800	1.366246	dec_choice	1.366246	16.000000	n/a	0	0	-2.304688e-01
354.451800	1.366246	dec_nonsocial_reject	1.366246	16.000000	n/a	0	0	-3.906250e-02
354.451800	1.366246	dec_reject	1.366246	16.000000	n/a	0	0	-5.000000e-02
354.451800	1.366246	dec_nonsocial_low	1.366246	16.000000	n/a	0	-2.304688e-01	-2.304688e-01
354.451800	1.366246	dec_nonsocial_reject_low	1.366246	16.000000	n/a	1	-5.000000e-02	-1.125000e-01
361.285000	1.883240	dec_social_choice	1.883240	32.000000	n/a	0	0	-2.311198e-01
361.285000	1.883240	dec_choice	1.883240	32.000000	n/a	0	0	-2.317708e-01
361.285000	1.883240	dec_social_reject	1.883240	32.000000	n/a	0	0	-3.906250e-02
361.285000	1.883240	dec_reject	1.883240	32.000000	n/a	0	0	-2.083333e-02
361.285000	1.883240	dec_social_reject_low	1.883240	32.000000	n/a	2	-1.692708e-01	-2.317708e-01
372.150820	1.234115	dec_nonsocial_choice	1.234115	32.000000	n/a	0	0	-2.311198e-01
372.150820	1.234115	dec_choice	1.234115	32.000000	n/a	0	0	-2.304688e-01
372.150820	1.234115	dec_nonsocial_reject	1.234115	32.000000	n/a	0	0	-3.906250e-02
372.150820	1.234115	dec_reject	1.234115	32.000000	n/a	0	0	-5.000000e-02
372.150820	1.234115	dec_nonsocial_reject_low	1.234115	32.000000	n/a	2	-2.083333e-02	-8.333333e-02
