onset	duration	trial_type	response_time	Endowment	Endowment_pmod	Decision	Decision_pmod	Offer_pmod
4.593148	2	cue_social	n/a	32	8	n/a	n/a	n/a
4.593148	2	cue_social_high	n/a	32	8	n/a	n/a	n/a
13.768329	2	cue_nonsocial	n/a	32	8	n/a	n/a	n/a
13.768329	2	cue_nonsocial_high	n/a	32	8	n/a	n/a	n/a
20.602322	2	cue_nonsocial	n/a	16	-8	n/a	n/a	n/a
20.602322	2	cue_nonsocial_low	n/a	16	-8	n/a	n/a	n/a
28.251404	2	cue_nonsocial	n/a	32	8	n/a	n/a	n/a
28.251404	2	cue_nonsocial_high	n/a	32	8	n/a	n/a	n/a
35.902443	2	cue_nonsocial	n/a	16	-8	n/a	n/a	n/a
35.902443	2	cue_nonsocial_low	n/a	16	-8	n/a	n/a	n/a
45.235775	2	cue_social	n/a	32	8	n/a	n/a	n/a
45.235775	2	cue_social_high	n/a	32	8	n/a	n/a	n/a
52.087086	2	cue_social	n/a	16	-8	n/a	n/a	n/a
52.087086	2	cue_social_low	n/a	16	-8	n/a	n/a	n/a
58.917103	2	cue_social	n/a	32	8	n/a	n/a	n/a
58.917103	2	cue_social_high	n/a	32	8	n/a	n/a	n/a
65.757660	2	cue_social	n/a	16	-8	n/a	n/a	n/a
65.757660	2	cue_social_low	n/a	16	-8	n/a	n/a	n/a
72.570984	2	cue_social	n/a	32	8	n/a	n/a	n/a
72.570984	2	cue_social_high	n/a	32	8	n/a	n/a	n/a
79.420780	2	cue_social	n/a	32	8	n/a	n/a	n/a
79.420780	2	cue_social_high	n/a	32	8	n/a	n/a	n/a
88.694305	2	cue_social	n/a	16	-8	n/a	n/a	n/a
88.694305	2	cue_social_low	n/a	16	-8	n/a	n/a	n/a
96.301490	2	cue_social	n/a	16	-8	n/a	n/a	n/a
96.301490	2	cue_social_low	n/a	16	-8	n/a	n/a	n/a
103.948265	2	cue_social	n/a	16	-8	n/a	n/a	n/a
103.948265	2	cue_social_low	n/a	16	-8	n/a	n/a	n/a
110.718010	2	cue_nonsocial	n/a	32	8	n/a	n/a	n/a
110.718010	2	cue_nonsocial_high	n/a	32	8	n/a	n/a	n/a
118.368220	2	cue_nonsocial	n/a	16	-8	n/a	n/a	n/a
118.368220	2	cue_nonsocial_low	n/a	16	-8	n/a	n/a	n/a
129.234570	2	cue_nonsocial	n/a	32	8	n/a	n/a	n/a
129.234570	2	cue_nonsocial_high	n/a	32	8	n/a	n/a	n/a
136.141420	2	cue_social	n/a	32	8	n/a	n/a	n/a
136.141420	2	cue_social_high	n/a	32	8	n/a	n/a	n/a
142.901350	2	cue_nonsocial	n/a	16	-8	n/a	n/a	n/a
142.901350	2	cue_nonsocial_low	n/a	16	-8	n/a	n/a	n/a
149.813600	2	cue_social	n/a	16	-8	n/a	n/a	n/a
149.813600	2	cue_social_low	n/a	16	-8	n/a	n/a	n/a
159.096800	2	cue_social	n/a	32	8	n/a	n/a	n/a
159.096800	2	cue_social_high	n/a	32	8	n/a	n/a	n/a
168.234500	2	cue_nonsocial	n/a	16	-8	n/a	n/a	n/a
168.234500	2	cue_nonsocial_low	n/a	16	-8	n/a	n/a	n/a
175.957980	2	cue_social	n/a	16	-8	n/a	n/a	n/a
175.957980	2	cue_social_low	n/a	16	-8	n/a	n/a	n/a
182.717930	2	cue_nonsocial	n/a	32	8	n/a	n/a	n/a
182.717930	2	cue_nonsocial_high	n/a	32	8	n/a	n/a	n/a
189.551350	2	cue_nonsocial	n/a	16	-8	n/a	n/a	n/a
189.551350	2	cue_nonsocial_low	n/a	16	-8	n/a	n/a	n/a
196.384080	2	cue_nonsocial	n/a	32	8	n/a	n/a	n/a
196.384080	2	cue_nonsocial_high	n/a	32	8	n/a	n/a	n/a
204.017900	2	cue_nonsocial	n/a	16	-8	n/a	n/a	n/a
204.017900	2	cue_nonsocial_low	n/a	16	-8	n/a	n/a	n/a
216.613720	2	cue_social	n/a	32	8	n/a	n/a	n/a
216.613720	2	cue_social_high	n/a	32	8	n/a	n/a	n/a
223.335980	2	cue_nonsocial	n/a	32	8	n/a	n/a	n/a
223.335980	2	cue_nonsocial_high	n/a	32	8	n/a	n/a	n/a
231.034010	2	cue_social	n/a	16	-8	n/a	n/a	n/a
231.034010	2	cue_social_low	n/a	16	-8	n/a	n/a	n/a
238.681080	2	cue_social	n/a	32	8	n/a	n/a	n/a
238.681080	2	cue_social_high	n/a	32	8	n/a	n/a	n/a
249.569530	2	cue_social	n/a	16	-8	n/a	n/a	n/a
249.569530	2	cue_social_low	n/a	16	-8	n/a	n/a	n/a
256.317840	2	cue_nonsocial	n/a	32	8	n/a	n/a	n/a
256.317840	2	cue_nonsocial_high	n/a	32	8	n/a	n/a	n/a
263.217220	2	cue_social	n/a	16	-8	n/a	n/a	n/a
263.217220	2	cue_social_low	n/a	16	-8	n/a	n/a	n/a
270.853800	2	cue_social	n/a	16	-8	n/a	n/a	n/a
270.853800	2	cue_social_low	n/a	16	-8	n/a	n/a	n/a
277.634200	2	cue_nonsocial	n/a	32	8	n/a	n/a	n/a
277.634200	2	cue_nonsocial_high	n/a	32	8	n/a	n/a	n/a
286.983460	2	cue_social	n/a	16	-8	n/a	n/a	n/a
286.983460	2	cue_social_low	n/a	16	-8	n/a	n/a	n/a
293.808000	2	cue_social	n/a	32	8	n/a	n/a	n/a
293.808000	2	cue_social_high	n/a	32	8	n/a	n/a	n/a
300.567570	2	cue_nonsocial	n/a	16	-8	n/a	n/a	n/a
300.567570	2	cue_nonsocial_low	n/a	16	-8	n/a	n/a	n/a
307.401300	2	cue_nonsocial	n/a	32	8	n/a	n/a	n/a
307.401300	2	cue_nonsocial_high	n/a	32	8	n/a	n/a	n/a
314.234070	2	cue_nonsocial	n/a	16	-8	n/a	n/a	n/a
314.234070	2	cue_nonsocial_low	n/a	16	-8	n/a	n/a	n/a
321.884220	2	cue_nonsocial	n/a	16	-8	n/a	n/a	n/a
321.884220	2	cue_nonsocial_low	n/a	16	-8	n/a	n/a	n/a
329.601470	2	cue_social	n/a	32	8	n/a	n/a	n/a
329.601470	2	cue_social_high	n/a	32	8	n/a	n/a	n/a
336.450380	2	cue_social	n/a	32	8	n/a	n/a	n/a
336.450380	2	cue_social_high	n/a	32	8	n/a	n/a	n/a
343.200780	2	cue_nonsocial	n/a	32	8	n/a	n/a	n/a
343.200780	2	cue_nonsocial_high	n/a	32	8	n/a	n/a	n/a
352.467320	2	cue_nonsocial	n/a	16	-8	n/a	n/a	n/a
352.467320	2	cue_nonsocial_low	n/a	16	-8	n/a	n/a	n/a
359.310550	2	cue_nonsocial	n/a	16	-8	n/a	n/a	n/a
359.310550	2	cue_nonsocial_low	n/a	16	-8	n/a	n/a	n/a
366.935200	2	cue_nonsocial	n/a	32	8	n/a	n/a	n/a
366.935200	2	cue_nonsocial_high	n/a	32	8	n/a	n/a	n/a
6.523939	2.017114	dec_social_choice	2.017114	32.000000	n/a	0	0	-2.298177e-01
6.523939	2.017114	dec_choice	2.017114	32.000000	n/a	0	0	-2.317708e-01
6.523939	2.017114	dec_social_reject	2.017114	32.000000	n/a	0	0	-7.767857e-02
6.523939	2.017114	dec_reject	2.017114	32.000000	n/a	0	0	-7.986111e-02
6.523939	2.017114	dec_social_reject_low	2.017114	32.000000	n/a	2	-1.692708e-01	-2.317708e-01
15.775608	1.282208	dec_nonsocial_choice	1.282208	32.000000	n/a	0	0	-2.298177e-01
15.775608	1.282208	dec_choice	1.282208	32.000000	n/a	0	0	-2.278646e-01
15.775608	1.282208	dec_nonsocial_reject	1.282208	32.000000	n/a	0	0	-4.642857e-02
15.775608	1.282208	dec_reject	1.282208	32.000000	n/a	0	0	-4.411765e-02
15.775608	1.282208	dec_nonsocial_reject_low	1.282208	32.000000	n/a	3	-4.861111e-02	-1.423611e-01
22.608679	0.849350	dec_nonsocial_choice	0.849350	16.000000	n/a	2	-1.048177e-01	-1.048177e-01
22.608679	0.849350	dec_choice	0.849350	16.000000	n/a	2	-1.028646e-01	-1.028646e-01
22.608679	0.849350	dec_nonsocial_accept	0.849350	16.000000	n/a	2	-3.461538e-01	-3.461538e-01
22.608679	0.849350	dec_accept	0.849350	16.000000	n/a	2	-3.214286e-01	-3.214286e-01
22.608679	0.849350	dec_nonsocial_accept_low	0.849350	16.000000	n/a	2	-3.750000e-01	-3.750000e-01
30.257574	1.265855	dec_nonsocial_choice	1.265855	32.000000	n/a	0	0	-2.298177e-01
30.257574	1.265855	dec_choice	1.265855	32.000000	n/a	0	0	-2.278646e-01
30.257574	1.265855	dec_nonsocial_reject	1.265855	32.000000	n/a	0	0	-4.642857e-02
30.257574	1.265855	dec_reject	1.265855	32.000000	n/a	0	0	-4.411765e-02
30.257574	1.265855	dec_nonsocial_reject_low	1.265855	32.000000	n/a	3	-4.861111e-02	-1.423611e-01
37.907314	1.016712	dec_nonsocial_choice	1.016712	16.000000	n/a	0	0	-2.298177e-01
37.907314	1.016712	dec_choice	1.016712	16.000000	n/a	0	0	-2.278646e-01
37.907314	1.016712	dec_nonsocial_reject	1.016712	16.000000	n/a	0	0	1.098214e-01
37.907314	1.016712	dec_reject	1.016712	16.000000	n/a	0	0	1.121324e-01
37.907314	1.016712	dec_nonsocial_reject_low	1.016712	16.000000	n/a	4	1.076389e-01	-1.423611e-01
47.174747	1.433367	dec_social_choice	1.433367	32.000000	n/a	16	2.701823e-01	2.701823e-01
47.174747	1.433367	dec_choice	1.433367	32.000000	n/a	16	2.682292e-01	2.682292e-01
47.174747	1.433367	dec_social_accept	1.433367	32.000000	n/a	16	2.884615e-02	2.884615e-02
47.174747	1.433367	dec_accept	1.433367	32.000000	n/a	16	0	0
47.174747	1.433367	dec_social_high	1.433367	32.000000	n/a	16	2.682292e-01	2.682292e-01
47.174747	1.433367	dec_social_accept_high	1.433367	32.000000	n/a	16	2.682292e-01	2.682292e-01
54.007534	1.117042	dec_social_choice	1.117042	16.000000	n/a	0	0	-2.298177e-01
54.007534	1.117042	dec_choice	1.117042	16.000000	n/a	0	0	-2.317708e-01
54.007534	1.117042	dec_social_reject	1.117042	16.000000	n/a	0	0	-1.517857e-02
54.007534	1.117042	dec_reject	1.117042	16.000000	n/a	0	0	-1.736111e-02
54.007534	1.117042	dec_social_low	1.117042	16.000000	n/a	0	-2.317708e-01	-2.317708e-01
54.007534	1.117042	dec_social_reject_low	1.117042	16.000000	n/a	2	-1.067708e-01	-2.317708e-01
60.840560	1.317460	dec_social_choice	1.317460	32.000000	n/a	0	0	-2.298177e-01
60.840560	1.317460	dec_choice	1.317460	32.000000	n/a	0	0	-2.317708e-01
60.840560	1.317460	dec_social_reject	1.317460	32.000000	n/a	0	0	-4.642857e-02
60.840560	1.317460	dec_reject	1.317460	32.000000	n/a	0	0	-4.861111e-02
60.840560	1.317460	dec_social_low	1.317460	32.000000	n/a	0	-2.317708e-01	-2.317708e-01
60.840560	1.317460	dec_social_reject_low	1.317460	32.000000	n/a	3	-1.380208e-01	-2.317708e-01
67.674545	1.049673	dec_social_choice	1.049673	16.000000	n/a	0	0	-2.298177e-01
67.674545	1.049673	dec_choice	1.049673	16.000000	n/a	0	0	-2.317708e-01
67.674545	1.049673	dec_social_reject	1.049673	16.000000	n/a	0	0	1.098214e-01
67.674545	1.049673	dec_reject	1.049673	16.000000	n/a	0	0	1.076389e-01
67.674545	1.049673	dec_social_reject_low	1.049673	16.000000	n/a	4	1.822917e-02	-2.317708e-01
74.507560	1.015821	dec_social_choice	1.015821	32.000000	n/a	16	2.701823e-01	2.701823e-01
74.507560	1.015821	dec_choice	1.015821	32.000000	n/a	16	2.682292e-01	2.682292e-01
74.507560	1.015821	dec_social_accept	1.015821	32.000000	n/a	16	2.884615e-02	2.884615e-02
74.507560	1.015821	dec_accept	1.015821	32.000000	n/a	16	0	0
74.507560	1.015821	dec_social_accept_high	1.015821	32.000000	n/a	16	2.682292e-01	2.682292e-01
81.339590	1.233893	dec_social_choice	1.233893	32.000000	n/a	0	0	-2.298177e-01
81.339590	1.233893	dec_choice	1.233893	32.000000	n/a	0	0	-2.317708e-01
81.339590	1.233893	dec_social_reject	1.233893	32.000000	n/a	0	0	-7.767857e-02
81.339590	1.233893	dec_reject	1.233893	32.000000	n/a	0	0	-7.986111e-02
81.339590	1.233893	dec_social_low	1.233893	32.000000	n/a	0	-2.317708e-01	-2.317708e-01
81.339590	1.233893	dec_social_reject_low	1.233893	32.000000	n/a	2	-1.692708e-01	-2.317708e-01
90.607490	1.083658	dec_social_choice	1.083658	16.000000	n/a	0	0	-2.298177e-01
90.607490	1.083658	dec_choice	1.083658	16.000000	n/a	0	0	-2.317708e-01
90.607490	1.083658	dec_social_reject	1.083658	16.000000	n/a	0	0	-7.767857e-02
90.607490	1.083658	dec_reject	1.083658	16.000000	n/a	0	0	-7.986111e-02
90.607490	1.083658	dec_social_reject_low	1.083658	16.000000	n/a	1	-1.692708e-01	-2.317708e-01
98.257540	1.051030	dec_social_choice	1.051030	16.000000	n/a	0	0	-2.298177e-01
98.257540	1.051030	dec_choice	1.051030	16.000000	n/a	0	0	-2.317708e-01
98.257540	1.051030	dec_social_reject	1.051030	16.000000	n/a	0	0	-1.517857e-02
98.257540	1.051030	dec_reject	1.051030	16.000000	n/a	0	0	-1.736111e-02
98.257540	1.051030	dec_social_low	1.051030	16.000000	n/a	0	-2.317708e-01	-2.317708e-01
98.257540	1.051030	dec_social_reject_low	1.051030	16.000000	n/a	2	-1.067708e-01	-2.317708e-01
105.890530	1.050685	dec_social_choice	1.050685	16.000000	n/a	0	0	-2.298177e-01
105.890530	1.050685	dec_choice	1.050685	16.000000	n/a	0	0	-2.317708e-01
105.890530	1.050685	dec_social_reject	1.050685	16.000000	n/a	0	0	1.098214e-01
105.890530	1.050685	dec_reject	1.050685	16.000000	n/a	0	0	1.076389e-01
105.890530	1.050685	dec_social_reject_low	1.050685	16.000000	n/a	4	1.822917e-02	-2.317708e-01
112.724174	0.883632	dec_nonsocial_choice	0.883632	32.000000	n/a	0	0	-2.298177e-01
112.724174	0.883632	dec_choice	0.883632	32.000000	n/a	0	0	-2.278646e-01
112.724174	0.883632	dec_nonsocial_reject	0.883632	32.000000	n/a	0	0	-4.642857e-02
112.724174	0.883632	dec_reject	0.883632	32.000000	n/a	0	0	-4.411765e-02
112.724174	0.883632	dec_nonsocial_reject_low	0.883632	32.000000	n/a	3	-4.861111e-02	-1.423611e-01
120.374540	0.983304	dec_nonsocial_choice	0.983304	16.000000	n/a	0	0	-2.298177e-01
120.374540	0.983304	dec_choice	0.983304	16.000000	n/a	0	0	-2.278646e-01
120.374540	0.983304	dec_nonsocial_reject	0.983304	16.000000	n/a	0	0	-7.767857e-02
120.374540	0.983304	dec_reject	0.983304	16.000000	n/a	0	0	-7.536765e-02
120.374540	0.983304	dec_nonsocial_reject_low	0.983304	16.000000	n/a	1	-7.986111e-02	-1.423611e-01
131.241490	1.965363	dec_nonsocial_choice	1.965363	32.000000	n/a	16	2.701823e-01	2.701823e-01
131.241490	1.965363	dec_choice	1.965363	32.000000	n/a	16	2.721354e-01	2.721354e-01
131.241490	1.965363	dec_nonsocial_accept	1.965363	32.000000	n/a	16	2.884615e-02	2.884615e-02
131.241490	1.965363	dec_accept	1.965363	32.000000	n/a	16	5.357143e-02	5.357143e-02
131.241490	1.965363	dec_nonsocial_high	1.965363	32.000000	n/a	16	2.721354e-01	2.721354e-01
131.241490	1.965363	dec_nonsocial_accept_high	1.965363	32.000000	n/a	16	5.357143e-02	5.357143e-02
138.073550	0.933052	dec_social_choice	0.933052	32.000000	n/a	0	0	-2.298177e-01
138.073550	0.933052	dec_choice	0.933052	32.000000	n/a	0	0	-2.317708e-01
138.073550	0.933052	dec_social_reject	0.933052	32.000000	n/a	0	0	-7.767857e-02
138.073550	0.933052	dec_reject	0.933052	32.000000	n/a	0	0	-7.986111e-02
138.073550	0.933052	dec_social_reject_low	0.933052	32.000000	n/a	2	-1.692708e-01	-2.317708e-01
144.907500	1.283511	dec_nonsocial_choice	1.283511	16.000000	n/a	0	0	-2.298177e-01
144.907500	1.283511	dec_choice	1.283511	16.000000	n/a	0	0	-2.278646e-01
144.907500	1.283511	dec_nonsocial_reject	1.283511	16.000000	n/a	0	0	-7.767857e-02
144.907500	1.283511	dec_reject	1.283511	16.000000	n/a	0	0	-7.536765e-02
144.907500	1.283511	dec_nonsocial_low	1.283511	16.000000	n/a	0	-2.278646e-01	-2.278646e-01
144.907500	1.283511	dec_nonsocial_reject_low	1.283511	16.000000	n/a	1	-7.536765e-02	-1.378676e-01
151.739620	1.501371	dec_social_choice	1.501371	16.000000	n/a	8	2.701823e-01	2.701823e-01
151.739620	1.501371	dec_choice	1.501371	16.000000	n/a	8	2.682292e-01	2.682292e-01
151.739620	1.501371	dec_social_accept	1.501371	16.000000	n/a	8	2.884615e-02	2.884615e-02
151.739620	1.501371	dec_accept	1.501371	16.000000	n/a	8	0	0
151.739620	1.501371	dec_social_high	1.501371	16.000000	n/a	8	2.682292e-01	2.682292e-01
151.739620	1.501371	dec_social_accept_high	1.501371	16.000000	n/a	8	2.682292e-01	2.682292e-01
160.991490	1.016248	dec_social_choice	1.016248	32.000000	n/a	0	0	-2.298177e-01
160.991490	1.016248	dec_choice	1.016248	32.000000	n/a	0	0	-2.317708e-01
160.991490	1.016248	dec_social_reject	1.016248	32.000000	n/a	0	0	-4.642857e-02
160.991490	1.016248	dec_reject	1.016248	32.000000	n/a	0	0	-4.861111e-02
160.991490	1.016248	dec_social_reject_low	1.016248	32.000000	n/a	3	-1.380208e-01	-2.317708e-01
170.241210	1.283663	dec_nonsocial_choice	1.283663	16.000000	n/a	0	0	-2.298177e-01
170.241210	1.283663	dec_choice	1.283663	16.000000	n/a	0	0	-2.278646e-01
170.241210	1.283663	dec_nonsocial_reject	1.283663	16.000000	n/a	0	0	1.098214e-01
170.241210	1.283663	dec_reject	1.283663	16.000000	n/a	0	0	1.121324e-01
170.241210	1.283663	dec_nonsocial_low	1.283663	16.000000	n/a	0	-2.278646e-01	-2.278646e-01
170.241210	1.283663	dec_nonsocial_reject_low	1.283663	16.000000	n/a	4	1.121324e-01	-1.378676e-01
177.889500	1.451387	dec_social_choice	1.451387	16.000000	n/a	8	2.701823e-01	2.701823e-01
177.889500	1.451387	dec_choice	1.451387	16.000000	n/a	8	2.682292e-01	2.682292e-01
177.889500	1.451387	dec_social_accept	1.451387	16.000000	n/a	8	2.884615e-02	2.884615e-02
177.889500	1.451387	dec_accept	1.451387	16.000000	n/a	8	0	0
177.889500	1.451387	dec_social_accept_high	1.451387	16.000000	n/a	8	2.682292e-01	2.682292e-01
184.724500	2.115519	dec_nonsocial_choice	2.115519	32.000000	n/a	0	0	-2.298177e-01
184.724500	2.115519	dec_choice	2.115519	32.000000	n/a	0	0	-2.278646e-01
184.724500	2.115519	dec_nonsocial_reject	2.115519	32.000000	n/a	0	0	1.098214e-01
184.724500	2.115519	dec_reject	2.115519	32.000000	n/a	0	0	1.121324e-01
184.724500	2.115519	dec_nonsocial_reject_low	2.115519	32.000000	n/a	8	1.076389e-01	-1.423611e-01
191.557500	1.283497	dec_nonsocial_choice	1.283497	16.000000	n/a	0	0	-2.298177e-01
191.557500	1.283497	dec_choice	1.283497	16.000000	n/a	0	0	-2.278646e-01
191.557500	1.283497	dec_nonsocial_reject	1.283497	16.000000	n/a	0	0	1.098214e-01
191.557500	1.283497	dec_reject	1.283497	16.000000	n/a	0	0	1.121324e-01
191.557500	1.283497	dec_nonsocial_reject_low	1.283497	16.000000	n/a	4	1.076389e-01	-1.423611e-01
198.390460	1.400342	dec_nonsocial_choice	1.400342	32.000000	n/a	0	0	-2.298177e-01
198.390460	1.400342	dec_choice	1.400342	32.000000	n/a	0	0	-2.278646e-01
198.390460	1.400342	dec_nonsocial_reject	1.400342	32.000000	n/a	0	0	-4.642857e-02
198.390460	1.400342	dec_reject	1.400342	32.000000	n/a	0	0	-4.411765e-02
198.390460	1.400342	dec_nonsocial_low	1.400342	32.000000	n/a	0	-2.278646e-01	-2.278646e-01
198.390460	1.400342	dec_nonsocial_reject_low	1.400342	32.000000	n/a	3	-4.411765e-02	-1.378676e-01
206.024610	0.983009	dec_nonsocial_choice	0.983009	16.000000	n/a	0	0	-2.298177e-01
206.024610	0.983009	dec_choice	0.983009	16.000000	n/a	0	0	-2.278646e-01
206.024610	0.983009	dec_nonsocial_reject	0.983009	16.000000	n/a	0	0	-7.767857e-02
206.024610	0.983009	dec_reject	0.983009	16.000000	n/a	0	0	-7.536765e-02
206.024610	0.983009	dec_nonsocial_reject_low	0.983009	16.000000	n/a	1	-7.986111e-02	-1.423611e-01
218.507770	1.233467	dec_social_choice	1.233467	32.000000	n/a	16	2.701823e-01	2.701823e-01
218.507770	1.233467	dec_choice	1.233467	32.000000	n/a	16	2.682292e-01	2.682292e-01
218.507770	1.233467	dec_social_accept	1.233467	32.000000	n/a	16	2.884615e-02	2.884615e-02
218.507770	1.233467	dec_accept	1.233467	32.000000	n/a	16	0	0
218.507770	1.233467	dec_social_high	1.233467	32.000000	n/a	16	2.682292e-01	2.682292e-01
218.507770	1.233467	dec_social_accept_high	1.233467	32.000000	n/a	16	2.682292e-01	2.682292e-01
225.340560	1.316111	dec_nonsocial_choice	1.316111	32.000000	n/a	16	2.701823e-01	2.701823e-01
225.340560	1.316111	dec_choice	1.316111	32.000000	n/a	16	2.721354e-01	2.721354e-01
225.340560	1.316111	dec_nonsocial_accept	1.316111	32.000000	n/a	16	2.884615e-02	2.884615e-02
225.340560	1.316111	dec_accept	1.316111	32.000000	n/a	16	5.357143e-02	5.357143e-02
225.340560	1.316111	dec_nonsocial_high	1.316111	32.000000	n/a	16	2.721354e-01	2.721354e-01
225.340560	1.316111	dec_nonsocial_accept_high	1.316111	32.000000	n/a	16	5.357143e-02	5.357143e-02
232.990520	1.250406	dec_social_choice	1.250406	16.000000	n/a	0	0	-2.298177e-01
232.990520	1.250406	dec_choice	1.250406	16.000000	n/a	0	0	-2.317708e-01
232.990520	1.250406	dec_social_reject	1.250406	16.000000	n/a	0	0	-1.517857e-02
232.990520	1.250406	dec_reject	1.250406	16.000000	n/a	0	0	-1.736111e-02
232.990520	1.250406	dec_social_low	1.250406	16.000000	n/a	0	-2.317708e-01	-2.317708e-01
232.990520	1.250406	dec_social_reject_low	1.250406	16.000000	n/a	2	-1.067708e-01	-2.317708e-01
240.623440	1.133960	dec_social_choice	1.133960	32.000000	n/a	0	0	-2.298177e-01
240.623440	1.133960	dec_choice	1.133960	32.000000	n/a	0	0	-2.317708e-01
240.623440	1.133960	dec_social_reject	1.133960	32.000000	n/a	0	0	1.098214e-01
240.623440	1.133960	dec_reject	1.133960	32.000000	n/a	0	0	1.076389e-01
240.623440	1.133960	dec_social_reject_low	1.133960	32.000000	n/a	8	1.822917e-02	-2.317708e-01
251.490430	1.282622	dec_social_choice	1.282622	16.000000	n/a	8	2.701823e-01	2.701823e-01
251.490430	1.282622	dec_choice	1.282622	16.000000	n/a	8	2.682292e-01	2.682292e-01
251.490430	1.282622	dec_social_accept	1.282622	16.000000	n/a	8	2.884615e-02	2.884615e-02
251.490430	1.282622	dec_accept	1.282622	16.000000	n/a	8	0	0
251.490430	1.282622	dec_social_high	1.282622	16.000000	n/a	8	2.682292e-01	2.682292e-01
251.490430	1.282622	dec_social_accept_high	1.282622	16.000000	n/a	8	2.682292e-01	2.682292e-01
258.324430	1.099422	dec_nonsocial_choice	1.099422	32.000000	n/a	0	0	-2.298177e-01
258.324430	1.099422	dec_choice	1.099422	32.000000	n/a	0	0	-2.278646e-01
258.324430	1.099422	dec_nonsocial_reject	1.099422	32.000000	n/a	0	0	1.098214e-01
258.324430	1.099422	dec_reject	1.099422	32.000000	n/a	0	0	1.121324e-01
258.324430	1.099422	dec_nonsocial_reject_low	1.099422	32.000000	n/a	8	1.076389e-01	-1.423611e-01
265.157230	0.865742	dec_social_choice	0.865742	16.000000	n/a	0	0	-2.298177e-01
265.157230	0.865742	dec_choice	0.865742	16.000000	n/a	0	0	-2.317708e-01
265.157230	0.865742	dec_social_reject	0.865742	16.000000	n/a	0	0	1.098214e-01
265.157230	0.865742	dec_reject	0.865742	16.000000	n/a	0	0	1.076389e-01
265.157230	0.865742	dec_social_reject_low	0.865742	16.000000	n/a	4	1.822917e-02	-2.317708e-01
272.808440	1.614557	dec_social_choice	1.614557	16.000000	n/a	0	0	-2.298177e-01
272.808440	1.614557	dec_choice	1.614557	16.000000	n/a	0	0	-2.317708e-01
272.808440	1.614557	dec_social_reject	1.614557	16.000000	n/a	0	0	1.098214e-01
272.808440	1.614557	dec_reject	1.614557	16.000000	n/a	0	0	1.076389e-01
272.808440	1.614557	dec_social_low	1.614557	16.000000	n/a	0	-2.317708e-01	-2.317708e-01
272.808440	1.614557	dec_social_reject_low	1.614557	16.000000	n/a	4	1.822917e-02	-2.317708e-01
279.640440	1.133599	dec_nonsocial_choice	1.133599	32.000000	n/a	0	0	-2.298177e-01
279.640440	1.133599	dec_choice	1.133599	32.000000	n/a	0	0	-2.278646e-01
279.640440	1.133599	dec_nonsocial_reject	1.133599	32.000000	n/a	0	0	-4.642857e-02
279.640440	1.133599	dec_reject	1.133599	32.000000	n/a	0	0	-4.411765e-02
279.640440	1.133599	dec_nonsocial_reject_low	1.133599	32.000000	n/a	3	-4.861111e-02	-1.423611e-01
288.906430	1.051079	dec_social_choice	1.051079	16.000000	n/a	0	0	-2.298177e-01
288.906430	1.051079	dec_choice	1.051079	16.000000	n/a	0	0	-2.317708e-01
288.906430	1.051079	dec_social_reject	1.051079	16.000000	n/a	0	0	-1.517857e-02
288.906430	1.051079	dec_reject	1.051079	16.000000	n/a	0	0	-1.736111e-02
288.906430	1.051079	dec_social_reject_low	1.051079	16.000000	n/a	2	-1.067708e-01	-2.317708e-01
295.740400	1.816729	dec_social_choice	1.816729	32.000000	n/a	0	0	-2.298177e-01
295.740400	1.816729	dec_choice	1.816729	32.000000	n/a	0	0	-2.317708e-01
295.740400	1.816729	dec_social_reject	1.816729	32.000000	n/a	0	0	1.098214e-01
295.740400	1.816729	dec_reject	1.816729	32.000000	n/a	0	0	1.076389e-01
295.740400	1.816729	dec_social_reject_low	1.816729	32.000000	n/a	8	1.822917e-02	-2.317708e-01
302.574430	1.482715	dec_nonsocial_choice	1.482715	16.000000	n/a	0	0	-2.298177e-01
302.574430	1.482715	dec_choice	1.482715	16.000000	n/a	0	0	-2.278646e-01
302.574430	1.482715	dec_nonsocial_reject	1.482715	16.000000	n/a	0	0	-7.767857e-02
302.574430	1.482715	dec_reject	1.482715	16.000000	n/a	0	0	-7.536765e-02
302.574430	1.482715	dec_nonsocial_low	1.482715	16.000000	n/a	0	-2.278646e-01	-2.278646e-01
302.574430	1.482715	dec_nonsocial_reject_low	1.482715	16.000000	n/a	1	-7.536765e-02	-1.378676e-01
309.407560	1.383674	dec_nonsocial_choice	1.383674	32.000000	n/a	0	0	-2.298177e-01
309.407560	1.383674	dec_choice	1.383674	32.000000	n/a	0	0	-2.278646e-01
309.407560	1.383674	dec_nonsocial_reject	1.383674	32.000000	n/a	0	0	-7.767857e-02
309.407560	1.383674	dec_reject	1.383674	32.000000	n/a	0	0	-7.536765e-02
309.407560	1.383674	dec_nonsocial_reject_low	1.383674	32.000000	n/a	2	-7.986111e-02	-1.423611e-01
316.240450	0.950272	dec_nonsocial_choice	0.950272	16.000000	n/a	0	0	-2.298177e-01
316.240450	0.950272	dec_choice	0.950272	16.000000	n/a	0	0	-2.278646e-01
316.240450	0.950272	dec_nonsocial_reject	0.950272	16.000000	n/a	0	0	1.098214e-01
316.240450	0.950272	dec_reject	0.950272	16.000000	n/a	0	0	1.121324e-01
316.240450	0.950272	dec_nonsocial_reject_low	0.950272	16.000000	n/a	4	1.076389e-01	-1.423611e-01
323.890400	1.250231	dec_nonsocial_choice	1.250231	16.000000	n/a	8	2.701823e-01	2.701823e-01
323.890400	1.250231	dec_choice	1.250231	16.000000	n/a	8	2.721354e-01	2.721354e-01
323.890400	1.250231	dec_nonsocial_accept	1.250231	16.000000	n/a	8	2.884615e-02	2.884615e-02
323.890400	1.250231	dec_accept	1.250231	16.000000	n/a	8	5.357143e-02	5.357143e-02
323.890400	1.250231	dec_nonsocial_high	1.250231	16.000000	n/a	8	2.721354e-01	2.721354e-01
323.890400	1.250231	dec_nonsocial_accept_high	1.250231	16.000000	n/a	8	5.357143e-02	5.357143e-02
331.540500	1.583521	dec_social_choice	1.583521	32.000000	n/a	0	0	-2.298177e-01
331.540500	1.583521	dec_choice	1.583521	32.000000	n/a	0	0	-2.317708e-01
331.540500	1.583521	dec_social_reject	1.583521	32.000000	n/a	0	0	-7.767857e-02
331.540500	1.583521	dec_reject	1.583521	32.000000	n/a	0	0	-7.986111e-02
331.540500	1.583521	dec_social_reject_low	1.583521	32.000000	n/a	2	-1.692708e-01	-2.317708e-01
338.373260	1.417348	dec_social_choice	1.417348	32.000000	n/a	0	0	-2.298177e-01
338.373260	1.417348	dec_choice	1.417348	32.000000	n/a	0	0	-2.317708e-01
338.373260	1.417348	dec_social_reject	1.417348	32.000000	n/a	0	0	-7.767857e-02
338.373260	1.417348	dec_reject	1.417348	32.000000	n/a	0	0	-7.986111e-02
338.373260	1.417348	dec_social_low	1.417348	32.000000	n/a	0	-2.317708e-01	-2.317708e-01
338.373260	1.417348	dec_social_reject_low	1.417348	32.000000	n/a	2	-1.692708e-01	-2.317708e-01
345.207370	1.349916	dec_nonsocial_choice	1.349916	32.000000	n/a	16	2.701823e-01	2.701823e-01
345.207370	1.349916	dec_choice	1.349916	32.000000	n/a	16	2.721354e-01	2.721354e-01
345.207370	1.349916	dec_nonsocial_accept	1.349916	32.000000	n/a	16	2.884615e-02	2.884615e-02
345.207370	1.349916	dec_accept	1.349916	32.000000	n/a	16	5.357143e-02	5.357143e-02
345.207370	1.349916	dec_nonsocial_accept_high	1.349916	32.000000	n/a	16	0	0
354.473480	1.015996	dec_nonsocial_choice	1.015996	16.000000	n/a	8	2.701823e-01	2.701823e-01
354.473480	1.015996	dec_choice	1.015996	16.000000	n/a	8	2.721354e-01	2.721354e-01
354.473480	1.015996	dec_nonsocial_accept	1.015996	16.000000	n/a	8	2.884615e-02	2.884615e-02
354.473480	1.015996	dec_accept	1.015996	16.000000	n/a	8	5.357143e-02	5.357143e-02
354.473480	1.015996	dec_nonsocial_high	1.015996	16.000000	n/a	8	2.721354e-01	2.721354e-01
354.473480	1.015996	dec_nonsocial_accept_high	1.015996	16.000000	n/a	8	5.357143e-02	5.357143e-02
361.307400	1.799628	dec_nonsocial_choice	1.799628	16.000000	n/a	8	2.701823e-01	2.701823e-01
361.307400	1.799628	dec_choice	1.799628	16.000000	n/a	8	2.721354e-01	2.721354e-01
361.307400	1.799628	dec_nonsocial_accept	1.799628	16.000000	n/a	8	2.884615e-02	2.884615e-02
361.307400	1.799628	dec_accept	1.799628	16.000000	n/a	8	5.357143e-02	5.357143e-02
361.307400	1.799628	dec_nonsocial_accept_high	1.799628	16.000000	n/a	8	0	0
368.956480	1.384371	dec_nonsocial_choice	1.384371	32.000000	n/a	0	0	-2.298177e-01
368.956480	1.384371	dec_choice	1.384371	32.000000	n/a	0	0	-2.278646e-01
368.956480	1.384371	dec_nonsocial_reject	1.384371	32.000000	n/a	0	0	-7.767857e-02
368.956480	1.384371	dec_reject	1.384371	32.000000	n/a	0	0	-7.536765e-02
368.956480	1.384371	dec_nonsocial_reject_low	1.384371	32.000000	n/a	2	-7.986111e-02	-1.423611e-01
