onset	duration	trial_type	rt	resp	gender	image_left	image_right
0.612429600001633	3.00085559999934	decision	2.28420239999832	right	D	DD017.jpg	DD018.jpg
4.16280000000188	1.00013079999917	loss	NaN	n/a	n/a	DD017.jpg	DD018.jpg
11.1124545999992	3.00118900000234	decision	2.03384880000158	left	D	DD035.jpg	DD036.jpg
14.6627331999989	1.00022540000282	win	NaN	n/a	n/a	DD035.jpg	DD036.jpg
21.5962230000005	3.00042499999836	decision	1.78334050000194	left	D	DD021.jpg	DD022.jpg
25.1460299999999	1.01701070000126	loss	NaN	n/a	n/a	DD021.jpg	DD022.jpg
32.0797139999995	3.00178610000148	decision	1.78285420000248	left	S	SD025.jpg	SD026.jpg
35.6295118000016	1.00000699999873	loss	NaN	n/a	n/a	SD025.jpg	SD026.jpg
38.3624287999992	3.00120270000116	decision	1.78387350000048	left	S	SD027.jpg	SD028.jpg
41.9127439000004	1.00007190000179	loss	NaN	n/a	n/a	SD027.jpg	SD028.jpg
44.6295075000016	3.00091590000011	decision	1.78320739999981	right	S	SD023.jpg	SD024.jpg
48.1795196000021	1.01640819999739	win	NaN	n/a	n/a	SD023.jpg	SD024.jpg
50.9295516999991	3.00115720000031	decision	2.03368190000037	right	D	DD037.jpg	DD038.jpg
54.4794948000017	1.01645789999748	win	NaN	n/a	n/a	DD037.jpg	DD038.jpg
59.3295152999999	3.0012549000021	decision	1.53304480000224	left	S	SD011.jpg	SD012.jpg
62.878919499999	1.00054900000032	loss	NaN	n/a	n/a	SD011.jpg	SD012.jpg
67.6959844000012	3.00163239999893	decision	2.03359559999808	right	D	DD009.jpg	DD010.jpg
71.2459821000011	1.0168577000004	win	NaN	n/a	n/a	DD009.jpg	DD010.jpg
73.9795371	3.00162230000205	decision	1.53362990000096	left	D	DD027.jpg	DD028.jpg
77.5295346999992	1.01636460000009	win	NaN	n/a	n/a	DD027.jpg	DD028.jpg
82.3797359000018	3.00166700000045	decision	2.03296719999707	right	D	DD015.jpg	DD016.jpg
85.9294862999996	1.01646500000061	loss	NaN	n/a	n/a	DD015.jpg	DD016.jpg
92.879009100001	3.00152769999841	decision	1.78346560000136	left	S	SD029.jpg	SD030.jpg
96.4294680999992	1.01647800000137	loss	NaN	n/a	n/a	SD029.jpg	SD030.jpg
101.262853799999	3.0007426000011	decision	2.04916570000205	left	S	SD015.jpg	SD016.jpg
104.812731800001	1.01639720000094	win	NaN	n/a	n/a	SD015.jpg	SD016.jpg
111.745521000001	3.00099730000147	decision	1.53352679999807	right	S	SD007.jpg	SD008.jpg
115.295952600001	1.00001129999873	win	NaN	n/a	n/a	SD007.jpg	SD008.jpg
120.1123032	3.00129720000041	decision	1.28332810000211	right	S	SD017.jpg	SD018.jpg
123.6625451	1.00012540000171	win	NaN	n/a	n/a	SD017.jpg	SD018.jpg
126.396076100002	3.00123229999735	decision	1.53356649999841	right	D	DD033.jpg	DD034.jpg
129.946008400002	1.0166965999997	win	NaN	n/a	n/a	DD033.jpg	DD034.jpg
132.6959995	3.00135919999957	decision	2.03364350000265	left	D	DD007.jpg	DD008.jpg
136.245939600001	1.01721919999909	loss	NaN	n/a	n/a	DD007.jpg	DD008.jpg
138.9793694	3.00165679999918	decision	2.03296810000029	left	D	DD023.jpg	DD024.jpg
142.529121800002	1.00015009999697	loss	NaN	n/a	n/a	DD023.jpg	DD024.jpg
155.762642400001	3.0010031999991	decision	1.78337149999788	left	S	SD009.jpg	SD010.jpg
159.312620000001	1.01636100000178	loss	NaN	n/a	n/a	SD009.jpg	SD010.jpg
164.145953700001	3.00161070000104	decision	1.53355219999867	left	D	DD001.jpg	DD002.jpg
167.695923400002	1.01634099999865	win	NaN	n/a	n/a	DD001.jpg	DD002.jpg
170.462709700001	3.00057100000049	decision	2.80026899999939	right	S	SD019.jpg	SD020.jpg
174.012121100001	1.00039380000089	loss	NaN	n/a	n/a	SD019.jpg	SD020.jpg
180.945986999999	3.00119180000183	decision	1.53355880000163	left	D	DD031.jpg	DD032.jpg
184.4958677	1.01661030000105	loss	NaN	n/a	n/a	DD031.jpg	DD032.jpg
189.329059700001	3.00151229999756	decision	1.53362609999749	left	S	SD005.jpg	SD006.jpg
192.878642	1.00027150000096	win	NaN	n/a	n/a	SD005.jpg	SD006.jpg
195.629009700002	3.00152739999976	decision	1.7831477999971	right	D	DD019.jpg	DD020.jpg
199.178937600002	1.01662229999783	win	NaN	n/a	n/a	DD019.jpg	DD020.jpg
206.112065900001	3.00141040000017	decision	2.28336979999949	left	S	SD013.jpg	SD014.jpg
209.6624462	1.01646020000044	loss	NaN	n/a	n/a	SD013.jpg	SD014.jpg
216.595659499999	3.00169670000105	decision	1.53298170000198	right	S	SD031.jpg	SD032.jpg
220.145804399999	1.00000350000118	loss	NaN	n/a	n/a	SD031.jpg	SD032.jpg
224.9626049	3.00110300000233	decision	1.28302149999945	left	D	DD039.jpg	DD040.jpg
228.5124588	1.01646560000154	loss	NaN	n/a	n/a	DD039.jpg	DD040.jpg
231.2625257	3.00200740000219	decision	1.03285270000197	right	D	DD005.jpg	DD006.jpg
234.812370300002	1.01644730000044	loss	NaN	n/a	n/a	DD005.jpg	DD006.jpg
241.745813900001	3.00128490000134	decision	1.28271350000068	left	S	SD037.jpg	SD038.jpg
245.295727700002	1.01608889999989	loss	NaN	n/a	n/a	SD037.jpg	SD038.jpg
248.029068600001	3.00154919999841	decision	2.0332656999999	left	S	SD039.jpg	SD040.jpg
251.578885300001	1.01632939999763	win	NaN	n/a	n/a	SD039.jpg	SD040.jpg
254.312390499999	3.00113630000124	decision	1.78376779999962	left	S	SD033.jpg	SD034.jpg
257.862035599999	1.00005520000195	loss	NaN	n/a	n/a	SD033.jpg	SD034.jpg
260.596353500001	3.00215499999831	decision	1.53179000000091	right	D	DD013.jpg	DD014.jpg
264.145641700001	1.01638059999823	win	NaN	n/a	n/a	DD013.jpg	DD014.jpg
268.9790249	3.00099290000071	decision	2.0334666000017	left	S	SD001.jpg	SD002.jpg
272.528458299999	1.00041830000191	win	NaN	n/a	n/a	SD001.jpg	SD002.jpg
275.2455137	3.05052129999967	decision	3.04996559999927	left	D	DD003.jpg	DD004.jpg
278.845681700001	1.00002609999865	win	NaN	n/a	n/a	DD003.jpg	DD004.jpg
283.6623377	3.00115870000081	decision	1.53368160000173	right	S	SD003.jpg	SD004.jpg
287.2119432	1.00022710000121	win	NaN	n/a	n/a	SD003.jpg	SD004.jpg
294.128938900001	3.00155539999832	decision	1.28360239999893	left	D	DD025.jpg	DD026.jpg
297.678610700001	1.00100079999902	win	NaN	n/a	n/a	DD025.jpg	DD026.jpg
304.611727200001	3.00087939999867	decision	2.03348569999798	left	S	SD035.jpg	SD036.jpg
308.162280700002	1.01659879999715	win	NaN	n/a	n/a	SD035.jpg	SD036.jpg
310.912259600002	3.00095899999724	decision	1.28326229999948	left	D	DD011.jpg	DD012.jpg
314.461926399999	1.00004629999967	loss	NaN	n/a	n/a	DD011.jpg	DD012.jpg
317.195630599999	3.0014805000028	decision	1.28285710000273	left	S	SD021.jpg	SD022.jpg
320.745458000001	1.01649270000053	win	NaN	n/a	n/a	SD021.jpg	SD022.jpg
325.5789348	3.00110300000233	decision	1.2826066000016	right	D	DD029.jpg	DD030.jpg
329.1287576	1.0000265000017	loss	NaN	n/a	n/a	DD029.jpg	DD030.jpg
