onset	duration	trial_type	response_time	Endowment	Endowment_pmod	Decision	Decision_pmod	Offer_pmod
4.514084	2	cue_nonsocial	n/a	32	7	n/a	n/a	n/a
4.514084	2	cue_nonsocial_high	n/a	32	9	n/a	n/a	n/a
11.421343	2	cue_social	n/a	16	-7	n/a	n/a	n/a
11.421343	2	cue_social_low	n/a	16	-9	n/a	n/a	n/a
18.180704	2	cue_nonsocial	n/a	32	7	n/a	n/a	n/a
18.180704	2	cue_nonsocial_high	n/a	32	9	n/a	n/a	n/a
25.897335	2	cue_social	n/a	16	-7	n/a	n/a	n/a
25.897335	2	cue_social_low	n/a	16	-9	n/a	n/a	n/a
35.183080	2	cue_social	n/a	16	-7	n/a	n/a	n/a
35.183080	2	cue_social_low	n/a	16	-9	n/a	n/a	n/a
42.747494	2	cue_nonsocial	n/a	32	7	n/a	n/a	n/a
42.747494	2	cue_nonsocial_high	n/a	32	9	n/a	n/a	n/a
52.013966	2	cue_nonsocial	n/a	32	7	n/a	n/a	n/a
52.013966	2	cue_nonsocial_high	n/a	32	9	n/a	n/a	n/a
59.729538	2	cue_social	n/a	16	-7	n/a	n/a	n/a
59.729538	2	cue_social_low	n/a	16	-9	n/a	n/a	n/a
67.379000	2	cue_social	n/a	32	9	n/a	n/a	n/a
67.379000	2	cue_social_high	n/a	32	7	n/a	n/a	n/a
76.580956	2	cue_nonsocial	n/a	16	-9	n/a	n/a	n/a
76.580956	2	cue_nonsocial_low	n/a	16	-7	n/a	n/a	n/a
87.447670	2	cue_nonsocial	n/a	16	-9	n/a	n/a	n/a
87.447670	2	cue_nonsocial_low	n/a	16	-7	n/a	n/a	n/a
94.371346	2	cue_social	n/a	16	-7	n/a	n/a	n/a
94.371346	2	cue_social_low	n/a	16	-9	n/a	n/a	n/a
101.930595	2	cue_nonsocial	n/a	32	7	n/a	n/a	n/a
101.930595	2	cue_nonsocial_high	n/a	32	9	n/a	n/a	n/a
109.580574	2	cue_nonsocial	n/a	16	-9	n/a	n/a	n/a
109.580574	2	cue_nonsocial_low	n/a	16	-7	n/a	n/a	n/a
116.413830	2	cue_nonsocial	n/a	32	7	n/a	n/a	n/a
116.413830	2	cue_nonsocial_high	n/a	32	9	n/a	n/a	n/a
124.119220	2	cue_social	n/a	16	-7	n/a	n/a	n/a
124.119220	2	cue_social_low	n/a	16	-9	n/a	n/a	n/a
130.897370	2	cue_nonsocial	n/a	16	-9	n/a	n/a	n/a
130.897370	2	cue_nonsocial_low	n/a	16	-7	n/a	n/a	n/a
143.380580	2	cue_nonsocial	n/a	16	-9	n/a	n/a	n/a
143.380580	2	cue_nonsocial_low	n/a	16	-7	n/a	n/a	n/a
150.294390	2	cue_social	n/a	32	9	n/a	n/a	n/a
150.294390	2	cue_social_high	n/a	32	7	n/a	n/a	n/a
159.463820	2	cue_nonsocial	n/a	32	7	n/a	n/a	n/a
159.463820	2	cue_nonsocial_high	n/a	32	9	n/a	n/a	n/a
168.713750	2	cue_nonsocial	n/a	32	7	n/a	n/a	n/a
168.713750	2	cue_nonsocial_high	n/a	32	9	n/a	n/a	n/a
175.620380	2	cue_social	n/a	32	9	n/a	n/a	n/a
175.620380	2	cue_social_high	n/a	32	7	n/a	n/a	n/a
184.869660	2	cue_social	n/a	16	-7	n/a	n/a	n/a
184.869660	2	cue_social_low	n/a	16	-9	n/a	n/a	n/a
191.630500	2	cue_nonsocial	n/a	16	-9	n/a	n/a	n/a
191.630500	2	cue_nonsocial_low	n/a	16	-7	n/a	n/a	n/a
199.338330	2	cue_social	n/a	16	-7	n/a	n/a	n/a
199.338330	2	cue_social_low	n/a	16	-9	n/a	n/a	n/a
206.168980	2	cue_social	n/a	16	-7	n/a	n/a	n/a
206.168980	2	cue_social_low	n/a	16	-9	n/a	n/a	n/a
212.947140	2	cue_nonsocial	n/a	32	7	n/a	n/a	n/a
212.947140	2	cue_nonsocial_high	n/a	32	9	n/a	n/a	n/a
219.883730	2	cue_social	n/a	32	9	n/a	n/a	n/a
219.883730	2	cue_social_high	n/a	32	7	n/a	n/a	n/a
227.474930	2	cue_social	n/a	16	-7	n/a	n/a	n/a
227.474930	2	cue_social_low	n/a	16	-9	n/a	n/a	n/a
238.297040	2	cue_nonsocial	n/a	16	-9	n/a	n/a	n/a
238.297040	2	cue_nonsocial_low	n/a	16	-7	n/a	n/a	n/a
245.182200	2	cue_social	n/a	32	9	n/a	n/a	n/a
245.182200	2	cue_social_high	n/a	32	7	n/a	n/a	n/a
254.441020	2	cue_social	n/a	32	9	n/a	n/a	n/a
254.441020	2	cue_social_high	n/a	32	7	n/a	n/a	n/a
261.230470	2	cue_nonsocial	n/a	32	7	n/a	n/a	n/a
261.230470	2	cue_nonsocial_high	n/a	32	9	n/a	n/a	n/a
268.157680	2	cue_social	n/a	16	-7	n/a	n/a	n/a
268.157680	2	cue_social_low	n/a	16	-9	n/a	n/a	n/a
274.896940	2	cue_nonsocial	n/a	16	-9	n/a	n/a	n/a
274.896940	2	cue_nonsocial_low	n/a	16	-7	n/a	n/a	n/a
281.730350	2	cue_nonsocial	n/a	16	-9	n/a	n/a	n/a
281.730350	2	cue_nonsocial_low	n/a	16	-7	n/a	n/a	n/a
288.563600	2	cue_nonsocial	n/a	16	-9	n/a	n/a	n/a
288.563600	2	cue_nonsocial_low	n/a	16	-7	n/a	n/a	n/a
295.461500	2	cue_social	n/a	16	-7	n/a	n/a	n/a
295.461500	2	cue_social_low	n/a	16	-9	n/a	n/a	n/a
302.230160	2	cue_nonsocial	n/a	16	-9	n/a	n/a	n/a
302.230160	2	cue_nonsocial_low	n/a	16	-7	n/a	n/a	n/a
309.942630	2	cue_social	n/a	16	-7	n/a	n/a	n/a
309.942630	2	cue_social_low	n/a	16	-9	n/a	n/a	n/a
317.530240	2	cue_nonsocial	n/a	32	7	n/a	n/a	n/a
317.530240	2	cue_nonsocial_high	n/a	32	9	n/a	n/a	n/a
328.442840	2	cue_social	n/a	32	9	n/a	n/a	n/a
328.442840	2	cue_social_high	n/a	32	7	n/a	n/a	n/a
335.230000	2	cue_nonsocial	n/a	32	7	n/a	n/a	n/a
335.230000	2	cue_nonsocial_high	n/a	32	9	n/a	n/a	n/a
342.153100	2	cue_social	n/a	32	9	n/a	n/a	n/a
342.153100	2	cue_social_high	n/a	32	7	n/a	n/a	n/a
348.938540	2	cue_social	n/a	32	9	n/a	n/a	n/a
348.938540	2	cue_social_high	n/a	32	7	n/a	n/a	n/a
356.546630	2	cue_nonsocial	n/a	32	7	n/a	n/a	n/a
356.546630	2	cue_nonsocial_high	n/a	32	9	n/a	n/a	n/a
363.422970	2	cue_social	n/a	32	9	n/a	n/a	n/a
363.422970	2	cue_social_high	n/a	32	7	n/a	n/a	n/a
370.253420	2	cue_social	n/a	32	9	n/a	n/a	n/a
370.253420	2	cue_social_high	n/a	32	7	n/a	n/a	n/a
6.520190	2.883971	dec_nonsocial_choice	2.883971	32.000000	n/a	16	2.706117e-01	2.706117e-01
6.520190	2.883971	dec_choice	2.883971	32.000000	n/a	16	2.708333e-01	2.708333e-01
6.520190	2.883971	dec_nonsocial_accept	2.883971	32.000000	n/a	16	1.390625e-01	1.390625e-01
6.520190	2.883971	dec_accept	2.883971	32.000000	n/a	16	1.744792e-01	1.744792e-01
6.520190	2.883971	dec_nonsocial_accept_high	2.883971	32.000000	n/a	16	8.593750e-02	8.593750e-02
13.354068	2.500584	dec_social_choice	2.500584	16.000000	n/a	8	2.706117e-01	2.706117e-01
13.354068	2.500584	dec_choice	2.500584	16.000000	n/a	8	2.703804e-01	2.703804e-01
13.354068	2.500584	dec_social_accept	2.500584	16.000000	n/a	8	1.390625e-01	1.390625e-01
13.354068	2.500584	dec_accept	2.500584	16.000000	n/a	8	8.593750e-02	8.593750e-02
13.354068	2.500584	dec_social_accept_high	2.500584	16.000000	n/a	8	2.703804e-01	2.703804e-01
20.187350	2.566467	dec_nonsocial_choice	2.566467	32.000000	n/a	0	0	-2.293883e-01
20.187350	2.566467	dec_choice	2.566467	32.000000	n/a	0	0	-2.291667e-01
20.187350	2.566467	dec_nonsocial_reject	2.566467	32.000000	n/a	0	0	1.180556e-01
20.187350	2.566467	dec_reject	2.566467	32.000000	n/a	0	0	1.171875e-01
20.187350	2.566467	dec_nonsocial_reject_low	2.566467	32.000000	n/a	8	1.187500e-01	-1.312500e-01
27.838140	3.766946	missed_trial	3.766946	16.000000	n/a	n/a	n/a	n/a
37.103134	1.767546	dec_social_choice	1.767546	16.000000	n/a	0	0	-2.293883e-01
37.103134	1.767546	dec_choice	1.767546	16.000000	n/a	0	0	-2.296196e-01
37.103134	1.767546	dec_social_reject	1.767546	16.000000	n/a	0	0	1.180556e-01
37.103134	1.767546	dec_reject	1.767546	16.000000	n/a	0	0	1.187500e-01
37.103134	1.767546	dec_social_reject_low	1.767546	16.000000	n/a	4	2.038043e-02	-2.296196e-01
44.755140	1.649008	dec_nonsocial_choice	1.649008	32.000000	n/a	0	0	-2.293883e-01
44.755140	1.649008	dec_choice	1.649008	32.000000	n/a	0	0	-2.291667e-01
44.755140	1.649008	dec_nonsocial_reject	1.649008	32.000000	n/a	0	0	-3.819444e-02
44.755140	1.649008	dec_reject	1.649008	32.000000	n/a	0	0	-3.906250e-02
44.755140	1.649008	dec_nonsocial_low	1.649008	32.000000	n/a	0	-2.291667e-01	-2.291667e-01
44.755140	1.649008	dec_nonsocial_reject_low	1.649008	32.000000	n/a	3	-3.906250e-02	-1.328125e-01
54.021187	1.865774	dec_nonsocial_choice	1.865774	32.000000	n/a	0	0	-2.293883e-01
54.021187	1.865774	dec_choice	1.865774	32.000000	n/a	0	0	-2.291667e-01
54.021187	1.865774	dec_nonsocial_reject	1.865774	32.000000	n/a	0	0	1.180556e-01
54.021187	1.865774	dec_reject	1.865774	32.000000	n/a	0	0	1.171875e-01
54.021187	1.865774	dec_nonsocial_reject_low	1.865774	32.000000	n/a	8	1.187500e-01	-1.312500e-01
61.670967	1.600018	dec_social_choice	1.600018	16.000000	n/a	0	0	-2.293883e-01
61.670967	1.600018	dec_choice	1.600018	16.000000	n/a	0	0	-2.296196e-01
61.670967	1.600018	dec_social_reject	1.600018	16.000000	n/a	0	0	-6.944444e-02
61.670967	1.600018	dec_reject	1.600018	16.000000	n/a	0	0	-6.875000e-02
61.670967	1.600018	dec_social_reject_low	1.600018	16.000000	n/a	1	-1.671196e-01	-2.296196e-01
69.321160	1.982911	dec_social_choice	1.982911	32.000000	n/a	0	0	-2.293883e-01
69.321160	1.982911	dec_choice	1.982911	32.000000	n/a	0	0	-2.296196e-01
69.321160	1.982911	dec_social_reject	1.982911	32.000000	n/a	0	0	1.180556e-01
69.321160	1.982911	dec_reject	1.982911	32.000000	n/a	0	0	1.187500e-01
69.321160	1.982911	dec_social_low	1.982911	32.000000	n/a	0	-2.296196e-01	-2.296196e-01
69.321160	1.982911	dec_social_reject_low	1.982911	32.000000	n/a	8	2.038043e-02	-2.296196e-01
78.587160	1.350658	dec_nonsocial_choice	1.350658	16.000000	n/a	0	0	-2.293883e-01
78.587160	1.350658	dec_choice	1.350658	16.000000	n/a	0	0	-2.291667e-01
78.587160	1.350658	dec_nonsocial_reject	1.350658	16.000000	n/a	0	0	-6.944444e-02
78.587160	1.350658	dec_reject	1.350658	16.000000	n/a	0	0	-7.031250e-02
78.587160	1.350658	dec_nonsocial_low	1.350658	16.000000	n/a	0	-2.291667e-01	-2.291667e-01
78.587160	1.350658	dec_nonsocial_reject_low	1.350658	16.000000	n/a	1	-7.031250e-02	-1.328125e-01
89.453970	1.400255	dec_nonsocial_choice	1.400255	16.000000	n/a	0	0	-2.293883e-01
89.453970	1.400255	dec_choice	1.400255	16.000000	n/a	0	0	-2.291667e-01
89.453970	1.400255	dec_nonsocial_reject	1.400255	16.000000	n/a	0	0	1.180556e-01
89.453970	1.400255	dec_reject	1.400255	16.000000	n/a	0	0	1.171875e-01
89.453970	1.400255	dec_nonsocial_low	1.400255	16.000000	n/a	0	-2.291667e-01	-2.291667e-01
89.453970	1.400255	dec_nonsocial_reject_low	1.400255	16.000000	n/a	4	1.171875e-01	-1.328125e-01
96.287150	2.416259	dec_social_choice	2.416259	16.000000	n/a	0	0	-2.293883e-01
96.287150	2.416259	dec_choice	2.416259	16.000000	n/a	0	0	-2.296196e-01
96.287150	2.416259	dec_social_reject	2.416259	16.000000	n/a	0	0	1.180556e-01
96.287150	2.416259	dec_reject	2.416259	16.000000	n/a	0	0	1.187500e-01
96.287150	2.416259	dec_social_reject_low	2.416259	16.000000	n/a	4	2.038043e-02	-2.296196e-01
103.937210	1.066640	dec_nonsocial_choice	1.066640	32.000000	n/a	0	0	-2.293883e-01
103.937210	1.066640	dec_choice	1.066640	32.000000	n/a	0	0	-2.291667e-01
103.937210	1.066640	dec_nonsocial_reject	1.066640	32.000000	n/a	0	0	-6.944444e-02
103.937210	1.066640	dec_reject	1.066640	32.000000	n/a	0	0	-7.031250e-02
103.937210	1.066640	dec_nonsocial_low	1.066640	32.000000	n/a	0	-2.291667e-01	-2.291667e-01
103.937210	1.066640	dec_nonsocial_reject_low	1.066640	32.000000	n/a	2	-7.031250e-02	-1.328125e-01
111.587135	0.916369	dec_nonsocial_choice	0.916369	16.000000	n/a	0	0	-2.293883e-01
111.587135	0.916369	dec_choice	0.916369	16.000000	n/a	0	0	-2.291667e-01
111.587135	0.916369	dec_nonsocial_reject	0.916369	16.000000	n/a	0	0	-6.944444e-02
111.587135	0.916369	dec_reject	0.916369	16.000000	n/a	0	0	-7.031250e-02
111.587135	0.916369	dec_nonsocial_low	0.916369	16.000000	n/a	0	-2.291667e-01	-2.291667e-01
111.587135	0.916369	dec_nonsocial_reject_low	0.916369	16.000000	n/a	1	-7.031250e-02	-1.328125e-01
118.421150	1.265689	dec_nonsocial_choice	1.265689	32.000000	n/a	16	2.706117e-01	2.706117e-01
118.421150	1.265689	dec_choice	1.265689	32.000000	n/a	16	2.708333e-01	2.708333e-01
118.421150	1.265689	dec_nonsocial_accept	1.265689	32.000000	n/a	16	1.390625e-01	1.390625e-01
118.421150	1.265689	dec_accept	1.265689	32.000000	n/a	16	1.744792e-01	1.744792e-01
118.421150	1.265689	dec_nonsocial_accept_high	1.265689	32.000000	n/a	16	8.593750e-02	8.593750e-02
126.070114	1.000726	dec_social_choice	1.000726	16.000000	n/a	0	0	-2.293883e-01
126.070114	1.000726	dec_choice	1.000726	16.000000	n/a	0	0	-2.296196e-01
126.070114	1.000726	dec_social_reject	1.000726	16.000000	n/a	0	0	-6.944444e-02
126.070114	1.000726	dec_reject	1.000726	16.000000	n/a	0	0	-6.875000e-02
126.070114	1.000726	dec_social_low	1.000726	16.000000	n/a	0	-2.296196e-01	-2.296196e-01
126.070114	1.000726	dec_social_reject_low	1.000726	16.000000	n/a	1	-1.671196e-01	-2.296196e-01
132.904130	1.466149	dec_nonsocial_choice	1.466149	16.000000	n/a	0	0	-2.293883e-01
132.904130	1.466149	dec_choice	1.466149	16.000000	n/a	0	0	-2.291667e-01
132.904130	1.466149	dec_nonsocial_reject	1.466149	16.000000	n/a	0	0	1.180556e-01
132.904130	1.466149	dec_reject	1.466149	16.000000	n/a	0	0	1.171875e-01
132.904130	1.466149	dec_nonsocial_low	1.466149	16.000000	n/a	0	-2.291667e-01	-2.291667e-01
132.904130	1.466149	dec_nonsocial_reject_low	1.466149	16.000000	n/a	4	1.171875e-01	-1.328125e-01
145.387150	0.966344	dec_nonsocial_choice	0.966344	16.000000	n/a	2	-1.043883e-01	-1.043883e-01
145.387150	0.966344	dec_choice	0.966344	16.000000	n/a	2	-1.041667e-01	-1.041667e-01
145.387150	0.966344	dec_nonsocial_accept	0.966344	16.000000	n/a	2	-2.359375e-01	-2.359375e-01
145.387150	0.966344	dec_accept	0.966344	16.000000	n/a	2	-2.005208e-01	-2.005208e-01
145.387150	0.966344	dec_nonsocial_low	0.966344	16.000000	n/a	2	-1.041667e-01	-1.041667e-01
145.387150	0.966344	dec_nonsocial_accept_low	0.966344	16.000000	n/a	2	-2.005208e-01	-2.005208e-01
152.220120	1.367203	dec_social_choice	1.367203	32.000000	n/a	16	2.706117e-01	2.706117e-01
152.220120	1.367203	dec_choice	1.367203	32.000000	n/a	16	2.703804e-01	2.703804e-01
152.220120	1.367203	dec_social_accept	1.367203	32.000000	n/a	16	1.390625e-01	1.390625e-01
152.220120	1.367203	dec_accept	1.367203	32.000000	n/a	16	8.593750e-02	8.593750e-02
152.220120	1.367203	dec_social_high	1.367203	32.000000	n/a	16	2.703804e-01	2.703804e-01
152.220120	1.367203	dec_social_accept_high	1.367203	32.000000	n/a	16	2.703804e-01	2.703804e-01
161.469900	1.251098	dec_nonsocial_choice	1.251098	32.000000	n/a	0	0	-2.293883e-01
161.469900	1.251098	dec_choice	1.251098	32.000000	n/a	0	0	-2.291667e-01
161.469900	1.251098	dec_nonsocial_reject	1.251098	32.000000	n/a	0	0	-3.819444e-02
161.469900	1.251098	dec_reject	1.251098	32.000000	n/a	0	0	-3.906250e-02
161.469900	1.251098	dec_nonsocial_reject_low	1.251098	32.000000	n/a	3	-3.750000e-02	-1.312500e-01
170.721150	1.532855	dec_nonsocial_choice	1.532855	32.000000	n/a	16	2.706117e-01	2.706117e-01
170.721150	1.532855	dec_choice	1.532855	32.000000	n/a	16	2.708333e-01	2.708333e-01
170.721150	1.532855	dec_nonsocial_accept	1.532855	32.000000	n/a	16	1.390625e-01	1.390625e-01
170.721150	1.532855	dec_accept	1.532855	32.000000	n/a	16	1.744792e-01	1.744792e-01
170.721150	1.532855	dec_nonsocial_accept_high	1.532855	32.000000	n/a	16	8.593750e-02	8.593750e-02
177.553160	1.250832	dec_social_choice	1.250832	32.000000	n/a	16	2.706117e-01	2.706117e-01
177.553160	1.250832	dec_choice	1.250832	32.000000	n/a	16	2.703804e-01	2.703804e-01
177.553160	1.250832	dec_social_accept	1.250832	32.000000	n/a	16	1.390625e-01	1.390625e-01
177.553160	1.250832	dec_accept	1.250832	32.000000	n/a	16	8.593750e-02	8.593750e-02
177.553160	1.250832	dec_social_accept_high	1.250832	32.000000	n/a	16	2.703804e-01	2.703804e-01
186.803180	1.383540	dec_social_choice	1.383540	16.000000	n/a	0	0	-2.293883e-01
186.803180	1.383540	dec_choice	1.383540	16.000000	n/a	0	0	-2.296196e-01
186.803180	1.383540	dec_social_reject	1.383540	16.000000	n/a	0	0	-6.944444e-03
186.803180	1.383540	dec_reject	1.383540	16.000000	n/a	0	0	-6.250000e-03
186.803180	1.383540	dec_social_reject_low	1.383540	16.000000	n/a	2	-1.046196e-01	-2.296196e-01
193.636960	1.833648	dec_nonsocial_choice	1.833648	16.000000	n/a	2	-1.043883e-01	-1.043883e-01
193.636960	1.833648	dec_choice	1.833648	16.000000	n/a	2	-1.041667e-01	-1.041667e-01
193.636960	1.833648	dec_nonsocial_accept	1.833648	16.000000	n/a	2	-2.359375e-01	-2.359375e-01
193.636960	1.833648	dec_accept	1.833648	16.000000	n/a	2	-2.005208e-01	-2.005208e-01
193.636960	1.833648	dec_nonsocial_low	1.833648	16.000000	n/a	2	-1.041667e-01	-1.041667e-01
193.636960	1.833648	dec_nonsocial_accept_low	1.833648	16.000000	n/a	2	-2.005208e-01	-2.005208e-01
201.287570	2.315764	dec_social_choice	2.315764	16.000000	n/a	0	0	-2.293883e-01
201.287570	2.315764	dec_choice	2.315764	16.000000	n/a	0	0	-2.296196e-01
201.287570	2.315764	dec_social_reject	2.315764	16.000000	n/a	0	0	-6.944444e-02
201.287570	2.315764	dec_reject	2.315764	16.000000	n/a	0	0	-6.875000e-02
201.287570	2.315764	dec_social_low	2.315764	16.000000	n/a	0	-2.296196e-01	-2.296196e-01
201.287570	2.315764	dec_social_reject_low	2.315764	16.000000	n/a	1	-1.671196e-01	-2.296196e-01
208.120150	1.483634	dec_social_choice	1.483634	16.000000	n/a	4	2.061170e-02	2.061170e-02
208.120150	1.483634	dec_choice	1.483634	16.000000	n/a	4	2.038043e-02	2.038043e-02
208.120150	1.483634	dec_social_accept	1.483634	16.000000	n/a	4	-1.109375e-01	-1.109375e-01
208.120150	1.483634	dec_accept	1.483634	16.000000	n/a	4	-1.640625e-01	-1.640625e-01
208.120150	1.483634	dec_social_high	1.483634	16.000000	n/a	4	2.038043e-02	2.038043e-02
208.120150	1.483634	dec_social_accept_high	1.483634	16.000000	n/a	4	2.038043e-02	2.038043e-02
214.954130	2.365952	dec_nonsocial_choice	2.365952	32.000000	n/a	3	-1.356383e-01	-1.356383e-01
214.954130	2.365952	dec_choice	2.365952	32.000000	n/a	3	-1.354167e-01	-1.354167e-01
214.954130	2.365952	dec_nonsocial_accept	2.365952	32.000000	n/a	3	-2.671875e-01	-2.671875e-01
214.954130	2.365952	dec_accept	2.365952	32.000000	n/a	3	-2.317708e-01	-2.317708e-01
214.954130	2.365952	dec_nonsocial_accept_low	2.365952	32.000000	n/a	3	-3.203125e-01	-3.203125e-01
221.787340	2.299657	dec_social_choice	2.299657	32.000000	n/a	0	0	-2.293883e-01
221.787340	2.299657	dec_choice	2.299657	32.000000	n/a	0	0	-2.296196e-01
221.787340	2.299657	dec_social_reject	2.299657	32.000000	n/a	0	0	-3.819444e-02
221.787340	2.299657	dec_reject	2.299657	32.000000	n/a	0	0	-3.750000e-02
221.787340	2.299657	dec_social_low	2.299657	32.000000	n/a	0	-2.296196e-01	-2.296196e-01
221.787340	2.299657	dec_social_reject_low	2.299657	32.000000	n/a	3	-1.358696e-01	-2.296196e-01
229.436200	1.066987	dec_social_choice	1.066987	16.000000	n/a	0	0	-2.293883e-01
229.436200	1.066987	dec_choice	1.066987	16.000000	n/a	0	0	-2.296196e-01
229.436200	1.066987	dec_social_reject	1.066987	16.000000	n/a	0	0	-6.944444e-02
229.436200	1.066987	dec_reject	1.066987	16.000000	n/a	0	0	-6.875000e-02
229.436200	1.066987	dec_social_low	1.066987	16.000000	n/a	0	-2.296196e-01	-2.296196e-01
229.436200	1.066987	dec_social_reject_low	1.066987	16.000000	n/a	1	-1.671196e-01	-2.296196e-01
240.304180	1.165874	dec_nonsocial_choice	1.165874	16.000000	n/a	0	0	-2.293883e-01
240.304180	1.165874	dec_choice	1.165874	16.000000	n/a	0	0	-2.291667e-01
240.304180	1.165874	dec_nonsocial_reject	1.165874	16.000000	n/a	0	0	-6.944444e-02
240.304180	1.165874	dec_reject	1.165874	16.000000	n/a	0	0	-7.031250e-02
240.304180	1.165874	dec_nonsocial_reject_low	1.165874	16.000000	n/a	1	-6.875000e-02	-1.312500e-01
247.136180	1.466852	dec_social_choice	1.466852	32.000000	n/a	16	2.706117e-01	2.706117e-01
247.136180	1.466852	dec_choice	1.466852	32.000000	n/a	16	2.703804e-01	2.703804e-01
247.136180	1.466852	dec_social_accept	1.466852	32.000000	n/a	16	1.390625e-01	1.390625e-01
247.136180	1.466852	dec_accept	1.466852	32.000000	n/a	16	8.593750e-02	8.593750e-02
247.136180	1.466852	dec_social_accept_high	1.466852	32.000000	n/a	16	2.703804e-01	2.703804e-01
256.403800	0.899668	dec_social_choice	0.899668	32.000000	n/a	16	2.706117e-01	2.706117e-01
256.403800	0.899668	dec_choice	0.899668	32.000000	n/a	16	2.703804e-01	2.703804e-01
256.403800	0.899668	dec_social_accept	0.899668	32.000000	n/a	16	1.390625e-01	1.390625e-01
256.403800	0.899668	dec_accept	0.899668	32.000000	n/a	16	8.593750e-02	8.593750e-02
256.403800	0.899668	dec_social_accept_high	0.899668	32.000000	n/a	16	2.703804e-01	2.703804e-01
263.237150	1.116312	dec_nonsocial_choice	1.116312	32.000000	n/a	8	2.061170e-02	2.061170e-02
263.237150	1.116312	dec_choice	1.116312	32.000000	n/a	8	2.083333e-02	2.083333e-02
263.237150	1.116312	dec_nonsocial_accept	1.116312	32.000000	n/a	8	-1.109375e-01	-1.109375e-01
263.237150	1.116312	dec_accept	1.116312	32.000000	n/a	8	-7.552083e-02	-7.552083e-02
263.237150	1.116312	dec_nonsocial_accept_high	1.116312	32.000000	n/a	8	-1.640625e-01	-1.640625e-01
270.071170	0.982472	dec_social_choice	0.982472	16.000000	n/a	0	0	-2.293883e-01
270.071170	0.982472	dec_choice	0.982472	16.000000	n/a	0	0	-2.296196e-01
270.071170	0.982472	dec_social_reject	0.982472	16.000000	n/a	0	0	-6.944444e-03
270.071170	0.982472	dec_reject	0.982472	16.000000	n/a	0	0	-6.250000e-03
270.071170	0.982472	dec_social_low	0.982472	16.000000	n/a	0	-2.296196e-01	-2.296196e-01
270.071170	0.982472	dec_social_reject_low	0.982472	16.000000	n/a	2	-1.046196e-01	-2.296196e-01
276.903750	1.649900	dec_nonsocial_choice	1.649900	16.000000	n/a	8	2.706117e-01	2.706117e-01
276.903750	1.649900	dec_choice	1.649900	16.000000	n/a	8	2.708333e-01	2.708333e-01
276.903750	1.649900	dec_nonsocial_accept	1.649900	16.000000	n/a	8	1.390625e-01	1.390625e-01
276.903750	1.649900	dec_accept	1.649900	16.000000	n/a	8	1.744792e-01	1.744792e-01
276.903750	1.649900	dec_nonsocial_high	1.649900	16.000000	n/a	8	2.708333e-01	2.708333e-01
276.903750	1.649900	dec_nonsocial_accept_high	1.649900	16.000000	n/a	8	1.744792e-01	1.744792e-01
283.738200	1.065052	dec_nonsocial_choice	1.065052	16.000000	n/a	1	-1.668883e-01	-1.668883e-01
283.738200	1.065052	dec_choice	1.065052	16.000000	n/a	1	-1.666667e-01	-1.666667e-01
283.738200	1.065052	dec_nonsocial_accept	1.065052	16.000000	n/a	1	-2.984375e-01	-2.984375e-01
283.738200	1.065052	dec_accept	1.065052	16.000000	n/a	1	-2.630208e-01	-2.630208e-01
283.738200	1.065052	dec_nonsocial_accept_low	1.065052	16.000000	n/a	1	-3.515625e-01	-3.515625e-01
290.571170	1.415340	dec_nonsocial_choice	1.415340	16.000000	n/a	4	2.061170e-02	2.061170e-02
290.571170	1.415340	dec_choice	1.415340	16.000000	n/a	4	2.083333e-02	2.083333e-02
290.571170	1.415340	dec_nonsocial_accept	1.415340	16.000000	n/a	4	-1.109375e-01	-1.109375e-01
290.571170	1.415340	dec_accept	1.415340	16.000000	n/a	4	-7.552083e-02	-7.552083e-02
290.571170	1.415340	dec_nonsocial_accept_high	1.415340	16.000000	n/a	4	-1.640625e-01	-1.640625e-01
297.404700	1.364886	dec_social_choice	1.364886	16.000000	n/a	1	-1.668883e-01	-1.668883e-01
297.404700	1.364886	dec_choice	1.364886	16.000000	n/a	1	-1.671196e-01	-1.671196e-01
297.404700	1.364886	dec_social_accept	1.364886	16.000000	n/a	1	-2.984375e-01	-2.984375e-01
297.404700	1.364886	dec_accept	1.364886	16.000000	n/a	1	-3.515625e-01	-3.515625e-01
297.404700	1.364886	dec_social_accept_low	1.364886	16.000000	n/a	1	-1.671196e-01	-1.671196e-01
304.237120	1.649942	dec_nonsocial_choice	1.649942	16.000000	n/a	8	2.706117e-01	2.706117e-01
304.237120	1.649942	dec_choice	1.649942	16.000000	n/a	8	2.708333e-01	2.708333e-01
304.237120	1.649942	dec_nonsocial_accept	1.649942	16.000000	n/a	8	1.390625e-01	1.390625e-01
304.237120	1.649942	dec_accept	1.649942	16.000000	n/a	8	1.744792e-01	1.744792e-01
304.237120	1.649942	dec_nonsocial_high	1.649942	16.000000	n/a	8	2.708333e-01	2.708333e-01
304.237120	1.649942	dec_nonsocial_accept_high	1.649942	16.000000	n/a	8	1.744792e-01	1.744792e-01
311.887270	2.232835	dec_social_choice	2.232835	16.000000	n/a	0	0	-2.293883e-01
311.887270	2.232835	dec_choice	2.232835	16.000000	n/a	0	0	-2.296196e-01
311.887270	2.232835	dec_social_reject	2.232835	16.000000	n/a	0	0	-6.944444e-03
311.887270	2.232835	dec_reject	2.232835	16.000000	n/a	0	0	-6.250000e-03
311.887270	2.232835	dec_social_low	2.232835	16.000000	n/a	0	-2.296196e-01	-2.296196e-01
311.887270	2.232835	dec_social_reject_low	2.232835	16.000000	n/a	2	-1.046196e-01	-2.296196e-01
319.538150	1.315348	dec_nonsocial_choice	1.315348	32.000000	n/a	16	2.706117e-01	2.706117e-01
319.538150	1.315348	dec_choice	1.315348	32.000000	n/a	16	2.708333e-01	2.708333e-01
319.538150	1.315348	dec_nonsocial_accept	1.315348	32.000000	n/a	16	1.390625e-01	1.390625e-01
319.538150	1.315348	dec_accept	1.315348	32.000000	n/a	16	1.744792e-01	1.744792e-01
319.538150	1.315348	dec_nonsocial_accept_high	1.315348	32.000000	n/a	16	8.593750e-02	8.593750e-02
330.404140	1.215535	dec_social_choice	1.215535	32.000000	n/a	16	2.706117e-01	2.706117e-01
330.404140	1.215535	dec_choice	1.215535	32.000000	n/a	16	2.703804e-01	2.703804e-01
330.404140	1.215535	dec_social_accept	1.215535	32.000000	n/a	16	1.390625e-01	1.390625e-01
330.404140	1.215535	dec_accept	1.215535	32.000000	n/a	16	8.593750e-02	8.593750e-02
330.404140	1.215535	dec_social_accept_high	1.215535	32.000000	n/a	16	2.703804e-01	2.703804e-01
337.237240	2.015764	dec_nonsocial_choice	2.015764	32.000000	n/a	0	0	-2.293883e-01
337.237240	2.015764	dec_choice	2.015764	32.000000	n/a	0	0	-2.291667e-01
337.237240	2.015764	dec_nonsocial_reject	2.015764	32.000000	n/a	0	0	-6.944444e-02
337.237240	2.015764	dec_reject	2.015764	32.000000	n/a	0	0	-7.031250e-02
337.237240	2.015764	dec_nonsocial_low	2.015764	32.000000	n/a	0	-2.291667e-01	-2.291667e-01
337.237240	2.015764	dec_nonsocial_reject_low	2.015764	32.000000	n/a	2	-7.031250e-02	-1.328125e-01
344.070160	1.533228	dec_social_choice	1.533228	32.000000	n/a	0	0	-2.293883e-01
344.070160	1.533228	dec_choice	1.533228	32.000000	n/a	0	0	-2.296196e-01
344.070160	1.533228	dec_social_reject	1.533228	32.000000	n/a	0	0	-6.944444e-02
344.070160	1.533228	dec_reject	1.533228	32.000000	n/a	0	0	-6.875000e-02
344.070160	1.533228	dec_social_reject_low	1.533228	32.000000	n/a	2	-1.671196e-01	-2.296196e-01
350.904140	1.182830	dec_social_choice	1.182830	32.000000	n/a	0	0	-2.293883e-01
350.904140	1.182830	dec_choice	1.182830	32.000000	n/a	0	0	-2.296196e-01
350.904140	1.182830	dec_social_reject	1.182830	32.000000	n/a	0	0	-3.819444e-02
350.904140	1.182830	dec_reject	1.182830	32.000000	n/a	0	0	-3.750000e-02
350.904140	1.182830	dec_social_low	1.182830	32.000000	n/a	0	-2.296196e-01	-2.296196e-01
350.904140	1.182830	dec_social_reject_low	1.182830	32.000000	n/a	3	-1.358696e-01	-2.296196e-01
358.553160	1.850407	dec_nonsocial_choice	1.850407	32.000000	n/a	0	0	-2.293883e-01
358.553160	1.850407	dec_choice	1.850407	32.000000	n/a	0	0	-2.291667e-01
358.553160	1.850407	dec_nonsocial_reject	1.850407	32.000000	n/a	0	0	-3.819444e-02
358.553160	1.850407	dec_reject	1.850407	32.000000	n/a	0	0	-3.906250e-02
358.553160	1.850407	dec_nonsocial_low	1.850407	32.000000	n/a	0	-2.291667e-01	-2.291667e-01
358.553160	1.850407	dec_nonsocial_reject_low	1.850407	32.000000	n/a	3	-3.906250e-02	-1.328125e-01
365.386140	1.250937	dec_social_choice	1.250937	32.000000	n/a	0	0	-2.293883e-01
365.386140	1.250937	dec_choice	1.250937	32.000000	n/a	0	0	-2.296196e-01
365.386140	1.250937	dec_social_reject	1.250937	32.000000	n/a	0	0	-3.819444e-02
365.386140	1.250937	dec_reject	1.250937	32.000000	n/a	0	0	-3.750000e-02
365.386140	1.250937	dec_social_low	1.250937	32.000000	n/a	0	-2.296196e-01	-2.296196e-01
365.386140	1.250937	dec_social_reject_low	1.250937	32.000000	n/a	3	-1.358696e-01	-2.296196e-01
372.220180	1.865879	dec_social_choice	1.865879	32.000000	n/a	0	0	-2.293883e-01
372.220180	1.865879	dec_choice	1.865879	32.000000	n/a	0	0	-2.296196e-01
372.220180	1.865879	dec_social_reject	1.865879	32.000000	n/a	0	0	1.180556e-01
372.220180	1.865879	dec_reject	1.865879	32.000000	n/a	0	0	1.187500e-01
372.220180	1.865879	dec_social_reject_low	1.865879	32.000000	n/a	8	2.038043e-02	-2.296196e-01
