onset	duration	trial_type	response_time	Endowment	Endowment_pmod	Decision	Decision_pmod	Offer_pmod
4.574488	2	cue_social	n/a	32	10	n/a	n/a	n/a
4.574488	2	cue_social_high	n/a	32	6	n/a	n/a	n/a
11.342512	2	cue_nonsocial	n/a	32	6	n/a	n/a	n/a
11.342512	2	cue_nonsocial_high	n/a	32	10	n/a	n/a	n/a
18.175795	2	cue_nonsocial	n/a	16	-10	n/a	n/a	n/a
18.175795	2	cue_nonsocial_low	n/a	16	-6	n/a	n/a	n/a
25.825876	2	cue_nonsocial	n/a	32	6	n/a	n/a	n/a
25.825876	2	cue_nonsocial_high	n/a	32	10	n/a	n/a	n/a
35.130050	2	cue_social	n/a	16	-6	n/a	n/a	n/a
35.130050	2	cue_social_low	n/a	16	-10	n/a	n/a	n/a
41.925625	2	cue_nonsocial	n/a	32	6	n/a	n/a	n/a
41.925625	2	cue_nonsocial_high	n/a	32	10	n/a	n/a	n/a
51.219658	2	cue_social	n/a	32	10	n/a	n/a	n/a
51.219658	2	cue_social_high	n/a	32	6	n/a	n/a	n/a
58.061546	2	cue_social	n/a	16	-6	n/a	n/a	n/a
58.061546	2	cue_social_low	n/a	16	-10	n/a	n/a	n/a
64.842290	2	cue_nonsocial	n/a	16	-10	n/a	n/a	n/a
64.842290	2	cue_nonsocial_low	n/a	16	-6	n/a	n/a	n/a
74.092270	2	cue_nonsocial	n/a	16	-10	n/a	n/a	n/a
74.092270	2	cue_nonsocial_low	n/a	16	-6	n/a	n/a	n/a
80.925410	2	cue_nonsocial	n/a	32	6	n/a	n/a	n/a
80.925410	2	cue_nonsocial_high	n/a	32	10	n/a	n/a	n/a
91.880620	2	cue_social	n/a	16	-6	n/a	n/a	n/a
91.880620	2	cue_social_low	n/a	16	-10	n/a	n/a	n/a
101.102350	2	cue_social	n/a	16	-6	n/a	n/a	n/a
101.102350	2	cue_social_low	n/a	16	-10	n/a	n/a	n/a
107.931305	2	cue_social	n/a	32	10	n/a	n/a	n/a
107.931305	2	cue_social_high	n/a	32	6	n/a	n/a	n/a
115.525440	2	cue_nonsocial	n/a	32	6	n/a	n/a	n/a
115.525440	2	cue_nonsocial_high	n/a	32	10	n/a	n/a	n/a
122.382470	2	cue_social	n/a	16	-6	n/a	n/a	n/a
122.382470	2	cue_social_low	n/a	16	-10	n/a	n/a	n/a
130.008730	2	cue_nonsocial	n/a	32	6	n/a	n/a	n/a
130.008730	2	cue_nonsocial_high	n/a	32	10	n/a	n/a	n/a
136.842090	2	cue_nonsocial	n/a	16	-10	n/a	n/a	n/a
136.842090	2	cue_nonsocial_low	n/a	16	-6	n/a	n/a	n/a
143.728500	2	cue_social	n/a	32	10	n/a	n/a	n/a
143.728500	2	cue_social_high	n/a	32	6	n/a	n/a	n/a
151.308640	2	cue_nonsocial	n/a	32	6	n/a	n/a	n/a
151.308640	2	cue_nonsocial_high	n/a	32	10	n/a	n/a	n/a
158.211430	2	cue_social	n/a	16	-6	n/a	n/a	n/a
158.211430	2	cue_social_low	n/a	16	-10	n/a	n/a	n/a
165.026060	2	cue_social	n/a	16	-6	n/a	n/a	n/a
165.026060	2	cue_social_low	n/a	16	-10	n/a	n/a	n/a
171.808780	2	cue_nonsocial	n/a	16	-10	n/a	n/a	n/a
171.808780	2	cue_nonsocial_low	n/a	16	-6	n/a	n/a	n/a
184.359180	2	cue_social	n/a	16	-6	n/a	n/a	n/a
184.359180	2	cue_social_low	n/a	16	-10	n/a	n/a	n/a
191.125800	2	cue_nonsocial	n/a	32	6	n/a	n/a	n/a
191.125800	2	cue_nonsocial_high	n/a	32	10	n/a	n/a	n/a
198.827130	2	cue_social	n/a	32	10	n/a	n/a	n/a
198.827130	2	cue_social_high	n/a	32	6	n/a	n/a	n/a
205.608440	2	cue_nonsocial	n/a	16	-10	n/a	n/a	n/a
205.608440	2	cue_nonsocial_low	n/a	16	-6	n/a	n/a	n/a
213.258480	2	cue_nonsocial	n/a	32	6	n/a	n/a	n/a
213.258480	2	cue_nonsocial_high	n/a	32	10	n/a	n/a	n/a
220.165590	2	cue_social	n/a	16	-6	n/a	n/a	n/a
220.165590	2	cue_social_low	n/a	16	-10	n/a	n/a	n/a
226.941730	2	cue_nonsocial	n/a	16	-10	n/a	n/a	n/a
226.941730	2	cue_nonsocial_low	n/a	16	-6	n/a	n/a	n/a
234.591860	2	cue_nonsocial	n/a	16	-10	n/a	n/a	n/a
234.591860	2	cue_nonsocial_low	n/a	16	-6	n/a	n/a	n/a
241.425340	2	cue_nonsocial	n/a	32	6	n/a	n/a	n/a
241.425340	2	cue_nonsocial_high	n/a	32	10	n/a	n/a	n/a
250.675000	2	cue_nonsocial	n/a	32	6	n/a	n/a	n/a
250.675000	2	cue_nonsocial_high	n/a	32	10	n/a	n/a	n/a
259.970030	2	cue_social	n/a	16	-6	n/a	n/a	n/a
259.970030	2	cue_social_low	n/a	16	-10	n/a	n/a	n/a
266.807250	2	cue_social	n/a	32	10	n/a	n/a	n/a
266.807250	2	cue_social_high	n/a	32	6	n/a	n/a	n/a
273.670530	2	cue_social	n/a	32	10	n/a	n/a	n/a
273.670530	2	cue_social_high	n/a	32	6	n/a	n/a	n/a
284.502750	2	cue_social	n/a	16	-6	n/a	n/a	n/a
284.502750	2	cue_social_low	n/a	16	-10	n/a	n/a	n/a
292.108860	2	cue_nonsocial	n/a	32	6	n/a	n/a	n/a
292.108860	2	cue_nonsocial_high	n/a	32	10	n/a	n/a	n/a
302.975040	2	cue_nonsocial	n/a	16	-10	n/a	n/a	n/a
302.975040	2	cue_nonsocial_low	n/a	16	-6	n/a	n/a	n/a
310.658750	2	cue_social	n/a	16	-6	n/a	n/a	n/a
310.658750	2	cue_social_low	n/a	16	-10	n/a	n/a	n/a
318.320370	2	cue_social	n/a	16	-6	n/a	n/a	n/a
318.320370	2	cue_social_low	n/a	16	-10	n/a	n/a	n/a
325.108520	2	cue_nonsocial	n/a	32	6	n/a	n/a	n/a
325.108520	2	cue_nonsocial_high	n/a	32	10	n/a	n/a	n/a
332.758240	2	cue_nonsocial	n/a	32	6	n/a	n/a	n/a
332.758240	2	cue_nonsocial_high	n/a	32	10	n/a	n/a	n/a
340.446620	2	cue_social	n/a	32	10	n/a	n/a	n/a
340.446620	2	cue_social_high	n/a	32	6	n/a	n/a	n/a
347.247920	2	cue_social	n/a	32	10	n/a	n/a	n/a
347.247920	2	cue_social_high	n/a	32	6	n/a	n/a	n/a
354.112200	2	cue_social	n/a	16	-6	n/a	n/a	n/a
354.112200	2	cue_social_low	n/a	16	-10	n/a	n/a	n/a
361.714080	2	cue_nonsocial	n/a	32	6	n/a	n/a	n/a
361.714080	2	cue_nonsocial_high	n/a	32	10	n/a	n/a	n/a
368.593200	2	cue_social	n/a	16	-6	n/a	n/a	n/a
368.593200	2	cue_social_low	n/a	16	-10	n/a	n/a	n/a
6.515484	1.950543	dec_social_choice	1.950543	32.000000	n/a	0	0	-2.253989e-01
6.515484	1.950543	dec_choice	1.950543	32.000000	n/a	0	0	-2.330729e-01
6.515484	1.950543	dec_social_reject	1.950543	32.000000	n/a	0	0	1.123047e-01
6.515484	1.950543	dec_reject	1.950543	32.000000	n/a	0	0	1.062500e-01
6.515484	1.950543	dec_social_low	1.950543	32.000000	n/a	0	-2.330729e-01	-2.330729e-01
6.515484	1.950543	dec_social_reject_low	1.950543	32.000000	n/a	8	1.692708e-02	-2.330729e-01
13.350170	1.132590	dec_nonsocial_choice	1.132590	32.000000	n/a	0	0	-2.253989e-01
13.350170	1.132590	dec_choice	1.132590	32.000000	n/a	0	0	-2.173913e-01
13.350170	1.132590	dec_nonsocial_reject	1.132590	32.000000	n/a	0	0	-4.394531e-02
13.350170	1.132590	dec_reject	1.132590	32.000000	n/a	0	0	-3.860294e-02
13.350170	1.132590	dec_nonsocial_reject_low	1.132590	32.000000	n/a	3	-5.000000e-02	-1.437500e-01
20.183128	1.215372	dec_nonsocial_choice	1.215372	16.000000	n/a	0	0	-2.253989e-01
20.183128	1.215372	dec_choice	1.215372	16.000000	n/a	0	0	-2.173913e-01
20.183128	1.215372	dec_nonsocial_reject	1.215372	16.000000	n/a	0	0	-1.269531e-02
20.183128	1.215372	dec_reject	1.215372	16.000000	n/a	0	0	-7.352941e-03
20.183128	1.215372	dec_nonsocial_low	1.215372	16.000000	n/a	0	-2.173913e-01	-2.173913e-01
20.183128	1.215372	dec_nonsocial_reject_low	1.215372	16.000000	n/a	2	-7.352941e-03	-1.323529e-01
27.833130	1.048982	dec_nonsocial_choice	1.048982	32.000000	n/a	0	0	-2.253989e-01
27.833130	1.048982	dec_choice	1.048982	32.000000	n/a	0	0	-2.173913e-01
27.833130	1.048982	dec_nonsocial_reject	1.048982	32.000000	n/a	0	0	-7.519531e-02
27.833130	1.048982	dec_reject	1.048982	32.000000	n/a	0	0	-6.985294e-02
27.833130	1.048982	dec_nonsocial_low	1.048982	32.000000	n/a	0	-2.173913e-01	-2.173913e-01
27.833130	1.048982	dec_nonsocial_reject_low	1.048982	32.000000	n/a	2	-6.985294e-02	-1.323529e-01
37.098194	1.550698	dec_social_choice	1.550698	16.000000	n/a	4	2.460106e-02	2.460106e-02
37.098194	1.550698	dec_choice	1.550698	16.000000	n/a	4	1.692708e-02	1.692708e-02
37.098194	1.550698	dec_social_accept	1.550698	16.000000	n/a	4	-1.625000e-01	-1.625000e-01
37.098194	1.550698	dec_accept	1.550698	16.000000	n/a	4	-1.319444e-01	-1.319444e-01
37.098194	1.550698	dec_social_accept_high	1.550698	16.000000	n/a	4	1.692708e-02	1.692708e-02
43.933120	1.282313	dec_nonsocial_choice	1.282313	32.000000	n/a	16	2.746011e-01	2.746011e-01
43.933120	1.282313	dec_choice	1.282313	32.000000	n/a	16	2.826087e-01	2.826087e-01
43.933120	1.282313	dec_nonsocial_accept	1.282313	32.000000	n/a	16	8.750000e-02	8.750000e-02
43.933120	1.282313	dec_accept	1.282313	32.000000	n/a	16	4.166667e-02	4.166667e-02
43.933120	1.282313	dec_nonsocial_accept_high	1.282313	32.000000	n/a	16	1.180556e-01	1.180556e-01
53.182182	1.166295	dec_social_choice	1.166295	32.000000	n/a	0	0	-2.253989e-01
53.182182	1.166295	dec_choice	1.166295	32.000000	n/a	0	0	-2.330729e-01
53.182182	1.166295	dec_social_reject	1.166295	32.000000	n/a	0	0	1.123047e-01
53.182182	1.166295	dec_reject	1.166295	32.000000	n/a	0	0	1.062500e-01
53.182182	1.166295	dec_social_low	1.166295	32.000000	n/a	0	-2.330729e-01	-2.330729e-01
53.182182	1.166295	dec_social_reject_low	1.166295	32.000000	n/a	8	1.692708e-02	-2.330729e-01
60.015335	1.383739	dec_social_choice	1.383739	16.000000	n/a	8	2.746011e-01	2.746011e-01
60.015335	1.383739	dec_choice	1.383739	16.000000	n/a	8	2.669271e-01	2.669271e-01
60.015335	1.383739	dec_social_accept	1.383739	16.000000	n/a	8	8.750000e-02	8.750000e-02
60.015335	1.383739	dec_accept	1.383739	16.000000	n/a	8	1.180556e-01	1.180556e-01
60.015335	1.383739	dec_social_accept_high	1.383739	16.000000	n/a	8	2.669271e-01	2.669271e-01
66.849075	1.283176	dec_nonsocial_choice	1.283176	16.000000	n/a	0	0	-2.253989e-01
66.849075	1.283176	dec_choice	1.283176	16.000000	n/a	0	0	-2.173913e-01
66.849075	1.283176	dec_nonsocial_reject	1.283176	16.000000	n/a	0	0	1.123047e-01
66.849075	1.283176	dec_reject	1.283176	16.000000	n/a	0	0	1.176471e-01
66.849075	1.283176	dec_nonsocial_reject_low	1.283176	16.000000	n/a	4	1.062500e-01	-1.437500e-01
76.100130	1.564830	dec_nonsocial_choice	1.564830	16.000000	n/a	8	2.746011e-01	2.746011e-01
76.100130	1.564830	dec_choice	1.564830	16.000000	n/a	8	2.826087e-01	2.826087e-01
76.100130	1.564830	dec_nonsocial_accept	1.564830	16.000000	n/a	8	8.750000e-02	8.750000e-02
76.100130	1.564830	dec_accept	1.564830	16.000000	n/a	8	4.166667e-02	4.166667e-02
76.100130	1.564830	dec_nonsocial_accept_high	1.564830	16.000000	n/a	8	1.180556e-01	1.180556e-01
82.932144	1.133353	dec_nonsocial_choice	1.133353	32.000000	n/a	0	0	-2.253989e-01
82.932144	1.133353	dec_choice	1.133353	32.000000	n/a	0	0	-2.173913e-01
82.932144	1.133353	dec_nonsocial_reject	1.133353	32.000000	n/a	0	0	-7.519531e-02
82.932144	1.133353	dec_reject	1.133353	32.000000	n/a	0	0	-6.985294e-02
82.932144	1.133353	dec_nonsocial_low	1.133353	32.000000	n/a	0	-2.173913e-01	-2.173913e-01
82.932144	1.133353	dec_nonsocial_reject_low	1.133353	32.000000	n/a	2	-6.985294e-02	-1.323529e-01
93.798410	1.400695	dec_social_choice	1.400695	16.000000	n/a	8	2.746011e-01	2.746011e-01
93.798410	1.400695	dec_choice	1.400695	16.000000	n/a	8	2.669271e-01	2.669271e-01
93.798410	1.400695	dec_social_accept	1.400695	16.000000	n/a	8	8.750000e-02	8.750000e-02
93.798410	1.400695	dec_accept	1.400695	16.000000	n/a	8	1.180556e-01	1.180556e-01
93.798410	1.400695	dec_social_accept_high	1.400695	16.000000	n/a	8	2.669271e-01	2.669271e-01
103.048164	1.600702	dec_social_choice	1.600702	16.000000	n/a	8	2.746011e-01	2.746011e-01
103.048164	1.600702	dec_choice	1.600702	16.000000	n/a	8	2.669271e-01	2.669271e-01
103.048164	1.600702	dec_social_accept	1.600702	16.000000	n/a	8	8.750000e-02	8.750000e-02
103.048164	1.600702	dec_accept	1.600702	16.000000	n/a	8	1.180556e-01	1.180556e-01
103.048164	1.600702	dec_social_high	1.600702	16.000000	n/a	8	2.669271e-01	2.669271e-01
103.048164	1.600702	dec_social_accept_high	1.600702	16.000000	n/a	8	2.669271e-01	2.669271e-01
109.882120	2.399808	dec_social_choice	2.399808	32.000000	n/a	0	0	-2.253989e-01
109.882120	2.399808	dec_choice	2.399808	32.000000	n/a	0	0	-2.330729e-01
109.882120	2.399808	dec_social_reject	2.399808	32.000000	n/a	0	0	-7.519531e-02
109.882120	2.399808	dec_reject	2.399808	32.000000	n/a	0	0	-8.125000e-02
109.882120	2.399808	dec_social_reject_low	2.399808	32.000000	n/a	2	-1.705729e-01	-2.330729e-01
117.532190	1.616178	dec_nonsocial_choice	1.616178	32.000000	n/a	0	0	-2.253989e-01
117.532190	1.616178	dec_choice	1.616178	32.000000	n/a	0	0	-2.173913e-01
117.532190	1.616178	dec_nonsocial_reject	1.616178	32.000000	n/a	0	0	-4.394531e-02
117.532190	1.616178	dec_reject	1.616178	32.000000	n/a	0	0	-3.860294e-02
117.532190	1.616178	dec_nonsocial_low	1.616178	32.000000	n/a	0	-2.173913e-01	-2.173913e-01
117.532190	1.616178	dec_nonsocial_reject_low	1.616178	32.000000	n/a	3	-3.860294e-02	-1.323529e-01
124.365120	1.900314	dec_social_choice	1.900314	16.000000	n/a	0	0	-2.253989e-01
124.365120	1.900314	dec_choice	1.900314	16.000000	n/a	0	0	-2.330729e-01
124.365120	1.900314	dec_social_reject	1.900314	16.000000	n/a	0	0	-7.519531e-02
124.365120	1.900314	dec_reject	1.900314	16.000000	n/a	0	0	-8.125000e-02
124.365120	1.900314	dec_social_low	1.900314	16.000000	n/a	0	-2.330729e-01	-2.330729e-01
124.365120	1.900314	dec_social_reject_low	1.900314	16.000000	n/a	1	-1.705729e-01	-2.330729e-01
132.015170	2.133678	dec_nonsocial_choice	2.133678	32.000000	n/a	0	0	-2.253989e-01
132.015170	2.133678	dec_choice	2.133678	32.000000	n/a	0	0	-2.173913e-01
132.015170	2.133678	dec_nonsocial_reject	2.133678	32.000000	n/a	0	0	-7.519531e-02
132.015170	2.133678	dec_reject	2.133678	32.000000	n/a	0	0	-6.985294e-02
132.015170	2.133678	dec_nonsocial_reject_low	2.133678	32.000000	n/a	2	-8.125000e-02	-1.437500e-01
138.849240	1.182749	dec_nonsocial_choice	1.182749	16.000000	n/a	0	0	-2.253989e-01
138.849240	1.182749	dec_choice	1.182749	16.000000	n/a	0	0	-2.173913e-01
138.849240	1.182749	dec_nonsocial_reject	1.182749	16.000000	n/a	0	0	-1.269531e-02
138.849240	1.182749	dec_reject	1.182749	16.000000	n/a	0	0	-7.352941e-03
138.849240	1.182749	dec_nonsocial_low	1.182749	16.000000	n/a	0	-2.173913e-01	-2.173913e-01
138.849240	1.182749	dec_nonsocial_reject_low	1.182749	16.000000	n/a	2	-7.352941e-03	-1.323529e-01
145.681150	1.634558	dec_social_choice	1.634558	32.000000	n/a	0	0	-2.253989e-01
145.681150	1.634558	dec_choice	1.634558	32.000000	n/a	0	0	-2.330729e-01
145.681150	1.634558	dec_social_reject	1.634558	32.000000	n/a	0	0	1.123047e-01
145.681150	1.634558	dec_reject	1.634558	32.000000	n/a	0	0	1.062500e-01
145.681150	1.634558	dec_social_reject_low	1.634558	32.000000	n/a	8	1.692708e-02	-2.330729e-01
153.315170	1.583568	dec_nonsocial_choice	1.583568	32.000000	n/a	0	0	-2.253989e-01
153.315170	1.583568	dec_choice	1.583568	32.000000	n/a	0	0	-2.173913e-01
153.315170	1.583568	dec_nonsocial_reject	1.583568	32.000000	n/a	0	0	1.123047e-01
153.315170	1.583568	dec_reject	1.583568	32.000000	n/a	0	0	1.176471e-01
153.315170	1.583568	dec_nonsocial_low	1.583568	32.000000	n/a	0	-2.173913e-01	-2.173913e-01
153.315170	1.583568	dec_nonsocial_reject_low	1.583568	32.000000	n/a	8	1.176471e-01	-1.323529e-01
160.149140	1.565568	dec_social_choice	1.565568	16.000000	n/a	0	0	-2.253989e-01
160.149140	1.565568	dec_choice	1.565568	16.000000	n/a	0	0	-2.330729e-01
160.149140	1.565568	dec_social_reject	1.565568	16.000000	n/a	0	0	-1.269531e-02
160.149140	1.565568	dec_reject	1.565568	16.000000	n/a	0	0	-1.875000e-02
160.149140	1.565568	dec_social_low	1.565568	16.000000	n/a	0	-2.330729e-01	-2.330729e-01
160.149140	1.565568	dec_social_reject_low	1.565568	16.000000	n/a	2	-1.080729e-01	-2.330729e-01
166.982250	1.116447	dec_social_choice	1.116447	16.000000	n/a	0	0	-2.253989e-01
166.982250	1.116447	dec_choice	1.116447	16.000000	n/a	0	0	-2.330729e-01
166.982250	1.116447	dec_social_reject	1.116447	16.000000	n/a	0	0	-1.269531e-02
166.982250	1.116447	dec_reject	1.116447	16.000000	n/a	0	0	-1.875000e-02
166.982250	1.116447	dec_social_low	1.116447	16.000000	n/a	0	-2.330729e-01	-2.330729e-01
166.982250	1.116447	dec_social_reject_low	1.116447	16.000000	n/a	2	-1.080729e-01	-2.330729e-01
173.815220	1.100226	dec_nonsocial_choice	1.100226	16.000000	n/a	0	0	-2.253989e-01
173.815220	1.100226	dec_choice	1.100226	16.000000	n/a	0	0	-2.173913e-01
173.815220	1.100226	dec_nonsocial_reject	1.100226	16.000000	n/a	0	0	-7.519531e-02
173.815220	1.100226	dec_reject	1.100226	16.000000	n/a	0	0	-6.985294e-02
173.815220	1.100226	dec_nonsocial_low	1.100226	16.000000	n/a	0	-2.173913e-01	-2.173913e-01
173.815220	1.100226	dec_nonsocial_reject_low	1.100226	16.000000	n/a	1	-6.985294e-02	-1.323529e-01
186.299130	1.099519	dec_social_choice	1.099519	16.000000	n/a	1	-1.628989e-01	-1.628989e-01
186.299130	1.099519	dec_choice	1.099519	16.000000	n/a	1	-1.705729e-01	-1.705729e-01
186.299130	1.099519	dec_social_accept	1.099519	16.000000	n/a	1	-3.500000e-01	-3.500000e-01
186.299130	1.099519	dec_accept	1.099519	16.000000	n/a	1	-3.194444e-01	-3.194444e-01
186.299130	1.099519	dec_social_low	1.099519	16.000000	n/a	1	-1.705729e-01	-1.705729e-01
186.299130	1.099519	dec_social_accept_low	1.099519	16.000000	n/a	1	-1.705729e-01	-1.705729e-01
193.132130	2.099646	dec_nonsocial_choice	2.099646	32.000000	n/a	0	0	-2.253989e-01
193.132130	2.099646	dec_choice	2.099646	32.000000	n/a	0	0	-2.173913e-01
193.132130	2.099646	dec_nonsocial_reject	2.099646	32.000000	n/a	0	0	1.123047e-01
193.132130	2.099646	dec_reject	2.099646	32.000000	n/a	0	0	1.176471e-01
193.132130	2.099646	dec_nonsocial_reject_low	2.099646	32.000000	n/a	8	1.062500e-01	-1.437500e-01
200.781040	1.317150	dec_social_choice	1.317150	32.000000	n/a	0	0	-2.253989e-01
200.781040	1.317150	dec_choice	1.317150	32.000000	n/a	0	0	-2.330729e-01
200.781040	1.317150	dec_social_reject	1.317150	32.000000	n/a	0	0	-7.519531e-02
200.781040	1.317150	dec_reject	1.317150	32.000000	n/a	0	0	-8.125000e-02
200.781040	1.317150	dec_social_low	1.317150	32.000000	n/a	0	-2.330729e-01	-2.330729e-01
200.781040	1.317150	dec_social_reject_low	1.317150	32.000000	n/a	2	-1.705729e-01	-2.330729e-01
207.615140	1.366108	dec_nonsocial_choice	1.366108	16.000000	n/a	0	0	-2.253989e-01
207.615140	1.366108	dec_choice	1.366108	16.000000	n/a	0	0	-2.173913e-01
207.615140	1.366108	dec_nonsocial_reject	1.366108	16.000000	n/a	0	0	1.123047e-01
207.615140	1.366108	dec_reject	1.366108	16.000000	n/a	0	0	1.176471e-01
207.615140	1.366108	dec_nonsocial_low	1.366108	16.000000	n/a	0	-2.173913e-01	-2.173913e-01
207.615140	1.366108	dec_nonsocial_reject_low	1.366108	16.000000	n/a	4	1.176471e-01	-1.323529e-01
215.265140	3.766946	missed_trial	3.766946	32.000000	n/a	n/a	n/a	n/a
222.116130	2.249131	dec_social_choice	2.249131	16.000000	n/a	2	-1.003989e-01	-1.003989e-01
222.116130	2.249131	dec_choice	2.249131	16.000000	n/a	2	-1.080729e-01	-1.080729e-01
222.116130	2.249131	dec_social_accept	2.249131	16.000000	n/a	2	-2.875000e-01	-2.875000e-01
222.116130	2.249131	dec_accept	2.249131	16.000000	n/a	2	-2.569444e-01	-2.569444e-01
222.116130	2.249131	dec_social_low	2.249131	16.000000	n/a	2	-1.080729e-01	-1.080729e-01
222.116130	2.249131	dec_social_accept_low	2.249131	16.000000	n/a	2	-1.080729e-01	-1.080729e-01
228.948120	2.166584	dec_nonsocial_choice	2.166584	16.000000	n/a	8	2.746011e-01	2.746011e-01
228.948120	2.166584	dec_choice	2.166584	16.000000	n/a	8	2.826087e-01	2.826087e-01
228.948120	2.166584	dec_nonsocial_accept	2.166584	16.000000	n/a	8	8.750000e-02	8.750000e-02
228.948120	2.166584	dec_accept	2.166584	16.000000	n/a	8	4.166667e-02	4.166667e-02
228.948120	2.166584	dec_nonsocial_high	2.166584	16.000000	n/a	8	2.826087e-01	2.826087e-01
228.948120	2.166584	dec_nonsocial_accept_high	2.166584	16.000000	n/a	8	4.166667e-02	4.166667e-02
236.599150	1.616076	dec_nonsocial_choice	1.616076	16.000000	n/a	8	2.746011e-01	2.746011e-01
236.599150	1.616076	dec_choice	1.616076	16.000000	n/a	8	2.826087e-01	2.826087e-01
236.599150	1.616076	dec_nonsocial_accept	1.616076	16.000000	n/a	8	8.750000e-02	8.750000e-02
236.599150	1.616076	dec_accept	1.616076	16.000000	n/a	8	4.166667e-02	4.166667e-02
236.599150	1.616076	dec_nonsocial_accept_high	1.616076	16.000000	n/a	8	1.180556e-01	1.180556e-01
243.431170	2.383885	dec_nonsocial_choice	2.383885	32.000000	n/a	0	0	-2.253989e-01
243.431170	2.383885	dec_choice	2.383885	32.000000	n/a	0	0	-2.173913e-01
243.431170	2.383885	dec_nonsocial_reject	2.383885	32.000000	n/a	0	0	-4.394531e-02
243.431170	2.383885	dec_reject	2.383885	32.000000	n/a	0	0	-3.860294e-02
243.431170	2.383885	dec_nonsocial_reject_low	2.383885	32.000000	n/a	3	-5.000000e-02	-1.437500e-01
252.681170	1.800577	dec_nonsocial_choice	1.800577	32.000000	n/a	0	0	-2.253989e-01
252.681170	1.800577	dec_choice	1.800577	32.000000	n/a	0	0	-2.173913e-01
252.681170	1.800577	dec_nonsocial_reject	1.800577	32.000000	n/a	0	0	-4.394531e-02
252.681170	1.800577	dec_reject	1.800577	32.000000	n/a	0	0	-3.860294e-02
252.681170	1.800577	dec_nonsocial_low	1.800577	32.000000	n/a	0	-2.173913e-01	-2.173913e-01
252.681170	1.800577	dec_nonsocial_reject_low	1.800577	32.000000	n/a	3	-3.860294e-02	-1.323529e-01
261.932160	1.566065	dec_social_choice	1.566065	16.000000	n/a	0	0	-2.253989e-01
261.932160	1.566065	dec_choice	1.566065	16.000000	n/a	0	0	-2.330729e-01
261.932160	1.566065	dec_social_reject	1.566065	16.000000	n/a	0	0	-1.269531e-02
261.932160	1.566065	dec_reject	1.566065	16.000000	n/a	0	0	-1.875000e-02
261.932160	1.566065	dec_social_reject_low	1.566065	16.000000	n/a	2	-1.080729e-01	-2.330729e-01
268.764980	1.966305	dec_social_choice	1.966305	32.000000	n/a	0	0	-2.253989e-01
268.764980	1.966305	dec_choice	1.966305	32.000000	n/a	0	0	-2.330729e-01
268.764980	1.966305	dec_social_reject	1.966305	32.000000	n/a	0	0	1.123047e-01
268.764980	1.966305	dec_reject	1.966305	32.000000	n/a	0	0	1.062500e-01
268.764980	1.966305	dec_social_reject_low	1.966305	32.000000	n/a	8	1.692708e-02	-2.330729e-01
275.598180	1.700242	dec_social_choice	1.700242	32.000000	n/a	16	2.746011e-01	2.746011e-01
275.598180	1.700242	dec_choice	1.700242	32.000000	n/a	16	2.669271e-01	2.669271e-01
275.598180	1.700242	dec_social_accept	1.700242	32.000000	n/a	16	8.750000e-02	8.750000e-02
275.598180	1.700242	dec_accept	1.700242	32.000000	n/a	16	1.180556e-01	1.180556e-01
275.598180	1.700242	dec_social_accept_high	1.700242	32.000000	n/a	16	2.669271e-01	2.669271e-01
286.465150	1.599871	dec_social_choice	1.599871	16.000000	n/a	0	0	-2.253989e-01
286.465150	1.599871	dec_choice	1.599871	16.000000	n/a	0	0	-2.330729e-01
286.465150	1.599871	dec_social_reject	1.599871	16.000000	n/a	0	0	-1.269531e-02
286.465150	1.599871	dec_reject	1.599871	16.000000	n/a	0	0	-1.875000e-02
286.465150	1.599871	dec_social_reject_low	1.599871	16.000000	n/a	2	-1.080729e-01	-2.330729e-01
294.115330	1.983102	dec_nonsocial_choice	1.983102	32.000000	n/a	8	2.460106e-02	2.460106e-02
294.115330	1.983102	dec_choice	1.983102	32.000000	n/a	8	3.260870e-02	3.260870e-02
294.115330	1.983102	dec_nonsocial_accept	1.983102	32.000000	n/a	8	-1.625000e-01	-1.625000e-01
294.115330	1.983102	dec_accept	1.983102	32.000000	n/a	8	-2.083333e-01	-2.083333e-01
294.115330	1.983102	dec_nonsocial_accept_high	1.983102	32.000000	n/a	8	-1.319444e-01	-1.319444e-01
304.981500	1.833674	dec_nonsocial_choice	1.833674	16.000000	n/a	0	0	-2.253989e-01
304.981500	1.833674	dec_choice	1.833674	16.000000	n/a	0	0	-2.173913e-01
304.981500	1.833674	dec_nonsocial_reject	1.833674	16.000000	n/a	0	0	-7.519531e-02
304.981500	1.833674	dec_reject	1.833674	16.000000	n/a	0	0	-6.985294e-02
304.981500	1.833674	dec_nonsocial_low	1.833674	16.000000	n/a	0	-2.173913e-01	-2.173913e-01
304.981500	1.833674	dec_nonsocial_reject_low	1.833674	16.000000	n/a	1	-6.985294e-02	-1.323529e-01
312.632140	1.832393	dec_social_choice	1.832393	16.000000	n/a	8	2.746011e-01	2.746011e-01
312.632140	1.832393	dec_choice	1.832393	16.000000	n/a	8	2.669271e-01	2.669271e-01
312.632140	1.832393	dec_social_accept	1.832393	16.000000	n/a	8	8.750000e-02	8.750000e-02
312.632140	1.832393	dec_accept	1.832393	16.000000	n/a	8	1.180556e-01	1.180556e-01
312.632140	1.832393	dec_social_high	1.832393	16.000000	n/a	8	2.669271e-01	2.669271e-01
312.632140	1.832393	dec_social_accept_high	1.832393	16.000000	n/a	8	2.669271e-01	2.669271e-01
320.282230	1.782671	dec_social_choice	1.782671	16.000000	n/a	8	2.746011e-01	2.746011e-01
320.282230	1.782671	dec_choice	1.782671	16.000000	n/a	8	2.669271e-01	2.669271e-01
320.282230	1.782671	dec_social_accept	1.782671	16.000000	n/a	8	8.750000e-02	8.750000e-02
320.282230	1.782671	dec_accept	1.782671	16.000000	n/a	8	1.180556e-01	1.180556e-01
320.282230	1.782671	dec_social_accept_high	1.782671	16.000000	n/a	8	2.669271e-01	2.669271e-01
327.115230	1.949658	dec_nonsocial_choice	1.949658	32.000000	n/a	16	2.746011e-01	2.746011e-01
327.115230	1.949658	dec_choice	1.949658	32.000000	n/a	16	2.826087e-01	2.826087e-01
327.115230	1.949658	dec_nonsocial_accept	1.949658	32.000000	n/a	16	8.750000e-02	8.750000e-02
327.115230	1.949658	dec_accept	1.949658	32.000000	n/a	16	4.166667e-02	4.166667e-02
327.115230	1.949658	dec_nonsocial_accept_high	1.949658	32.000000	n/a	16	1.180556e-01	1.180556e-01
334.764250	1.300681	dec_nonsocial_choice	1.300681	32.000000	n/a	0	0	-2.253989e-01
334.764250	1.300681	dec_choice	1.300681	32.000000	n/a	0	0	-2.173913e-01
334.764250	1.300681	dec_nonsocial_reject	1.300681	32.000000	n/a	0	0	-7.519531e-02
334.764250	1.300681	dec_reject	1.300681	32.000000	n/a	0	0	-6.985294e-02
334.764250	1.300681	dec_nonsocial_low	1.300681	32.000000	n/a	0	-2.173913e-01	-2.173913e-01
334.764250	1.300681	dec_nonsocial_reject_low	1.300681	32.000000	n/a	2	-6.985294e-02	-1.323529e-01
342.399170	1.632822	dec_social_choice	1.632822	32.000000	n/a	0	0	-2.253989e-01
342.399170	1.632822	dec_choice	1.632822	32.000000	n/a	0	0	-2.330729e-01
342.399170	1.632822	dec_social_reject	1.632822	32.000000	n/a	0	0	-4.394531e-02
342.399170	1.632822	dec_reject	1.632822	32.000000	n/a	0	0	-5.000000e-02
342.399170	1.632822	dec_social_low	1.632822	32.000000	n/a	0	-2.330729e-01	-2.330729e-01
342.399170	1.632822	dec_social_reject_low	1.632822	32.000000	n/a	3	-1.393229e-01	-2.330729e-01
349.231320	1.566884	dec_social_choice	1.566884	32.000000	n/a	0	0	-2.253989e-01
349.231320	1.566884	dec_choice	1.566884	32.000000	n/a	0	0	-2.330729e-01
349.231320	1.566884	dec_social_reject	1.566884	32.000000	n/a	0	0	-7.519531e-02
349.231320	1.566884	dec_reject	1.566884	32.000000	n/a	0	0	-8.125000e-02
349.231320	1.566884	dec_social_low	1.566884	32.000000	n/a	0	-2.330729e-01	-2.330729e-01
349.231320	1.566884	dec_social_reject_low	1.566884	32.000000	n/a	2	-1.705729e-01	-2.330729e-01
356.065120	1.515988	dec_social_choice	1.515988	16.000000	n/a	0	0	-2.253989e-01
356.065120	1.515988	dec_choice	1.515988	16.000000	n/a	0	0	-2.330729e-01
356.065120	1.515988	dec_social_reject	1.515988	16.000000	n/a	0	0	1.123047e-01
356.065120	1.515988	dec_reject	1.515988	16.000000	n/a	0	0	1.062500e-01
356.065120	1.515988	dec_social_reject_low	1.515988	16.000000	n/a	4	1.692708e-02	-2.330729e-01
363.715150	1.516363	dec_nonsocial_choice	1.516363	32.000000	n/a	0	0	-2.253989e-01
363.715150	1.516363	dec_choice	1.516363	32.000000	n/a	0	0	-2.173913e-01
363.715150	1.516363	dec_nonsocial_reject	1.516363	32.000000	n/a	0	0	1.123047e-01
363.715150	1.516363	dec_reject	1.516363	32.000000	n/a	0	0	1.176471e-01
363.715150	1.516363	dec_nonsocial_reject_low	1.516363	32.000000	n/a	8	1.062500e-01	-1.437500e-01
370.547550	1.234090	dec_social_choice	1.234090	16.000000	n/a	0	0	-2.253989e-01
370.547550	1.234090	dec_choice	1.234090	16.000000	n/a	0	0	-2.330729e-01
370.547550	1.234090	dec_social_reject	1.234090	16.000000	n/a	0	0	-7.519531e-02
370.547550	1.234090	dec_reject	1.234090	16.000000	n/a	0	0	-8.125000e-02
370.547550	1.234090	dec_social_reject_low	1.234090	16.000000	n/a	1	-1.705729e-01	-2.330729e-01
