onset	duration	trial_type	response_time	Endowment	Endowment_pmod	Decision	Decision_pmod	Offer_pmod
4.550746	2	cue_social	n/a	16	-8	n/a	n/a	n/a
4.550746	2	cue_social_low	n/a	16	-11	n/a	n/a	n/a
11.400608	2	cue_social	n/a	16	-8	n/a	n/a	n/a
11.400608	2	cue_social_low	n/a	16	-11	n/a	n/a	n/a
18.175825	2	cue_nonsocial	n/a	16	-11	n/a	n/a	n/a
18.175825	2	cue_nonsocial_low	n/a	16	-8	n/a	n/a	n/a
25.048407	2	cue_social	n/a	16	-8	n/a	n/a	n/a
25.048407	2	cue_social_low	n/a	16	-11	n/a	n/a	n/a
32.689260	2	cue_social	n/a	16	-8	n/a	n/a	n/a
32.689260	2	cue_social_low	n/a	16	-11	n/a	n/a	n/a
43.534702	2	cue_social	n/a	32	8	n/a	n/a	n/a
43.534702	2	cue_social_high	n/a	32	5	n/a	n/a	n/a
50.359210	2	cue_nonsocial	n/a	32	5	n/a	n/a	n/a
50.359210	2	cue_nonsocial_high	n/a	32	8	n/a	n/a	n/a
58.026035	2	cue_nonsocial	n/a	32	5	n/a	n/a	n/a
58.026035	2	cue_nonsocial_high	n/a	32	8	n/a	n/a	n/a
68.892540	2	cue_nonsocial	n/a	32	5	n/a	n/a	n/a
68.892540	2	cue_nonsocial_high	n/a	32	8	n/a	n/a	n/a
75.725845	2	cue_nonsocial	n/a	16	-11	n/a	n/a	n/a
75.725845	2	cue_nonsocial_low	n/a	16	-8	n/a	n/a	n/a
82.558784	2	cue_nonsocial	n/a	32	5	n/a	n/a	n/a
82.558784	2	cue_nonsocial_high	n/a	32	8	n/a	n/a	n/a
91.825580	2	cue_nonsocial	n/a	32	5	n/a	n/a	n/a
91.825580	2	cue_nonsocial_high	n/a	32	8	n/a	n/a	n/a
99.475640	2	cue_nonsocial	n/a	32	5	n/a	n/a	n/a
99.475640	2	cue_nonsocial_high	n/a	32	8	n/a	n/a	n/a
108.782800	2	cue_social	n/a	32	8	n/a	n/a	n/a
108.782800	2	cue_social_high	n/a	32	5	n/a	n/a	n/a
119.592540	2	cue_nonsocial	n/a	32	5	n/a	n/a	n/a
119.592540	2	cue_nonsocial_high	n/a	32	8	n/a	n/a	n/a
126.442375	2	cue_nonsocial	n/a	16	-11	n/a	n/a	n/a
126.442375	2	cue_nonsocial_low	n/a	16	-8	n/a	n/a	n/a
133.275570	2	cue_nonsocial	n/a	32	5	n/a	n/a	n/a
133.275570	2	cue_nonsocial_high	n/a	32	8	n/a	n/a	n/a
140.108870	2	cue_nonsocial	n/a	16	-11	n/a	n/a	n/a
140.108870	2	cue_nonsocial_low	n/a	16	-8	n/a	n/a	n/a
147.784150	2	cue_social	n/a	16	-8	n/a	n/a	n/a
147.784150	2	cue_social_low	n/a	16	-11	n/a	n/a	n/a
154.622560	2	cue_social	n/a	32	8	n/a	n/a	n/a
154.622560	2	cue_social_high	n/a	32	5	n/a	n/a	n/a
163.888750	2	cue_social	n/a	32	8	n/a	n/a	n/a
163.888750	2	cue_social_high	n/a	32	5	n/a	n/a	n/a
170.701890	2	cue_social	n/a	32	8	n/a	n/a	n/a
170.701890	2	cue_social_high	n/a	32	5	n/a	n/a	n/a
183.158860	2	cue_nonsocial	n/a	32	5	n/a	n/a	n/a
183.158860	2	cue_nonsocial_high	n/a	32	8	n/a	n/a	n/a
190.021470	2	cue_social	n/a	16	-8	n/a	n/a	n/a
190.021470	2	cue_social_low	n/a	16	-11	n/a	n/a	n/a
196.909730	2	cue_social	n/a	32	8	n/a	n/a	n/a
196.909730	2	cue_social_high	n/a	32	5	n/a	n/a	n/a
203.658890	2	cue_nonsocial	n/a	32	5	n/a	n/a	n/a
203.658890	2	cue_nonsocial_high	n/a	32	8	n/a	n/a	n/a
210.492550	2	cue_nonsocial	n/a	32	5	n/a	n/a	n/a
210.492550	2	cue_nonsocial_high	n/a	32	8	n/a	n/a	n/a
218.250470	2	cue_social	n/a	32	8	n/a	n/a	n/a
218.250470	2	cue_social_high	n/a	32	5	n/a	n/a	n/a
225.024830	2	cue_social	n/a	16	-8	n/a	n/a	n/a
225.024830	2	cue_social_low	n/a	16	-11	n/a	n/a	n/a
231.839700	2	cue_social	n/a	32	8	n/a	n/a	n/a
231.839700	2	cue_social_high	n/a	32	5	n/a	n/a	n/a
239.491780	2	cue_social	n/a	32	8	n/a	n/a	n/a
239.491780	2	cue_social_high	n/a	32	5	n/a	n/a	n/a
247.137850	2	cue_social	n/a	32	8	n/a	n/a	n/a
247.137850	2	cue_social_high	n/a	32	5	n/a	n/a	n/a
254.782460	2	cue_social	n/a	16	-8	n/a	n/a	n/a
254.782460	2	cue_social_low	n/a	16	-11	n/a	n/a	n/a
262.426300	2	cue_social	n/a	16	-8	n/a	n/a	n/a
262.426300	2	cue_social_low	n/a	16	-11	n/a	n/a	n/a
270.025850	2	cue_nonsocial	n/a	16	-11	n/a	n/a	n/a
270.025850	2	cue_nonsocial_low	n/a	16	-8	n/a	n/a	n/a
276.889220	2	cue_social	n/a	16	-8	n/a	n/a	n/a
276.889220	2	cue_social_low	n/a	16	-11	n/a	n/a	n/a
283.691700	2	cue_nonsocial	n/a	32	5	n/a	n/a	n/a
283.691700	2	cue_nonsocial_high	n/a	32	8	n/a	n/a	n/a
290.525500	2	cue_nonsocial	n/a	32	5	n/a	n/a	n/a
290.525500	2	cue_nonsocial_high	n/a	32	8	n/a	n/a	n/a
297.404720	2	cue_social	n/a	16	-8	n/a	n/a	n/a
297.404720	2	cue_social_low	n/a	16	-11	n/a	n/a	n/a
306.608150	2	cue_nonsocial	n/a	32	5	n/a	n/a	n/a
306.608150	2	cue_nonsocial_high	n/a	32	8	n/a	n/a	n/a
314.280760	2	cue_social	n/a	32	8	n/a	n/a	n/a
314.280760	2	cue_social_high	n/a	32	5	n/a	n/a	n/a
321.892240	2	cue_nonsocial	n/a	16	-11	n/a	n/a	n/a
321.892240	2	cue_nonsocial_low	n/a	16	-8	n/a	n/a	n/a
328.725220	2	cue_nonsocial	n/a	32	5	n/a	n/a	n/a
328.725220	2	cue_nonsocial_high	n/a	32	8	n/a	n/a	n/a
335.558470	2	cue_nonsocial	n/a	16	-11	n/a	n/a	n/a
335.558470	2	cue_nonsocial_low	n/a	16	-8	n/a	n/a	n/a
344.868400	2	cue_social	n/a	16	-8	n/a	n/a	n/a
344.868400	2	cue_social_low	n/a	16	-11	n/a	n/a	n/a
354.058620	2	cue_nonsocial	n/a	16	-11	n/a	n/a	n/a
354.058620	2	cue_nonsocial_low	n/a	16	-8	n/a	n/a	n/a
360.919700	2	cue_social	n/a	32	8	n/a	n/a	n/a
360.919700	2	cue_social_high	n/a	32	5	n/a	n/a	n/a
370.158970	2	cue_nonsocial	n/a	32	5	n/a	n/a	n/a
370.158970	2	cue_nonsocial_high	n/a	32	8	n/a	n/a	n/a
6.516933	1.749658	dec_social_choice	1.749658	16.000000	n/a	0	0	-2.263720e-01
6.516933	1.749658	dec_choice	1.749658	16.000000	n/a	0	0	-2.336310e-01
6.516933	1.749658	dec_social_reject	1.749658	16.000000	n/a	0	0	1.277174e-01
6.516933	1.749658	dec_reject	1.749658	16.000000	n/a	0	0	1.193182e-01
6.516933	1.749658	dec_social_reject_low	1.749658	16.000000	n/a	4	1.636905e-02	-2.336310e-01
13.349447	1.350404	dec_social_choice	1.350404	16.000000	n/a	0	0	-2.263720e-01
13.349447	1.350404	dec_choice	1.350404	16.000000	n/a	0	0	-2.336310e-01
13.349447	1.350404	dec_social_reject	1.350404	16.000000	n/a	0	0	-5.978261e-02
13.349447	1.350404	dec_reject	1.350404	16.000000	n/a	0	0	-6.818182e-02
13.349447	1.350404	dec_social_reject_low	1.350404	16.000000	n/a	1	-1.711310e-01	-2.336310e-01
20.184050	0.949094	dec_nonsocial_choice	0.949094	16.000000	n/a	0	0	-2.263720e-01
20.184050	0.949094	dec_choice	0.949094	16.000000	n/a	0	0	-2.187500e-01
20.184050	0.949094	dec_nonsocial_reject	0.949094	16.000000	n/a	0	0	2.717391e-03
20.184050	0.949094	dec_reject	0.949094	16.000000	n/a	0	0	1.041667e-02
20.184050	0.949094	dec_nonsocial_reject_low	0.949094	16.000000	n/a	2	-5.681818e-03	-1.306818e-01
27.016008	1.283799	dec_social_choice	1.283799	16.000000	n/a	0	0	-2.263720e-01
27.016008	1.283799	dec_choice	1.283799	16.000000	n/a	0	0	-2.336310e-01
27.016008	1.283799	dec_social_reject	1.283799	16.000000	n/a	0	0	-5.978261e-02
27.016008	1.283799	dec_reject	1.283799	16.000000	n/a	0	0	-6.818182e-02
27.016008	1.283799	dec_social_reject_low	1.283799	16.000000	n/a	1	-1.711310e-01	-2.336310e-01
34.666030	1.466809	dec_social_choice	1.466809	16.000000	n/a	8	2.736280e-01	2.736280e-01
34.666030	1.466809	dec_choice	1.466809	16.000000	n/a	8	2.663690e-01	2.663690e-01
34.666030	1.466809	dec_social_accept	1.466809	16.000000	n/a	8	1.406250e-01	1.406250e-01
34.666030	1.466809	dec_accept	1.466809	16.000000	n/a	8	1.531250e-01	1.531250e-01
34.666030	1.466809	dec_social_high	1.466809	16.000000	n/a	8	2.663690e-01	2.663690e-01
34.666030	1.466809	dec_social_accept_high	1.466809	16.000000	n/a	8	2.663690e-01	2.663690e-01
45.533024	1.350022	dec_social_choice	1.350022	32.000000	n/a	0	0	-2.263720e-01
45.533024	1.350022	dec_choice	1.350022	32.000000	n/a	0	0	-2.336310e-01
45.533024	1.350022	dec_social_reject	1.350022	32.000000	n/a	0	0	-2.853261e-02
45.533024	1.350022	dec_reject	1.350022	32.000000	n/a	0	0	-3.693182e-02
45.533024	1.350022	dec_social_reject_low	1.350022	32.000000	n/a	3	-1.398810e-01	-2.336310e-01
52.366146	3.766946	missed_trial	3.766946	32.000000	n/a	n/a	n/a	n/a
60.033726	1.765176	dec_nonsocial_choice	1.765176	32.000000	n/a	8	2.362805e-02	2.362805e-02
60.033726	1.765176	dec_choice	1.765176	32.000000	n/a	8	3.125000e-02	3.125000e-02
60.033726	1.765176	dec_nonsocial_accept	1.765176	32.000000	n/a	8	-1.093750e-01	-1.093750e-01
60.033726	1.765176	dec_accept	1.765176	32.000000	n/a	8	-1.250000e-01	-1.250000e-01
60.033726	1.765176	dec_nonsocial_accept_high	1.765176	32.000000	n/a	8	-9.687500e-02	-9.687500e-02
70.900024	1.449841	dec_nonsocial_choice	1.449841	32.000000	n/a	16	2.736280e-01	2.736280e-01
70.900024	1.449841	dec_choice	1.449841	32.000000	n/a	16	2.812500e-01	2.812500e-01
70.900024	1.449841	dec_nonsocial_accept	1.449841	32.000000	n/a	16	1.406250e-01	1.406250e-01
70.900024	1.449841	dec_accept	1.449841	32.000000	n/a	16	1.250000e-01	1.250000e-01
70.900024	1.449841	dec_nonsocial_high	1.449841	32.000000	n/a	16	2.812500e-01	2.812500e-01
70.900024	1.449841	dec_nonsocial_accept_high	1.449841	32.000000	n/a	16	1.250000e-01	1.250000e-01
77.733025	1.099849	dec_nonsocial_choice	1.099849	16.000000	n/a	0	0	-2.263720e-01
77.733025	1.099849	dec_choice	1.099849	16.000000	n/a	0	0	-2.187500e-01
77.733025	1.099849	dec_nonsocial_reject	1.099849	16.000000	n/a	0	0	1.277174e-01
77.733025	1.099849	dec_reject	1.099849	16.000000	n/a	0	0	1.354167e-01
77.733025	1.099849	dec_nonsocial_reject_low	1.099849	16.000000	n/a	4	1.193182e-01	-1.306818e-01
84.567055	0.915557	dec_nonsocial_choice	0.915557	32.000000	n/a	0	0	-2.263720e-01
84.567055	0.915557	dec_choice	0.915557	32.000000	n/a	0	0	-2.187500e-01
84.567055	0.915557	dec_nonsocial_reject	0.915557	32.000000	n/a	0	0	-5.978261e-02
84.567055	0.915557	dec_reject	0.915557	32.000000	n/a	0	0	-5.208333e-02
84.567055	0.915557	dec_nonsocial_reject_low	0.915557	32.000000	n/a	2	-6.818182e-02	-1.306818e-01
93.833020	1.815856	dec_nonsocial_choice	1.815856	32.000000	n/a	8	2.362805e-02	2.362805e-02
93.833020	1.815856	dec_choice	1.815856	32.000000	n/a	8	3.125000e-02	3.125000e-02
93.833020	1.815856	dec_nonsocial_accept	1.815856	32.000000	n/a	8	-1.093750e-01	-1.093750e-01
93.833020	1.815856	dec_accept	1.815856	32.000000	n/a	8	-1.250000e-01	-1.250000e-01
93.833020	1.815856	dec_nonsocial_high	1.815856	32.000000	n/a	8	3.125000e-02	3.125000e-02
93.833020	1.815856	dec_nonsocial_accept_high	1.815856	32.000000	n/a	8	-1.250000e-01	-1.250000e-01
101.483050	1.033187	dec_nonsocial_choice	1.033187	32.000000	n/a	8	2.362805e-02	2.362805e-02
101.483050	1.033187	dec_choice	1.033187	32.000000	n/a	8	3.125000e-02	3.125000e-02
101.483050	1.033187	dec_nonsocial_accept	1.033187	32.000000	n/a	8	-1.093750e-01	-1.093750e-01
101.483050	1.033187	dec_accept	1.033187	32.000000	n/a	8	-1.250000e-01	-1.250000e-01
101.483050	1.033187	dec_nonsocial_high	1.033187	32.000000	n/a	8	3.125000e-02	3.125000e-02
101.483050	1.033187	dec_nonsocial_accept_high	1.033187	32.000000	n/a	8	-1.250000e-01	-1.250000e-01
110.733550	1.182567	dec_social_choice	1.182567	32.000000	n/a	0	0	-2.263720e-01
110.733550	1.182567	dec_choice	1.182567	32.000000	n/a	0	0	-2.336310e-01
110.733550	1.182567	dec_social_reject	1.182567	32.000000	n/a	0	0	-5.978261e-02
110.733550	1.182567	dec_reject	1.182567	32.000000	n/a	0	0	-6.818182e-02
110.733550	1.182567	dec_social_reject_low	1.182567	32.000000	n/a	2	-1.711310e-01	-2.336310e-01
121.600000	3.766946	missed_trial	3.766946	32.000000	n/a	n/a	n/a	n/a
128.449020	2.000393	dec_nonsocial_choice	2.000393	16.000000	n/a	0	0	-2.263720e-01
128.449020	2.000393	dec_choice	2.000393	16.000000	n/a	0	0	-2.187500e-01
128.449020	2.000393	dec_nonsocial_reject	2.000393	16.000000	n/a	0	0	-5.978261e-02
128.449020	2.000393	dec_reject	2.000393	16.000000	n/a	0	0	-5.208333e-02
128.449020	2.000393	dec_nonsocial_low	2.000393	16.000000	n/a	0	-2.187500e-01	-2.187500e-01
128.449020	2.000393	dec_nonsocial_reject_low	2.000393	16.000000	n/a	1	-5.208333e-02	-1.145833e-01
135.283050	1.116175	dec_nonsocial_choice	1.116175	32.000000	n/a	16	2.736280e-01	2.736280e-01
135.283050	1.116175	dec_choice	1.116175	32.000000	n/a	16	2.812500e-01	2.812500e-01
135.283050	1.116175	dec_nonsocial_accept	1.116175	32.000000	n/a	16	1.406250e-01	1.406250e-01
135.283050	1.116175	dec_accept	1.116175	32.000000	n/a	16	1.250000e-01	1.250000e-01
135.283050	1.116175	dec_nonsocial_accept_high	1.116175	32.000000	n/a	16	1.531250e-01	1.531250e-01
142.116010	1.183614	dec_nonsocial_choice	1.183614	16.000000	n/a	8	2.736280e-01	2.736280e-01
142.116010	1.183614	dec_choice	1.183614	16.000000	n/a	8	2.812500e-01	2.812500e-01
142.116010	1.183614	dec_nonsocial_accept	1.183614	16.000000	n/a	8	1.406250e-01	1.406250e-01
142.116010	1.183614	dec_accept	1.183614	16.000000	n/a	8	1.250000e-01	1.250000e-01
142.116010	1.183614	dec_nonsocial_high	1.183614	16.000000	n/a	8	2.812500e-01	2.812500e-01
142.116010	1.183614	dec_nonsocial_accept_high	1.183614	16.000000	n/a	8	1.250000e-01	1.250000e-01
149.765080	1.301171	dec_social_choice	1.301171	16.000000	n/a	8	2.736280e-01	2.736280e-01
149.765080	1.301171	dec_choice	1.301171	16.000000	n/a	8	2.663690e-01	2.663690e-01
149.765080	1.301171	dec_social_accept	1.301171	16.000000	n/a	8	1.406250e-01	1.406250e-01
149.765080	1.301171	dec_accept	1.301171	16.000000	n/a	8	1.531250e-01	1.531250e-01
149.765080	1.301171	dec_social_accept_high	1.301171	16.000000	n/a	8	2.663690e-01	2.663690e-01
156.598190	1.551209	dec_social_choice	1.551209	32.000000	n/a	8	2.362805e-02	2.362805e-02
156.598190	1.551209	dec_choice	1.551209	32.000000	n/a	8	1.636905e-02	1.636905e-02
156.598190	1.551209	dec_social_accept	1.551209	32.000000	n/a	8	-1.093750e-01	-1.093750e-01
156.598190	1.551209	dec_accept	1.551209	32.000000	n/a	8	-9.687500e-02	-9.687500e-02
156.598190	1.551209	dec_social_high	1.551209	32.000000	n/a	8	1.636905e-02	1.636905e-02
156.598190	1.551209	dec_social_accept_high	1.551209	32.000000	n/a	8	1.636905e-02	1.636905e-02
165.849000	2.733900	dec_social_choice	2.733900	32.000000	n/a	8	2.362805e-02	2.362805e-02
165.849000	2.733900	dec_choice	2.733900	32.000000	n/a	8	1.636905e-02	1.636905e-02
165.849000	2.733900	dec_social_accept	2.733900	32.000000	n/a	8	-1.093750e-01	-1.093750e-01
165.849000	2.733900	dec_accept	2.733900	32.000000	n/a	8	-9.687500e-02	-9.687500e-02
165.849000	2.733900	dec_social_high	2.733900	32.000000	n/a	8	1.636905e-02	1.636905e-02
165.849000	2.733900	dec_social_accept_high	2.733900	32.000000	n/a	8	1.636905e-02	1.636905e-02
172.682360	1.433392	dec_social_choice	1.433392	32.000000	n/a	0	0	-2.263720e-01
172.682360	1.433392	dec_choice	1.433392	32.000000	n/a	0	0	-2.336310e-01
172.682360	1.433392	dec_social_reject	1.433392	32.000000	n/a	0	0	-5.978261e-02
172.682360	1.433392	dec_reject	1.433392	32.000000	n/a	0	0	-6.818182e-02
172.682360	1.433392	dec_social_low	1.433392	32.000000	n/a	0	-2.336310e-01	-2.336310e-01
172.682360	1.433392	dec_social_reject_low	1.433392	32.000000	n/a	2	-1.711310e-01	-2.336310e-01
185.166030	1.333358	dec_nonsocial_choice	1.333358	32.000000	n/a	0	0	-2.263720e-01
185.166030	1.333358	dec_choice	1.333358	32.000000	n/a	0	0	-2.187500e-01
185.166030	1.333358	dec_nonsocial_reject	1.333358	32.000000	n/a	0	0	-2.853261e-02
185.166030	1.333358	dec_reject	1.333358	32.000000	n/a	0	0	-2.083333e-02
185.166030	1.333358	dec_nonsocial_reject_low	1.333358	32.000000	n/a	3	-3.693182e-02	-1.306818e-01
191.998830	1.850677	dec_social_choice	1.850677	16.000000	n/a	0	0	-2.263720e-01
191.998830	1.850677	dec_choice	1.850677	16.000000	n/a	0	0	-2.336310e-01
191.998830	1.850677	dec_social_reject	1.850677	16.000000	n/a	0	0	3.777174e-01
191.998830	1.850677	dec_reject	1.850677	16.000000	n/a	0	0	3.693182e-01
191.998830	1.850677	dec_social_low	1.850677	16.000000	n/a	0	-2.336310e-01	-2.336310e-01
191.998830	1.850677	dec_social_reject_low	1.850677	16.000000	n/a	8	2.663690e-01	-2.336310e-01
198.832030	1.350836	dec_social_choice	1.350836	32.000000	n/a	0	0	-2.263720e-01
198.832030	1.350836	dec_choice	1.350836	32.000000	n/a	0	0	-2.336310e-01
198.832030	1.350836	dec_social_reject	1.350836	32.000000	n/a	0	0	-2.853261e-02
198.832030	1.350836	dec_reject	1.350836	32.000000	n/a	0	0	-3.693182e-02
198.832030	1.350836	dec_social_reject_low	1.350836	32.000000	n/a	3	-1.398810e-01	-2.336310e-01
205.666020	0.966246	dec_nonsocial_choice	0.966246	32.000000	n/a	0	0	-2.263720e-01
205.666020	0.966246	dec_choice	0.966246	32.000000	n/a	0	0	-2.187500e-01
205.666020	0.966246	dec_nonsocial_reject	0.966246	32.000000	n/a	0	0	-5.978261e-02
205.666020	0.966246	dec_reject	0.966246	32.000000	n/a	0	0	-5.208333e-02
205.666020	0.966246	dec_nonsocial_reject_low	0.966246	32.000000	n/a	2	-6.818182e-02	-1.306818e-01
212.498830	1.233470	dec_nonsocial_choice	1.233470	32.000000	n/a	16	2.736280e-01	2.736280e-01
212.498830	1.233470	dec_choice	1.233470	32.000000	n/a	16	2.812500e-01	2.812500e-01
212.498830	1.233470	dec_nonsocial_accept	1.233470	32.000000	n/a	16	1.406250e-01	1.406250e-01
212.498830	1.233470	dec_accept	1.233470	32.000000	n/a	16	1.250000e-01	1.250000e-01
212.498830	1.233470	dec_nonsocial_high	1.233470	32.000000	n/a	16	2.812500e-01	2.812500e-01
212.498830	1.233470	dec_nonsocial_accept_high	1.233470	32.000000	n/a	16	1.250000e-01	1.250000e-01
220.149060	2.316596	dec_social_choice	2.316596	32.000000	n/a	3	-1.326220e-01	-1.326220e-01
220.149060	2.316596	dec_choice	2.316596	32.000000	n/a	3	-1.398810e-01	-1.398810e-01
220.149060	2.316596	dec_social_accept	2.316596	32.000000	n/a	3	-2.656250e-01	-2.656250e-01
220.149060	2.316596	dec_accept	2.316596	32.000000	n/a	3	-2.531250e-01	-2.531250e-01
220.149060	2.316596	dec_social_accept_low	2.316596	32.000000	n/a	3	-1.398810e-01	-1.398810e-01
226.982960	2.315578	dec_social_choice	2.315578	16.000000	n/a	8	2.736280e-01	2.736280e-01
226.982960	2.315578	dec_choice	2.315578	16.000000	n/a	8	2.663690e-01	2.663690e-01
226.982960	2.315578	dec_social_accept	2.315578	16.000000	n/a	8	1.406250e-01	1.406250e-01
226.982960	2.315578	dec_accept	2.315578	16.000000	n/a	8	1.531250e-01	1.531250e-01
226.982960	2.315578	dec_social_accept_high	2.315578	16.000000	n/a	8	2.663690e-01	2.663690e-01
233.816090	1.900023	dec_social_choice	1.900023	32.000000	n/a	8	2.362805e-02	2.362805e-02
233.816090	1.900023	dec_choice	1.900023	32.000000	n/a	8	1.636905e-02	1.636905e-02
233.816090	1.900023	dec_social_accept	1.900023	32.000000	n/a	8	-1.093750e-01	-1.093750e-01
233.816090	1.900023	dec_accept	1.900023	32.000000	n/a	8	-9.687500e-02	-9.687500e-02
233.816090	1.900023	dec_social_high	1.900023	32.000000	n/a	8	1.636905e-02	1.636905e-02
233.816090	1.900023	dec_social_accept_high	1.900023	32.000000	n/a	8	1.636905e-02	1.636905e-02
241.465060	3.766946	missed_trial	3.766946	32.000000	n/a	n/a	n/a	n/a
249.115310	3.766946	missed_trial	3.766946	32.000000	n/a	n/a	n/a	n/a
256.749050	2.350085	dec_social_choice	2.350085	16.000000	n/a	2	-1.013720e-01	-1.013720e-01
256.749050	2.350085	dec_choice	2.350085	16.000000	n/a	2	-1.086310e-01	-1.086310e-01
256.749050	2.350085	dec_social_accept	2.350085	16.000000	n/a	2	-2.343750e-01	-2.343750e-01
256.749050	2.350085	dec_accept	2.350085	16.000000	n/a	2	-2.218750e-01	-2.218750e-01
256.749050	2.350085	dec_social_low	2.350085	16.000000	n/a	2	-1.086310e-01	-1.086310e-01
256.749050	2.350085	dec_social_accept_low	2.350085	16.000000	n/a	2	-1.086310e-01	-1.086310e-01
264.398100	1.051017	dec_social_choice	1.051017	16.000000	n/a	0	0	-2.263720e-01
264.398100	1.051017	dec_choice	1.051017	16.000000	n/a	0	0	-2.336310e-01
264.398100	1.051017	dec_social_reject	1.051017	16.000000	n/a	0	0	2.717391e-03
264.398100	1.051017	dec_reject	1.051017	16.000000	n/a	0	0	-5.681818e-03
264.398100	1.051017	dec_social_reject_low	1.051017	16.000000	n/a	2	-1.086310e-01	-2.336310e-01
272.032040	1.150618	dec_nonsocial_choice	1.150618	16.000000	n/a	0	0	-2.263720e-01
272.032040	1.150618	dec_choice	1.150618	16.000000	n/a	0	0	-2.187500e-01
272.032040	1.150618	dec_nonsocial_reject	1.150618	16.000000	n/a	0	0	2.717391e-03
272.032040	1.150618	dec_reject	1.150618	16.000000	n/a	0	0	1.041667e-02
272.032040	1.150618	dec_nonsocial_low	1.150618	16.000000	n/a	0	-2.187500e-01	-2.187500e-01
272.032040	1.150618	dec_nonsocial_reject_low	1.150618	16.000000	n/a	2	1.041667e-02	-1.145833e-01
278.864200	1.168267	dec_social_choice	1.168267	16.000000	n/a	8	2.736280e-01	2.736280e-01
278.864200	1.168267	dec_choice	1.168267	16.000000	n/a	8	2.663690e-01	2.663690e-01
278.864200	1.168267	dec_social_accept	1.168267	16.000000	n/a	8	1.406250e-01	1.406250e-01
278.864200	1.168267	dec_accept	1.168267	16.000000	n/a	8	1.531250e-01	1.531250e-01
278.864200	1.168267	dec_social_high	1.168267	16.000000	n/a	8	2.663690e-01	2.663690e-01
278.864200	1.168267	dec_social_accept_high	1.168267	16.000000	n/a	8	2.663690e-01	2.663690e-01
285.699160	1.283493	dec_nonsocial_choice	1.283493	32.000000	n/a	0	0	-2.263720e-01
285.699160	1.283493	dec_choice	1.283493	32.000000	n/a	0	0	-2.187500e-01
285.699160	1.283493	dec_nonsocial_reject	1.283493	32.000000	n/a	0	0	-5.978261e-02
285.699160	1.283493	dec_reject	1.283493	32.000000	n/a	0	0	-5.208333e-02
285.699160	1.283493	dec_nonsocial_low	1.283493	32.000000	n/a	0	-2.187500e-01	-2.187500e-01
285.699160	1.283493	dec_nonsocial_reject_low	1.283493	32.000000	n/a	2	-5.208333e-02	-1.145833e-01
292.533050	1.615634	dec_nonsocial_choice	1.615634	32.000000	n/a	8	2.362805e-02	2.362805e-02
292.533050	1.615634	dec_choice	1.615634	32.000000	n/a	8	3.125000e-02	3.125000e-02
292.533050	1.615634	dec_nonsocial_accept	1.615634	32.000000	n/a	8	-1.093750e-01	-1.093750e-01
292.533050	1.615634	dec_accept	1.615634	32.000000	n/a	8	-1.250000e-01	-1.250000e-01
292.533050	1.615634	dec_nonsocial_high	1.615634	32.000000	n/a	8	3.125000e-02	3.125000e-02
292.533050	1.615634	dec_nonsocial_accept_high	1.615634	32.000000	n/a	8	-1.250000e-01	-1.250000e-01
299.366060	1.616059	dec_social_choice	1.616059	16.000000	n/a	8	2.736280e-01	2.736280e-01
299.366060	1.616059	dec_choice	1.616059	16.000000	n/a	8	2.663690e-01	2.663690e-01
299.366060	1.616059	dec_social_accept	1.616059	16.000000	n/a	8	1.406250e-01	1.406250e-01
299.366060	1.616059	dec_accept	1.616059	16.000000	n/a	8	1.531250e-01	1.531250e-01
299.366060	1.616059	dec_social_high	1.616059	16.000000	n/a	8	2.663690e-01	2.663690e-01
299.366060	1.616059	dec_social_accept_high	1.616059	16.000000	n/a	8	2.663690e-01	2.663690e-01
308.615940	1.016152	dec_nonsocial_choice	1.016152	32.000000	n/a	0	0	-2.263720e-01
308.615940	1.016152	dec_choice	1.016152	32.000000	n/a	0	0	-2.187500e-01
308.615940	1.016152	dec_nonsocial_reject	1.016152	32.000000	n/a	0	0	-2.853261e-02
308.615940	1.016152	dec_reject	1.016152	32.000000	n/a	0	0	-2.083333e-02
308.615940	1.016152	dec_nonsocial_reject_low	1.016152	32.000000	n/a	3	-3.693182e-02	-1.306818e-01
316.265050	0.967297	dec_social_choice	0.967297	32.000000	n/a	0	0	-2.263720e-01
316.265050	0.967297	dec_choice	0.967297	32.000000	n/a	0	0	-2.336310e-01
316.265050	0.967297	dec_social_reject	0.967297	32.000000	n/a	0	0	-5.978261e-02
316.265050	0.967297	dec_reject	0.967297	32.000000	n/a	0	0	-6.818182e-02
316.265050	0.967297	dec_social_reject_low	0.967297	32.000000	n/a	2	-1.711310e-01	-2.336310e-01
323.899050	1.033468	dec_nonsocial_choice	1.033468	16.000000	n/a	0	0	-2.263720e-01
323.899050	1.033468	dec_choice	1.033468	16.000000	n/a	0	0	-2.187500e-01
323.899050	1.033468	dec_nonsocial_reject	1.033468	16.000000	n/a	0	0	2.717391e-03
323.899050	1.033468	dec_reject	1.033468	16.000000	n/a	0	0	1.041667e-02
323.899050	1.033468	dec_nonsocial_reject_low	1.033468	16.000000	n/a	2	-5.681818e-03	-1.306818e-01
330.733100	1.432762	dec_nonsocial_choice	1.432762	32.000000	n/a	0	0	-2.263720e-01
330.733100	1.432762	dec_choice	1.432762	32.000000	n/a	0	0	-2.187500e-01
330.733100	1.432762	dec_nonsocial_reject	1.432762	32.000000	n/a	0	0	-5.978261e-02
330.733100	1.432762	dec_reject	1.432762	32.000000	n/a	0	0	-5.208333e-02
330.733100	1.432762	dec_nonsocial_low	1.432762	32.000000	n/a	0	-2.187500e-01	-2.187500e-01
330.733100	1.432762	dec_nonsocial_reject_low	1.432762	32.000000	n/a	2	-5.208333e-02	-1.145833e-01
337.565700	1.333428	dec_nonsocial_choice	1.333428	16.000000	n/a	0	0	-2.263720e-01
337.565700	1.333428	dec_choice	1.333428	16.000000	n/a	0	0	-2.187500e-01
337.565700	1.333428	dec_nonsocial_reject	1.333428	16.000000	n/a	0	0	1.277174e-01
337.565700	1.333428	dec_reject	1.333428	16.000000	n/a	0	0	1.354167e-01
337.565700	1.333428	dec_nonsocial_low	1.333428	16.000000	n/a	0	-2.187500e-01	-2.187500e-01
337.565700	1.333428	dec_nonsocial_reject_low	1.333428	16.000000	n/a	4	1.354167e-01	-1.145833e-01
346.816070	1.299686	dec_social_choice	1.299686	16.000000	n/a	0	0	-2.263720e-01
346.816070	1.299686	dec_choice	1.299686	16.000000	n/a	0	0	-2.336310e-01
346.816070	1.299686	dec_social_reject	1.299686	16.000000	n/a	0	0	-5.978261e-02
346.816070	1.299686	dec_reject	1.299686	16.000000	n/a	0	0	-6.818182e-02
346.816070	1.299686	dec_social_reject_low	1.299686	16.000000	n/a	1	-1.711310e-01	-2.336310e-01
356.065060	3.766946	missed_trial	3.766946	16.000000	n/a	n/a	n/a	n/a
362.898160	3.766946	missed_trial	3.766946	32.000000	n/a	n/a	n/a	n/a
372.148380	3.766946	missed_trial	3.766946	32.000000	n/a	n/a	n/a	n/a
