onset	duration	trial_type	response_time	Endowment	Endowment_pmod	Decision	Decision_pmod	Offer_pmod
4.504728	2	cue_nonsocial	n/a	16	-10	n/a	n/a	n/a
4.504728	2	cue_nonsocial_low	n/a	16	-9	n/a	n/a	n/a
12.154534	2	cue_nonsocial	n/a	32	6	n/a	n/a	n/a
12.154534	2	cue_nonsocial_high	n/a	32	7	n/a	n/a	n/a
19.054218	2	cue_social	n/a	16	-9	n/a	n/a	n/a
19.054218	2	cue_social_low	n/a	16	-10	n/a	n/a	n/a
26.683668	2	cue_social	n/a	32	7	n/a	n/a	n/a
26.683668	2	cue_social_high	n/a	32	6	n/a	n/a	n/a
34.333237	2	cue_social	n/a	16	-9	n/a	n/a	n/a
34.333237	2	cue_social_low	n/a	16	-10	n/a	n/a	n/a
41.211052	2	cue_social	n/a	16	-9	n/a	n/a	n/a
41.211052	2	cue_social_low	n/a	16	-10	n/a	n/a	n/a
50.468338	2	cue_social	n/a	16	-9	n/a	n/a	n/a
50.468338	2	cue_social_low	n/a	16	-10	n/a	n/a	n/a
58.021706	2	cue_nonsocial	n/a	16	-10	n/a	n/a	n/a
58.021706	2	cue_nonsocial_low	n/a	16	-9	n/a	n/a	n/a
64.854300	2	cue_nonsocial	n/a	16	-10	n/a	n/a	n/a
64.854300	2	cue_nonsocial_low	n/a	16	-9	n/a	n/a	n/a
71.687980	2	cue_nonsocial	n/a	32	6	n/a	n/a	n/a
71.687980	2	cue_nonsocial_high	n/a	32	7	n/a	n/a	n/a
78.577370	2	cue_social	n/a	32	7	n/a	n/a	n/a
78.577370	2	cue_social_high	n/a	32	6	n/a	n/a	n/a
85.415740	2	cue_social	n/a	32	7	n/a	n/a	n/a
85.415740	2	cue_social_high	n/a	32	6	n/a	n/a	n/a
93.053280	2	cue_social	n/a	32	7	n/a	n/a	n/a
93.053280	2	cue_social_high	n/a	32	6	n/a	n/a	n/a
100.654380	2	cue_nonsocial	n/a	32	6	n/a	n/a	n/a
100.654380	2	cue_nonsocial_high	n/a	32	7	n/a	n/a	n/a
109.904130	2	cue_nonsocial	n/a	16	-10	n/a	n/a	n/a
109.904130	2	cue_nonsocial_low	n/a	16	-9	n/a	n/a	n/a
117.606800	2	cue_social	n/a	16	-9	n/a	n/a	n/a
117.606800	2	cue_social_low	n/a	16	-10	n/a	n/a	n/a
124.387215	2	cue_nonsocial	n/a	32	6	n/a	n/a	n/a
124.387215	2	cue_nonsocial_high	n/a	32	7	n/a	n/a	n/a
135.254300	2	cue_nonsocial	n/a	32	6	n/a	n/a	n/a
135.254300	2	cue_nonsocial_high	n/a	32	7	n/a	n/a	n/a
142.150020	2	cue_social	n/a	32	7	n/a	n/a	n/a
142.150020	2	cue_social_high	n/a	32	6	n/a	n/a	n/a
153.052800	2	cue_social	n/a	32	7	n/a	n/a	n/a
153.052800	2	cue_social_high	n/a	32	6	n/a	n/a	n/a
159.847400	2	cue_social	n/a	32	7	n/a	n/a	n/a
159.847400	2	cue_social_high	n/a	32	6	n/a	n/a	n/a
169.091580	2	cue_social	n/a	16	-9	n/a	n/a	n/a
169.091580	2	cue_social_low	n/a	16	-10	n/a	n/a	n/a
175.870710	2	cue_nonsocial	n/a	32	6	n/a	n/a	n/a
175.870710	2	cue_nonsocial_high	n/a	32	7	n/a	n/a	n/a
186.737440	2	cue_nonsocial	n/a	32	6	n/a	n/a	n/a
186.737440	2	cue_nonsocial_high	n/a	32	7	n/a	n/a	n/a
194.445300	2	cue_social	n/a	16	-9	n/a	n/a	n/a
194.445300	2	cue_social_low	n/a	16	-10	n/a	n/a	n/a
201.220860	2	cue_nonsocial	n/a	16	-10	n/a	n/a	n/a
201.220860	2	cue_nonsocial_low	n/a	16	-9	n/a	n/a	n/a
208.117340	2	cue_social	n/a	32	7	n/a	n/a	n/a
208.117340	2	cue_social_high	n/a	32	6	n/a	n/a	n/a
214.887570	2	cue_nonsocial	n/a	16	-10	n/a	n/a	n/a
214.887570	2	cue_nonsocial_low	n/a	16	-9	n/a	n/a	n/a
221.720660	2	cue_nonsocial	n/a	16	-10	n/a	n/a	n/a
221.720660	2	cue_nonsocial_low	n/a	16	-9	n/a	n/a	n/a
230.970210	2	cue_nonsocial	n/a	32	6	n/a	n/a	n/a
230.970210	2	cue_nonsocial_high	n/a	32	7	n/a	n/a	n/a
237.803540	2	cue_nonsocial	n/a	32	6	n/a	n/a	n/a
237.803540	2	cue_nonsocial_high	n/a	32	7	n/a	n/a	n/a
245.453830	2	cue_nonsocial	n/a	32	6	n/a	n/a	n/a
245.453830	2	cue_nonsocial_high	n/a	32	7	n/a	n/a	n/a
254.703720	2	cue_nonsocial	n/a	32	6	n/a	n/a	n/a
254.703720	2	cue_nonsocial_high	n/a	32	7	n/a	n/a	n/a
261.537200	2	cue_nonsocial	n/a	32	6	n/a	n/a	n/a
261.537200	2	cue_nonsocial_high	n/a	32	7	n/a	n/a	n/a
268.425320	2	cue_social	n/a	16	-9	n/a	n/a	n/a
268.425320	2	cue_social_low	n/a	16	-10	n/a	n/a	n/a
275.203770	2	cue_nonsocial	n/a	32	6	n/a	n/a	n/a
275.203770	2	cue_nonsocial_high	n/a	32	7	n/a	n/a	n/a
282.129240	2	cue_social	n/a	16	-9	n/a	n/a	n/a
282.129240	2	cue_social_low	n/a	16	-10	n/a	n/a	n/a
291.339230	2	cue_social	n/a	32	7	n/a	n/a	n/a
291.339230	2	cue_social_high	n/a	32	6	n/a	n/a	n/a
299.008360	2	cue_social	n/a	32	7	n/a	n/a	n/a
299.008360	2	cue_social_high	n/a	32	6	n/a	n/a	n/a
305.805730	2	cue_social	n/a	16	-9	n/a	n/a	n/a
305.805730	2	cue_social_low	n/a	16	-10	n/a	n/a	n/a
312.603640	2	cue_nonsocial	n/a	32	6	n/a	n/a	n/a
312.603640	2	cue_nonsocial_high	n/a	32	7	n/a	n/a	n/a
325.086730	2	cue_nonsocial	n/a	16	-10	n/a	n/a	n/a
325.086730	2	cue_nonsocial_low	n/a	16	-9	n/a	n/a	n/a
331.990200	2	cue_social	n/a	16	-9	n/a	n/a	n/a
331.990200	2	cue_social_low	n/a	16	-10	n/a	n/a	n/a
339.611000	2	cue_social	n/a	32	7	n/a	n/a	n/a
339.611000	2	cue_social_high	n/a	32	6	n/a	n/a	n/a
346.420200	2	cue_nonsocial	n/a	32	6	n/a	n/a	n/a
346.420200	2	cue_nonsocial_high	n/a	32	7	n/a	n/a	n/a
354.098330	2	cue_social	n/a	32	7	n/a	n/a	n/a
354.098330	2	cue_social_high	n/a	32	6	n/a	n/a	n/a
360.970500	2	cue_social	n/a	32	7	n/a	n/a	n/a
360.970500	2	cue_social_high	n/a	32	6	n/a	n/a	n/a
368.537200	2	cue_nonsocial	n/a	16	-10	n/a	n/a	n/a
368.537200	2	cue_nonsocial_low	n/a	16	-9	n/a	n/a	n/a
6.512092	2.165625	dec_nonsocial_choice	2.165625	16.000000	n/a	4	2.241848e-02	2.241848e-02
6.512092	2.165625	dec_choice	2.165625	16.000000	n/a	4	1.358696e-02	1.358696e-02
6.512092	2.165625	dec_nonsocial_accept	2.165625	16.000000	n/a	4	-1.341912e-01	-1.341912e-01
6.512092	2.165625	dec_accept	2.165625	16.000000	n/a	4	-1.051136e-01	-1.051136e-01
6.512092	2.165625	dec_nonsocial_high	2.165625	16.000000	n/a	4	1.358696e-02	1.358696e-02
6.512092	2.165625	dec_nonsocial_accept_high	2.165625	16.000000	n/a	4	-1.051136e-01	-1.051136e-01
14.161686	2.249731	dec_nonsocial_choice	2.249731	32.000000	n/a	2	-1.650815e-01	-1.650815e-01
14.161686	2.249731	dec_choice	2.249731	32.000000	n/a	2	-1.739130e-01	-1.739130e-01
14.161686	2.249731	dec_nonsocial_accept	2.249731	32.000000	n/a	2	-3.216912e-01	-3.216912e-01
14.161686	2.249731	dec_accept	2.249731	32.000000	n/a	2	-2.926136e-01	-2.926136e-01
14.161686	2.249731	dec_nonsocial_accept_low	2.249731	32.000000	n/a	2	-3.750000e-01	-3.750000e-01
20.995092	1.249997	dec_social_choice	1.249997	16.000000	n/a	2	-1.025815e-01	-1.025815e-01
20.995092	1.249997	dec_choice	1.249997	16.000000	n/a	2	-9.375000e-02	-9.375000e-02
20.995092	1.249997	dec_social_accept	1.249997	16.000000	n/a	2	-2.591912e-01	-2.591912e-01
20.995092	1.249997	dec_accept	1.249997	16.000000	n/a	2	-3.125000e-01	-3.125000e-01
20.995092	1.249997	dec_social_low	1.249997	16.000000	n/a	2	-9.375000e-02	-9.375000e-02
20.995092	1.249997	dec_social_accept_low	1.249997	16.000000	n/a	2	-9.375000e-02	-9.375000e-02
28.644827	2.166215	dec_social_choice	2.166215	32.000000	n/a	0	0	-2.275815e-01
28.644827	2.166215	dec_choice	2.166215	32.000000	n/a	0	0	-2.187500e-01
28.644827	2.166215	dec_social_reject	2.166215	32.000000	n/a	0	0	1.142241e-01
28.644827	2.166215	dec_reject	2.166215	32.000000	n/a	0	0	1.084559e-01
28.644827	2.166215	dec_social_low	2.166215	32.000000	n/a	0	-2.187500e-01	-2.187500e-01
28.644827	2.166215	dec_social_reject_low	2.166215	32.000000	n/a	8	3.125000e-02	-2.187500e-01
36.294820	2.049981	dec_social_choice	2.049981	16.000000	n/a	8	2.724185e-01	2.724185e-01
36.294820	2.049981	dec_choice	2.049981	16.000000	n/a	8	2.812500e-01	2.812500e-01
36.294820	2.049981	dec_social_accept	2.049981	16.000000	n/a	8	1.158088e-01	1.158088e-01
36.294820	2.049981	dec_accept	2.049981	16.000000	n/a	8	6.250000e-02	6.250000e-02
36.294820	2.049981	dec_social_high	2.049981	16.000000	n/a	8	2.812500e-01	2.812500e-01
36.294820	2.049981	dec_social_accept_high	2.049981	16.000000	n/a	8	2.812500e-01	2.812500e-01
43.128036	1.383596	dec_social_choice	1.383596	16.000000	n/a	0	0	-2.275815e-01
43.128036	1.383596	dec_choice	1.383596	16.000000	n/a	0	0	-2.187500e-01
43.128036	1.383596	dec_social_reject	1.383596	16.000000	n/a	0	0	-1.077586e-02
43.128036	1.383596	dec_reject	1.383596	16.000000	n/a	0	0	-1.654412e-02
43.128036	1.383596	dec_social_low	1.383596	16.000000	n/a	0	-2.187500e-01	-2.187500e-01
43.128036	1.383596	dec_social_reject_low	1.383596	16.000000	n/a	2	-9.375000e-02	-2.187500e-01
52.378036	1.616358	dec_social_choice	1.616358	16.000000	n/a	0	0	-2.275815e-01
52.378036	1.616358	dec_choice	1.616358	16.000000	n/a	0	0	-2.187500e-01
52.378036	1.616358	dec_social_reject	1.616358	16.000000	n/a	0	0	1.142241e-01
52.378036	1.616358	dec_reject	1.616358	16.000000	n/a	0	0	1.084559e-01
52.378036	1.616358	dec_social_low	1.616358	16.000000	n/a	0	-2.187500e-01	-2.187500e-01
52.378036	1.616358	dec_social_reject_low	1.616358	16.000000	n/a	4	3.125000e-02	-2.187500e-01
60.028070	1.016386	dec_nonsocial_choice	1.016386	16.000000	n/a	4	2.241848e-02	2.241848e-02
60.028070	1.016386	dec_choice	1.016386	16.000000	n/a	4	1.358696e-02	1.358696e-02
60.028070	1.016386	dec_nonsocial_accept	1.016386	16.000000	n/a	4	-1.341912e-01	-1.341912e-01
60.028070	1.016386	dec_accept	1.016386	16.000000	n/a	4	-1.051136e-01	-1.051136e-01
60.028070	1.016386	dec_nonsocial_high	1.016386	16.000000	n/a	4	1.358696e-02	1.358696e-02
60.028070	1.016386	dec_nonsocial_accept_high	1.016386	16.000000	n/a	4	-1.051136e-01	-1.051136e-01
66.861430	1.349880	dec_nonsocial_choice	1.349880	16.000000	n/a	0	0	-2.275815e-01
66.861430	1.349880	dec_choice	1.349880	16.000000	n/a	0	0	-2.364130e-01
66.861430	1.349880	dec_nonsocial_reject	1.349880	16.000000	n/a	0	0	-1.077586e-02
66.861430	1.349880	dec_reject	1.349880	16.000000	n/a	0	0	-2.604167e-03
66.861430	1.349880	dec_nonsocial_low	1.349880	16.000000	n/a	0	-2.364130e-01	-2.364130e-01
66.861430	1.349880	dec_nonsocial_reject_low	1.349880	16.000000	n/a	2	-2.604167e-03	-1.276042e-01
73.694650	1.099977	dec_nonsocial_choice	1.099977	32.000000	n/a	3	-1.338315e-01	-1.338315e-01
73.694650	1.099977	dec_choice	1.099977	32.000000	n/a	3	-1.426630e-01	-1.426630e-01
73.694650	1.099977	dec_nonsocial_accept	1.099977	32.000000	n/a	3	-2.904412e-01	-2.904412e-01
73.694650	1.099977	dec_accept	1.099977	32.000000	n/a	3	-2.613636e-01	-2.613636e-01
73.694650	1.099977	dec_nonsocial_low	1.099977	32.000000	n/a	3	-1.426630e-01	-1.426630e-01
73.694650	1.099977	dec_nonsocial_accept_low	1.099977	32.000000	n/a	3	-2.613636e-01	-2.613636e-01
80.528030	1.683301	dec_social_choice	1.683301	32.000000	n/a	16	2.724185e-01	2.724185e-01
80.528030	1.683301	dec_choice	1.683301	32.000000	n/a	16	2.812500e-01	2.812500e-01
80.528030	1.683301	dec_social_accept	1.683301	32.000000	n/a	16	1.158088e-01	1.158088e-01
80.528030	1.683301	dec_accept	1.683301	32.000000	n/a	16	6.250000e-02	6.250000e-02
80.528030	1.683301	dec_social_accept_high	1.683301	32.000000	n/a	16	2.812500e-01	2.812500e-01
87.362060	1.782435	dec_social_choice	1.782435	32.000000	n/a	0	0	-2.275815e-01
87.362060	1.782435	dec_choice	1.782435	32.000000	n/a	0	0	-2.187500e-01
87.362060	1.782435	dec_social_reject	1.782435	32.000000	n/a	0	0	-4.202586e-02
87.362060	1.782435	dec_reject	1.782435	32.000000	n/a	0	0	-4.779412e-02
87.362060	1.782435	dec_social_reject_low	1.782435	32.000000	n/a	3	-1.250000e-01	-2.187500e-01
95.010130	1.667573	dec_social_choice	1.667573	32.000000	n/a	0	0	-2.275815e-01
95.010130	1.667573	dec_choice	1.667573	32.000000	n/a	0	0	-2.187500e-01
95.010130	1.667573	dec_social_reject	1.667573	32.000000	n/a	0	0	-7.327586e-02
95.010130	1.667573	dec_reject	1.667573	32.000000	n/a	0	0	-7.904412e-02
95.010130	1.667573	dec_social_low	1.667573	32.000000	n/a	0	-2.187500e-01	-2.187500e-01
95.010130	1.667573	dec_social_reject_low	1.667573	32.000000	n/a	2	-1.562500e-01	-2.187500e-01
102.660960	1.600267	dec_nonsocial_choice	1.600267	32.000000	n/a	16	2.724185e-01	2.724185e-01
102.660960	1.600267	dec_choice	1.600267	32.000000	n/a	16	2.635870e-01	2.635870e-01
102.660960	1.600267	dec_nonsocial_accept	1.600267	32.000000	n/a	16	1.158088e-01	1.158088e-01
102.660960	1.600267	dec_accept	1.600267	32.000000	n/a	16	1.448864e-01	1.448864e-01
102.660960	1.600267	dec_nonsocial_accept_high	1.600267	32.000000	n/a	16	6.250000e-02	6.250000e-02
111.911070	1.716593	dec_nonsocial_choice	1.716593	16.000000	n/a	0	0	-2.275815e-01
111.911070	1.716593	dec_choice	1.716593	16.000000	n/a	0	0	-2.364130e-01
111.911070	1.716593	dec_nonsocial_reject	1.716593	16.000000	n/a	0	0	-1.077586e-02
111.911070	1.716593	dec_reject	1.716593	16.000000	n/a	0	0	-2.604167e-03
111.911070	1.716593	dec_nonsocial_reject_low	1.716593	16.000000	n/a	2	-1.654412e-02	-1.415441e-01
119.560234	1.217253	dec_social_choice	1.217253	16.000000	n/a	0	0	-2.275815e-01
119.560234	1.217253	dec_choice	1.217253	16.000000	n/a	0	0	-2.187500e-01
119.560234	1.217253	dec_social_reject	1.217253	16.000000	n/a	0	0	1.142241e-01
119.560234	1.217253	dec_reject	1.217253	16.000000	n/a	0	0	1.084559e-01
119.560234	1.217253	dec_social_reject_low	1.217253	16.000000	n/a	4	3.125000e-02	-2.187500e-01
126.394160	1.950313	dec_nonsocial_choice	1.950313	32.000000	n/a	8	2.241848e-02	2.241848e-02
126.394160	1.950313	dec_choice	1.950313	32.000000	n/a	8	1.358696e-02	1.358696e-02
126.394160	1.950313	dec_nonsocial_accept	1.950313	32.000000	n/a	8	-1.341912e-01	-1.341912e-01
126.394160	1.950313	dec_accept	1.950313	32.000000	n/a	8	-1.051136e-01	-1.051136e-01
126.394160	1.950313	dec_nonsocial_high	1.950313	32.000000	n/a	8	1.358696e-02	1.358696e-02
126.394160	1.950313	dec_nonsocial_accept_high	1.950313	32.000000	n/a	8	-1.051136e-01	-1.051136e-01
137.261220	2.233261	dec_nonsocial_choice	2.233261	32.000000	n/a	0	0	-2.275815e-01
137.261220	2.233261	dec_choice	2.233261	32.000000	n/a	0	0	-2.364130e-01
137.261220	2.233261	dec_nonsocial_reject	2.233261	32.000000	n/a	0	0	-7.327586e-02
137.261220	2.233261	dec_reject	2.233261	32.000000	n/a	0	0	-6.510417e-02
137.261220	2.233261	dec_nonsocial_low	2.233261	32.000000	n/a	0	-2.364130e-01	-2.364130e-01
137.261220	2.233261	dec_nonsocial_reject_low	2.233261	32.000000	n/a	2	-6.510417e-02	-1.276042e-01
144.094310	2.050124	dec_social_choice	2.050124	32.000000	n/a	0	0	-2.275815e-01
144.094310	2.050124	dec_choice	2.050124	32.000000	n/a	0	0	-2.187500e-01
144.094310	2.050124	dec_social_reject	2.050124	32.000000	n/a	0	0	-7.327586e-02
144.094310	2.050124	dec_reject	2.050124	32.000000	n/a	0	0	-7.904412e-02
144.094310	2.050124	dec_social_reject_low	2.050124	32.000000	n/a	2	-1.562500e-01	-2.187500e-01
154.961060	1.599951	dec_social_choice	1.599951	32.000000	n/a	0	0	-2.275815e-01
154.961060	1.599951	dec_choice	1.599951	32.000000	n/a	0	0	-2.187500e-01
154.961060	1.599951	dec_social_reject	1.599951	32.000000	n/a	0	0	-7.327586e-02
154.961060	1.599951	dec_reject	1.599951	32.000000	n/a	0	0	-7.904412e-02
154.961060	1.599951	dec_social_low	1.599951	32.000000	n/a	0	-2.187500e-01	-2.187500e-01
154.961060	1.599951	dec_social_reject_low	1.599951	32.000000	n/a	2	-1.562500e-01	-2.187500e-01
161.794740	2.133285	dec_social_choice	2.133285	32.000000	n/a	16	2.724185e-01	2.724185e-01
161.794740	2.133285	dec_choice	2.133285	32.000000	n/a	16	2.812500e-01	2.812500e-01
161.794740	2.133285	dec_social_accept	2.133285	32.000000	n/a	16	1.158088e-01	1.158088e-01
161.794740	2.133285	dec_accept	2.133285	32.000000	n/a	16	6.250000e-02	6.250000e-02
161.794740	2.133285	dec_social_high	2.133285	32.000000	n/a	16	2.812500e-01	2.812500e-01
161.794740	2.133285	dec_social_accept_high	2.133285	32.000000	n/a	16	2.812500e-01	2.812500e-01
171.044070	1.350379	dec_social_choice	1.350379	16.000000	n/a	8	2.724185e-01	2.724185e-01
171.044070	1.350379	dec_choice	1.350379	16.000000	n/a	8	2.812500e-01	2.812500e-01
171.044070	1.350379	dec_social_accept	1.350379	16.000000	n/a	8	1.158088e-01	1.158088e-01
171.044070	1.350379	dec_accept	1.350379	16.000000	n/a	8	6.250000e-02	6.250000e-02
171.044070	1.350379	dec_social_high	1.350379	16.000000	n/a	8	2.812500e-01	2.812500e-01
171.044070	1.350379	dec_social_accept_high	1.350379	16.000000	n/a	8	2.812500e-01	2.812500e-01
177.877820	1.349970	dec_nonsocial_choice	1.349970	32.000000	n/a	0	0	-2.275815e-01
177.877820	1.349970	dec_choice	1.349970	32.000000	n/a	0	0	-2.364130e-01
177.877820	1.349970	dec_nonsocial_reject	1.349970	32.000000	n/a	0	0	-7.327586e-02
177.877820	1.349970	dec_reject	1.349970	32.000000	n/a	0	0	-6.510417e-02
177.877820	1.349970	dec_nonsocial_low	1.349970	32.000000	n/a	0	-2.364130e-01	-2.364130e-01
177.877820	1.349970	dec_nonsocial_reject_low	1.349970	32.000000	n/a	2	-6.510417e-02	-1.276042e-01
188.745090	2.165705	dec_nonsocial_choice	2.165705	32.000000	n/a	16	2.724185e-01	2.724185e-01
188.745090	2.165705	dec_choice	2.165705	32.000000	n/a	16	2.635870e-01	2.635870e-01
188.745090	2.165705	dec_nonsocial_accept	2.165705	32.000000	n/a	16	1.158088e-01	1.158088e-01
188.745090	2.165705	dec_accept	2.165705	32.000000	n/a	16	1.448864e-01	1.448864e-01
188.745090	2.165705	dec_nonsocial_accept_high	2.165705	32.000000	n/a	16	6.250000e-02	6.250000e-02
196.394840	1.315934	dec_social_choice	1.315934	16.000000	n/a	0	0	-2.275815e-01
196.394840	1.315934	dec_choice	1.315934	16.000000	n/a	0	0	-2.187500e-01
196.394840	1.315934	dec_social_reject	1.315934	16.000000	n/a	0	0	-7.327586e-02
196.394840	1.315934	dec_reject	1.315934	16.000000	n/a	0	0	-7.904412e-02
196.394840	1.315934	dec_social_reject_low	1.315934	16.000000	n/a	1	-1.562500e-01	-2.187500e-01
203.228420	1.699315	dec_nonsocial_choice	1.699315	16.000000	n/a	8	2.724185e-01	2.724185e-01
203.228420	1.699315	dec_choice	1.699315	16.000000	n/a	8	2.635870e-01	2.635870e-01
203.228420	1.699315	dec_nonsocial_accept	1.699315	16.000000	n/a	8	1.158088e-01	1.158088e-01
203.228420	1.699315	dec_accept	1.699315	16.000000	n/a	8	1.448864e-01	1.448864e-01
203.228420	1.699315	dec_nonsocial_accept_high	1.699315	16.000000	n/a	8	6.250000e-02	6.250000e-02
210.060850	1.533409	dec_social_choice	1.533409	32.000000	n/a	16	2.724185e-01	2.724185e-01
210.060850	1.533409	dec_choice	1.533409	32.000000	n/a	16	2.812500e-01	2.812500e-01
210.060850	1.533409	dec_social_accept	1.533409	32.000000	n/a	16	1.158088e-01	1.158088e-01
210.060850	1.533409	dec_accept	1.533409	32.000000	n/a	16	6.250000e-02	6.250000e-02
210.060850	1.533409	dec_social_accept_high	1.533409	32.000000	n/a	16	2.812500e-01	2.812500e-01
216.895080	1.715697	dec_nonsocial_choice	1.715697	16.000000	n/a	0	0	-2.275815e-01
216.895080	1.715697	dec_choice	1.715697	16.000000	n/a	0	0	-2.364130e-01
216.895080	1.715697	dec_nonsocial_reject	1.715697	16.000000	n/a	0	0	-7.327586e-02
216.895080	1.715697	dec_reject	1.715697	16.000000	n/a	0	0	-6.510417e-02
216.895080	1.715697	dec_nonsocial_reject_low	1.715697	16.000000	n/a	1	-7.904412e-02	-1.415441e-01
223.727140	2.134055	dec_nonsocial_choice	2.134055	16.000000	n/a	0	0	-2.275815e-01
223.727140	2.134055	dec_choice	2.134055	16.000000	n/a	0	0	-2.364130e-01
223.727140	2.134055	dec_nonsocial_reject	2.134055	16.000000	n/a	0	0	1.142241e-01
223.727140	2.134055	dec_reject	2.134055	16.000000	n/a	0	0	1.223958e-01
223.727140	2.134055	dec_nonsocial_reject_low	2.134055	16.000000	n/a	4	1.084559e-01	-1.415441e-01
232.978060	1.683159	dec_nonsocial_choice	1.683159	32.000000	n/a	16	2.724185e-01	2.724185e-01
232.978060	1.683159	dec_choice	1.683159	32.000000	n/a	16	2.635870e-01	2.635870e-01
232.978060	1.683159	dec_nonsocial_accept	1.683159	32.000000	n/a	16	1.158088e-01	1.158088e-01
232.978060	1.683159	dec_accept	1.683159	32.000000	n/a	16	1.448864e-01	1.448864e-01
232.978060	1.683159	dec_nonsocial_accept_high	1.683159	32.000000	n/a	16	6.250000e-02	6.250000e-02
239.811840	1.182439	dec_nonsocial_choice	1.182439	32.000000	n/a	16	2.724185e-01	2.724185e-01
239.811840	1.182439	dec_choice	1.182439	32.000000	n/a	16	2.635870e-01	2.635870e-01
239.811840	1.182439	dec_nonsocial_accept	1.182439	32.000000	n/a	16	1.158088e-01	1.158088e-01
239.811840	1.182439	dec_accept	1.182439	32.000000	n/a	16	1.448864e-01	1.448864e-01
239.811840	1.182439	dec_nonsocial_accept_high	1.182439	32.000000	n/a	16	6.250000e-02	6.250000e-02
247.461030	1.133441	dec_nonsocial_choice	1.133441	32.000000	n/a	0	0	-2.275815e-01
247.461030	1.133441	dec_choice	1.133441	32.000000	n/a	0	0	-2.364130e-01
247.461030	1.133441	dec_nonsocial_reject	1.133441	32.000000	n/a	0	0	-4.202586e-02
247.461030	1.133441	dec_reject	1.133441	32.000000	n/a	0	0	-3.385417e-02
247.461030	1.133441	dec_nonsocial_low	1.133441	32.000000	n/a	0	-2.364130e-01	-2.364130e-01
247.461030	1.133441	dec_nonsocial_reject_low	1.133441	32.000000	n/a	3	-3.385417e-02	-1.276042e-01
256.711100	1.616231	dec_nonsocial_choice	1.616231	32.000000	n/a	0	0	-2.275815e-01
256.711100	1.616231	dec_choice	1.616231	32.000000	n/a	0	0	-2.364130e-01
256.711100	1.616231	dec_nonsocial_reject	1.616231	32.000000	n/a	0	0	-7.327586e-02
256.711100	1.616231	dec_reject	1.616231	32.000000	n/a	0	0	-6.510417e-02
256.711100	1.616231	dec_nonsocial_low	1.616231	32.000000	n/a	0	-2.364130e-01	-2.364130e-01
256.711100	1.616231	dec_nonsocial_reject_low	1.616231	32.000000	n/a	2	-6.510417e-02	-1.276042e-01
263.544070	2.000140	dec_nonsocial_choice	2.000140	32.000000	n/a	0	0	-2.275815e-01
263.544070	2.000140	dec_choice	2.000140	32.000000	n/a	0	0	-2.364130e-01
263.544070	2.000140	dec_nonsocial_reject	2.000140	32.000000	n/a	0	0	-7.327586e-02
263.544070	2.000140	dec_reject	2.000140	32.000000	n/a	0	0	-6.510417e-02
263.544070	2.000140	dec_nonsocial_reject_low	2.000140	32.000000	n/a	2	-7.904412e-02	-1.415441e-01
270.377080	1.950461	dec_social_choice	1.950461	16.000000	n/a	0	0	-2.275815e-01
270.377080	1.950461	dec_choice	1.950461	16.000000	n/a	0	0	-2.187500e-01
270.377080	1.950461	dec_social_reject	1.950461	16.000000	n/a	0	0	1.142241e-01
270.377080	1.950461	dec_reject	1.950461	16.000000	n/a	0	0	1.084559e-01
270.377080	1.950461	dec_social_reject_low	1.950461	16.000000	n/a	4	3.125000e-02	-2.187500e-01
277.210540	3.766946	missed_trial	3.766946	32.000000	n/a	n/a	n/a	n/a
284.044070	1.716411	dec_social_choice	1.716411	16.000000	n/a	0	0	-2.275815e-01
284.044070	1.716411	dec_choice	1.716411	16.000000	n/a	0	0	-2.187500e-01
284.044070	1.716411	dec_social_reject	1.716411	16.000000	n/a	0	0	1.142241e-01
284.044070	1.716411	dec_reject	1.716411	16.000000	n/a	0	0	1.084559e-01
284.044070	1.716411	dec_social_reject_low	1.716411	16.000000	n/a	4	3.125000e-02	-2.187500e-01
293.294070	1.666480	dec_social_choice	1.666480	32.000000	n/a	0	0	-2.275815e-01
293.294070	1.666480	dec_choice	1.666480	32.000000	n/a	0	0	-2.187500e-01
293.294070	1.666480	dec_social_reject	1.666480	32.000000	n/a	0	0	1.142241e-01
293.294070	1.666480	dec_reject	1.666480	32.000000	n/a	0	0	1.084559e-01
293.294070	1.666480	dec_social_reject_low	1.666480	32.000000	n/a	8	3.125000e-02	-2.187500e-01
300.944060	1.583382	dec_social_choice	1.583382	32.000000	n/a	0	0	-2.275815e-01
300.944060	1.583382	dec_choice	1.583382	32.000000	n/a	0	0	-2.187500e-01
300.944060	1.583382	dec_social_reject	1.583382	32.000000	n/a	0	0	-4.202586e-02
300.944060	1.583382	dec_reject	1.583382	32.000000	n/a	0	0	-4.779412e-02
300.944060	1.583382	dec_social_low	1.583382	32.000000	n/a	0	-2.187500e-01	-2.187500e-01
300.944060	1.583382	dec_social_reject_low	1.583382	32.000000	n/a	3	-1.250000e-01	-2.187500e-01
307.777100	1.133425	dec_social_choice	1.133425	16.000000	n/a	0	0	-2.275815e-01
307.777100	1.133425	dec_choice	1.133425	16.000000	n/a	0	0	-2.187500e-01
307.777100	1.133425	dec_social_reject	1.133425	16.000000	n/a	0	0	-1.077586e-02
307.777100	1.133425	dec_reject	1.133425	16.000000	n/a	0	0	-1.654412e-02
307.777100	1.133425	dec_social_reject_low	1.133425	16.000000	n/a	2	-9.375000e-02	-2.187500e-01
314.611020	2.465998	dec_nonsocial_choice	2.465998	32.000000	n/a	0	0	-2.275815e-01
314.611020	2.465998	dec_choice	2.465998	32.000000	n/a	0	0	-2.364130e-01
314.611020	2.465998	dec_nonsocial_reject	2.465998	32.000000	n/a	0	0	1.142241e-01
314.611020	2.465998	dec_reject	2.465998	32.000000	n/a	0	0	1.223958e-01
314.611020	2.465998	dec_nonsocial_low	2.465998	32.000000	n/a	0	-2.364130e-01	-2.364130e-01
314.611020	2.465998	dec_nonsocial_reject_low	2.465998	32.000000	n/a	8	1.223958e-01	-1.276042e-01
327.093100	1.067329	dec_nonsocial_choice	1.067329	16.000000	n/a	0	0	-2.275815e-01
327.093100	1.067329	dec_choice	1.067329	16.000000	n/a	0	0	-2.364130e-01
327.093100	1.067329	dec_nonsocial_reject	1.067329	16.000000	n/a	0	0	1.142241e-01
327.093100	1.067329	dec_reject	1.067329	16.000000	n/a	0	0	1.223958e-01
327.093100	1.067329	dec_nonsocial_reject_low	1.067329	16.000000	n/a	4	1.084559e-01	-1.415441e-01
333.927700	1.583102	dec_social_choice	1.583102	16.000000	n/a	0	0	-2.275815e-01
333.927700	1.583102	dec_choice	1.583102	16.000000	n/a	0	0	-2.187500e-01
333.927700	1.583102	dec_social_reject	1.583102	16.000000	n/a	0	0	-7.327586e-02
333.927700	1.583102	dec_reject	1.583102	16.000000	n/a	0	0	-7.904412e-02
333.927700	1.583102	dec_social_low	1.583102	16.000000	n/a	0	-2.187500e-01	-2.187500e-01
333.927700	1.583102	dec_social_reject_low	1.583102	16.000000	n/a	1	-1.562500e-01	-2.187500e-01
341.578060	3.766946	missed_trial	3.766946	32.000000	n/a	n/a	n/a	n/a
348.427520	2.299764	dec_nonsocial_choice	2.299764	32.000000	n/a	16	2.724185e-01	2.724185e-01
348.427520	2.299764	dec_choice	2.299764	32.000000	n/a	16	2.635870e-01	2.635870e-01
348.427520	2.299764	dec_nonsocial_accept	2.299764	32.000000	n/a	16	1.158088e-01	1.158088e-01
348.427520	2.299764	dec_accept	2.299764	32.000000	n/a	16	1.448864e-01	1.448864e-01
348.427520	2.299764	dec_nonsocial_accept_high	2.299764	32.000000	n/a	16	6.250000e-02	6.250000e-02
356.076100	1.251193	dec_social_choice	1.251193	32.000000	n/a	0	0	-2.275815e-01
356.076100	1.251193	dec_choice	1.251193	32.000000	n/a	0	0	-2.187500e-01
356.076100	1.251193	dec_social_reject	1.251193	32.000000	n/a	0	0	-4.202586e-02
356.076100	1.251193	dec_reject	1.251193	32.000000	n/a	0	0	-4.779412e-02
356.076100	1.251193	dec_social_reject_low	1.251193	32.000000	n/a	3	-1.250000e-01	-2.187500e-01
362.910100	0.900737	dec_social_choice	0.900737	32.000000	n/a	0	0	-2.275815e-01
362.910100	0.900737	dec_choice	0.900737	32.000000	n/a	0	0	-2.187500e-01
362.910100	0.900737	dec_social_reject	0.900737	32.000000	n/a	0	0	-7.327586e-02
362.910100	0.900737	dec_reject	0.900737	32.000000	n/a	0	0	-7.904412e-02
362.910100	0.900737	dec_social_reject_low	0.900737	32.000000	n/a	2	-1.562500e-01	-2.187500e-01
370.543950	0.916013	dec_nonsocial_choice	0.916013	16.000000	n/a	0	0	-2.275815e-01
370.543950	0.916013	dec_choice	0.916013	16.000000	n/a	0	0	-2.364130e-01
370.543950	0.916013	dec_nonsocial_reject	0.916013	16.000000	n/a	0	0	-1.077586e-02
370.543950	0.916013	dec_reject	0.916013	16.000000	n/a	0	0	-2.604167e-03
370.543950	0.916013	dec_nonsocial_reject_low	0.916013	16.000000	n/a	2	-1.654412e-02	-1.415441e-01
