onset	duration	trial_type	response_time	Endowment	Endowment_pmod	Decision	Decision_pmod	Offer_pmod
4.571276	2	cue_social	n/a	32	7	n/a	n/a	n/a
4.571276	2	cue_social_high	n/a	32	7	n/a	n/a	n/a
13.838341	2	cue_social	n/a	16	-9	n/a	n/a	n/a
13.838341	2	cue_social_low	n/a	16	-9	n/a	n/a	n/a
21.487873	2	cue_social	n/a	16	-9	n/a	n/a	n/a
21.487873	2	cue_social_low	n/a	16	-9	n/a	n/a	n/a
28.250500	2	cue_nonsocial	n/a	32	7	n/a	n/a	n/a
28.250500	2	cue_nonsocial_high	n/a	32	7	n/a	n/a	n/a
35.961933	2	cue_social	n/a	16	-9	n/a	n/a	n/a
35.961933	2	cue_social_low	n/a	16	-9	n/a	n/a	n/a
43.550636	2	cue_nonsocial	n/a	16	-9	n/a	n/a	n/a
43.550636	2	cue_nonsocial_low	n/a	16	-9	n/a	n/a	n/a
54.417347	2	cue_nonsocial	n/a	32	7	n/a	n/a	n/a
54.417347	2	cue_nonsocial_high	n/a	32	7	n/a	n/a	n/a
65.360060	2	cue_social	n/a	32	7	n/a	n/a	n/a
65.360060	2	cue_social_high	n/a	32	7	n/a	n/a	n/a
74.621400	2	cue_social	n/a	16	-9	n/a	n/a	n/a
74.621400	2	cue_social_low	n/a	16	-9	n/a	n/a	n/a
81.383710	2	cue_nonsocial	n/a	32	7	n/a	n/a	n/a
81.383710	2	cue_nonsocial_high	n/a	32	7	n/a	n/a	n/a
88.216890	2	cue_nonsocial	n/a	32	7	n/a	n/a	n/a
88.216890	2	cue_nonsocial_high	n/a	32	7	n/a	n/a	n/a
95.049760	2	cue_nonsocial	n/a	32	7	n/a	n/a	n/a
95.049760	2	cue_nonsocial_high	n/a	32	7	n/a	n/a	n/a
104.317170	2	cue_nonsocial	n/a	16	-9	n/a	n/a	n/a
104.317170	2	cue_nonsocial_low	n/a	16	-9	n/a	n/a	n/a
111.150520	2	cue_nonsocial	n/a	32	7	n/a	n/a	n/a
111.150520	2	cue_nonsocial_high	n/a	32	7	n/a	n/a	n/a
120.484560	2	cue_social	n/a	32	7	n/a	n/a	n/a
120.484560	2	cue_social_high	n/a	32	7	n/a	n/a	n/a
128.145860	2	cue_social	n/a	32	7	n/a	n/a	n/a
128.145860	2	cue_social_high	n/a	32	7	n/a	n/a	n/a
134.900540	2	cue_nonsocial	n/a	16	-9	n/a	n/a	n/a
134.900540	2	cue_nonsocial_low	n/a	16	-9	n/a	n/a	n/a
142.604660	2	cue_social	n/a	32	7	n/a	n/a	n/a
142.604660	2	cue_social_high	n/a	32	7	n/a	n/a	n/a
151.881090	2	cue_social	n/a	32	7	n/a	n/a	n/a
151.881090	2	cue_social_high	n/a	32	7	n/a	n/a	n/a
158.616990	2	cue_nonsocial	n/a	32	7	n/a	n/a	n/a
158.616990	2	cue_nonsocial_high	n/a	32	7	n/a	n/a	n/a
166.364400	2	cue_social	n/a	16	-9	n/a	n/a	n/a
166.364400	2	cue_social_low	n/a	16	-9	n/a	n/a	n/a
178.750150	2	cue_nonsocial	n/a	16	-9	n/a	n/a	n/a
178.750150	2	cue_nonsocial_low	n/a	16	-9	n/a	n/a	n/a
185.662230	2	cue_social	n/a	16	-9	n/a	n/a	n/a
185.662230	2	cue_social_low	n/a	16	-9	n/a	n/a	n/a
192.416890	2	cue_nonsocial	n/a	16	-9	n/a	n/a	n/a
192.416890	2	cue_nonsocial_low	n/a	16	-9	n/a	n/a	n/a
199.250170	2	cue_nonsocial	n/a	16	-9	n/a	n/a	n/a
199.250170	2	cue_nonsocial_low	n/a	16	-9	n/a	n/a	n/a
206.139920	2	cue_social	n/a	32	7	n/a	n/a	n/a
206.139920	2	cue_social_high	n/a	32	7	n/a	n/a	n/a
213.789520	2	cue_social	n/a	32	7	n/a	n/a	n/a
213.789520	2	cue_social_high	n/a	32	7	n/a	n/a	n/a
220.645570	2	cue_social	n/a	16	-9	n/a	n/a	n/a
220.645570	2	cue_social_low	n/a	16	-9	n/a	n/a	n/a
227.400480	2	cue_nonsocial	n/a	32	7	n/a	n/a	n/a
227.400480	2	cue_nonsocial_high	n/a	32	7	n/a	n/a	n/a
234.233250	2	cue_nonsocial	n/a	32	7	n/a	n/a	n/a
234.233250	2	cue_nonsocial_high	n/a	32	7	n/a	n/a	n/a
241.134600	2	cue_social	n/a	16	-9	n/a	n/a	n/a
241.134600	2	cue_social_low	n/a	16	-9	n/a	n/a	n/a
248.717250	2	cue_nonsocial	n/a	32	7	n/a	n/a	n/a
248.717250	2	cue_nonsocial_high	n/a	32	7	n/a	n/a	n/a
256.366880	2	cue_nonsocial	n/a	16	-9	n/a	n/a	n/a
256.366880	2	cue_nonsocial_low	n/a	16	-9	n/a	n/a	n/a
264.083160	2	cue_social	n/a	32	7	n/a	n/a	n/a
264.083160	2	cue_social_high	n/a	32	7	n/a	n/a	n/a
273.369750	2	cue_social	n/a	32	7	n/a	n/a	n/a
273.369750	2	cue_social_high	n/a	32	7	n/a	n/a	n/a
280.100070	2	cue_nonsocial	n/a	32	7	n/a	n/a	n/a
280.100070	2	cue_nonsocial_high	n/a	32	7	n/a	n/a	n/a
286.988220	2	cue_social	n/a	16	-9	n/a	n/a	n/a
286.988220	2	cue_social_low	n/a	16	-9	n/a	n/a	n/a
293.766600	2	cue_nonsocial	n/a	32	7	n/a	n/a	n/a
293.766600	2	cue_nonsocial_high	n/a	32	7	n/a	n/a	n/a
301.458440	2	cue_social	n/a	32	7	n/a	n/a	n/a
301.458440	2	cue_social_high	n/a	32	7	n/a	n/a	n/a
309.066740	2	cue_nonsocial	n/a	16	-9	n/a	n/a	n/a
309.066740	2	cue_nonsocial_low	n/a	16	-9	n/a	n/a	n/a
316.716670	2	cue_nonsocial	n/a	32	7	n/a	n/a	n/a
316.716670	2	cue_nonsocial_high	n/a	32	7	n/a	n/a	n/a
323.619050	2	cue_social	n/a	32	7	n/a	n/a	n/a
323.619050	2	cue_social_high	n/a	32	7	n/a	n/a	n/a
330.478670	2	cue_social	n/a	16	-9	n/a	n/a	n/a
330.478670	2	cue_social_low	n/a	16	-9	n/a	n/a	n/a
337.216640	2	cue_nonsocial	n/a	16	-9	n/a	n/a	n/a
337.216640	2	cue_nonsocial_low	n/a	16	-9	n/a	n/a	n/a
346.466550	2	cue_nonsocial	n/a	32	7	n/a	n/a	n/a
346.466550	2	cue_nonsocial_high	n/a	32	7	n/a	n/a	n/a
353.356800	2	cue_social	n/a	16	-9	n/a	n/a	n/a
353.356800	2	cue_social_low	n/a	16	-9	n/a	n/a	n/a
360.133150	2	cue_nonsocial	n/a	16	-9	n/a	n/a	n/a
360.133150	2	cue_nonsocial_low	n/a	16	-9	n/a	n/a	n/a
367.063480	2	cue_social	n/a	32	7	n/a	n/a	n/a
367.063480	2	cue_social_high	n/a	32	7	n/a	n/a	n/a
6.508156	1.015653	dec_social_choice	1.015653	32.000000	n/a	3	-1.360677e-01	-1.360677e-01
6.508156	1.015653	dec_choice	1.015653	32.000000	n/a	3	-1.367188e-01	-1.367188e-01
6.508156	1.015653	dec_social_accept	1.015653	32.000000	n/a	3	-2.430556e-01	-2.430556e-01
6.508156	1.015653	dec_accept	1.015653	32.000000	n/a	3	-2.388393e-01	-2.388393e-01
6.508156	1.015653	dec_social_low	1.015653	32.000000	n/a	3	-1.367188e-01	-1.367188e-01
6.508156	1.015653	dec_social_accept_low	1.015653	32.000000	n/a	3	-1.367188e-01	-1.367188e-01
15.773991	1.983673	dec_social_choice	1.983673	16.000000	n/a	8	2.701823e-01	2.701823e-01
15.773991	1.983673	dec_choice	1.983673	16.000000	n/a	8	2.695312e-01	2.695312e-01
15.773991	1.983673	dec_social_accept	1.983673	16.000000	n/a	8	1.631944e-01	1.631944e-01
15.773991	1.983673	dec_accept	1.983673	16.000000	n/a	8	1.674107e-01	1.674107e-01
15.773991	1.983673	dec_social_high	1.983673	16.000000	n/a	8	2.695312e-01	2.695312e-01
15.773991	1.983673	dec_social_accept_high	1.983673	16.000000	n/a	8	2.695312e-01	2.695312e-01
23.424750	1.215804	dec_social_choice	1.215804	16.000000	n/a	0	0	-2.298177e-01
23.424750	1.215804	dec_choice	1.215804	16.000000	n/a	0	0	-2.304688e-01
23.424750	1.215804	dec_social_reject	1.215804	16.000000	n/a	0	0	3.273810e-02
23.424750	1.215804	dec_reject	1.215804	16.000000	n/a	0	0	3.750000e-02
23.424750	1.215804	dec_social_reject_low	1.215804	16.000000	n/a	2	-1.054688e-01	-2.304688e-01
30.258434	1.465228	dec_nonsocial_choice	1.465228	32.000000	n/a	16	2.701823e-01	2.701823e-01
30.258434	1.465228	dec_choice	1.465228	32.000000	n/a	16	2.708333e-01	2.708333e-01
30.258434	1.465228	dec_nonsocial_accept	1.465228	32.000000	n/a	16	1.631944e-01	1.631944e-01
30.258434	1.465228	dec_accept	1.465228	32.000000	n/a	16	1.586538e-01	1.586538e-01
30.258434	1.465228	dec_nonsocial_accept_high	1.465228	32.000000	n/a	16	1.674107e-01	1.674107e-01
37.908050	1.665649	dec_social_choice	1.665649	16.000000	n/a	0	0	-2.298177e-01
37.908050	1.665649	dec_choice	1.665649	16.000000	n/a	0	0	-2.304688e-01
37.908050	1.665649	dec_social_reject	1.665649	16.000000	n/a	0	0	3.273810e-02
37.908050	1.665649	dec_reject	1.665649	16.000000	n/a	0	0	3.750000e-02
37.908050	1.665649	dec_social_low	1.665649	16.000000	n/a	0	-2.304688e-01	-2.304688e-01
37.908050	1.665649	dec_social_reject_low	1.665649	16.000000	n/a	2	-1.054688e-01	-2.304688e-01
45.557926	1.265801	dec_nonsocial_choice	1.265801	16.000000	n/a	2	-1.048177e-01	-1.048177e-01
45.557926	1.265801	dec_choice	1.265801	16.000000	n/a	2	-1.041667e-01	-1.041667e-01
45.557926	1.265801	dec_nonsocial_accept	1.265801	16.000000	n/a	2	-2.118056e-01	-2.118056e-01
45.557926	1.265801	dec_accept	1.265801	16.000000	n/a	2	-2.163462e-01	-2.163462e-01
45.557926	1.265801	dec_nonsocial_accept_low	1.265801	16.000000	n/a	2	-2.075893e-01	-2.075893e-01
56.423910	1.350521	dec_nonsocial_choice	1.350521	32.000000	n/a	0	0	-2.298177e-01
56.423910	1.350521	dec_choice	1.350521	32.000000	n/a	0	0	-2.291667e-01
56.423910	1.350521	dec_nonsocial_reject	1.350521	32.000000	n/a	0	0	-2.976190e-02
56.423910	1.350521	dec_reject	1.350521	32.000000	n/a	0	0	-3.409091e-02
56.423910	1.350521	dec_nonsocial_low	1.350521	32.000000	n/a	0	-2.291667e-01	-2.291667e-01
56.423910	1.350521	dec_nonsocial_reject_low	1.350521	32.000000	n/a	2	-3.409091e-02	-9.659091e-02
67.290310	1.333437	dec_social_choice	1.333437	32.000000	n/a	0	0	-2.298177e-01
67.290310	1.333437	dec_choice	1.333437	32.000000	n/a	0	0	-2.304688e-01
67.290310	1.333437	dec_social_reject	1.333437	32.000000	n/a	0	0	-2.976190e-02
67.290310	1.333437	dec_reject	1.333437	32.000000	n/a	0	0	-2.500000e-02
67.290310	1.333437	dec_social_low	1.333437	32.000000	n/a	0	-2.304688e-01	-2.304688e-01
67.290310	1.333437	dec_social_reject_low	1.333437	32.000000	n/a	2	-1.679688e-01	-2.304688e-01
76.557175	1.566120	dec_social_choice	1.566120	16.000000	n/a	0	0	-2.298177e-01
76.557175	1.566120	dec_choice	1.566120	16.000000	n/a	0	0	-2.304688e-01
76.557175	1.566120	dec_social_reject	1.566120	16.000000	n/a	0	0	-2.976190e-02
76.557175	1.566120	dec_reject	1.566120	16.000000	n/a	0	0	-2.500000e-02
76.557175	1.566120	dec_social_reject_low	1.566120	16.000000	n/a	1	-1.679688e-01	-2.304688e-01
83.391020	1.583204	dec_nonsocial_choice	1.583204	32.000000	n/a	8	2.018229e-02	2.018229e-02
83.391020	1.583204	dec_choice	1.583204	32.000000	n/a	8	2.083333e-02	2.083333e-02
83.391020	1.583204	dec_nonsocial_accept	1.583204	32.000000	n/a	8	-8.680556e-02	-8.680556e-02
83.391020	1.583204	dec_accept	1.583204	32.000000	n/a	8	-9.134615e-02	-9.134615e-02
83.391020	1.583204	dec_nonsocial_high	1.583204	32.000000	n/a	8	2.083333e-02	2.083333e-02
83.391020	1.583204	dec_nonsocial_accept_high	1.583204	32.000000	n/a	8	-9.134615e-02	-9.134615e-02
90.224050	1.316114	dec_nonsocial_choice	1.316114	32.000000	n/a	0	0	-2.298177e-01
90.224050	1.316114	dec_choice	1.316114	32.000000	n/a	0	0	-2.291667e-01
90.224050	1.316114	dec_nonsocial_reject	1.316114	32.000000	n/a	0	0	1.488095e-03
90.224050	1.316114	dec_reject	1.316114	32.000000	n/a	0	0	-2.840909e-03
90.224050	1.316114	dec_nonsocial_reject_low	1.316114	32.000000	n/a	3	6.250000e-03	-8.750000e-02
97.058000	1.115710	dec_nonsocial_choice	1.115710	32.000000	n/a	0	0	-2.298177e-01
97.058000	1.115710	dec_choice	1.115710	32.000000	n/a	0	0	-2.291667e-01
97.058000	1.115710	dec_nonsocial_reject	1.115710	32.000000	n/a	0	0	1.488095e-03
97.058000	1.115710	dec_reject	1.115710	32.000000	n/a	0	0	-2.840909e-03
97.058000	1.115710	dec_nonsocial_reject_low	1.115710	32.000000	n/a	3	6.250000e-03	-8.750000e-02
106.324140	1.816113	dec_nonsocial_choice	1.816113	16.000000	n/a	8	2.701823e-01	2.701823e-01
106.324140	1.816113	dec_choice	1.816113	16.000000	n/a	8	2.708333e-01	2.708333e-01
106.324140	1.816113	dec_nonsocial_accept	1.816113	16.000000	n/a	8	1.631944e-01	1.631944e-01
106.324140	1.816113	dec_accept	1.816113	16.000000	n/a	8	1.586538e-01	1.586538e-01
106.324140	1.816113	dec_nonsocial_high	1.816113	16.000000	n/a	8	2.708333e-01	2.708333e-01
106.324140	1.816113	dec_nonsocial_accept_high	1.816113	16.000000	n/a	8	1.586538e-01	1.586538e-01
113.156980	1.216647	dec_nonsocial_choice	1.216647	32.000000	n/a	8	2.018229e-02	2.018229e-02
113.156980	1.216647	dec_choice	1.216647	32.000000	n/a	8	2.083333e-02	2.083333e-02
113.156980	1.216647	dec_nonsocial_accept	1.216647	32.000000	n/a	8	-8.680556e-02	-8.680556e-02
113.156980	1.216647	dec_accept	1.216647	32.000000	n/a	8	-9.134615e-02	-9.134615e-02
113.156980	1.216647	dec_nonsocial_high	1.216647	32.000000	n/a	8	2.083333e-02	2.083333e-02
113.156980	1.216647	dec_nonsocial_accept_high	1.216647	32.000000	n/a	8	-9.134615e-02	-9.134615e-02
122.423980	1.216048	dec_social_choice	1.216048	32.000000	n/a	8	2.018229e-02	2.018229e-02
122.423980	1.216048	dec_choice	1.216048	32.000000	n/a	8	1.953125e-02	1.953125e-02
122.423980	1.216048	dec_social_accept	1.216048	32.000000	n/a	8	-8.680556e-02	-8.680556e-02
122.423980	1.216048	dec_accept	1.216048	32.000000	n/a	8	-8.258929e-02	-8.258929e-02
122.423980	1.216048	dec_social_accept_high	1.216048	32.000000	n/a	8	1.953125e-02	1.953125e-02
130.072970	1.101085	dec_social_choice	1.101085	32.000000	n/a	16	2.701823e-01	2.701823e-01
130.072970	1.101085	dec_choice	1.101085	32.000000	n/a	16	2.695312e-01	2.695312e-01
130.072970	1.101085	dec_social_accept	1.101085	32.000000	n/a	16	1.631944e-01	1.631944e-01
130.072970	1.101085	dec_accept	1.101085	32.000000	n/a	16	1.674107e-01	1.674107e-01
130.072970	1.101085	dec_social_high	1.101085	32.000000	n/a	16	2.695312e-01	2.695312e-01
130.072970	1.101085	dec_social_accept_high	1.101085	32.000000	n/a	16	2.695312e-01	2.695312e-01
136.907140	1.233479	dec_nonsocial_choice	1.233479	16.000000	n/a	8	2.701823e-01	2.701823e-01
136.907140	1.233479	dec_choice	1.233479	16.000000	n/a	8	2.708333e-01	2.708333e-01
136.907140	1.233479	dec_nonsocial_accept	1.233479	16.000000	n/a	8	1.631944e-01	1.631944e-01
136.907140	1.233479	dec_accept	1.233479	16.000000	n/a	8	1.586538e-01	1.586538e-01
136.907140	1.233479	dec_nonsocial_high	1.233479	16.000000	n/a	8	2.708333e-01	2.708333e-01
136.907140	1.233479	dec_nonsocial_accept_high	1.233479	16.000000	n/a	8	1.586538e-01	1.586538e-01
144.540020	1.200757	dec_social_choice	1.200757	32.000000	n/a	0	0	-2.298177e-01
144.540020	1.200757	dec_choice	1.200757	32.000000	n/a	0	0	-2.304688e-01
144.540020	1.200757	dec_social_reject	1.200757	32.000000	n/a	0	0	-2.976190e-02
144.540020	1.200757	dec_reject	1.200757	32.000000	n/a	0	0	-2.500000e-02
144.540020	1.200757	dec_social_low	1.200757	32.000000	n/a	0	-2.304688e-01	-2.304688e-01
144.540020	1.200757	dec_social_reject_low	1.200757	32.000000	n/a	2	-1.679688e-01	-2.304688e-01
153.790790	1.015888	dec_social_choice	1.015888	32.000000	n/a	8	2.018229e-02	2.018229e-02
153.790790	1.015888	dec_choice	1.015888	32.000000	n/a	8	1.953125e-02	1.953125e-02
153.790790	1.015888	dec_social_accept	1.015888	32.000000	n/a	8	-8.680556e-02	-8.680556e-02
153.790790	1.015888	dec_accept	1.015888	32.000000	n/a	8	-8.258929e-02	-8.258929e-02
153.790790	1.015888	dec_social_high	1.015888	32.000000	n/a	8	1.953125e-02	1.953125e-02
153.790790	1.015888	dec_social_accept_high	1.015888	32.000000	n/a	8	1.953125e-02	1.953125e-02
160.623960	1.416321	dec_nonsocial_choice	1.416321	32.000000	n/a	0	0	-2.298177e-01
160.623960	1.416321	dec_choice	1.416321	32.000000	n/a	0	0	-2.291667e-01
160.623960	1.416321	dec_nonsocial_reject	1.416321	32.000000	n/a	0	0	-2.976190e-02
160.623960	1.416321	dec_reject	1.416321	32.000000	n/a	0	0	-3.409091e-02
160.623960	1.416321	dec_nonsocial_reject_low	1.416321	32.000000	n/a	2	-2.500000e-02	-8.750000e-02
168.273770	0.933151	dec_social_choice	0.933151	16.000000	n/a	8	2.701823e-01	2.701823e-01
168.273770	0.933151	dec_choice	0.933151	16.000000	n/a	8	2.695312e-01	2.695312e-01
168.273770	0.933151	dec_social_accept	0.933151	16.000000	n/a	8	1.631944e-01	1.631944e-01
168.273770	0.933151	dec_accept	0.933151	16.000000	n/a	8	1.674107e-01	1.674107e-01
168.273770	0.933151	dec_social_high	0.933151	16.000000	n/a	8	2.695312e-01	2.695312e-01
168.273770	0.933151	dec_social_accept_high	0.933151	16.000000	n/a	8	2.695312e-01	2.695312e-01
180.757170	1.466347	dec_nonsocial_choice	1.466347	16.000000	n/a	4	2.018229e-02	2.018229e-02
180.757170	1.466347	dec_choice	1.466347	16.000000	n/a	4	2.083333e-02	2.083333e-02
180.757170	1.466347	dec_nonsocial_accept	1.466347	16.000000	n/a	4	-8.680556e-02	-8.680556e-02
180.757170	1.466347	dec_accept	1.466347	16.000000	n/a	4	-9.134615e-02	-9.134615e-02
180.757170	1.466347	dec_nonsocial_accept_high	1.466347	16.000000	n/a	4	-8.258929e-02	-8.258929e-02
187.589980	1.167146	dec_social_choice	1.167146	16.000000	n/a	0	0	-2.298177e-01
187.589980	1.167146	dec_choice	1.167146	16.000000	n/a	0	0	-2.304688e-01
187.589980	1.167146	dec_social_reject	1.167146	16.000000	n/a	0	0	3.273810e-02
187.589980	1.167146	dec_reject	1.167146	16.000000	n/a	0	0	3.750000e-02
187.589980	1.167146	dec_social_low	1.167146	16.000000	n/a	0	-2.304688e-01	-2.304688e-01
187.589980	1.167146	dec_social_reject_low	1.167146	16.000000	n/a	2	-1.054688e-01	-2.304688e-01
194.423310	0.900611	dec_nonsocial_choice	0.900611	16.000000	n/a	0	0	-2.298177e-01
194.423310	0.900611	dec_choice	0.900611	16.000000	n/a	0	0	-2.291667e-01
194.423310	0.900611	dec_nonsocial_reject	0.900611	16.000000	n/a	0	0	-2.976190e-02
194.423310	0.900611	dec_reject	0.900611	16.000000	n/a	0	0	-3.409091e-02
194.423310	0.900611	dec_nonsocial_low	0.900611	16.000000	n/a	0	-2.291667e-01	-2.291667e-01
194.423310	0.900611	dec_nonsocial_reject_low	0.900611	16.000000	n/a	1	-3.409091e-02	-9.659091e-02
201.255980	1.551220	dec_nonsocial_choice	1.551220	16.000000	n/a	4	2.018229e-02	2.018229e-02
201.255980	1.551220	dec_choice	1.551220	16.000000	n/a	4	2.083333e-02	2.083333e-02
201.255980	1.551220	dec_nonsocial_accept	1.551220	16.000000	n/a	4	-8.680556e-02	-8.680556e-02
201.255980	1.551220	dec_accept	1.551220	16.000000	n/a	4	-9.134615e-02	-9.134615e-02
201.255980	1.551220	dec_nonsocial_high	1.551220	16.000000	n/a	4	2.083333e-02	2.083333e-02
201.255980	1.551220	dec_nonsocial_accept_high	1.551220	16.000000	n/a	4	-9.134615e-02	-9.134615e-02
208.090030	1.433910	dec_social_choice	1.433910	32.000000	n/a	0	0	-2.298177e-01
208.090030	1.433910	dec_choice	1.433910	32.000000	n/a	0	0	-2.304688e-01
208.090030	1.433910	dec_social_reject	1.433910	32.000000	n/a	0	0	-2.976190e-02
208.090030	1.433910	dec_reject	1.433910	32.000000	n/a	0	0	-2.500000e-02
208.090030	1.433910	dec_social_low	1.433910	32.000000	n/a	0	-2.304688e-01	-2.304688e-01
208.090030	1.433910	dec_social_reject_low	1.433910	32.000000	n/a	2	-1.679688e-01	-2.304688e-01
215.740600	1.316368	dec_social_choice	1.316368	32.000000	n/a	16	2.701823e-01	2.701823e-01
215.740600	1.316368	dec_choice	1.316368	32.000000	n/a	16	2.695312e-01	2.695312e-01
215.740600	1.316368	dec_social_accept	1.316368	32.000000	n/a	16	1.631944e-01	1.631944e-01
215.740600	1.316368	dec_accept	1.316368	32.000000	n/a	16	1.674107e-01	1.674107e-01
215.740600	1.316368	dec_social_accept_high	1.316368	32.000000	n/a	16	2.695312e-01	2.695312e-01
222.572780	0.867706	dec_social_choice	0.867706	16.000000	n/a	1	-1.673177e-01	-1.673177e-01
222.572780	0.867706	dec_choice	0.867706	16.000000	n/a	1	-1.679688e-01	-1.679688e-01
222.572780	0.867706	dec_social_accept	0.867706	16.000000	n/a	1	-2.743056e-01	-2.743056e-01
222.572780	0.867706	dec_accept	0.867706	16.000000	n/a	1	-2.700893e-01	-2.700893e-01
222.572780	0.867706	dec_social_low	0.867706	16.000000	n/a	1	-1.679688e-01	-1.679688e-01
222.572780	0.867706	dec_social_accept_low	0.867706	16.000000	n/a	1	-1.679688e-01	-1.679688e-01
229.407030	1.549956	dec_nonsocial_choice	1.549956	32.000000	n/a	16	2.701823e-01	2.701823e-01
229.407030	1.549956	dec_choice	1.549956	32.000000	n/a	16	2.708333e-01	2.708333e-01
229.407030	1.549956	dec_nonsocial_accept	1.549956	32.000000	n/a	16	1.631944e-01	1.631944e-01
229.407030	1.549956	dec_accept	1.549956	32.000000	n/a	16	1.586538e-01	1.586538e-01
229.407030	1.549956	dec_nonsocial_accept_high	1.549956	32.000000	n/a	16	1.674107e-01	1.674107e-01
236.239900	1.083872	dec_nonsocial_choice	1.083872	32.000000	n/a	16	2.701823e-01	2.701823e-01
236.239900	1.083872	dec_choice	1.083872	32.000000	n/a	16	2.708333e-01	2.708333e-01
236.239900	1.083872	dec_nonsocial_accept	1.083872	32.000000	n/a	16	1.631944e-01	1.631944e-01
236.239900	1.083872	dec_accept	1.083872	32.000000	n/a	16	1.586538e-01	1.586538e-01
236.239900	1.083872	dec_nonsocial_accept_high	1.083872	32.000000	n/a	16	1.674107e-01	1.674107e-01
243.074580	1.265439	dec_social_choice	1.265439	16.000000	n/a	4	2.018229e-02	2.018229e-02
243.074580	1.265439	dec_choice	1.265439	16.000000	n/a	4	1.953125e-02	1.953125e-02
243.074580	1.265439	dec_social_accept	1.265439	16.000000	n/a	4	-8.680556e-02	-8.680556e-02
243.074580	1.265439	dec_accept	1.265439	16.000000	n/a	4	-8.258929e-02	-8.258929e-02
243.074580	1.265439	dec_social_accept_high	1.265439	16.000000	n/a	4	1.953125e-02	1.953125e-02
250.724490	1.032700	dec_nonsocial_choice	1.032700	32.000000	n/a	16	2.701823e-01	2.701823e-01
250.724490	1.032700	dec_choice	1.032700	32.000000	n/a	16	2.708333e-01	2.708333e-01
250.724490	1.032700	dec_nonsocial_accept	1.032700	32.000000	n/a	16	1.631944e-01	1.631944e-01
250.724490	1.032700	dec_accept	1.032700	32.000000	n/a	16	1.586538e-01	1.586538e-01
250.724490	1.032700	dec_nonsocial_high	1.032700	32.000000	n/a	16	2.708333e-01	2.708333e-01
250.724490	1.032700	dec_nonsocial_accept_high	1.032700	32.000000	n/a	16	1.586538e-01	1.586538e-01
258.374600	1.749136	dec_nonsocial_choice	1.749136	16.000000	n/a	4	2.018229e-02	2.018229e-02
258.374600	1.749136	dec_choice	1.749136	16.000000	n/a	4	2.083333e-02	2.083333e-02
258.374600	1.749136	dec_nonsocial_accept	1.749136	16.000000	n/a	4	-8.680556e-02	-8.680556e-02
258.374600	1.749136	dec_accept	1.749136	16.000000	n/a	4	-9.134615e-02	-9.134615e-02
258.374600	1.749136	dec_nonsocial_high	1.749136	16.000000	n/a	4	2.083333e-02	2.083333e-02
258.374600	1.749136	dec_nonsocial_accept_high	1.749136	16.000000	n/a	4	-9.134615e-02	-9.134615e-02
266.024020	1.015751	dec_social_choice	1.015751	32.000000	n/a	0	0	-2.298177e-01
266.024020	1.015751	dec_choice	1.015751	32.000000	n/a	0	0	-2.304688e-01
266.024020	1.015751	dec_social_reject	1.015751	32.000000	n/a	0	0	1.488095e-03
266.024020	1.015751	dec_reject	1.015751	32.000000	n/a	0	0	6.250000e-03
266.024020	1.015751	dec_social_reject_low	1.015751	32.000000	n/a	3	-1.367188e-01	-2.304688e-01
275.273900	1.165579	dec_social_choice	1.165579	32.000000	n/a	8	2.018229e-02	2.018229e-02
275.273900	1.165579	dec_choice	1.165579	32.000000	n/a	8	1.953125e-02	1.953125e-02
275.273900	1.165579	dec_social_accept	1.165579	32.000000	n/a	8	-8.680556e-02	-8.680556e-02
275.273900	1.165579	dec_accept	1.165579	32.000000	n/a	8	-8.258929e-02	-8.258929e-02
275.273900	1.165579	dec_social_high	1.165579	32.000000	n/a	8	1.953125e-02	1.953125e-02
275.273900	1.165579	dec_social_accept_high	1.165579	32.000000	n/a	8	1.953125e-02	1.953125e-02
282.107200	1.516074	dec_nonsocial_choice	1.516074	32.000000	n/a	2	-1.673177e-01	-1.673177e-01
282.107200	1.516074	dec_choice	1.516074	32.000000	n/a	2	-1.666667e-01	-1.666667e-01
282.107200	1.516074	dec_nonsocial_accept	1.516074	32.000000	n/a	2	-2.743056e-01	-2.743056e-01
282.107200	1.516074	dec_accept	1.516074	32.000000	n/a	2	-2.788462e-01	-2.788462e-01
282.107200	1.516074	dec_nonsocial_low	1.516074	32.000000	n/a	2	-1.666667e-01	-1.666667e-01
282.107200	1.516074	dec_nonsocial_accept_low	1.516074	32.000000	n/a	2	-2.788462e-01	-2.788462e-01
288.941040	1.082533	dec_social_choice	1.082533	16.000000	n/a	8	2.701823e-01	2.701823e-01
288.941040	1.082533	dec_choice	1.082533	16.000000	n/a	8	2.695312e-01	2.695312e-01
288.941040	1.082533	dec_social_accept	1.082533	16.000000	n/a	8	1.631944e-01	1.631944e-01
288.941040	1.082533	dec_accept	1.082533	16.000000	n/a	8	1.674107e-01	1.674107e-01
288.941040	1.082533	dec_social_high	1.082533	16.000000	n/a	8	2.695312e-01	2.695312e-01
288.941040	1.082533	dec_social_accept_high	1.082533	16.000000	n/a	8	2.695312e-01	2.695312e-01
295.773070	1.283549	dec_nonsocial_choice	1.283549	32.000000	n/a	0	0	-2.298177e-01
295.773070	1.283549	dec_choice	1.283549	32.000000	n/a	0	0	-2.291667e-01
295.773070	1.283549	dec_nonsocial_reject	1.283549	32.000000	n/a	0	0	1.488095e-03
295.773070	1.283549	dec_reject	1.283549	32.000000	n/a	0	0	-2.840909e-03
295.773070	1.283549	dec_nonsocial_low	1.283549	32.000000	n/a	0	-2.291667e-01	-2.291667e-01
295.773070	1.283549	dec_nonsocial_reject_low	1.283549	32.000000	n/a	3	-2.840909e-03	-9.659091e-02
303.424000	1.883220	dec_social_choice	1.883220	32.000000	n/a	8	2.018229e-02	2.018229e-02
303.424000	1.883220	dec_choice	1.883220	32.000000	n/a	8	1.953125e-02	1.953125e-02
303.424000	1.883220	dec_social_accept	1.883220	32.000000	n/a	8	-8.680556e-02	-8.680556e-02
303.424000	1.883220	dec_accept	1.883220	32.000000	n/a	8	-8.258929e-02	-8.258929e-02
303.424000	1.883220	dec_social_high	1.883220	32.000000	n/a	8	1.953125e-02	1.953125e-02
303.424000	1.883220	dec_social_accept_high	1.883220	32.000000	n/a	8	1.953125e-02	1.953125e-02
311.073000	1.166721	dec_nonsocial_choice	1.166721	16.000000	n/a	0	0	-2.298177e-01
311.073000	1.166721	dec_choice	1.166721	16.000000	n/a	0	0	-2.291667e-01
311.073000	1.166721	dec_nonsocial_reject	1.166721	16.000000	n/a	0	0	-2.976190e-02
311.073000	1.166721	dec_reject	1.166721	16.000000	n/a	0	0	-3.409091e-02
311.073000	1.166721	dec_nonsocial_low	1.166721	16.000000	n/a	0	-2.291667e-01	-2.291667e-01
311.073000	1.166721	dec_nonsocial_reject_low	1.166721	16.000000	n/a	1	-3.409091e-02	-9.659091e-02
318.724580	1.115245	dec_nonsocial_choice	1.115245	32.000000	n/a	0	0	-2.298177e-01
318.724580	1.115245	dec_choice	1.115245	32.000000	n/a	0	0	-2.291667e-01
318.724580	1.115245	dec_nonsocial_reject	1.115245	32.000000	n/a	0	0	-2.976190e-02
318.724580	1.115245	dec_reject	1.115245	32.000000	n/a	0	0	-3.409091e-02
318.724580	1.115245	dec_nonsocial_low	1.115245	32.000000	n/a	0	-2.291667e-01	-2.291667e-01
318.724580	1.115245	dec_nonsocial_reject_low	1.115245	32.000000	n/a	2	-3.409091e-02	-9.659091e-02
325.557000	1.300101	dec_social_choice	1.300101	32.000000	n/a	0	0	-2.298177e-01
325.557000	1.300101	dec_choice	1.300101	32.000000	n/a	0	0	-2.304688e-01
325.557000	1.300101	dec_social_reject	1.300101	32.000000	n/a	0	0	1.488095e-03
325.557000	1.300101	dec_reject	1.300101	32.000000	n/a	0	0	6.250000e-03
325.557000	1.300101	dec_social_low	1.300101	32.000000	n/a	0	-2.304688e-01	-2.304688e-01
325.557000	1.300101	dec_social_reject_low	1.300101	32.000000	n/a	3	-1.367188e-01	-2.304688e-01
332.389900	1.266639	dec_social_choice	1.266639	16.000000	n/a	4	2.018229e-02	2.018229e-02
332.389900	1.266639	dec_choice	1.266639	16.000000	n/a	4	1.953125e-02	1.953125e-02
332.389900	1.266639	dec_social_accept	1.266639	16.000000	n/a	4	-8.680556e-02	-8.680556e-02
332.389900	1.266639	dec_accept	1.266639	16.000000	n/a	4	-8.258929e-02	-8.258929e-02
332.389900	1.266639	dec_social_high	1.266639	16.000000	n/a	4	1.953125e-02	1.953125e-02
332.389900	1.266639	dec_social_accept_high	1.266639	16.000000	n/a	4	1.953125e-02	1.953125e-02
339.224030	1.033179	dec_nonsocial_choice	1.033179	16.000000	n/a	0	0	-2.298177e-01
339.224030	1.033179	dec_choice	1.033179	16.000000	n/a	0	0	-2.291667e-01
339.224030	1.033179	dec_nonsocial_reject	1.033179	16.000000	n/a	0	0	1.577381e-01
339.224030	1.033179	dec_reject	1.033179	16.000000	n/a	0	0	1.534091e-01
339.224030	1.033179	dec_nonsocial_low	1.033179	16.000000	n/a	0	-2.291667e-01	-2.291667e-01
339.224030	1.033179	dec_nonsocial_reject_low	1.033179	16.000000	n/a	4	1.534091e-01	-9.659091e-02
348.473020	1.033880	dec_nonsocial_choice	1.033880	32.000000	n/a	0	0	-2.298177e-01
348.473020	1.033880	dec_choice	1.033880	32.000000	n/a	0	0	-2.291667e-01
348.473020	1.033880	dec_nonsocial_reject	1.033880	32.000000	n/a	0	0	1.488095e-03
348.473020	1.033880	dec_reject	1.033880	32.000000	n/a	0	0	-2.840909e-03
348.473020	1.033880	dec_nonsocial_reject_low	1.033880	32.000000	n/a	3	6.250000e-03	-8.750000e-02
355.306200	1.200471	dec_social_choice	1.200471	16.000000	n/a	0	0	-2.298177e-01
355.306200	1.200471	dec_choice	1.200471	16.000000	n/a	0	0	-2.304688e-01
355.306200	1.200471	dec_social_reject	1.200471	16.000000	n/a	0	0	-2.976190e-02
355.306200	1.200471	dec_reject	1.200471	16.000000	n/a	0	0	-2.500000e-02
355.306200	1.200471	dec_social_low	1.200471	16.000000	n/a	0	-2.304688e-01	-2.304688e-01
355.306200	1.200471	dec_social_reject_low	1.200471	16.000000	n/a	1	-1.679688e-01	-2.304688e-01
362.139040	1.084198	dec_nonsocial_choice	1.084198	16.000000	n/a	0	0	-2.298177e-01
362.139040	1.084198	dec_choice	1.084198	16.000000	n/a	0	0	-2.291667e-01
362.139040	1.084198	dec_nonsocial_reject	1.084198	16.000000	n/a	0	0	3.273810e-02
362.139040	1.084198	dec_reject	1.084198	16.000000	n/a	0	0	2.840909e-02
362.139040	1.084198	dec_nonsocial_low	1.084198	16.000000	n/a	0	-2.291667e-01	-2.291667e-01
362.139040	1.084198	dec_nonsocial_reject_low	1.084198	16.000000	n/a	2	2.840909e-02	-9.659091e-02
368.974000	1.532612	dec_social_choice	1.532612	32.000000	n/a	16	2.701823e-01	2.701823e-01
368.974000	1.532612	dec_choice	1.532612	32.000000	n/a	16	2.695312e-01	2.695312e-01
368.974000	1.532612	dec_social_accept	1.532612	32.000000	n/a	16	1.631944e-01	1.631944e-01
368.974000	1.532612	dec_accept	1.532612	32.000000	n/a	16	1.674107e-01	1.674107e-01
368.974000	1.532612	dec_social_accept_high	1.532612	32.000000	n/a	16	2.695312e-01	2.695312e-01
