onset	duration	trial_type	response_time	Endowment	Endowment_pmod	Decision	Decision_pmod	Offer_pmod
4.502246	2	cue_nonsocial	n/a	32	6	n/a	n/a	n/a
4.502246	2	cue_nonsocial_high	n/a	32	8	n/a	n/a	n/a
11.405016	2	cue_social	n/a	16	-8	n/a	n/a	n/a
11.405016	2	cue_social_low	n/a	16	-10	n/a	n/a	n/a
18.169110	2	cue_nonsocial	n/a	32	6	n/a	n/a	n/a
18.169110	2	cue_nonsocial_high	n/a	32	8	n/a	n/a	n/a
25.002466	2	cue_nonsocial	n/a	16	-10	n/a	n/a	n/a
25.002466	2	cue_nonsocial_low	n/a	16	-8	n/a	n/a	n/a
31.835876	2	cue_nonsocial	n/a	32	6	n/a	n/a	n/a
31.835876	2	cue_nonsocial_high	n/a	32	8	n/a	n/a	n/a
42.792442	2	cue_social	n/a	32	8	n/a	n/a	n/a
42.792442	2	cue_social_high	n/a	32	6	n/a	n/a	n/a
51.969074	2	cue_nonsocial	n/a	32	6	n/a	n/a	n/a
51.969074	2	cue_nonsocial_high	n/a	32	8	n/a	n/a	n/a
58.802185	2	cue_nonsocial	n/a	32	6	n/a	n/a	n/a
58.802185	2	cue_nonsocial_high	n/a	32	8	n/a	n/a	n/a
65.704994	2	cue_social	n/a	32	8	n/a	n/a	n/a
65.704994	2	cue_social_high	n/a	32	6	n/a	n/a	n/a
74.902430	2	cue_nonsocial	n/a	16	-10	n/a	n/a	n/a
74.902430	2	cue_nonsocial_low	n/a	16	-8	n/a	n/a	n/a
82.632400	2	cue_social	n/a	32	8	n/a	n/a	n/a
82.632400	2	cue_social_high	n/a	32	6	n/a	n/a	n/a
89.385730	2	cue_nonsocial	n/a	16	-10	n/a	n/a	n/a
89.385730	2	cue_nonsocial_low	n/a	16	-8	n/a	n/a	n/a
97.118260	2	cue_social	n/a	32	8	n/a	n/a	n/a
97.118260	2	cue_social_high	n/a	32	6	n/a	n/a	n/a
103.868850	2	cue_nonsocial	n/a	16	-10	n/a	n/a	n/a
103.868850	2	cue_nonsocial_low	n/a	16	-8	n/a	n/a	n/a
111.567810	2	cue_social	n/a	32	8	n/a	n/a	n/a
111.567810	2	cue_social_high	n/a	32	6	n/a	n/a	n/a
119.218254	2	cue_social	n/a	16	-8	n/a	n/a	n/a
119.218254	2	cue_social_low	n/a	16	-10	n/a	n/a	n/a
126.002730	2	cue_nonsocial	n/a	32	6	n/a	n/a	n/a
126.002730	2	cue_nonsocial_high	n/a	32	8	n/a	n/a	n/a
133.652300	2	cue_nonsocial	n/a	16	-10	n/a	n/a	n/a
133.652300	2	cue_nonsocial_low	n/a	16	-8	n/a	n/a	n/a
141.350000	2	cue_social	n/a	16	-8	n/a	n/a	n/a
141.350000	2	cue_social_low	n/a	16	-10	n/a	n/a	n/a
148.135680	2	cue_nonsocial	n/a	16	-10	n/a	n/a	n/a
148.135680	2	cue_nonsocial_low	n/a	16	-8	n/a	n/a	n/a
154.968830	2	cue_nonsocial	n/a	32	6	n/a	n/a	n/a
154.968830	2	cue_nonsocial_high	n/a	32	8	n/a	n/a	n/a
161.853840	2	cue_social	n/a	32	8	n/a	n/a	n/a
161.853840	2	cue_social_high	n/a	32	6	n/a	n/a	n/a
171.068770	2	cue_nonsocial	n/a	16	-10	n/a	n/a	n/a
171.068770	2	cue_nonsocial_low	n/a	16	-8	n/a	n/a	n/a
180.376020	2	cue_social	n/a	16	-8	n/a	n/a	n/a
180.376020	2	cue_social_low	n/a	16	-10	n/a	n/a	n/a
188.001020	2	cue_social	n/a	32	8	n/a	n/a	n/a
188.001020	2	cue_social_high	n/a	32	6	n/a	n/a	n/a
194.880000	2	cue_social	n/a	32	8	n/a	n/a	n/a
194.880000	2	cue_social_high	n/a	32	6	n/a	n/a	n/a
201.715800	2	cue_social	n/a	32	8	n/a	n/a	n/a
201.715800	2	cue_social_high	n/a	32	6	n/a	n/a	n/a
208.517520	2	cue_social	n/a	16	-8	n/a	n/a	n/a
208.517520	2	cue_social_low	n/a	16	-10	n/a	n/a	n/a
215.354390	2	cue_social	n/a	16	-8	n/a	n/a	n/a
215.354390	2	cue_social_low	n/a	16	-10	n/a	n/a	n/a
224.622740	2	cue_social	n/a	16	-8	n/a	n/a	n/a
224.622740	2	cue_social_low	n/a	16	-10	n/a	n/a	n/a
231.385470	2	cue_nonsocial	n/a	16	-10	n/a	n/a	n/a
231.385470	2	cue_nonsocial_low	n/a	16	-8	n/a	n/a	n/a
238.260670	2	cue_social	n/a	16	-8	n/a	n/a	n/a
238.260670	2	cue_social_low	n/a	16	-10	n/a	n/a	n/a
245.052100	2	cue_nonsocial	n/a	32	6	n/a	n/a	n/a
245.052100	2	cue_nonsocial_high	n/a	32	8	n/a	n/a	n/a
251.947170	2	cue_social	n/a	32	8	n/a	n/a	n/a
251.947170	2	cue_social_high	n/a	32	6	n/a	n/a	n/a
259.535520	2	cue_nonsocial	n/a	32	6	n/a	n/a	n/a
259.535520	2	cue_nonsocial_high	n/a	32	8	n/a	n/a	n/a
267.185270	2	cue_nonsocial	n/a	16	-10	n/a	n/a	n/a
267.185270	2	cue_nonsocial_low	n/a	16	-8	n/a	n/a	n/a
274.867550	2	cue_social	n/a	16	-8	n/a	n/a	n/a
274.867550	2	cue_social_low	n/a	16	-10	n/a	n/a	n/a
281.668670	2	cue_nonsocial	n/a	32	6	n/a	n/a	n/a
281.668670	2	cue_nonsocial_high	n/a	32	8	n/a	n/a	n/a
289.371920	2	cue_social	n/a	32	8	n/a	n/a	n/a
289.371920	2	cue_social_high	n/a	32	6	n/a	n/a	n/a
296.210240	2	cue_social	n/a	16	-8	n/a	n/a	n/a
296.210240	2	cue_social_low	n/a	16	-10	n/a	n/a	n/a
305.456420	2	cue_social	n/a	16	-8	n/a	n/a	n/a
305.456420	2	cue_social_low	n/a	16	-10	n/a	n/a	n/a
316.338260	2	cue_social	n/a	16	-8	n/a	n/a	n/a
316.338260	2	cue_social_low	n/a	16	-10	n/a	n/a	n/a
325.535280	2	cue_nonsocial	n/a	32	6	n/a	n/a	n/a
325.535280	2	cue_nonsocial_high	n/a	32	8	n/a	n/a	n/a
332.417880	2	cue_social	n/a	32	8	n/a	n/a	n/a
332.417880	2	cue_social_high	n/a	32	6	n/a	n/a	n/a
340.018280	2	cue_nonsocial	n/a	32	6	n/a	n/a	n/a
340.018280	2	cue_nonsocial_high	n/a	32	8	n/a	n/a	n/a
350.884980	2	cue_nonsocial	n/a	32	6	n/a	n/a	n/a
350.884980	2	cue_nonsocial_high	n/a	32	8	n/a	n/a	n/a
357.718570	2	cue_nonsocial	n/a	32	6	n/a	n/a	n/a
357.718570	2	cue_nonsocial_high	n/a	32	8	n/a	n/a	n/a
365.368500	2	cue_nonsocial	n/a	32	6	n/a	n/a	n/a
365.368500	2	cue_nonsocial_high	n/a	32	8	n/a	n/a	n/a
6.509159	1.316321	dec_nonsocial_choice	1.316321	32.000000	n/a	8	2.083333e-02	2.083333e-02
6.509159	1.316321	dec_choice	1.316321	32.000000	n/a	8	2.083333e-02	2.083333e-02
6.509159	1.316321	dec_nonsocial_accept	1.316321	32.000000	n/a	8	-1.009615e-01	-1.009615e-01
6.509159	1.316321	dec_accept	1.316321	32.000000	n/a	8	-1.250000e-01	-1.250000e-01
6.509159	1.316321	dec_nonsocial_accept_high	1.316321	32.000000	n/a	8	-8.035714e-02	-8.035714e-02
13.342847	1.149941	dec_social_choice	1.149941	16.000000	n/a	8	2.708333e-01	2.708333e-01
13.342847	1.149941	dec_choice	1.149941	16.000000	n/a	8	2.708333e-01	2.708333e-01
13.342847	1.149941	dec_social_accept	1.149941	16.000000	n/a	8	1.490385e-01	1.490385e-01
13.342847	1.149941	dec_accept	1.149941	16.000000	n/a	8	1.696429e-01	1.696429e-01
13.342847	1.149941	dec_social_high	1.149941	16.000000	n/a	8	2.708333e-01	2.708333e-01
13.342847	1.149941	dec_social_accept_high	1.149941	16.000000	n/a	8	2.708333e-01	2.708333e-01
20.175037	1.301078	dec_nonsocial_choice	1.301078	32.000000	n/a	0	0	-2.291667e-01
20.175037	1.301078	dec_choice	1.301078	32.000000	n/a	0	0	-2.291667e-01
20.175037	1.301078	dec_nonsocial_reject	1.301078	32.000000	n/a	0	0	8.522727e-03
20.175037	1.301078	dec_reject	1.301078	32.000000	n/a	0	0	1.041667e-02
20.175037	1.301078	dec_nonsocial_reject_low	1.301078	32.000000	n/a	3	6.250000e-03	-8.750000e-02
27.009005	2.133804	dec_nonsocial_choice	2.133804	16.000000	n/a	4	2.083333e-02	2.083333e-02
27.009005	2.133804	dec_choice	2.133804	16.000000	n/a	4	2.083333e-02	2.083333e-02
27.009005	2.133804	dec_nonsocial_accept	2.133804	16.000000	n/a	4	-1.009615e-01	-1.009615e-01
27.009005	2.133804	dec_accept	2.133804	16.000000	n/a	4	-1.250000e-01	-1.250000e-01
27.009005	2.133804	dec_nonsocial_high	2.133804	16.000000	n/a	4	2.083333e-02	2.083333e-02
27.009005	2.133804	dec_nonsocial_accept_high	2.133804	16.000000	n/a	4	-1.250000e-01	-1.250000e-01
33.841970	1.150727	dec_nonsocial_choice	1.150727	32.000000	n/a	0	0	-2.291667e-01
33.841970	1.150727	dec_choice	1.150727	32.000000	n/a	0	0	-2.291667e-01
33.841970	1.150727	dec_nonsocial_reject	1.150727	32.000000	n/a	0	0	8.522727e-03
33.841970	1.150727	dec_reject	1.150727	32.000000	n/a	0	0	1.041667e-02
33.841970	1.150727	dec_nonsocial_reject_low	1.150727	32.000000	n/a	3	6.250000e-03	-8.750000e-02
44.710003	1.399490	dec_social_choice	1.399490	32.000000	n/a	8	2.083333e-02	2.083333e-02
44.710003	1.399490	dec_choice	1.399490	32.000000	n/a	8	2.083333e-02	2.083333e-02
44.710003	1.399490	dec_social_accept	1.399490	32.000000	n/a	8	-1.009615e-01	-1.009615e-01
44.710003	1.399490	dec_accept	1.399490	32.000000	n/a	8	-8.035714e-02	-8.035714e-02
44.710003	1.399490	dec_social_accept_high	1.399490	32.000000	n/a	8	2.083333e-02	2.083333e-02
53.976000	1.066220	dec_nonsocial_choice	1.066220	32.000000	n/a	16	2.708333e-01	2.708333e-01
53.976000	1.066220	dec_choice	1.066220	32.000000	n/a	16	2.708333e-01	2.708333e-01
53.976000	1.066220	dec_nonsocial_accept	1.066220	32.000000	n/a	16	1.490385e-01	1.490385e-01
53.976000	1.066220	dec_accept	1.066220	32.000000	n/a	16	1.250000e-01	1.250000e-01
53.976000	1.066220	dec_nonsocial_high	1.066220	32.000000	n/a	16	2.708333e-01	2.708333e-01
53.976000	1.066220	dec_nonsocial_accept_high	1.066220	32.000000	n/a	16	1.250000e-01	1.250000e-01
60.809933	1.299593	dec_nonsocial_choice	1.299593	32.000000	n/a	0	0	-2.291667e-01
60.809933	1.299593	dec_choice	1.299593	32.000000	n/a	0	0	-2.291667e-01
60.809933	1.299593	dec_nonsocial_reject	1.299593	32.000000	n/a	0	0	8.522727e-03
60.809933	1.299593	dec_reject	1.299593	32.000000	n/a	0	0	1.041667e-02
60.809933	1.299593	dec_nonsocial_low	1.299593	32.000000	n/a	0	-2.291667e-01	-2.291667e-01
60.809933	1.299593	dec_nonsocial_reject_low	1.299593	32.000000	n/a	3	1.041667e-02	-8.333333e-02
67.644110	1.264566	dec_social_choice	1.264566	32.000000	n/a	0	0	-2.291667e-01
67.644110	1.264566	dec_choice	1.264566	32.000000	n/a	0	0	-2.291667e-01
67.644110	1.264566	dec_social_reject	1.264566	32.000000	n/a	0	0	-2.272727e-02
67.644110	1.264566	dec_reject	1.264566	32.000000	n/a	0	0	-2.500000e-02
67.644110	1.264566	dec_social_reject_low	1.264566	32.000000	n/a	2	-1.666667e-01	-2.291667e-01
76.910020	1.182796	dec_nonsocial_choice	1.182796	16.000000	n/a	8	2.708333e-01	2.708333e-01
76.910020	1.182796	dec_choice	1.182796	16.000000	n/a	8	2.708333e-01	2.708333e-01
76.910020	1.182796	dec_nonsocial_accept	1.182796	16.000000	n/a	8	1.490385e-01	1.490385e-01
76.910020	1.182796	dec_accept	1.182796	16.000000	n/a	8	1.250000e-01	1.250000e-01
76.910020	1.182796	dec_nonsocial_accept_high	1.182796	16.000000	n/a	8	1.696429e-01	1.696429e-01
84.558304	2.117639	dec_social_choice	2.117639	32.000000	n/a	0	0	-2.291667e-01
84.558304	2.117639	dec_choice	2.117639	32.000000	n/a	0	0	-2.291667e-01
84.558304	2.117639	dec_social_reject	2.117639	32.000000	n/a	0	0	-2.272727e-02
84.558304	2.117639	dec_reject	2.117639	32.000000	n/a	0	0	-2.500000e-02
84.558304	2.117639	dec_social_low	2.117639	32.000000	n/a	0	-2.291667e-01	-2.291667e-01
84.558304	2.117639	dec_social_reject_low	2.117639	32.000000	n/a	2	-1.666667e-01	-2.291667e-01
91.393010	1.549430	dec_nonsocial_choice	1.549430	16.000000	n/a	0	0	-2.291667e-01
91.393010	1.549430	dec_choice	1.549430	16.000000	n/a	0	0	-2.291667e-01
91.393010	1.549430	dec_nonsocial_reject	1.549430	16.000000	n/a	0	0	3.977273e-02
91.393010	1.549430	dec_reject	1.549430	16.000000	n/a	0	0	4.166667e-02
91.393010	1.549430	dec_nonsocial_low	1.549430	16.000000	n/a	0	-2.291667e-01	-2.291667e-01
91.393010	1.549430	dec_nonsocial_reject_low	1.549430	16.000000	n/a	2	4.166667e-02	-8.333333e-02
99.041770	1.533792	dec_social_choice	1.533792	32.000000	n/a	16	2.708333e-01	2.708333e-01
99.041770	1.533792	dec_choice	1.533792	32.000000	n/a	16	2.708333e-01	2.708333e-01
99.041770	1.533792	dec_social_accept	1.533792	32.000000	n/a	16	1.490385e-01	1.490385e-01
99.041770	1.533792	dec_accept	1.533792	32.000000	n/a	16	1.696429e-01	1.696429e-01
99.041770	1.533792	dec_social_accept_high	1.533792	32.000000	n/a	16	2.708333e-01	2.708333e-01
105.876000	2.100126	dec_nonsocial_choice	2.100126	16.000000	n/a	0	0	-2.291667e-01
105.876000	2.100126	dec_choice	2.100126	16.000000	n/a	0	0	-2.291667e-01
105.876000	2.100126	dec_nonsocial_reject	2.100126	16.000000	n/a	0	0	-2.272727e-02
105.876000	2.100126	dec_reject	2.100126	16.000000	n/a	0	0	-2.083333e-02
105.876000	2.100126	dec_nonsocial_low	2.100126	16.000000	n/a	0	-2.291667e-01	-2.291667e-01
105.876000	2.100126	dec_nonsocial_reject_low	2.100126	16.000000	n/a	1	-2.083333e-02	-8.333333e-02
113.526085	1.116178	dec_social_choice	1.116178	32.000000	n/a	8	2.083333e-02	2.083333e-02
113.526085	1.116178	dec_choice	1.116178	32.000000	n/a	8	2.083333e-02	2.083333e-02
113.526085	1.116178	dec_social_accept	1.116178	32.000000	n/a	8	-1.009615e-01	-1.009615e-01
113.526085	1.116178	dec_accept	1.116178	32.000000	n/a	8	-8.035714e-02	-8.035714e-02
113.526085	1.116178	dec_social_accept_high	1.116178	32.000000	n/a	8	2.083333e-02	2.083333e-02
121.176010	1.299983	dec_social_choice	1.299983	16.000000	n/a	0	0	-2.291667e-01
121.176010	1.299983	dec_choice	1.299983	16.000000	n/a	0	0	-2.291667e-01
121.176010	1.299983	dec_social_reject	1.299983	16.000000	n/a	0	0	-2.272727e-02
121.176010	1.299983	dec_reject	1.299983	16.000000	n/a	0	0	-2.500000e-02
121.176010	1.299983	dec_social_low	1.299983	16.000000	n/a	0	-2.291667e-01	-2.291667e-01
121.176010	1.299983	dec_social_reject_low	1.299983	16.000000	n/a	1	-1.666667e-01	-2.291667e-01
128.009020	1.433640	dec_nonsocial_choice	1.433640	32.000000	n/a	16	2.708333e-01	2.708333e-01
128.009020	1.433640	dec_choice	1.433640	32.000000	n/a	16	2.708333e-01	2.708333e-01
128.009020	1.433640	dec_nonsocial_accept	1.433640	32.000000	n/a	16	1.490385e-01	1.490385e-01
128.009020	1.433640	dec_accept	1.433640	32.000000	n/a	16	1.250000e-01	1.250000e-01
128.009020	1.433640	dec_nonsocial_high	1.433640	32.000000	n/a	16	2.708333e-01	2.708333e-01
128.009020	1.433640	dec_nonsocial_accept_high	1.433640	32.000000	n/a	16	1.250000e-01	1.250000e-01
135.659130	1.366075	dec_nonsocial_choice	1.366075	16.000000	n/a	0	0	-2.291667e-01
135.659130	1.366075	dec_choice	1.366075	16.000000	n/a	0	0	-2.291667e-01
135.659130	1.366075	dec_nonsocial_reject	1.366075	16.000000	n/a	0	0	-2.272727e-02
135.659130	1.366075	dec_reject	1.366075	16.000000	n/a	0	0	-2.083333e-02
135.659130	1.366075	dec_nonsocial_reject_low	1.366075	16.000000	n/a	1	-2.500000e-02	-8.750000e-02
143.309040	2.183602	dec_social_choice	2.183602	16.000000	n/a	8	2.708333e-01	2.708333e-01
143.309040	2.183602	dec_choice	2.183602	16.000000	n/a	8	2.708333e-01	2.708333e-01
143.309040	2.183602	dec_social_accept	2.183602	16.000000	n/a	8	1.490385e-01	1.490385e-01
143.309040	2.183602	dec_accept	2.183602	16.000000	n/a	8	1.696429e-01	1.696429e-01
143.309040	2.183602	dec_social_accept_high	2.183602	16.000000	n/a	8	2.708333e-01	2.708333e-01
150.143020	2.249363	dec_nonsocial_choice	2.249363	16.000000	n/a	0	0	-2.291667e-01
150.143020	2.249363	dec_choice	2.249363	16.000000	n/a	0	0	-2.291667e-01
150.143020	2.249363	dec_nonsocial_reject	2.249363	16.000000	n/a	0	0	3.977273e-02
150.143020	2.249363	dec_reject	2.249363	16.000000	n/a	0	0	4.166667e-02
150.143020	2.249363	dec_nonsocial_reject_low	2.249363	16.000000	n/a	2	3.750000e-02	-8.750000e-02
156.976060	1.916155	dec_nonsocial_choice	1.916155	32.000000	n/a	16	2.708333e-01	2.708333e-01
156.976060	1.916155	dec_choice	1.916155	32.000000	n/a	16	2.708333e-01	2.708333e-01
156.976060	1.916155	dec_nonsocial_accept	1.916155	32.000000	n/a	16	1.490385e-01	1.490385e-01
156.976060	1.916155	dec_accept	1.916155	32.000000	n/a	16	1.250000e-01	1.250000e-01
156.976060	1.916155	dec_nonsocial_accept_high	1.916155	32.000000	n/a	16	1.696429e-01	1.696429e-01
163.810010	1.832791	dec_social_choice	1.832791	32.000000	n/a	0	0	-2.291667e-01
163.810010	1.832791	dec_choice	1.832791	32.000000	n/a	0	0	-2.291667e-01
163.810010	1.832791	dec_social_reject	1.832791	32.000000	n/a	0	0	8.522727e-03
163.810010	1.832791	dec_reject	1.832791	32.000000	n/a	0	0	6.250000e-03
163.810010	1.832791	dec_social_low	1.832791	32.000000	n/a	0	-2.291667e-01	-2.291667e-01
163.810010	1.832791	dec_social_reject_low	1.832791	32.000000	n/a	3	-1.354167e-01	-2.291667e-01
173.076030	1.300253	dec_nonsocial_choice	1.300253	16.000000	n/a	4	2.083333e-02	2.083333e-02
173.076030	1.300253	dec_choice	1.300253	16.000000	n/a	4	2.083333e-02	2.083333e-02
173.076030	1.300253	dec_nonsocial_accept	1.300253	16.000000	n/a	4	-1.009615e-01	-1.009615e-01
173.076030	1.300253	dec_accept	1.300253	16.000000	n/a	4	-1.250000e-01	-1.250000e-01
173.076030	1.300253	dec_nonsocial_high	1.300253	16.000000	n/a	4	2.083333e-02	2.083333e-02
173.076030	1.300253	dec_nonsocial_accept_high	1.300253	16.000000	n/a	4	-1.250000e-01	-1.250000e-01
182.325790	1.366321	dec_social_choice	1.366321	16.000000	n/a	8	2.708333e-01	2.708333e-01
182.325790	1.366321	dec_choice	1.366321	16.000000	n/a	8	2.708333e-01	2.708333e-01
182.325790	1.366321	dec_social_accept	1.366321	16.000000	n/a	8	1.490385e-01	1.490385e-01
182.325790	1.366321	dec_accept	1.366321	16.000000	n/a	8	1.696429e-01	1.696429e-01
182.325790	1.366321	dec_social_accept_high	1.366321	16.000000	n/a	8	2.708333e-01	2.708333e-01
189.975000	2.467658	dec_social_choice	2.467658	32.000000	n/a	2	-1.666667e-01	-1.666667e-01
189.975000	2.467658	dec_choice	2.467658	32.000000	n/a	2	-1.666667e-01	-1.666667e-01
189.975000	2.467658	dec_social_accept	2.467658	32.000000	n/a	2	-2.884615e-01	-2.884615e-01
189.975000	2.467658	dec_accept	2.467658	32.000000	n/a	2	-2.678571e-01	-2.678571e-01
189.975000	2.467658	dec_social_low	2.467658	32.000000	n/a	2	-1.666667e-01	-1.666667e-01
189.975000	2.467658	dec_social_accept_low	2.467658	32.000000	n/a	2	-1.666667e-01	-1.666667e-01
196.809040	1.482639	dec_social_choice	1.482639	32.000000	n/a	0	0	-2.291667e-01
196.809040	1.482639	dec_choice	1.482639	32.000000	n/a	0	0	-2.291667e-01
196.809040	1.482639	dec_social_reject	1.482639	32.000000	n/a	0	0	8.522727e-03
196.809040	1.482639	dec_reject	1.482639	32.000000	n/a	0	0	6.250000e-03
196.809040	1.482639	dec_social_low	1.482639	32.000000	n/a	0	-2.291667e-01	-2.291667e-01
196.809040	1.482639	dec_social_reject_low	1.482639	32.000000	n/a	3	-1.354167e-01	-2.291667e-01
203.641430	1.417432	dec_social_choice	1.417432	32.000000	n/a	0	0	-2.291667e-01
203.641430	1.417432	dec_choice	1.417432	32.000000	n/a	0	0	-2.291667e-01
203.641430	1.417432	dec_social_reject	1.417432	32.000000	n/a	0	0	8.522727e-03
203.641430	1.417432	dec_reject	1.417432	32.000000	n/a	0	0	6.250000e-03
203.641430	1.417432	dec_social_reject_low	1.417432	32.000000	n/a	3	-1.354167e-01	-2.291667e-01
210.476000	1.515565	dec_social_choice	1.515565	16.000000	n/a	4	2.083333e-02	2.083333e-02
210.476000	1.515565	dec_choice	1.515565	16.000000	n/a	4	2.083333e-02	2.083333e-02
210.476000	1.515565	dec_social_accept	1.515565	16.000000	n/a	4	-1.009615e-01	-1.009615e-01
210.476000	1.515565	dec_accept	1.515565	16.000000	n/a	4	-8.035714e-02	-8.035714e-02
210.476000	1.515565	dec_social_accept_high	1.515565	16.000000	n/a	4	2.083333e-02	2.083333e-02
217.308470	1.316865	dec_social_choice	1.316865	16.000000	n/a	4	2.083333e-02	2.083333e-02
217.308470	1.316865	dec_choice	1.316865	16.000000	n/a	4	2.083333e-02	2.083333e-02
217.308470	1.316865	dec_social_accept	1.316865	16.000000	n/a	4	-1.009615e-01	-1.009615e-01
217.308470	1.316865	dec_accept	1.316865	16.000000	n/a	4	-8.035714e-02	-8.035714e-02
217.308470	1.316865	dec_social_high	1.316865	16.000000	n/a	4	2.083333e-02	2.083333e-02
217.308470	1.316865	dec_social_accept_high	1.316865	16.000000	n/a	4	2.083333e-02	2.083333e-02
226.559000	0.866355	dec_social_choice	0.866355	16.000000	n/a	1	-1.666667e-01	-1.666667e-01
226.559000	0.866355	dec_choice	0.866355	16.000000	n/a	1	-1.666667e-01	-1.666667e-01
226.559000	0.866355	dec_social_accept	0.866355	16.000000	n/a	1	-2.884615e-01	-2.884615e-01
226.559000	0.866355	dec_accept	0.866355	16.000000	n/a	1	-2.678571e-01	-2.678571e-01
226.559000	0.866355	dec_social_accept_low	0.866355	16.000000	n/a	1	-1.666667e-01	-1.666667e-01
233.392500	1.216205	dec_nonsocial_choice	1.216205	16.000000	n/a	0	0	-2.291667e-01
233.392500	1.216205	dec_choice	1.216205	16.000000	n/a	0	0	-2.291667e-01
233.392500	1.216205	dec_nonsocial_reject	1.216205	16.000000	n/a	0	0	-2.272727e-02
233.392500	1.216205	dec_reject	1.216205	16.000000	n/a	0	0	-2.083333e-02
233.392500	1.216205	dec_nonsocial_reject_low	1.216205	16.000000	n/a	1	-2.500000e-02	-8.750000e-02
240.226100	1.349658	dec_social_choice	1.349658	16.000000	n/a	4	2.083333e-02	2.083333e-02
240.226100	1.349658	dec_choice	1.349658	16.000000	n/a	4	2.083333e-02	2.083333e-02
240.226100	1.349658	dec_social_accept	1.349658	16.000000	n/a	4	-1.009615e-01	-1.009615e-01
240.226100	1.349658	dec_accept	1.349658	16.000000	n/a	4	-8.035714e-02	-8.035714e-02
240.226100	1.349658	dec_social_accept_high	1.349658	16.000000	n/a	4	2.083333e-02	2.083333e-02
247.058460	1.266700	dec_nonsocial_choice	1.266700	32.000000	n/a	8	2.083333e-02	2.083333e-02
247.058460	1.266700	dec_choice	1.266700	32.000000	n/a	8	2.083333e-02	2.083333e-02
247.058460	1.266700	dec_nonsocial_accept	1.266700	32.000000	n/a	8	-1.009615e-01	-1.009615e-01
247.058460	1.266700	dec_accept	1.266700	32.000000	n/a	8	-1.250000e-01	-1.250000e-01
247.058460	1.266700	dec_nonsocial_high	1.266700	32.000000	n/a	8	2.083333e-02	2.083333e-02
247.058460	1.266700	dec_nonsocial_accept_high	1.266700	32.000000	n/a	8	-1.250000e-01	-1.250000e-01
253.892010	1.249926	dec_social_choice	1.249926	32.000000	n/a	0	0	-2.291667e-01
253.892010	1.249926	dec_choice	1.249926	32.000000	n/a	0	0	-2.291667e-01
253.892010	1.249926	dec_social_reject	1.249926	32.000000	n/a	0	0	-2.272727e-02
253.892010	1.249926	dec_reject	1.249926	32.000000	n/a	0	0	-2.500000e-02
253.892010	1.249926	dec_social_reject_low	1.249926	32.000000	n/a	2	-1.666667e-01	-2.291667e-01
261.542020	1.066578	dec_nonsocial_choice	1.066578	32.000000	n/a	0	0	-2.291667e-01
261.542020	1.066578	dec_choice	1.066578	32.000000	n/a	0	0	-2.291667e-01
261.542020	1.066578	dec_nonsocial_reject	1.066578	32.000000	n/a	0	0	-2.272727e-02
261.542020	1.066578	dec_reject	1.066578	32.000000	n/a	0	0	-2.083333e-02
261.542020	1.066578	dec_nonsocial_reject_low	1.066578	32.000000	n/a	2	-2.500000e-02	-8.750000e-02
269.193020	1.465648	dec_nonsocial_choice	1.465648	16.000000	n/a	4	2.083333e-02	2.083333e-02
269.193020	1.465648	dec_choice	1.465648	16.000000	n/a	4	2.083333e-02	2.083333e-02
269.193020	1.465648	dec_nonsocial_accept	1.465648	16.000000	n/a	4	-1.009615e-01	-1.009615e-01
269.193020	1.465648	dec_accept	1.465648	16.000000	n/a	4	-1.250000e-01	-1.250000e-01
269.193020	1.465648	dec_nonsocial_accept_high	1.465648	16.000000	n/a	4	-8.035714e-02	-8.035714e-02
276.841100	1.601048	dec_social_choice	1.601048	16.000000	n/a	0	0	-2.291667e-01
276.841100	1.601048	dec_choice	1.601048	16.000000	n/a	0	0	-2.291667e-01
276.841100	1.601048	dec_social_reject	1.601048	16.000000	n/a	0	0	3.977273e-02
276.841100	1.601048	dec_reject	1.601048	16.000000	n/a	0	0	3.750000e-02
276.841100	1.601048	dec_social_reject_low	1.601048	16.000000	n/a	2	-1.041667e-01	-2.291667e-01
283.675400	1.183617	dec_nonsocial_choice	1.183617	32.000000	n/a	0	0	-2.291667e-01
283.675400	1.183617	dec_choice	1.183617	32.000000	n/a	0	0	-2.291667e-01
283.675400	1.183617	dec_nonsocial_reject	1.183617	32.000000	n/a	0	0	8.522727e-03
283.675400	1.183617	dec_reject	1.183617	32.000000	n/a	0	0	1.041667e-02
283.675400	1.183617	dec_nonsocial_reject_low	1.183617	32.000000	n/a	3	6.250000e-03	-8.750000e-02
291.325040	1.166704	dec_social_choice	1.166704	32.000000	n/a	0	0	-2.291667e-01
291.325040	1.166704	dec_choice	1.166704	32.000000	n/a	0	0	-2.291667e-01
291.325040	1.166704	dec_social_reject	1.166704	32.000000	n/a	0	0	8.522727e-03
291.325040	1.166704	dec_reject	1.166704	32.000000	n/a	0	0	6.250000e-03
291.325040	1.166704	dec_social_low	1.166704	32.000000	n/a	0	-2.291667e-01	-2.291667e-01
291.325040	1.166704	dec_social_reject_low	1.166704	32.000000	n/a	3	-1.354167e-01	-2.291667e-01
298.159030	1.365972	dec_social_choice	1.365972	16.000000	n/a	8	2.708333e-01	2.708333e-01
298.159030	1.365972	dec_choice	1.365972	16.000000	n/a	8	2.708333e-01	2.708333e-01
298.159030	1.365972	dec_social_accept	1.365972	16.000000	n/a	8	1.490385e-01	1.490385e-01
298.159030	1.365972	dec_accept	1.365972	16.000000	n/a	8	1.696429e-01	1.696429e-01
298.159030	1.365972	dec_social_accept_high	1.365972	16.000000	n/a	8	2.708333e-01	2.708333e-01
307.425020	0.950630	dec_social_choice	0.950630	16.000000	n/a	0	0	-2.291667e-01
307.425020	0.950630	dec_choice	0.950630	16.000000	n/a	0	0	-2.291667e-01
307.425020	0.950630	dec_social_reject	0.950630	16.000000	n/a	0	0	3.977273e-02
307.425020	0.950630	dec_reject	0.950630	16.000000	n/a	0	0	3.750000e-02
307.425020	0.950630	dec_social_reject_low	0.950630	16.000000	n/a	2	-1.041667e-01	-2.291667e-01
318.292020	1.266441	dec_social_choice	1.266441	16.000000	n/a	4	2.083333e-02	2.083333e-02
318.292020	1.266441	dec_choice	1.266441	16.000000	n/a	4	2.083333e-02	2.083333e-02
318.292020	1.266441	dec_social_accept	1.266441	16.000000	n/a	4	-1.009615e-01	-1.009615e-01
318.292020	1.266441	dec_accept	1.266441	16.000000	n/a	4	-8.035714e-02	-8.035714e-02
318.292020	1.266441	dec_social_high	1.266441	16.000000	n/a	4	2.083333e-02	2.083333e-02
318.292020	1.266441	dec_social_accept_high	1.266441	16.000000	n/a	4	2.083333e-02	2.083333e-02
327.543100	1.165438	dec_nonsocial_choice	1.165438	32.000000	n/a	16	2.708333e-01	2.708333e-01
327.543100	1.165438	dec_choice	1.165438	32.000000	n/a	16	2.708333e-01	2.708333e-01
327.543100	1.165438	dec_nonsocial_accept	1.165438	32.000000	n/a	16	1.490385e-01	1.490385e-01
327.543100	1.165438	dec_accept	1.165438	32.000000	n/a	16	1.250000e-01	1.250000e-01
327.543100	1.165438	dec_nonsocial_accept_high	1.165438	32.000000	n/a	16	1.696429e-01	1.696429e-01
334.374540	1.216991	dec_social_choice	1.216991	32.000000	n/a	16	2.708333e-01	2.708333e-01
334.374540	1.216991	dec_choice	1.216991	32.000000	n/a	16	2.708333e-01	2.708333e-01
334.374540	1.216991	dec_social_accept	1.216991	32.000000	n/a	16	1.490385e-01	1.490385e-01
334.374540	1.216991	dec_accept	1.216991	32.000000	n/a	16	1.696429e-01	1.696429e-01
334.374540	1.216991	dec_social_accept_high	1.216991	32.000000	n/a	16	2.708333e-01	2.708333e-01
342.025020	1.000497	dec_nonsocial_choice	1.000497	32.000000	n/a	0	0	-2.291667e-01
342.025020	1.000497	dec_choice	1.000497	32.000000	n/a	0	0	-2.291667e-01
342.025020	1.000497	dec_nonsocial_reject	1.000497	32.000000	n/a	0	0	-2.272727e-02
342.025020	1.000497	dec_reject	1.000497	32.000000	n/a	0	0	-2.083333e-02
342.025020	1.000497	dec_nonsocial_reject_low	1.000497	32.000000	n/a	2	-2.500000e-02	-8.750000e-02
352.893040	0.965349	dec_nonsocial_choice	0.965349	32.000000	n/a	8	2.083333e-02	2.083333e-02
352.893040	0.965349	dec_choice	0.965349	32.000000	n/a	8	2.083333e-02	2.083333e-02
352.893040	0.965349	dec_nonsocial_accept	0.965349	32.000000	n/a	8	-1.009615e-01	-1.009615e-01
352.893040	0.965349	dec_accept	0.965349	32.000000	n/a	8	-1.250000e-01	-1.250000e-01
352.893040	0.965349	dec_nonsocial_high	0.965349	32.000000	n/a	8	2.083333e-02	2.083333e-02
352.893040	0.965349	dec_nonsocial_accept_high	0.965349	32.000000	n/a	8	-1.250000e-01	-1.250000e-01
359.726000	1.032753	dec_nonsocial_choice	1.032753	32.000000	n/a	0	0	-2.291667e-01
359.726000	1.032753	dec_choice	1.032753	32.000000	n/a	0	0	-2.291667e-01
359.726000	1.032753	dec_nonsocial_reject	1.032753	32.000000	n/a	0	0	-2.272727e-02
359.726000	1.032753	dec_reject	1.032753	32.000000	n/a	0	0	-2.083333e-02
359.726000	1.032753	dec_nonsocial_reject_low	1.032753	32.000000	n/a	2	-2.500000e-02	-8.750000e-02
367.375120	1.283707	dec_nonsocial_choice	1.283707	32.000000	n/a	16	2.708333e-01	2.708333e-01
367.375120	1.283707	dec_choice	1.283707	32.000000	n/a	16	2.708333e-01	2.708333e-01
367.375120	1.283707	dec_nonsocial_accept	1.283707	32.000000	n/a	16	1.490385e-01	1.490385e-01
367.375120	1.283707	dec_accept	1.283707	32.000000	n/a	16	1.250000e-01	1.250000e-01
367.375120	1.283707	dec_nonsocial_high	1.283707	32.000000	n/a	16	2.708333e-01	2.708333e-01
367.375120	1.283707	dec_nonsocial_accept_high	1.283707	32.000000	n/a	16	1.250000e-01	1.250000e-01
