onset	duration	trial_type	rt	resp	gender	image_left	image_right
0.641170999966562	3.00141869997606	decision	1.28373409993947	left	M	MF001.jpg	MF002.jpg
4.19141199998558	1.01644759997725	win	NaN	n/a	n/a	MF001.jpg	MF002.jpg
11.1748496000655	3.00146049982868	decision	1.78180799982511	right	M	MF003.jpg	MF004.jpg
14.7244992000051	1.00026030000299	loss	NaN	n/a	n/a	MF003.jpg	MF004.jpg
17.4748100999277	3.00103459996171	decision	2.0330487000756	right	M	MF005.jpg	MF006.jpg
21.0244457998779	1.00028730020858	win	NaN	n/a	n/a	MF005.jpg	MF006.jpg
23.7745630999561	3.00095869996585	decision	1.78332090005279	right	F	FF001.jpg	FF002.jpg
27.3244217999745	1.01669550011866	win	NaN	n/a	n/a	FF001.jpg	FF002.jpg
32.1911500000861	3.0017349999398	decision	1.7824325999245	left	F	FF003.jpg	FF004.jpg
35.7414096998982	1.00000720005482	loss	NaN	n/a	n/a	FF003.jpg	FF004.jpg
42.6914933999069	3.00036200019531	decision	1.53304340015166	left	M	MF007.jpg	MF008.jpg
46.2410273000132	1.00030110008083	loss	NaN	n/a	n/a	MF007.jpg	MF008.jpg
51.0914918000344	3.00177780003287	decision	1.78226629993878	right	M	MF009.jpg	MF010.jpg
54.6411844000686	1.00070259999484	win	NaN	n/a	n/a	MF009.jpg	MF010.jpg
59.4912785000633	3.00153060001321	decision	1.78268659999594	right	F	FF005.jpg	FF006.jpg
63.0413442000281	1.00004129996523	loss	NaN	n/a	n/a	FF005.jpg	FF006.jpg
65.7914225999266	3.00049909995869	decision	1.78300480009057	right	F	FF007.jpg	FF008.jpg
69.3413468000945	1.0162355999928	win	NaN	n/a	n/a	FF007.jpg	FF008.jpg
72.1074427999556	3.00143030006438	decision	1.7834109000396	left	F	FF009.jpg	FF010.jpg
75.6578363000881	1.00002449983731	win	NaN	n/a	n/a	FF009.jpg	FF010.jpg
78.4079009999987	3.00073489989154	decision	2.28302299999632	right	F	FF011.jpg	FF012.jpg
81.9576010999735	1.0002498999238	loss	NaN	n/a	n/a	FF011.jpg	FF012.jpg
86.8080166999716	3.00196800008416	decision	1.78276309999637	right	M	MF011.jpg	MF012.jpg
90.3576539000496	1.00018549989909	loss	NaN	n/a	n/a	MF011.jpg	MF012.jpg
93.1076485000085	3.00082210008986	decision	2.03309149993584	right	M	MF013.jpg	MF014.jpg
96.657812600024	1.00003269989975	win	NaN	n/a	n/a	MF013.jpg	MF014.jpg
103.60756959999	3.00095869996585	decision	1.28326310007833	left	M	MF015.jpg	MF016.jpg
107.157544200076	1.00005859998055	win	NaN	n/a	n/a	MF015.jpg	MF016.jpg
109.907626	3.00127439992502	decision	1.53258750005625	left	F	FF013.jpg	FF014.jpg
113.457857399946	1.0166774999816	win	NaN	n/a	n/a	FF013.jpg	FF014.jpg
120.42416960001	3.00171700003557	decision	1.53265359997749	right	M	MF017.jpg	MF018.jpg
123.974513699999	1.01665930007584	win	NaN	n/a	n/a	MF017.jpg	MF018.jpg
128.841266900068	3.00159779982641	decision	1.28294409997761	left	F	FF015.jpg	FF016.jpg
132.391176800011	1.01663800003007	win	NaN	n/a	n/a	FF015.jpg	FF016.jpg
137.257804000052	3.00168209988624	decision	1.7829801000189	right	M	MF019.jpg	MF020.jpg
140.80784039991	1.00001089996658	win	NaN	n/a	n/a	MF019.jpg	MF020.jpg
145.658088000026	3.0007666000165	decision	2.0322954999283	right	F	FF017.jpg	FF018.jpg
149.207830700092	1.0166140999645	win	NaN	n/a	n/a	FF017.jpg	FF018.jpg
162.491096300073	3.00200129998848	decision	1.53255929984152	left	M	MF021.jpg	MF022.jpg
166.040817999979	1.00011810008436	loss	NaN	n/a	n/a	MF021.jpg	MF022.jpg
172.99075119989	3.00111280009151	decision	1.5325975001324	right	M	MF023.jpg	MF024.jpg
176.541080900002	1.0167004999239	win	NaN	n/a	n/a	MF023.jpg	MF024.jpg
183.507876500022	3.00155299995095	decision	2.28191670007072	right	M	MF025.jpg	MF026.jpg
187.057804499986	1.01647330005653	loss	NaN	n/a	n/a	MF025.jpg	MF026.jpg
191.924528799951	3.00133130000904	decision	1.78226110013202	left	M	MF027.jpg	MF028.jpg
195.474503099918	1.01633290015161	loss	NaN	n/a	n/a	MF027.jpg	MF028.jpg
198.240918399999	3.00078010000288	decision	1.78302269987762	right	F	FF019.jpg	FF020.jpg
201.790873399936	1.01660520001315	loss	NaN	n/a	n/a	FF019.jpg	FF020.jpg
204.557637399994	3.00127759994939	decision	2.28333740006201	left	F	FF021.jpg	FF022.jpg
208.107412100071	1.00004549999721	win	NaN	n/a	n/a	FF021.jpg	FF022.jpg
215.057748900028	3.0012389998883	decision	2.282881999854	right	M	MF029.jpg	MF030.jpg
218.60727129993	1.00021159998141	loss	NaN	n/a	n/a	MF029.jpg	MF030.jpg
225.557336600032	3.00108229997568	decision	2.28321349993348	left	M	MF031.jpg	MF032.jpg
229.107357899891	1.00027150008827	win	NaN	n/a	n/a	MF031.jpg	MF032.jpg
233.9577095001	3.00117829977535	decision	2.28377649979666	right	F	FF023.jpg	FF024.jpg
237.507463800022	1.01661389996298	loss	NaN	n/a	n/a	FF023.jpg	FF024.jpg
240.274294799892	3.00158220017329	decision	2.03289919998497	left	F	FF025.jpg	FF026.jpg
243.824304899899	1.0165955000557	win	NaN	n/a	n/a	FF025.jpg	FF026.jpg
248.69094999996	3.00203450000845	decision	2.0328852001112	right	F	FF027.jpg	FF028.jpg
252.240524899913	1.00053020007908	loss	NaN	n/a	n/a	FF027.jpg	FF028.jpg
254.990928299958	3.00074260006659	decision	2.53311310010031	left	M	MF033.jpg	MF034.jpg
258.540604399983	1.0167004999239	loss	NaN	n/a	n/a	MF033.jpg	MF034.jpg
261.307252800092	3.0011670999229	decision	2.03352910000831	right	M	MF035.jpg	MF036.jpg
264.8576299001	1.01635829987936	loss	NaN	n/a	n/a	MF035.jpg	MF036.jpg
267.624381399946	3.00150020001456	decision	2.03294280008413	left	M	MF037.jpg	MF038.jpg
271.174191799946	1.01665530004539	win	NaN	n/a	n/a	MF037.jpg	MF038.jpg
278.140745700104	3.00103419995867	decision	2.28244739980437	left	F	FF029.jpg	FF030.jpg
281.690835299902	1.00001229997724	loss	NaN	n/a	n/a	FF029.jpg	FF030.jpg
284.440621899907	3.00098830019124	decision	2.30029080016539	right	F	FF031.jpg	FF032.jpg
287.990802400047	1.0166859999299	loss	NaN	n/a	n/a	FF031.jpg	FF032.jpg
292.857569300104	3.00147019978613	decision	2.03227259987034	right	F	FF033.jpg	FF034.jpg
296.407498500077	1.01640850002877	win	NaN	n/a	n/a	FF033.jpg	FF034.jpg
303.373888700036	3.00106050004251	decision	1.532527100062	right	M	MF039.jpg	MF040.jpg
306.92394899996	1.01660720002837	loss	NaN	n/a	n/a	MF039.jpg	MF040.jpg
313.890843499918	3.00110160000622	decision	2.03300070017576	left	F	FF035.jpg	FF036.jpg
317.440794599941	1.01634840015322	win	NaN	n/a	n/a	FF035.jpg	FF036.jpg
320.207157100085	3.00166739989072	decision	1.53259889991023	right	F	FF037.jpg	FF038.jpg
323.757234700024	1.0163749998901	loss	NaN	n/a	n/a	FF037.jpg	FF038.jpg
326.523932500044	3.00182219990529	decision	1.78281689994037	right	F	FF039.jpg	FF040.jpg
330.073729000054	1.01672079996206	loss	NaN	n/a	n/a	FF039.jpg	FF040.jpg
