TrialNumber,Trialn,TrialType,Partner,Feedback,ITI,ISI,ran,order,studyStart,InitFixOnset,decision_onset,resp,resp_onset,rt,outcome_val,outcome_onset,outcome_offset,trialDuration,ITIonset,ITIoffset
1,1,1,1,1,2,2.550000e+00,1.0,0.0,3.1000018e-06,0.0062385,4.0174084,1.0,5.506783,1.4893748,7.0,6.5346694,7.5469165,3.5295079,7.5470877,9.560526
2,2,8,3,2,1,2.550000e+00,1.0,1.0,--,--,9.573435,1.0,10.578245,1.0048101,5.0,12.091538,13.100192,3.5267565,13.100328,14.115154
3,3,1,1,1,2,1.700000e+00,1.0,2.0,--,--,14.121815,2.0,14.9326935,0.8108788,1.0,16.639885,17.647137,3.5253227,17.647278,19.653822
4,4,6,2,3,2,8.500000e-01,1.0,3.0,--,--,19.66654,1.0,20.38827,0.7217298,3.0,22.184378,23.192787,3.5262468,23.192942,25.209148
5,5,2,1,2,4,2.550000e+00,1.0,4.0,--,--,25.212753,1.0,25.893368,0.6806153,5.0,27.730349,28.736969,3.524217,28.737108,32.750412
6,6,4,2,1,1,2.550000e+00,1.0,5.0,--,--,32.76035,2.0,33.50162,0.7412717,1.0,35.27667,36.283195,3.5228443,36.283333,37.288235
7,7,7,3,1,4,1.700000e+00,1.0,6.0,--,--,37.291122,0.0,999.0,999.0,999.0,39.807804,40.824387,3.5332632,40.824524,44.829132
8,8,5,2,2,1,8.500000e-01,1.0,7.0,--,--,44.83904,1.0,45.630177,0.7911391,5.0,47.356228,48.36261,3.5235722,48.36275,49.366627
9,9,7,3,1,3,2.550000e+00,1.0,8.0,--,--,49.3694,1.0,50.38462,1.0152216,8.0,51.88711,52.896454,3.5270538,52.896595,55.90688
10,10,7,3,1,4,1.700000e+00,1.0,9.0,--,--,55.908524,1.0,57.491856,1.5833325,6.0,58.425766,59.4324,3.5238757,59.432537,63.447746
11,11,4,2,1,1,8.500000e-01,1.0,10.0,--,--,63.457428,0.0,999.0,999.0,999.0,65.96721,66.9845,3.527067,66.984634,67.985275
12,12,6,2,3,2,8.500000e-01,1.0,11.0,--,--,67.99377,1.0,69.95444,1.9606744,2.0,70.51188,71.52004,3.5262804,71.52018,73.52442
13,13,6,2,3,2,1.700000e+00,1.0,12.0,--,--,73.53246,0.0,999.0,999.0,999.0,76.04382,77.060104,3.5276432,77.06024,79.06319
14,14,6,2,3,4,8.500000e-01,1.0,13.0,--,--,79.069786,0.0,999.0,999.0,999.0,81.58262,82.59952,3.5297308,82.599655,86.60402
15,15,9,3,3,4,2.550000e+00,1.0,14.0,--,--,86.60688,1.0,87.405266,0.798384,3.0,89.12396,90.13087,3.523986,90.13101,94.145
16,16,1,1,1,3,8.500000e-01,1.0,15.0,--,--,94.18834,0.0,999.0,999.0,999.0,96.69767,97.71412,3.5257816,97.71427,100.71828
17,17,7,3,1,3,2.550000e+00,1.0,16.0,--,--,100.722404,1.0,102.65366,1.9312588,8.0,103.23985,104.247536,3.5251286,104.24768,107.257835
18,18,9,3,3,3,8.500000e-01,1.0,17.0,--,--,107.25942,0.0,999.0,999.0,999.0,109.7606,110.77726,3.5178378,110.7775,113.78101
19,19,6,2,3,2,1.700000e+00,1.0,18.0,--,--,113.79118,1.0,114.31515,0.5239701,4.0,116.3094,117.3169,3.5257194,117.31709,119.32019
20,20,5,2,2,3,2.550000e+00,1.0,19.0,--,--,119.32828,0.0,999.0,999.0,999.0,121.83965,122.85639,3.5281124,122.85653,125.86014
21,21,1,1,1,2,8.500000e-01,1.0,20.0,--,--,125.86499,1.0,126.861374,0.9963834,8.0,128.38232,129.38902,3.5240252,129.38916,131.39886
22,22,7,3,1,2,8.500000e-01,1.0,21.0,--,--,131.4018,1.0,133.75163,2.3498373,7.0,133.91853,134.9246,3.522818,134.92476,136.93779
23,23,9,3,3,1,2.550000e+00,1.0,22.0,--,--,136.93932,0.0,999.0,999.0,999.0,139.44078,140.4565,3.5171793,140.45665,141.45901
24,24,7,3,1,4,2.550000e+00,1.0,23.0,--,--,141.46051,0.0,999.0,999.0,999.0,143.96184,144.97849,3.5179875,144.97862,148.98325
25,25,1,1,1,1,8.500000e-01,1.0,24.0,--,--,148.98827,1.0,149.63374,0.6454761,9.0,151.50656,152.51949,3.5312178,152.51962,153.52109
26,26,3,1,3,2,1.700000e+00,1.0,25.0,--,--,153.52312,1.0,154.38855,0.8654348,2.0,156.0406,157.047,3.5238826,157.04713,159.05998
27,27,1,1,1,3,8.500000e-01,1.0,26.0,--,--,159.06335,0.0,999.0,999.0,999.0,161.57948,162.59645,3.5330932,162.59659,165.59976
28,28,8,3,2,4,1.700000e+00,1.0,27.0,--,--,165.6042,1.0,165.70015,0.0959508,5.0,168.12195,169.12976,3.5255551,169.1299,173.14032
29,29,6,2,3,3,1.700000e+00,1.0,28.0,--,--,173.15027,0.0,999.0,999.0,999.0,175.6604,176.67682,3.5265532,176.67696,179.6805
30,30,2,1,2,1,8.500000e-01,1.0,29.0,--,--,179.684,0.0,999.0,999.0,999.0,182.20007,183.21686,3.5328405,183.217,184.21838
31,31,1,1,1,4,2.550000e+00,1.0,30.0,--,--,184.22049,0.0,999.0,999.0,999.0,186.72087,187.73691,3.5164118,187.73705,191.74257
32,32,8,3,2,4,1.700000e+00,1.0,31.0,--,--,191.74675,1.0,192.86075,1.113998,5.0,194.26476,195.27184,3.525092,195.27197,199.28348
33,33,7,3,1,3,8.500000e-01,1.0,32.0,--,--,199.28502,0.0,999.0,999.0,999.0,201.78622,202.8022,3.5171728,202.80234,205.8066
34,34,3,1,3,4,8.500000e-01,1.0,33.0,--,--,205.8115,1.0,206.5742,0.7627136,3.0,208.32938,209.33653,3.5250416,209.33667,213.34755
35,35,6,2,3,2,1.700000e+00,1.0,34.0,--,--,213.35684,0.0,999.0,999.0,999.0,215.86725,216.88368,3.5268383,216.88382,218.8863
36,36,1,1,1,2,8.500000e-01,1.0,35.0,--,--,218.89116,0.0,999.0,999.0,999.0,221.40598,222.42255,3.5313966,222.42268,224.42526
37,37,7,3,1,3,1.700000e+00,1.0,36.0,--,--,224.42805,2.0,225.81024,1.3821974,2.0,226.94539,227.95132,3.523279,227.95148,230.96472
38,38,3,1,3,1,1.700000e+00,1.0,37.0,--,--,230.9684,2.0,231.916,0.9475979,7.0,233.48566,234.49277,3.524366,234.49292,235.50272
39,39,9,3,3,3,2.550000e+00,1.0,38.0,--,--,235.50574,0.0,999.0,999.0,999.0,238.02275,239.03917,3.533444,239.03932,242.04256
40,40,1,1,1,3,1.700000e+00,1.0,39.0,--,--,242.04597,2.0,243.62802,1.5820498,3.0,244.56245,245.56891,3.5229304,245.56906,248.58232
41,41,9,3,3,4,2.550000e+00,1.0,40.0,--,--,248.5851,0.0,999.0,999.0,999.0,251.08556,252.10158,3.5164793,252.10172,256.10693
42,42,6,2,3,2,8.500000e-01,1.0,41.0,--,--,256.11786,1.0,256.84082,0.722975,4.0,258.63528,259.64114,3.523281,259.64127,261.64572
43,43,6,2,3,3,1.700000e+00,1.0,42.0,--,--,261.65436,0.0,999.0,999.0,999.0,264.16528,265.18286,3.5285072,265.183,268.1855
44,44,9,3,3,2,1.700000e+00,1.0,43.0,--,--,268.1885,2.0,269.10336,0.91485,9.0,270.70612,271.7118,3.523304,271.71194,273.72418
45,45,4,2,1,3,8.500000e-01,1.0,44.0,--,--,273.73373,0.0,999.0,999.0,999.0,276.2439,277.26053,3.5267756,277.26065,280.26428
46,46,3,1,3,2,2.550000e+00,1.0,45.0,--,--,280.26788,0.0,999.0,999.0,999.0,282.78394,283.80048,3.5326037,283.80063,285.80313
47,47,4,2,1,1,1.700000e+00,1.0,46.0,--,--,285.81265,2.0,287.6883,1.8756492,4.0,288.33105,289.3373,3.5246596,289.33746,290.3412
48,48,6,2,3,4,8.500000e-01,1.0,47.0,--,--,290.34872,0.0,999.0,999.0,999.0,292.86063,293.8772,3.5284655,293.87735,297.88196
49,49,4,2,1,3,2.550000e+00,1.0,48.0,--,--,297.89026,1.0,299.48398,1.5937326,9.0,300.40793,301.414,3.523754,301.41412,304.42157
50,50,4,2,1,4,8.500000e-01,1.0,49.0,--,--,304.42807,1.0,305.65616,1.228097,8.0,306.94525,307.9507,3.5226505,307.95087,311.96255
51,51,1,1,1,3,2.550000e+00,1.0,50.0,--,--,311.96613,0.0,999.0,999.0,999.0,314.48236,315.49893,3.53281,315.49908,318.50256
52,52,7,3,1,2,8.500000e-01,1.0,51.0,--,--,318.5054,0.0,999.0,999.0,999.0,321.02173,322.03806,3.532647,322.0382,324.04105
53,53,4,2,1,2,1.700000e+00,1.0,52.0,--,--,324.05075,0.0,999.0,999.0,999.0,326.56094,327.57816,3.5274172,327.5783,329.58026
54,54,9,3,3,4,1.700000e+00,1.0,53.0,--,--,329.58456,0.0,999.0,999.0,999.0,332.09988,333.11627,3.5317304,333.1165,337.12103
55,55,3,1,3,3,1.700000e+00,1.0,54.0,--,--,337.1245,0.0,999.0,999.0,999.0,339.6408,340.65723,3.5326934,340.65735,343.6611
56,56,3,1,3,3,2.550000e+00,1.0,55.0,--,--,343.6631,0.0,999.0,999.0,999.0,346.16376,347.17975,3.5166657,347.17993,350.18402
57,57,2,1,2,1,1.700000e+00,1.0,56.0,--,--,350.18613,0.0,999.0,999.0,999.0,352.6872,353.703,3.5168726,353.70312,354.7055
58,58,9,3,3,2,1.700000e+00,1.0,57.0,--,--,354.70978,0.0,999.0,999.0,999.0,357.22476,358.24152,3.5317433,358.24167,360.24417
59,59,5,2,2,4,1.700000e+00,1.0,58.0,--,--,360.25403,0.0,999.0,999.0,999.0,362.7639,363.77975,3.525732,363.7799,367.785
60,60,2,1,2,4,2.550000e+00,1.0,59.0,--,--,367.79007,0.0,999.0,999.0,999.0,370.30463,371.32114,3.5310736,371.32132,375.32602
61,61,4,2,1,2,2.550000e+00,1.0,60.0,--,--,375.33524,0.0,999.0,999.0,999.0,377.84518,378.86212,3.5269032,378.86227,380.86475
62,62,8,3,2,2,2.550000e+00,1.0,61.0,--,--,380.86774,2.0,380.96518,0.0974423,5.0,383.38452,384.39108,3.523347,384.3912,386.40356
63,63,4,2,1,1,1.700000e+00,1.0,62.0,--,--,386.41406,0.0,999.0,999.0,999.0,388.9233,389.94003,3.5259597,389.94016,390.94128
64,64,4,2,1,1,8.500000e-01,1.0,63.0,--,--,390.94937,0.0,999.0,999.0,999.0,393.46127,394.47717,3.5278237,394.47733,395.47946
65,65,7,3,1,3,2.550000e+00,1.0,64.0,--,--,395.48224,0.0,999.0,999.0,999.0,397.99905,399.0162,3.5339656,399.01633,402.0193
66,66,8,3,2,2,8.500000e-01,1.0,65.0,--,--,402.02084,0.0,999.0,999.0,999.0,404.52237,405.5387,3.5178535,405.53885,407.5415
67,67,9,3,3,3,8.500000e-01,1.0,66.0,--,--,407.54306,0.0,999.0,999.0,999.0,410.0443,411.06085,3.5177693,411.06097,414.0647
68,68,3,1,3,4,2.550000e+00,1.0,67.0,--,--,414.0694,2.0,414.1314,0.0619964,9.0,416.58768,417.5949,3.5254948,417.59506,421.60568
69,69,6,2,3,2,8.500000e-01,1.0,68.0,--,--,421.6149,0.0,999.0,999.0,999.0,424.12506,425.1425,3.5275886,425.14264,427.14435
70,70,3,1,3,4,1.700000e+00,1.0,69.0,--,--,427.14816,0.0,999.0,999.0,999.0,429.66397,430.68054,3.5323746,430.6807,434.68527
71,71,9,3,3,1,1.700000e+00,1.0,70.0,--,--,434.68814,0.0,999.0,999.0,999.0,437.20462,438.22095,3.5328116,438.2211,439.22302
72,72,2,1,2,1,2.550000e+00,1.0,71.0,--,--,439.22687,0.0,999.0,999.0,999.0,441.74277,442.7603,3.5334678,442.76047,443.76105
73,73,9,3,3,2,1.700000e+00,1.0,72.0,--,--,443.7639,2.0,444.44534,0.6814459,6.0,446.2817,447.28873,3.5248172,447.28885,449.29974
74,74,5,2,2,3,2.550000e+00,1.0,73.0,--,--,449.30963,0.0,999.0,999.0,999.0,451.81952,452.83612,3.5264919,452.83624,455.8396
75,75,4,2,1,1,1.700000e+00,1.0,74.0,--,--,455.8481,2.0,457.89206,2.0439534,3.0,458.36615,459.3725,3.5244055,459.37265,460.3776
76,76,3,1,3,3,8.500000e-01,1.0,75.0,--,--,460.3811,2.0,460.92834,0.5472371,9.0,462.8985,463.90613,3.5250323,463.90625,466.9175
77,77,3,1,3,2,8.500000e-01,1.0,76.0,--,--,466.9197,2.0,467.65152,0.7318264,8.0,469.43677,470.4423,3.5226028,470.44244,472.45636
78,78,7,3,1,3,2.550000e+00,1.0,77.0,--,--,472.4595,0.0,999.0,999.0,999.0,474.976,475.99252,3.5330224,475.99265,478.99628
79,79,3,1,3,4,2.550000e+00,1.0,78.0,--,--,478.99994,0.0,999.0,999.0,999.0,481.5158,482.53174,3.53181,482.5319,486.53717
80,80,1,1,1,1,8.500000e-01,1.0,79.0,--,--,486.53928,2.0,487.93866,1.3993621,3.0,489.05676,490.06323,3.5239446,490.06335,491.07498
81,81,5,2,2,2,2.550000e+00,1.0,80.0,--,--,491.08514,0.0,999.0,999.0,999.0,493.59445,494.6105,3.5253642,494.61066,496.61362
﻿TrialNumber,Trialn,TrialType,Partner,Feedback,ITI,ISI,ran,order,studyStart,InitFixOnset,decision_onset,resp,resp_onset,rt,outcome_val,outcome_onset,outcome_offset,trialDuration,ITIonset,ITIoffset
1,1,1,1,1,2,2.550000e+00,1.0,0.0,5.499998e-06,0.004918,4.0123873,1.0,4.593696,0.581309,6.0,6.5297556,7.540703,3.5283153,7.540883,9.548498
2,2,8,3,2,1,2.550000e+00,1.0,1.0,--,--,9.559156,2.0,9.849018,0.2898616,5.0,12.077071,13.085124,3.5259676,13.085267,14.086301
3,3,1,1,1,2,1.700000e+00,1.0,2.0,--,--,14.09265,2.0,15.421185,1.3285348,4.0,16.609667,17.617027,3.524378,17.617182,19.62515
4,4,6,2,3,2,8.500000e-01,1.0,3.0,--,--,19.672781,0.0,999.0,999.0,999.0,22.178505,23.194954,3.5221734,23.195139,25.197674
5,5,2,1,2,4,2.550000e+00,1.0,4.0,--,--,25.201836,--,--,--,--,--,--,--,--,--
6,6,4,2,1,1,2.550000e+00,0.0,--,--,--,--,--,--,--,--,--,--,--,--,--
7,7,7,3,1,4,1.700000e+00,0.0,--,--,--,--,--,--,--,--,--,--,--,--,--
8,8,5,2,2,1,8.500000e-01,0.0,--,--,--,--,--,--,--,--,--,--,--,--,--
9,9,7,3,1,3,2.550000e+00,0.0,--,--,--,--,--,--,--,--,--,--,--,--,--
10,10,7,3,1,4,1.700000e+00,0.0,--,--,--,--,--,--,--,--,--,--,--,--,--
11,11,4,2,1,1,8.500000e-01,0.0,--,--,--,--,--,--,--,--,--,--,--,--,--
12,12,6,2,3,2,8.500000e-01,0.0,--,--,--,--,--,--,--,--,--,--,--,--,--
13,13,6,2,3,2,1.700000e+00,0.0,--,--,--,--,--,--,--,--,--,--,--,--,--
14,14,6,2,3,4,8.500000e-01,0.0,--,--,--,--,--,--,--,--,--,--,--,--,--
15,15,9,3,3,4,2.550000e+00,0.0,--,--,--,--,--,--,--,--,--,--,--,--,--
16,16,1,1,1,3,8.500000e-01,0.0,--,--,--,--,--,--,--,--,--,--,--,--,--
17,17,7,3,1,3,2.550000e+00,0.0,--,--,--,--,--,--,--,--,--,--,--,--,--
18,18,9,3,3,3,8.500000e-01,0.0,--,--,--,--,--,--,--,--,--,--,--,--,--
19,19,6,2,3,2,1.700000e+00,0.0,--,--,--,--,--,--,--,--,--,--,--,--,--
20,20,5,2,2,3,2.550000e+00,0.0,--,--,--,--,--,--,--,--,--,--,--,--,--
21,21,1,1,1,2,8.500000e-01,0.0,--,--,--,--,--,--,--,--,--,--,--,--,--
22,22,7,3,1,2,8.500000e-01,0.0,--,--,--,--,--,--,--,--,--,--,--,--,--
23,23,9,3,3,1,2.550000e+00,0.0,--,--,--,--,--,--,--,--,--,--,--,--,--
24,24,7,3,1,4,2.550000e+00,0.0,--,--,--,--,--,--,--,--,--,--,--,--,--
25,25,1,1,1,1,8.500000e-01,0.0,--,--,--,--,--,--,--,--,--,--,--,--,--
26,26,3,1,3,2,1.700000e+00,0.0,--,--,--,--,--,--,--,--,--,--,--,--,--
27,27,1,1,1,3,8.500000e-01,0.0,--,--,--,--,--,--,--,--,--,--,--,--,--
28,28,8,3,2,4,1.700000e+00,0.0,--,--,--,--,--,--,--,--,--,--,--,--,--
29,29,6,2,3,3,1.700000e+00,0.0,--,--,--,--,--,--,--,--,--,--,--,--,--
30,30,2,1,2,1,8.500000e-01,0.0,--,--,--,--,--,--,--,--,--,--,--,--,--
31,31,1,1,1,4,2.550000e+00,0.0,--,--,--,--,--,--,--,--,--,--,--,--,--
32,32,8,3,2,4,1.700000e+00,0.0,--,--,--,--,--,--,--,--,--,--,--,--,--
33,33,7,3,1,3,8.500000e-01,0.0,--,--,--,--,--,--,--,--,--,--,--,--,--
34,34,3,1,3,4,8.500000e-01,0.0,--,--,--,--,--,--,--,--,--,--,--,--,--
35,35,6,2,3,2,1.700000e+00,0.0,--,--,--,--,--,--,--,--,--,--,--,--,--
36,36,1,1,1,2,8.500000e-01,0.0,--,--,--,--,--,--,--,--,--,--,--,--,--
37,37,7,3,1,3,1.700000e+00,0.0,--,--,--,--,--,--,--,--,--,--,--,--,--
38,38,3,1,3,1,1.700000e+00,0.0,--,--,--,--,--,--,--,--,--,--,--,--,--
39,39,9,3,3,3,2.550000e+00,0.0,--,--,--,--,--,--,--,--,--,--,--,--,--
40,40,1,1,1,3,1.700000e+00,0.0,--,--,--,--,--,--,--,--,--,--,--,--,--
41,41,9,3,3,4,2.550000e+00,0.0,--,--,--,--,--,--,--,--,--,--,--,--,--
42,42,6,2,3,2,8.500000e-01,0.0,--,--,--,--,--,--,--,--,--,--,--,--,--
43,43,6,2,3,3,1.700000e+00,0.0,--,--,--,--,--,--,--,--,--,--,--,--,--
44,44,9,3,3,2,1.700000e+00,0.0,--,--,--,--,--,--,--,--,--,--,--,--,--
45,45,4,2,1,3,8.500000e-01,0.0,--,--,--,--,--,--,--,--,--,--,--,--,--
46,46,3,1,3,2,2.550000e+00,0.0,--,--,--,--,--,--,--,--,--,--,--,--,--
47,47,4,2,1,1,1.700000e+00,0.0,--,--,--,--,--,--,--,--,--,--,--,--,--
48,48,6,2,3,4,8.500000e-01,0.0,--,--,--,--,--,--,--,--,--,--,--,--,--
49,49,4,2,1,3,2.550000e+00,0.0,--,--,--,--,--,--,--,--,--,--,--,--,--
50,50,4,2,1,4,8.500000e-01,0.0,--,--,--,--,--,--,--,--,--,--,--,--,--
51,51,1,1,1,3,2.550000e+00,0.0,--,--,--,--,--,--,--,--,--,--,--,--,--
52,52,7,3,1,2,8.500000e-01,0.0,--,--,--,--,--,--,--,--,--,--,--,--,--
53,53,4,2,1,2,1.700000e+00,0.0,--,--,--,--,--,--,--,--,--,--,--,--,--
54,54,9,3,3,4,1.700000e+00,0.0,--,--,--,--,--,--,--,--,--,--,--,--,--
55,55,3,1,3,3,1.700000e+00,0.0,--,--,--,--,--,--,--,--,--,--,--,--,--
56,56,3,1,3,3,2.550000e+00,0.0,--,--,--,--,--,--,--,--,--,--,--,--,--
57,57,2,1,2,1,1.700000e+00,0.0,--,--,--,--,--,--,--,--,--,--,--,--,--
58,58,9,3,3,2,1.700000e+00,0.0,--,--,--,--,--,--,--,--,--,--,--,--,--
59,59,5,2,2,4,1.700000e+00,0.0,--,--,--,--,--,--,--,--,--,--,--,--,--
60,60,2,1,2,4,2.550000e+00,0.0,--,--,--,--,--,--,--,--,--,--,--,--,--
61,61,4,2,1,2,2.550000e+00,0.0,--,--,--,--,--,--,--,--,--,--,--,--,--
62,62,8,3,2,2,2.550000e+00,0.0,--,--,--,--,--,--,--,--,--,--,--,--,--
63,63,4,2,1,1,1.700000e+00,0.0,--,--,--,--,--,--,--,--,--,--,--,--,--
64,64,4,2,1,1,8.500000e-01,0.0,--,--,--,--,--,--,--,--,--,--,--,--,--
65,65,7,3,1,3,2.550000e+00,0.0,--,--,--,--,--,--,--,--,--,--,--,--,--
66,66,8,3,2,2,8.500000e-01,0.0,--,--,--,--,--,--,--,--,--,--,--,--,--
67,67,9,3,3,3,8.500000e-01,0.0,--,--,--,--,--,--,--,--,--,--,--,--,--
68,68,3,1,3,4,2.550000e+00,0.0,--,--,--,--,--,--,--,--,--,--,--,--,--
69,69,6,2,3,2,8.500000e-01,0.0,--,--,--,--,--,--,--,--,--,--,--,--,--
70,70,3,1,3,4,1.700000e+00,0.0,--,--,--,--,--,--,--,--,--,--,--,--,--
71,71,9,3,3,1,1.700000e+00,0.0,--,--,--,--,--,--,--,--,--,--,--,--,--
72,72,2,1,2,1,2.550000e+00,0.0,--,--,--,--,--,--,--,--,--,--,--,--,--
73,73,9,3,3,2,1.700000e+00,0.0,--,--,--,--,--,--,--,--,--,--,--,--,--
74,74,5,2,2,3,2.550000e+00,0.0,--,--,--,--,--,--,--,--,--,--,--,--,--
75,75,4,2,1,1,1.700000e+00,0.0,--,--,--,--,--,--,--,--,--,--,--,--,--
76,76,3,1,3,3,8.500000e-01,0.0,--,--,--,--,--,--,--,--,--,--,--,--,--
77,77,3,1,3,2,8.500000e-01,0.0,--,--,--,--,--,--,--,--,--,--,--,--,--
78,78,7,3,1,3,2.550000e+00,0.0,--,--,--,--,--,--,--,--,--,--,--,--,--
79,79,3,1,3,4,2.550000e+00,0.0,--,--,--,--,--,--,--,--,--,--,--,--,--
80,80,1,1,1,1,8.500000e-01,0.0,--,--,--,--,--,--,--,--,--,--,--,--,--
81,81,5,2,2,2,2.550000e+00,0.0,--,--,--,--,--,--,--,--,--,--,--,--,--
﻿TrialNumber,Trialn,TrialType,Partner,Feedback,ITI,ISI,ran,order,studyStart,InitFixOnset,decision_onset,resp,resp_onset,rt,outcome_val,outcome_onset,outcome_offset,trialDuration,ITIonset,ITIoffset
1,1,1,1,1,2,2.550000e+00,1.0,0.0,2.355082e-06,0.013363303,4.1132255,1.0,4.681929,0.5687034,8.0,6.629455,7.6647954,3.55157,7.6651487,9.680625
2,2,8,3,2,1,2.550000e+00,1.0,1.0,--,--,9.692795,1.0,10.784414,1.0916197,5.0,12.206302,13.231608,3.5388138,13.231863,14.247263
3,3,1,1,1,2,1.700000e+00,1.0,2.0,--,--,14.263007,1.0,15.017951,0.75494397,8.0,16.777115,17.798506,3.5354989,17.798737,19.813951
4,4,6,2,3,2,8.500000e-01,1.0,3.0,--,--,19.827917,--,--,--,--,--,--,--,--,--
5,5,2,1,2,4,2.550000e+00,0.0,--,--,--,--,--,--,--,--,--,--,--,--,--
6,6,4,2,1,1,2.550000e+00,0.0,--,--,--,--,--,--,--,--,--,--,--,--,--
7,7,7,3,1,4,1.700000e+00,0.0,--,--,--,--,--,--,--,--,--,--,--,--,--
8,8,5,2,2,1,8.500000e-01,0.0,--,--,--,--,--,--,--,--,--,--,--,--,--
9,9,7,3,1,3,2.550000e+00,0.0,--,--,--,--,--,--,--,--,--,--,--,--,--
10,10,7,3,1,4,1.700000e+00,0.0,--,--,--,--,--,--,--,--,--,--,--,--,--
11,11,4,2,1,1,8.500000e-01,0.0,--,--,--,--,--,--,--,--,--,--,--,--,--
12,12,6,2,3,2,8.500000e-01,0.0,--,--,--,--,--,--,--,--,--,--,--,--,--
13,13,6,2,3,2,1.700000e+00,0.0,--,--,--,--,--,--,--,--,--,--,--,--,--
14,14,6,2,3,4,8.500000e-01,0.0,--,--,--,--,--,--,--,--,--,--,--,--,--
15,15,9,3,3,4,2.550000e+00,0.0,--,--,--,--,--,--,--,--,--,--,--,--,--
16,16,1,1,1,3,8.500000e-01,0.0,--,--,--,--,--,--,--,--,--,--,--,--,--
17,17,7,3,1,3,2.550000e+00,0.0,--,--,--,--,--,--,--,--,--,--,--,--,--
18,18,9,3,3,3,8.500000e-01,0.0,--,--,--,--,--,--,--,--,--,--,--,--,--
19,19,6,2,3,2,1.700000e+00,0.0,--,--,--,--,--,--,--,--,--,--,--,--,--
20,20,5,2,2,3,2.550000e+00,0.0,--,--,--,--,--,--,--,--,--,--,--,--,--
21,21,1,1,1,2,8.500000e-01,0.0,--,--,--,--,--,--,--,--,--,--,--,--,--
22,22,7,3,1,2,8.500000e-01,0.0,--,--,--,--,--,--,--,--,--,--,--,--,--
23,23,9,3,3,1,2.550000e+00,0.0,--,--,--,--,--,--,--,--,--,--,--,--,--
24,24,7,3,1,4,2.550000e+00,0.0,--,--,--,--,--,--,--,--,--,--,--,--,--
25,25,1,1,1,1,8.500000e-01,0.0,--,--,--,--,--,--,--,--,--,--,--,--,--
26,26,3,1,3,2,1.700000e+00,0.0,--,--,--,--,--,--,--,--,--,--,--,--,--
27,27,1,1,1,3,8.500000e-01,0.0,--,--,--,--,--,--,--,--,--,--,--,--,--
28,28,8,3,2,4,1.700000e+00,0.0,--,--,--,--,--,--,--,--,--,--,--,--,--
29,29,6,2,3,3,1.700000e+00,0.0,--,--,--,--,--,--,--,--,--,--,--,--,--
30,30,2,1,2,1,8.500000e-01,0.0,--,--,--,--,--,--,--,--,--,--,--,--,--
31,31,1,1,1,4,2.550000e+00,0.0,--,--,--,--,--,--,--,--,--,--,--,--,--
32,32,8,3,2,4,1.700000e+00,0.0,--,--,--,--,--,--,--,--,--,--,--,--,--
33,33,7,3,1,3,8.500000e-01,0.0,--,--,--,--,--,--,--,--,--,--,--,--,--
34,34,3,1,3,4,8.500000e-01,0.0,--,--,--,--,--,--,--,--,--,--,--,--,--
35,35,6,2,3,2,1.700000e+00,0.0,--,--,--,--,--,--,--,--,--,--,--,--,--
36,36,1,1,1,2,8.500000e-01,0.0,--,--,--,--,--,--,--,--,--,--,--,--,--
37,37,7,3,1,3,1.700000e+00,0.0,--,--,--,--,--,--,--,--,--,--,--,--,--
38,38,3,1,3,1,1.700000e+00,0.0,--,--,--,--,--,--,--,--,--,--,--,--,--
39,39,9,3,3,3,2.550000e+00,0.0,--,--,--,--,--,--,--,--,--,--,--,--,--
40,40,1,1,1,3,1.700000e+00,0.0,--,--,--,--,--,--,--,--,--,--,--,--,--
41,41,9,3,3,4,2.550000e+00,0.0,--,--,--,--,--,--,--,--,--,--,--,--,--
42,42,6,2,3,2,8.500000e-01,0.0,--,--,--,--,--,--,--,--,--,--,--,--,--
43,43,6,2,3,3,1.700000e+00,0.0,--,--,--,--,--,--,--,--,--,--,--,--,--
44,44,9,3,3,2,1.700000e+00,0.0,--,--,--,--,--,--,--,--,--,--,--,--,--
45,45,4,2,1,3,8.500000e-01,0.0,--,--,--,--,--,--,--,--,--,--,--,--,--
46,46,3,1,3,2,2.550000e+00,0.0,--,--,--,--,--,--,--,--,--,--,--,--,--
47,47,4,2,1,1,1.700000e+00,0.0,--,--,--,--,--,--,--,--,--,--,--,--,--
48,48,6,2,3,4,8.500000e-01,0.0,--,--,--,--,--,--,--,--,--,--,--,--,--
49,49,4,2,1,3,2.550000e+00,0.0,--,--,--,--,--,--,--,--,--,--,--,--,--
50,50,4,2,1,4,8.500000e-01,0.0,--,--,--,--,--,--,--,--,--,--,--,--,--
51,51,1,1,1,3,2.550000e+00,0.0,--,--,--,--,--,--,--,--,--,--,--,--,--
52,52,7,3,1,2,8.500000e-01,0.0,--,--,--,--,--,--,--,--,--,--,--,--,--
53,53,4,2,1,2,1.700000e+00,0.0,--,--,--,--,--,--,--,--,--,--,--,--,--
54,54,9,3,3,4,1.700000e+00,0.0,--,--,--,--,--,--,--,--,--,--,--,--,--
55,55,3,1,3,3,1.700000e+00,0.0,--,--,--,--,--,--,--,--,--,--,--,--,--
56,56,3,1,3,3,2.550000e+00,0.0,--,--,--,--,--,--,--,--,--,--,--,--,--
57,57,2,1,2,1,1.700000e+00,0.0,--,--,--,--,--,--,--,--,--,--,--,--,--
58,58,9,3,3,2,1.700000e+00,0.0,--,--,--,--,--,--,--,--,--,--,--,--,--
59,59,5,2,2,4,1.700000e+00,0.0,--,--,--,--,--,--,--,--,--,--,--,--,--
60,60,2,1,2,4,2.550000e+00,0.0,--,--,--,--,--,--,--,--,--,--,--,--,--
61,61,4,2,1,2,2.550000e+00,0.0,--,--,--,--,--,--,--,--,--,--,--,--,--
62,62,8,3,2,2,2.550000e+00,0.0,--,--,--,--,--,--,--,--,--,--,--,--,--
63,63,4,2,1,1,1.700000e+00,0.0,--,--,--,--,--,--,--,--,--,--,--,--,--
64,64,4,2,1,1,8.500000e-01,0.0,--,--,--,--,--,--,--,--,--,--,--,--,--
65,65,7,3,1,3,2.550000e+00,0.0,--,--,--,--,--,--,--,--,--,--,--,--,--
66,66,8,3,2,2,8.500000e-01,0.0,--,--,--,--,--,--,--,--,--,--,--,--,--
67,67,9,3,3,3,8.500000e-01,0.0,--,--,--,--,--,--,--,--,--,--,--,--,--
68,68,3,1,3,4,2.550000e+00,0.0,--,--,--,--,--,--,--,--,--,--,--,--,--
69,69,6,2,3,2,8.500000e-01,0.0,--,--,--,--,--,--,--,--,--,--,--,--,--
70,70,3,1,3,4,1.700000e+00,0.0,--,--,--,--,--,--,--,--,--,--,--,--,--
71,71,9,3,3,1,1.700000e+00,0.0,--,--,--,--,--,--,--,--,--,--,--,--,--
72,72,2,1,2,1,2.550000e+00,0.0,--,--,--,--,--,--,--,--,--,--,--,--,--
73,73,9,3,3,2,1.700000e+00,0.0,--,--,--,--,--,--,--,--,--,--,--,--,--
74,74,5,2,2,3,2.550000e+00,0.0,--,--,--,--,--,--,--,--,--,--,--,--,--
75,75,4,2,1,1,1.700000e+00,0.0,--,--,--,--,--,--,--,--,--,--,--,--,--
76,76,3,1,3,3,8.500000e-01,0.0,--,--,--,--,--,--,--,--,--,--,--,--,--
77,77,3,1,3,2,8.500000e-01,0.0,--,--,--,--,--,--,--,--,--,--,--,--,--
78,78,7,3,1,3,2.550000e+00,0.0,--,--,--,--,--,--,--,--,--,--,--,--,--
79,79,3,1,3,4,2.550000e+00,0.0,--,--,--,--,--,--,--,--,--,--,--,--,--
80,80,1,1,1,1,8.500000e-01,0.0,--,--,--,--,--,--,--,--,--,--,--,--,--
81,81,5,2,2,2,2.550000e+00,0.0,--,--,--,--,--,--,--,--,--,--,--,--,--
﻿TrialNumber,Trialn,TrialType,Partner,Feedback,ITI,ISI,ran,order,studyStart,InitFixOnset,decision_onset,resp,resp_onset,rt,outcome_val,outcome_onset,outcome_offset,trialDuration,ITIonset,ITIoffset
1,1,1,1,1,2,2.550000e+00,1.0,0.0,2.3960602e-06,0.02247088,4.0397806,1.0,4.6415544,0.60177356,6.0,6.553892,7.5741487,3.5343683,7.5744166,9.58936
2,2,8,3,2,1,2.550000e+00,1.0,1.0,--,--,9.602544,1.0,10.076639,0.47409523,5.0,12.116517,13.139134,3.5365906,13.139375,14.155878
3,3,1,1,1,2,1.700000e+00,1.0,2.0,--,--,14.172953,--,--,--,--,--,--,--,--,--
4,4,6,2,3,2,8.500000e-01,0.0,--,--,--,--,--,--,--,--,--,--,--,--,--
5,5,2,1,2,4,2.550000e+00,0.0,--,--,--,--,--,--,--,--,--,--,--,--,--
6,6,4,2,1,1,2.550000e+00,0.0,--,--,--,--,--,--,--,--,--,--,--,--,--
7,7,7,3,1,4,1.700000e+00,0.0,--,--,--,--,--,--,--,--,--,--,--,--,--
8,8,5,2,2,1,8.500000e-01,0.0,--,--,--,--,--,--,--,--,--,--,--,--,--
9,9,7,3,1,3,2.550000e+00,0.0,--,--,--,--,--,--,--,--,--,--,--,--,--
10,10,7,3,1,4,1.700000e+00,0.0,--,--,--,--,--,--,--,--,--,--,--,--,--
11,11,4,2,1,1,8.500000e-01,0.0,--,--,--,--,--,--,--,--,--,--,--,--,--
12,12,6,2,3,2,8.500000e-01,0.0,--,--,--,--,--,--,--,--,--,--,--,--,--
13,13,6,2,3,2,1.700000e+00,0.0,--,--,--,--,--,--,--,--,--,--,--,--,--
14,14,6,2,3,4,8.500000e-01,0.0,--,--,--,--,--,--,--,--,--,--,--,--,--
15,15,9,3,3,4,2.550000e+00,0.0,--,--,--,--,--,--,--,--,--,--,--,--,--
16,16,1,1,1,3,8.500000e-01,0.0,--,--,--,--,--,--,--,--,--,--,--,--,--
17,17,7,3,1,3,2.550000e+00,0.0,--,--,--,--,--,--,--,--,--,--,--,--,--
18,18,9,3,3,3,8.500000e-01,0.0,--,--,--,--,--,--,--,--,--,--,--,--,--
19,19,6,2,3,2,1.700000e+00,0.0,--,--,--,--,--,--,--,--,--,--,--,--,--
20,20,5,2,2,3,2.550000e+00,0.0,--,--,--,--,--,--,--,--,--,--,--,--,--
21,21,1,1,1,2,8.500000e-01,0.0,--,--,--,--,--,--,--,--,--,--,--,--,--
22,22,7,3,1,2,8.500000e-01,0.0,--,--,--,--,--,--,--,--,--,--,--,--,--
23,23,9,3,3,1,2.550000e+00,0.0,--,--,--,--,--,--,--,--,--,--,--,--,--
24,24,7,3,1,4,2.550000e+00,0.0,--,--,--,--,--,--,--,--,--,--,--,--,--
25,25,1,1,1,1,8.500000e-01,0.0,--,--,--,--,--,--,--,--,--,--,--,--,--
26,26,3,1,3,2,1.700000e+00,0.0,--,--,--,--,--,--,--,--,--,--,--,--,--
27,27,1,1,1,3,8.500000e-01,0.0,--,--,--,--,--,--,--,--,--,--,--,--,--
28,28,8,3,2,4,1.700000e+00,0.0,--,--,--,--,--,--,--,--,--,--,--,--,--
29,29,6,2,3,3,1.700000e+00,0.0,--,--,--,--,--,--,--,--,--,--,--,--,--
30,30,2,1,2,1,8.500000e-01,0.0,--,--,--,--,--,--,--,--,--,--,--,--,--
31,31,1,1,1,4,2.550000e+00,0.0,--,--,--,--,--,--,--,--,--,--,--,--,--
32,32,8,3,2,4,1.700000e+00,0.0,--,--,--,--,--,--,--,--,--,--,--,--,--
33,33,7,3,1,3,8.500000e-01,0.0,--,--,--,--,--,--,--,--,--,--,--,--,--
34,34,3,1,3,4,8.500000e-01,0.0,--,--,--,--,--,--,--,--,--,--,--,--,--
35,35,6,2,3,2,1.700000e+00,0.0,--,--,--,--,--,--,--,--,--,--,--,--,--
36,36,1,1,1,2,8.500000e-01,0.0,--,--,--,--,--,--,--,--,--,--,--,--,--
37,37,7,3,1,3,1.700000e+00,0.0,--,--,--,--,--,--,--,--,--,--,--,--,--
38,38,3,1,3,1,1.700000e+00,0.0,--,--,--,--,--,--,--,--,--,--,--,--,--
39,39,9,3,3,3,2.550000e+00,0.0,--,--,--,--,--,--,--,--,--,--,--,--,--
40,40,1,1,1,3,1.700000e+00,0.0,--,--,--,--,--,--,--,--,--,--,--,--,--
41,41,9,3,3,4,2.550000e+00,0.0,--,--,--,--,--,--,--,--,--,--,--,--,--
42,42,6,2,3,2,8.500000e-01,0.0,--,--,--,--,--,--,--,--,--,--,--,--,--
43,43,6,2,3,3,1.700000e+00,0.0,--,--,--,--,--,--,--,--,--,--,--,--,--
44,44,9,3,3,2,1.700000e+00,0.0,--,--,--,--,--,--,--,--,--,--,--,--,--
45,45,4,2,1,3,8.500000e-01,0.0,--,--,--,--,--,--,--,--,--,--,--,--,--
46,46,3,1,3,2,2.550000e+00,0.0,--,--,--,--,--,--,--,--,--,--,--,--,--
47,47,4,2,1,1,1.700000e+00,0.0,--,--,--,--,--,--,--,--,--,--,--,--,--
48,48,6,2,3,4,8.500000e-01,0.0,--,--,--,--,--,--,--,--,--,--,--,--,--
49,49,4,2,1,3,2.550000e+00,0.0,--,--,--,--,--,--,--,--,--,--,--,--,--
50,50,4,2,1,4,8.500000e-01,0.0,--,--,--,--,--,--,--,--,--,--,--,--,--
51,51,1,1,1,3,2.550000e+00,0.0,--,--,--,--,--,--,--,--,--,--,--,--,--
52,52,7,3,1,2,8.500000e-01,0.0,--,--,--,--,--,--,--,--,--,--,--,--,--
53,53,4,2,1,2,1.700000e+00,0.0,--,--,--,--,--,--,--,--,--,--,--,--,--
54,54,9,3,3,4,1.700000e+00,0.0,--,--,--,--,--,--,--,--,--,--,--,--,--
55,55,3,1,3,3,1.700000e+00,0.0,--,--,--,--,--,--,--,--,--,--,--,--,--
56,56,3,1,3,3,2.550000e+00,0.0,--,--,--,--,--,--,--,--,--,--,--,--,--
57,57,2,1,2,1,1.700000e+00,0.0,--,--,--,--,--,--,--,--,--,--,--,--,--
58,58,9,3,3,2,1.700000e+00,0.0,--,--,--,--,--,--,--,--,--,--,--,--,--
59,59,5,2,2,4,1.700000e+00,0.0,--,--,--,--,--,--,--,--,--,--,--,--,--
60,60,2,1,2,4,2.550000e+00,0.0,--,--,--,--,--,--,--,--,--,--,--,--,--
61,61,4,2,1,2,2.550000e+00,0.0,--,--,--,--,--,--,--,--,--,--,--,--,--
62,62,8,3,2,2,2.550000e+00,0.0,--,--,--,--,--,--,--,--,--,--,--,--,--
63,63,4,2,1,1,1.700000e+00,0.0,--,--,--,--,--,--,--,--,--,--,--,--,--
64,64,4,2,1,1,8.500000e-01,0.0,--,--,--,--,--,--,--,--,--,--,--,--,--
65,65,7,3,1,3,2.550000e+00,0.0,--,--,--,--,--,--,--,--,--,--,--,--,--
66,66,8,3,2,2,8.500000e-01,0.0,--,--,--,--,--,--,--,--,--,--,--,--,--
67,67,9,3,3,3,8.500000e-01,0.0,--,--,--,--,--,--,--,--,--,--,--,--,--
68,68,3,1,3,4,2.550000e+00,0.0,--,--,--,--,--,--,--,--,--,--,--,--,--
69,69,6,2,3,2,8.500000e-01,0.0,--,--,--,--,--,--,--,--,--,--,--,--,--
70,70,3,1,3,4,1.700000e+00,0.0,--,--,--,--,--,--,--,--,--,--,--,--,--
71,71,9,3,3,1,1.700000e+00,0.0,--,--,--,--,--,--,--,--,--,--,--,--,--
72,72,2,1,2,1,2.550000e+00,0.0,--,--,--,--,--,--,--,--,--,--,--,--,--
73,73,9,3,3,2,1.700000e+00,0.0,--,--,--,--,--,--,--,--,--,--,--,--,--
74,74,5,2,2,3,2.550000e+00,0.0,--,--,--,--,--,--,--,--,--,--,--,--,--
75,75,4,2,1,1,1.700000e+00,0.0,--,--,--,--,--,--,--,--,--,--,--,--,--
76,76,3,1,3,3,8.500000e-01,0.0,--,--,--,--,--,--,--,--,--,--,--,--,--
77,77,3,1,3,2,8.500000e-01,0.0,--,--,--,--,--,--,--,--,--,--,--,--,--
78,78,7,3,1,3,2.550000e+00,0.0,--,--,--,--,--,--,--,--,--,--,--,--,--
79,79,3,1,3,4,2.550000e+00,0.0,--,--,--,--,--,--,--,--,--,--,--,--,--
80,80,1,1,1,1,8.500000e-01,0.0,--,--,--,--,--,--,--,--,--,--,--,--,--
81,81,5,2,2,2,2.550000e+00,0.0,--,--,--,--,--,--,--,--,--,--,--,--,--
﻿TrialNumber,Trialn,TrialType,Partner,Feedback,ITI,ISI,ran,order,studyStart,InitFixOnset,decision_onset,resp,resp_onset,rt,outcome_val,outcome_onset,outcome_offset,trialDuration,ITIonset,ITIoffset
1,1,1,1,1,2,2.550000e+00,1.0,0.0,2.2239983e-06,0.00745166,4.0231977,1.0,4.678582,0.6553844,9.0,6.5374856,7.558975,3.5357778,7.559244,9.575055
2,2,8,3,2,1,2.550000e+00,1.0,1.0,--,--,9.589078,--,--,--,--,--,--,--,--,--
3,3,1,1,1,2,1.700000e+00,0.0,--,--,--,--,--,--,--,--,--,--,--,--,--
4,4,6,2,3,2,8.500000e-01,0.0,--,--,--,--,--,--,--,--,--,--,--,--,--
5,5,2,1,2,4,2.550000e+00,0.0,--,--,--,--,--,--,--,--,--,--,--,--,--
6,6,4,2,1,1,2.550000e+00,0.0,--,--,--,--,--,--,--,--,--,--,--,--,--
7,7,7,3,1,4,1.700000e+00,0.0,--,--,--,--,--,--,--,--,--,--,--,--,--
8,8,5,2,2,1,8.500000e-01,0.0,--,--,--,--,--,--,--,--,--,--,--,--,--
9,9,7,3,1,3,2.550000e+00,0.0,--,--,--,--,--,--,--,--,--,--,--,--,--
10,10,7,3,1,4,1.700000e+00,0.0,--,--,--,--,--,--,--,--,--,--,--,--,--
11,11,4,2,1,1,8.500000e-01,0.0,--,--,--,--,--,--,--,--,--,--,--,--,--
12,12,6,2,3,2,8.500000e-01,0.0,--,--,--,--,--,--,--,--,--,--,--,--,--
13,13,6,2,3,2,1.700000e+00,0.0,--,--,--,--,--,--,--,--,--,--,--,--,--
14,14,6,2,3,4,8.500000e-01,0.0,--,--,--,--,--,--,--,--,--,--,--,--,--
15,15,9,3,3,4,2.550000e+00,0.0,--,--,--,--,--,--,--,--,--,--,--,--,--
16,16,1,1,1,3,8.500000e-01,0.0,--,--,--,--,--,--,--,--,--,--,--,--,--
17,17,7,3,1,3,2.550000e+00,0.0,--,--,--,--,--,--,--,--,--,--,--,--,--
18,18,9,3,3,3,8.500000e-01,0.0,--,--,--,--,--,--,--,--,--,--,--,--,--
19,19,6,2,3,2,1.700000e+00,0.0,--,--,--,--,--,--,--,--,--,--,--,--,--
20,20,5,2,2,3,2.550000e+00,0.0,--,--,--,--,--,--,--,--,--,--,--,--,--
21,21,1,1,1,2,8.500000e-01,0.0,--,--,--,--,--,--,--,--,--,--,--,--,--
22,22,7,3,1,2,8.500000e-01,0.0,--,--,--,--,--,--,--,--,--,--,--,--,--
23,23,9,3,3,1,2.550000e+00,0.0,--,--,--,--,--,--,--,--,--,--,--,--,--
24,24,7,3,1,4,2.550000e+00,0.0,--,--,--,--,--,--,--,--,--,--,--,--,--
25,25,1,1,1,1,8.500000e-01,0.0,--,--,--,--,--,--,--,--,--,--,--,--,--
26,26,3,1,3,2,1.700000e+00,0.0,--,--,--,--,--,--,--,--,--,--,--,--,--
27,27,1,1,1,3,8.500000e-01,0.0,--,--,--,--,--,--,--,--,--,--,--,--,--
28,28,8,3,2,4,1.700000e+00,0.0,--,--,--,--,--,--,--,--,--,--,--,--,--
29,29,6,2,3,3,1.700000e+00,0.0,--,--,--,--,--,--,--,--,--,--,--,--,--
30,30,2,1,2,1,8.500000e-01,0.0,--,--,--,--,--,--,--,--,--,--,--,--,--
31,31,1,1,1,4,2.550000e+00,0.0,--,--,--,--,--,--,--,--,--,--,--,--,--
32,32,8,3,2,4,1.700000e+00,0.0,--,--,--,--,--,--,--,--,--,--,--,--,--
33,33,7,3,1,3,8.500000e-01,0.0,--,--,--,--,--,--,--,--,--,--,--,--,--
34,34,3,1,3,4,8.500000e-01,0.0,--,--,--,--,--,--,--,--,--,--,--,--,--
35,35,6,2,3,2,1.700000e+00,0.0,--,--,--,--,--,--,--,--,--,--,--,--,--
36,36,1,1,1,2,8.500000e-01,0.0,--,--,--,--,--,--,--,--,--,--,--,--,--
37,37,7,3,1,3,1.700000e+00,0.0,--,--,--,--,--,--,--,--,--,--,--,--,--
38,38,3,1,3,1,1.700000e+00,0.0,--,--,--,--,--,--,--,--,--,--,--,--,--
39,39,9,3,3,3,2.550000e+00,0.0,--,--,--,--,--,--,--,--,--,--,--,--,--
40,40,1,1,1,3,1.700000e+00,0.0,--,--,--,--,--,--,--,--,--,--,--,--,--
41,41,9,3,3,4,2.550000e+00,0.0,--,--,--,--,--,--,--,--,--,--,--,--,--
42,42,6,2,3,2,8.500000e-01,0.0,--,--,--,--,--,--,--,--,--,--,--,--,--
43,43,6,2,3,3,1.700000e+00,0.0,--,--,--,--,--,--,--,--,--,--,--,--,--
44,44,9,3,3,2,1.700000e+00,0.0,--,--,--,--,--,--,--,--,--,--,--,--,--
45,45,4,2,1,3,8.500000e-01,0.0,--,--,--,--,--,--,--,--,--,--,--,--,--
46,46,3,1,3,2,2.550000e+00,0.0,--,--,--,--,--,--,--,--,--,--,--,--,--
47,47,4,2,1,1,1.700000e+00,0.0,--,--,--,--,--,--,--,--,--,--,--,--,--
48,48,6,2,3,4,8.500000e-01,0.0,--,--,--,--,--,--,--,--,--,--,--,--,--
49,49,4,2,1,3,2.550000e+00,0.0,--,--,--,--,--,--,--,--,--,--,--,--,--
50,50,4,2,1,4,8.500000e-01,0.0,--,--,--,--,--,--,--,--,--,--,--,--,--
51,51,1,1,1,3,2.550000e+00,0.0,--,--,--,--,--,--,--,--,--,--,--,--,--
52,52,7,3,1,2,8.500000e-01,0.0,--,--,--,--,--,--,--,--,--,--,--,--,--
53,53,4,2,1,2,1.700000e+00,0.0,--,--,--,--,--,--,--,--,--,--,--,--,--
54,54,9,3,3,4,1.700000e+00,0.0,--,--,--,--,--,--,--,--,--,--,--,--,--
55,55,3,1,3,3,1.700000e+00,0.0,--,--,--,--,--,--,--,--,--,--,--,--,--
56,56,3,1,3,3,2.550000e+00,0.0,--,--,--,--,--,--,--,--,--,--,--,--,--
57,57,2,1,2,1,1.700000e+00,0.0,--,--,--,--,--,--,--,--,--,--,--,--,--
58,58,9,3,3,2,1.700000e+00,0.0,--,--,--,--,--,--,--,--,--,--,--,--,--
59,59,5,2,2,4,1.700000e+00,0.0,--,--,--,--,--,--,--,--,--,--,--,--,--
60,60,2,1,2,4,2.550000e+00,0.0,--,--,--,--,--,--,--,--,--,--,--,--,--
61,61,4,2,1,2,2.550000e+00,0.0,--,--,--,--,--,--,--,--,--,--,--,--,--
62,62,8,3,2,2,2.550000e+00,0.0,--,--,--,--,--,--,--,--,--,--,--,--,--
63,63,4,2,1,1,1.700000e+00,0.0,--,--,--,--,--,--,--,--,--,--,--,--,--
64,64,4,2,1,1,8.500000e-01,0.0,--,--,--,--,--,--,--,--,--,--,--,--,--
65,65,7,3,1,3,2.550000e+00,0.0,--,--,--,--,--,--,--,--,--,--,--,--,--
66,66,8,3,2,2,8.500000e-01,0.0,--,--,--,--,--,--,--,--,--,--,--,--,--
67,67,9,3,3,3,8.500000e-01,0.0,--,--,--,--,--,--,--,--,--,--,--,--,--
68,68,3,1,3,4,2.550000e+00,0.0,--,--,--,--,--,--,--,--,--,--,--,--,--
69,69,6,2,3,2,8.500000e-01,0.0,--,--,--,--,--,--,--,--,--,--,--,--,--
70,70,3,1,3,4,1.700000e+00,0.0,--,--,--,--,--,--,--,--,--,--,--,--,--
71,71,9,3,3,1,1.700000e+00,0.0,--,--,--,--,--,--,--,--,--,--,--,--,--
72,72,2,1,2,1,2.550000e+00,0.0,--,--,--,--,--,--,--,--,--,--,--,--,--
73,73,9,3,3,2,1.700000e+00,0.0,--,--,--,--,--,--,--,--,--,--,--,--,--
74,74,5,2,2,3,2.550000e+00,0.0,--,--,--,--,--,--,--,--,--,--,--,--,--
75,75,4,2,1,1,1.700000e+00,0.0,--,--,--,--,--,--,--,--,--,--,--,--,--
76,76,3,1,3,3,8.500000e-01,0.0,--,--,--,--,--,--,--,--,--,--,--,--,--
77,77,3,1,3,2,8.500000e-01,0.0,--,--,--,--,--,--,--,--,--,--,--,--,--
78,78,7,3,1,3,2.550000e+00,0.0,--,--,--,--,--,--,--,--,--,--,--,--,--
79,79,3,1,3,4,2.550000e+00,0.0,--,--,--,--,--,--,--,--,--,--,--,--,--
80,80,1,1,1,1,8.500000e-01,0.0,--,--,--,--,--,--,--,--,--,--,--,--,--
81,81,5,2,2,2,2.550000e+00,0.0,--,--,--,--,--,--,--,--,--,--,--,--,--
﻿TrialNumber,Trialn,TrialType,Partner,Feedback,ITI,ISI,ran,order,studyStart,InitFixOnset,decision_onset,resp,resp_onset,rt,outcome_val,outcome_onset,outcome_offset,trialDuration,ITIonset,ITIoffset
1,1,1,1,1,2,2.550000e+00,1.0,0.0,3.2859389e-06,0.017004002,4.0327506,1.0,4.833766,0.80101496,7.0,6.5515532,7.5682936,3.535543,7.568583,9.583915
2,2,8,3,2,1,2.550000e+00,1.0,1.0,--,--,9.596982,1.0,10.23399,0.6370079,5.0,12.113773,13.134878,3.5378962,13.135105,14.150149
3,3,1,1,1,2,1.700000e+00,1.0,2.0,--,--,14.166065,--,--,--,--,--,--,--,--,--
4,4,6,2,3,2,8.500000e-01,0.0,--,--,--,--,--,--,--,--,--,--,--,--,--
5,5,2,1,2,4,2.550000e+00,0.0,--,--,--,--,--,--,--,--,--,--,--,--,--
6,6,4,2,1,1,2.550000e+00,0.0,--,--,--,--,--,--,--,--,--,--,--,--,--
7,7,7,3,1,4,1.700000e+00,0.0,--,--,--,--,--,--,--,--,--,--,--,--,--
8,8,5,2,2,1,8.500000e-01,0.0,--,--,--,--,--,--,--,--,--,--,--,--,--
9,9,7,3,1,3,2.550000e+00,0.0,--,--,--,--,--,--,--,--,--,--,--,--,--
10,10,7,3,1,4,1.700000e+00,0.0,--,--,--,--,--,--,--,--,--,--,--,--,--
11,11,4,2,1,1,8.500000e-01,0.0,--,--,--,--,--,--,--,--,--,--,--,--,--
12,12,6,2,3,2,8.500000e-01,0.0,--,--,--,--,--,--,--,--,--,--,--,--,--
13,13,6,2,3,2,1.700000e+00,0.0,--,--,--,--,--,--,--,--,--,--,--,--,--
14,14,6,2,3,4,8.500000e-01,0.0,--,--,--,--,--,--,--,--,--,--,--,--,--
15,15,9,3,3,4,2.550000e+00,0.0,--,--,--,--,--,--,--,--,--,--,--,--,--
16,16,1,1,1,3,8.500000e-01,0.0,--,--,--,--,--,--,--,--,--,--,--,--,--
17,17,7,3,1,3,2.550000e+00,0.0,--,--,--,--,--,--,--,--,--,--,--,--,--
18,18,9,3,3,3,8.500000e-01,0.0,--,--,--,--,--,--,--,--,--,--,--,--,--
19,19,6,2,3,2,1.700000e+00,0.0,--,--,--,--,--,--,--,--,--,--,--,--,--
20,20,5,2,2,3,2.550000e+00,0.0,--,--,--,--,--,--,--,--,--,--,--,--,--
21,21,1,1,1,2,8.500000e-01,0.0,--,--,--,--,--,--,--,--,--,--,--,--,--
22,22,7,3,1,2,8.500000e-01,0.0,--,--,--,--,--,--,--,--,--,--,--,--,--
23,23,9,3,3,1,2.550000e+00,0.0,--,--,--,--,--,--,--,--,--,--,--,--,--
24,24,7,3,1,4,2.550000e+00,0.0,--,--,--,--,--,--,--,--,--,--,--,--,--
25,25,1,1,1,1,8.500000e-01,0.0,--,--,--,--,--,--,--,--,--,--,--,--,--
26,26,3,1,3,2,1.700000e+00,0.0,--,--,--,--,--,--,--,--,--,--,--,--,--
27,27,1,1,1,3,8.500000e-01,0.0,--,--,--,--,--,--,--,--,--,--,--,--,--
28,28,8,3,2,4,1.700000e+00,0.0,--,--,--,--,--,--,--,--,--,--,--,--,--
29,29,6,2,3,3,1.700000e+00,0.0,--,--,--,--,--,--,--,--,--,--,--,--,--
30,30,2,1,2,1,8.500000e-01,0.0,--,--,--,--,--,--,--,--,--,--,--,--,--
31,31,1,1,1,4,2.550000e+00,0.0,--,--,--,--,--,--,--,--,--,--,--,--,--
32,32,8,3,2,4,1.700000e+00,0.0,--,--,--,--,--,--,--,--,--,--,--,--,--
33,33,7,3,1,3,8.500000e-01,0.0,--,--,--,--,--,--,--,--,--,--,--,--,--
34,34,3,1,3,4,8.500000e-01,0.0,--,--,--,--,--,--,--,--,--,--,--,--,--
35,35,6,2,3,2,1.700000e+00,0.0,--,--,--,--,--,--,--,--,--,--,--,--,--
36,36,1,1,1,2,8.500000e-01,0.0,--,--,--,--,--,--,--,--,--,--,--,--,--
37,37,7,3,1,3,1.700000e+00,0.0,--,--,--,--,--,--,--,--,--,--,--,--,--
38,38,3,1,3,1,1.700000e+00,0.0,--,--,--,--,--,--,--,--,--,--,--,--,--
39,39,9,3,3,3,2.550000e+00,0.0,--,--,--,--,--,--,--,--,--,--,--,--,--
40,40,1,1,1,3,1.700000e+00,0.0,--,--,--,--,--,--,--,--,--,--,--,--,--
41,41,9,3,3,4,2.550000e+00,0.0,--,--,--,--,--,--,--,--,--,--,--,--,--
42,42,6,2,3,2,8.500000e-01,0.0,--,--,--,--,--,--,--,--,--,--,--,--,--
43,43,6,2,3,3,1.700000e+00,0.0,--,--,--,--,--,--,--,--,--,--,--,--,--
44,44,9,3,3,2,1.700000e+00,0.0,--,--,--,--,--,--,--,--,--,--,--,--,--
45,45,4,2,1,3,8.500000e-01,0.0,--,--,--,--,--,--,--,--,--,--,--,--,--
46,46,3,1,3,2,2.550000e+00,0.0,--,--,--,--,--,--,--,--,--,--,--,--,--
47,47,4,2,1,1,1.700000e+00,0.0,--,--,--,--,--,--,--,--,--,--,--,--,--
48,48,6,2,3,4,8.500000e-01,0.0,--,--,--,--,--,--,--,--,--,--,--,--,--
49,49,4,2,1,3,2.550000e+00,0.0,--,--,--,--,--,--,--,--,--,--,--,--,--
50,50,4,2,1,4,8.500000e-01,0.0,--,--,--,--,--,--,--,--,--,--,--,--,--
51,51,1,1,1,3,2.550000e+00,0.0,--,--,--,--,--,--,--,--,--,--,--,--,--
52,52,7,3,1,2,8.500000e-01,0.0,--,--,--,--,--,--,--,--,--,--,--,--,--
53,53,4,2,1,2,1.700000e+00,0.0,--,--,--,--,--,--,--,--,--,--,--,--,--
54,54,9,3,3,4,1.700000e+00,0.0,--,--,--,--,--,--,--,--,--,--,--,--,--
55,55,3,1,3,3,1.700000e+00,0.0,--,--,--,--,--,--,--,--,--,--,--,--,--
56,56,3,1,3,3,2.550000e+00,0.0,--,--,--,--,--,--,--,--,--,--,--,--,--
57,57,2,1,2,1,1.700000e+00,0.0,--,--,--,--,--,--,--,--,--,--,--,--,--
58,58,9,3,3,2,1.700000e+00,0.0,--,--,--,--,--,--,--,--,--,--,--,--,--
59,59,5,2,2,4,1.700000e+00,0.0,--,--,--,--,--,--,--,--,--,--,--,--,--
60,60,2,1,2,4,2.550000e+00,0.0,--,--,--,--,--,--,--,--,--,--,--,--,--
61,61,4,2,1,2,2.550000e+00,0.0,--,--,--,--,--,--,--,--,--,--,--,--,--
62,62,8,3,2,2,2.550000e+00,0.0,--,--,--,--,--,--,--,--,--,--,--,--,--
63,63,4,2,1,1,1.700000e+00,0.0,--,--,--,--,--,--,--,--,--,--,--,--,--
64,64,4,2,1,1,8.500000e-01,0.0,--,--,--,--,--,--,--,--,--,--,--,--,--
65,65,7,3,1,3,2.550000e+00,0.0,--,--,--,--,--,--,--,--,--,--,--,--,--
66,66,8,3,2,2,8.500000e-01,0.0,--,--,--,--,--,--,--,--,--,--,--,--,--
67,67,9,3,3,3,8.500000e-01,0.0,--,--,--,--,--,--,--,--,--,--,--,--,--
68,68,3,1,3,4,2.550000e+00,0.0,--,--,--,--,--,--,--,--,--,--,--,--,--
69,69,6,2,3,2,8.500000e-01,0.0,--,--,--,--,--,--,--,--,--,--,--,--,--
70,70,3,1,3,4,1.700000e+00,0.0,--,--,--,--,--,--,--,--,--,--,--,--,--
71,71,9,3,3,1,1.700000e+00,0.0,--,--,--,--,--,--,--,--,--,--,--,--,--
72,72,2,1,2,1,2.550000e+00,0.0,--,--,--,--,--,--,--,--,--,--,--,--,--
73,73,9,3,3,2,1.700000e+00,0.0,--,--,--,--,--,--,--,--,--,--,--,--,--
74,74,5,2,2,3,2.550000e+00,0.0,--,--,--,--,--,--,--,--,--,--,--,--,--
75,75,4,2,1,1,1.700000e+00,0.0,--,--,--,--,--,--,--,--,--,--,--,--,--
76,76,3,1,3,3,8.500000e-01,0.0,--,--,--,--,--,--,--,--,--,--,--,--,--
77,77,3,1,3,2,8.500000e-01,0.0,--,--,--,--,--,--,--,--,--,--,--,--,--
78,78,7,3,1,3,2.550000e+00,0.0,--,--,--,--,--,--,--,--,--,--,--,--,--
79,79,3,1,3,4,2.550000e+00,0.0,--,--,--,--,--,--,--,--,--,--,--,--,--
80,80,1,1,1,1,8.500000e-01,0.0,--,--,--,--,--,--,--,--,--,--,--,--,--
81,81,5,2,2,2,2.550000e+00,0.0,--,--,--,--,--,--,--,--,--,--,--,--,--
﻿TrialNumber,Trialn,TrialType,Partner,Feedback,ITI,ISI,ran,order,studyStart,InitFixOnset,decision_onset,resp,resp_onset,rt,outcome_val,outcome_onset,outcome_offset,trialDuration,ITIonset,ITIoffset
1,1,1,1,1,2,2.550000e+00,1.0,0.0,2.054032e-06,0.0072615193,4.024536,1.0,4.591665,0.567129,6.0,6.542044,7.575741,3.551205,7.576006,9.591464
2,2,8,3,2,1,2.550000e+00,1.0,1.0,--,--,9.605183,1.0,10.424767,0.8195838,5.0,12.12401,13.143248,3.5380657,13.143487,14.156805
3,3,1,1,1,2,1.700000e+00,1.0,2.0,--,--,14.168896,--,--,--,--,--,--,--,--,--
4,4,6,2,3,2,8.500000e-01,0.0,--,--,--,--,--,--,--,--,--,--,--,--,--
5,5,2,1,2,4,2.550000e+00,0.0,--,--,--,--,--,--,--,--,--,--,--,--,--
6,6,4,2,1,1,2.550000e+00,0.0,--,--,--,--,--,--,--,--,--,--,--,--,--
7,7,7,3,1,4,1.700000e+00,0.0,--,--,--,--,--,--,--,--,--,--,--,--,--
8,8,5,2,2,1,8.500000e-01,0.0,--,--,--,--,--,--,--,--,--,--,--,--,--
9,9,7,3,1,3,2.550000e+00,0.0,--,--,--,--,--,--,--,--,--,--,--,--,--
10,10,7,3,1,4,1.700000e+00,0.0,--,--,--,--,--,--,--,--,--,--,--,--,--
11,11,4,2,1,1,8.500000e-01,0.0,--,--,--,--,--,--,--,--,--,--,--,--,--
12,12,6,2,3,2,8.500000e-01,0.0,--,--,--,--,--,--,--,--,--,--,--,--,--
13,13,6,2,3,2,1.700000e+00,0.0,--,--,--,--,--,--,--,--,--,--,--,--,--
14,14,6,2,3,4,8.500000e-01,0.0,--,--,--,--,--,--,--,--,--,--,--,--,--
15,15,9,3,3,4,2.550000e+00,0.0,--,--,--,--,--,--,--,--,--,--,--,--,--
16,16,1,1,1,3,8.500000e-01,0.0,--,--,--,--,--,--,--,--,--,--,--,--,--
17,17,7,3,1,3,2.550000e+00,0.0,--,--,--,--,--,--,--,--,--,--,--,--,--
18,18,9,3,3,3,8.500000e-01,0.0,--,--,--,--,--,--,--,--,--,--,--,--,--
19,19,6,2,3,2,1.700000e+00,0.0,--,--,--,--,--,--,--,--,--,--,--,--,--
20,20,5,2,2,3,2.550000e+00,0.0,--,--,--,--,--,--,--,--,--,--,--,--,--
21,21,1,1,1,2,8.500000e-01,0.0,--,--,--,--,--,--,--,--,--,--,--,--,--
22,22,7,3,1,2,8.500000e-01,0.0,--,--,--,--,--,--,--,--,--,--,--,--,--
23,23,9,3,3,1,2.550000e+00,0.0,--,--,--,--,--,--,--,--,--,--,--,--,--
24,24,7,3,1,4,2.550000e+00,0.0,--,--,--,--,--,--,--,--,--,--,--,--,--
25,25,1,1,1,1,8.500000e-01,0.0,--,--,--,--,--,--,--,--,--,--,--,--,--
26,26,3,1,3,2,1.700000e+00,0.0,--,--,--,--,--,--,--,--,--,--,--,--,--
27,27,1,1,1,3,8.500000e-01,0.0,--,--,--,--,--,--,--,--,--,--,--,--,--
28,28,8,3,2,4,1.700000e+00,0.0,--,--,--,--,--,--,--,--,--,--,--,--,--
29,29,6,2,3,3,1.700000e+00,0.0,--,--,--,--,--,--,--,--,--,--,--,--,--
30,30,2,1,2,1,8.500000e-01,0.0,--,--,--,--,--,--,--,--,--,--,--,--,--
31,31,1,1,1,4,2.550000e+00,0.0,--,--,--,--,--,--,--,--,--,--,--,--,--
32,32,8,3,2,4,1.700000e+00,0.0,--,--,--,--,--,--,--,--,--,--,--,--,--
33,33,7,3,1,3,8.500000e-01,0.0,--,--,--,--,--,--,--,--,--,--,--,--,--
34,34,3,1,3,4,8.500000e-01,0.0,--,--,--,--,--,--,--,--,--,--,--,--,--
35,35,6,2,3,2,1.700000e+00,0.0,--,--,--,--,--,--,--,--,--,--,--,--,--
36,36,1,1,1,2,8.500000e-01,0.0,--,--,--,--,--,--,--,--,--,--,--,--,--
37,37,7,3,1,3,1.700000e+00,0.0,--,--,--,--,--,--,--,--,--,--,--,--,--
38,38,3,1,3,1,1.700000e+00,0.0,--,--,--,--,--,--,--,--,--,--,--,--,--
39,39,9,3,3,3,2.550000e+00,0.0,--,--,--,--,--,--,--,--,--,--,--,--,--
40,40,1,1,1,3,1.700000e+00,0.0,--,--,--,--,--,--,--,--,--,--,--,--,--
41,41,9,3,3,4,2.550000e+00,0.0,--,--,--,--,--,--,--,--,--,--,--,--,--
42,42,6,2,3,2,8.500000e-01,0.0,--,--,--,--,--,--,--,--,--,--,--,--,--
43,43,6,2,3,3,1.700000e+00,0.0,--,--,--,--,--,--,--,--,--,--,--,--,--
44,44,9,3,3,2,1.700000e+00,0.0,--,--,--,--,--,--,--,--,--,--,--,--,--
45,45,4,2,1,3,8.500000e-01,0.0,--,--,--,--,--,--,--,--,--,--,--,--,--
46,46,3,1,3,2,2.550000e+00,0.0,--,--,--,--,--,--,--,--,--,--,--,--,--
47,47,4,2,1,1,1.700000e+00,0.0,--,--,--,--,--,--,--,--,--,--,--,--,--
48,48,6,2,3,4,8.500000e-01,0.0,--,--,--,--,--,--,--,--,--,--,--,--,--
49,49,4,2,1,3,2.550000e+00,0.0,--,--,--,--,--,--,--,--,--,--,--,--,--
50,50,4,2,1,4,8.500000e-01,0.0,--,--,--,--,--,--,--,--,--,--,--,--,--
51,51,1,1,1,3,2.550000e+00,0.0,--,--,--,--,--,--,--,--,--,--,--,--,--
52,52,7,3,1,2,8.500000e-01,0.0,--,--,--,--,--,--,--,--,--,--,--,--,--
53,53,4,2,1,2,1.700000e+00,0.0,--,--,--,--,--,--,--,--,--,--,--,--,--
54,54,9,3,3,4,1.700000e+00,0.0,--,--,--,--,--,--,--,--,--,--,--,--,--
55,55,3,1,3,3,1.700000e+00,0.0,--,--,--,--,--,--,--,--,--,--,--,--,--
56,56,3,1,3,3,2.550000e+00,0.0,--,--,--,--,--,--,--,--,--,--,--,--,--
57,57,2,1,2,1,1.700000e+00,0.0,--,--,--,--,--,--,--,--,--,--,--,--,--
58,58,9,3,3,2,1.700000e+00,0.0,--,--,--,--,--,--,--,--,--,--,--,--,--
59,59,5,2,2,4,1.700000e+00,0.0,--,--,--,--,--,--,--,--,--,--,--,--,--
60,60,2,1,2,4,2.550000e+00,0.0,--,--,--,--,--,--,--,--,--,--,--,--,--
61,61,4,2,1,2,2.550000e+00,0.0,--,--,--,--,--,--,--,--,--,--,--,--,--
62,62,8,3,2,2,2.550000e+00,0.0,--,--,--,--,--,--,--,--,--,--,--,--,--
63,63,4,2,1,1,1.700000e+00,0.0,--,--,--,--,--,--,--,--,--,--,--,--,--
64,64,4,2,1,1,8.500000e-01,0.0,--,--,--,--,--,--,--,--,--,--,--,--,--
65,65,7,3,1,3,2.550000e+00,0.0,--,--,--,--,--,--,--,--,--,--,--,--,--
66,66,8,3,2,2,8.500000e-01,0.0,--,--,--,--,--,--,--,--,--,--,--,--,--
67,67,9,3,3,3,8.500000e-01,0.0,--,--,--,--,--,--,--,--,--,--,--,--,--
68,68,3,1,3,4,2.550000e+00,0.0,--,--,--,--,--,--,--,--,--,--,--,--,--
69,69,6,2,3,2,8.500000e-01,0.0,--,--,--,--,--,--,--,--,--,--,--,--,--
70,70,3,1,3,4,1.700000e+00,0.0,--,--,--,--,--,--,--,--,--,--,--,--,--
71,71,9,3,3,1,1.700000e+00,0.0,--,--,--,--,--,--,--,--,--,--,--,--,--
72,72,2,1,2,1,2.550000e+00,0.0,--,--,--,--,--,--,--,--,--,--,--,--,--
73,73,9,3,3,2,1.700000e+00,0.0,--,--,--,--,--,--,--,--,--,--,--,--,--
74,74,5,2,2,3,2.550000e+00,0.0,--,--,--,--,--,--,--,--,--,--,--,--,--
75,75,4,2,1,1,1.700000e+00,0.0,--,--,--,--,--,--,--,--,--,--,--,--,--
76,76,3,1,3,3,8.500000e-01,0.0,--,--,--,--,--,--,--,--,--,--,--,--,--
77,77,3,1,3,2,8.500000e-01,0.0,--,--,--,--,--,--,--,--,--,--,--,--,--
78,78,7,3,1,3,2.550000e+00,0.0,--,--,--,--,--,--,--,--,--,--,--,--,--
79,79,3,1,3,4,2.550000e+00,0.0,--,--,--,--,--,--,--,--,--,--,--,--,--
80,80,1,1,1,1,8.500000e-01,0.0,--,--,--,--,--,--,--,--,--,--,--,--,--
81,81,5,2,2,2,2.550000e+00,0.0,--,--,--,--,--,--,--,--,--,--,--,--,--
﻿TrialNumber,Trialn,TrialType,Partner,Feedback,ITI,ISI,ran,order,studyStart,InitFixOnset,decision_onset,resp,resp_onset,rt,outcome_val,outcome_onset,outcome_offset,trialDuration,ITIonset,ITIoffset
1,1,1,1,1,2,2.550000e+00,1.0,0.0,2.0919833e-06,0.010675036,4.0266914,1.0,4.531212,0.5045208,7.0,6.541927,7.596336,3.5696445,7.596619,9.6114435
2,2,8,3,2,1,2.550000e+00,1.0,1.0,--,--,9.624682,1.0,10.595092,0.97040933,5.0,12.142784,13.178667,3.553985,13.178904,14.194623
3,3,1,1,1,2,1.700000e+00,1.0,2.0,--,--,14.210438,--,--,--,--,--,--,--,--,--
4,4,6,2,3,2,8.500000e-01,0.0,--,--,--,--,--,--,--,--,--,--,--,--,--
5,5,2,1,2,4,2.550000e+00,0.0,--,--,--,--,--,--,--,--,--,--,--,--,--
6,6,4,2,1,1,2.550000e+00,0.0,--,--,--,--,--,--,--,--,--,--,--,--,--
7,7,7,3,1,4,1.700000e+00,0.0,--,--,--,--,--,--,--,--,--,--,--,--,--
8,8,5,2,2,1,8.500000e-01,0.0,--,--,--,--,--,--,--,--,--,--,--,--,--
9,9,7,3,1,3,2.550000e+00,0.0,--,--,--,--,--,--,--,--,--,--,--,--,--
10,10,7,3,1,4,1.700000e+00,0.0,--,--,--,--,--,--,--,--,--,--,--,--,--
11,11,4,2,1,1,8.500000e-01,0.0,--,--,--,--,--,--,--,--,--,--,--,--,--
12,12,6,2,3,2,8.500000e-01,0.0,--,--,--,--,--,--,--,--,--,--,--,--,--
13,13,6,2,3,2,1.700000e+00,0.0,--,--,--,--,--,--,--,--,--,--,--,--,--
14,14,6,2,3,4,8.500000e-01,0.0,--,--,--,--,--,--,--,--,--,--,--,--,--
15,15,9,3,3,4,2.550000e+00,0.0,--,--,--,--,--,--,--,--,--,--,--,--,--
16,16,1,1,1,3,8.500000e-01,0.0,--,--,--,--,--,--,--,--,--,--,--,--,--
17,17,7,3,1,3,2.550000e+00,0.0,--,--,--,--,--,--,--,--,--,--,--,--,--
18,18,9,3,3,3,8.500000e-01,0.0,--,--,--,--,--,--,--,--,--,--,--,--,--
19,19,6,2,3,2,1.700000e+00,0.0,--,--,--,--,--,--,--,--,--,--,--,--,--
20,20,5,2,2,3,2.550000e+00,0.0,--,--,--,--,--,--,--,--,--,--,--,--,--
21,21,1,1,1,2,8.500000e-01,0.0,--,--,--,--,--,--,--,--,--,--,--,--,--
22,22,7,3,1,2,8.500000e-01,0.0,--,--,--,--,--,--,--,--,--,--,--,--,--
23,23,9,3,3,1,2.550000e+00,0.0,--,--,--,--,--,--,--,--,--,--,--,--,--
24,24,7,3,1,4,2.550000e+00,0.0,--,--,--,--,--,--,--,--,--,--,--,--,--
25,25,1,1,1,1,8.500000e-01,0.0,--,--,--,--,--,--,--,--,--,--,--,--,--
26,26,3,1,3,2,1.700000e+00,0.0,--,--,--,--,--,--,--,--,--,--,--,--,--
27,27,1,1,1,3,8.500000e-01,0.0,--,--,--,--,--,--,--,--,--,--,--,--,--
28,28,8,3,2,4,1.700000e+00,0.0,--,--,--,--,--,--,--,--,--,--,--,--,--
29,29,6,2,3,3,1.700000e+00,0.0,--,--,--,--,--,--,--,--,--,--,--,--,--
30,30,2,1,2,1,8.500000e-01,0.0,--,--,--,--,--,--,--,--,--,--,--,--,--
31,31,1,1,1,4,2.550000e+00,0.0,--,--,--,--,--,--,--,--,--,--,--,--,--
32,32,8,3,2,4,1.700000e+00,0.0,--,--,--,--,--,--,--,--,--,--,--,--,--
33,33,7,3,1,3,8.500000e-01,0.0,--,--,--,--,--,--,--,--,--,--,--,--,--
34,34,3,1,3,4,8.500000e-01,0.0,--,--,--,--,--,--,--,--,--,--,--,--,--
35,35,6,2,3,2,1.700000e+00,0.0,--,--,--,--,--,--,--,--,--,--,--,--,--
36,36,1,1,1,2,8.500000e-01,0.0,--,--,--,--,--,--,--,--,--,--,--,--,--
37,37,7,3,1,3,1.700000e+00,0.0,--,--,--,--,--,--,--,--,--,--,--,--,--
38,38,3,1,3,1,1.700000e+00,0.0,--,--,--,--,--,--,--,--,--,--,--,--,--
39,39,9,3,3,3,2.550000e+00,0.0,--,--,--,--,--,--,--,--,--,--,--,--,--
40,40,1,1,1,3,1.700000e+00,0.0,--,--,--,--,--,--,--,--,--,--,--,--,--
41,41,9,3,3,4,2.550000e+00,0.0,--,--,--,--,--,--,--,--,--,--,--,--,--
42,42,6,2,3,2,8.500000e-01,0.0,--,--,--,--,--,--,--,--,--,--,--,--,--
43,43,6,2,3,3,1.700000e+00,0.0,--,--,--,--,--,--,--,--,--,--,--,--,--
44,44,9,3,3,2,1.700000e+00,0.0,--,--,--,--,--,--,--,--,--,--,--,--,--
45,45,4,2,1,3,8.500000e-01,0.0,--,--,--,--,--,--,--,--,--,--,--,--,--
46,46,3,1,3,2,2.550000e+00,0.0,--,--,--,--,--,--,--,--,--,--,--,--,--
47,47,4,2,1,1,1.700000e+00,0.0,--,--,--,--,--,--,--,--,--,--,--,--,--
48,48,6,2,3,4,8.500000e-01,0.0,--,--,--,--,--,--,--,--,--,--,--,--,--
49,49,4,2,1,3,2.550000e+00,0.0,--,--,--,--,--,--,--,--,--,--,--,--,--
50,50,4,2,1,4,8.500000e-01,0.0,--,--,--,--,--,--,--,--,--,--,--,--,--
51,51,1,1,1,3,2.550000e+00,0.0,--,--,--,--,--,--,--,--,--,--,--,--,--
52,52,7,3,1,2,8.500000e-01,0.0,--,--,--,--,--,--,--,--,--,--,--,--,--
53,53,4,2,1,2,1.700000e+00,0.0,--,--,--,--,--,--,--,--,--,--,--,--,--
54,54,9,3,3,4,1.700000e+00,0.0,--,--,--,--,--,--,--,--,--,--,--,--,--
55,55,3,1,3,3,1.700000e+00,0.0,--,--,--,--,--,--,--,--,--,--,--,--,--
56,56,3,1,3,3,2.550000e+00,0.0,--,--,--,--,--,--,--,--,--,--,--,--,--
57,57,2,1,2,1,1.700000e+00,0.0,--,--,--,--,--,--,--,--,--,--,--,--,--
58,58,9,3,3,2,1.700000e+00,0.0,--,--,--,--,--,--,--,--,--,--,--,--,--
59,59,5,2,2,4,1.700000e+00,0.0,--,--,--,--,--,--,--,--,--,--,--,--,--
60,60,2,1,2,4,2.550000e+00,0.0,--,--,--,--,--,--,--,--,--,--,--,--,--
61,61,4,2,1,2,2.550000e+00,0.0,--,--,--,--,--,--,--,--,--,--,--,--,--
62,62,8,3,2,2,2.550000e+00,0.0,--,--,--,--,--,--,--,--,--,--,--,--,--
63,63,4,2,1,1,1.700000e+00,0.0,--,--,--,--,--,--,--,--,--,--,--,--,--
64,64,4,2,1,1,8.500000e-01,0.0,--,--,--,--,--,--,--,--,--,--,--,--,--
65,65,7,3,1,3,2.550000e+00,0.0,--,--,--,--,--,--,--,--,--,--,--,--,--
66,66,8,3,2,2,8.500000e-01,0.0,--,--,--,--,--,--,--,--,--,--,--,--,--
67,67,9,3,3,3,8.500000e-01,0.0,--,--,--,--,--,--,--,--,--,--,--,--,--
68,68,3,1,3,4,2.550000e+00,0.0,--,--,--,--,--,--,--,--,--,--,--,--,--
69,69,6,2,3,2,8.500000e-01,0.0,--,--,--,--,--,--,--,--,--,--,--,--,--
70,70,3,1,3,4,1.700000e+00,0.0,--,--,--,--,--,--,--,--,--,--,--,--,--
71,71,9,3,3,1,1.700000e+00,0.0,--,--,--,--,--,--,--,--,--,--,--,--,--
72,72,2,1,2,1,2.550000e+00,0.0,--,--,--,--,--,--,--,--,--,--,--,--,--
73,73,9,3,3,2,1.700000e+00,0.0,--,--,--,--,--,--,--,--,--,--,--,--,--
74,74,5,2,2,3,2.550000e+00,0.0,--,--,--,--,--,--,--,--,--,--,--,--,--
75,75,4,2,1,1,1.700000e+00,0.0,--,--,--,--,--,--,--,--,--,--,--,--,--
76,76,3,1,3,3,8.500000e-01,0.0,--,--,--,--,--,--,--,--,--,--,--,--,--
77,77,3,1,3,2,8.500000e-01,0.0,--,--,--,--,--,--,--,--,--,--,--,--,--
78,78,7,3,1,3,2.550000e+00,0.0,--,--,--,--,--,--,--,--,--,--,--,--,--
79,79,3,1,3,4,2.550000e+00,0.0,--,--,--,--,--,--,--,--,--,--,--,--,--
80,80,1,1,1,1,8.500000e-01,0.0,--,--,--,--,--,--,--,--,--,--,--,--,--
81,81,5,2,2,2,2.550000e+00,0.0,--,--,--,--,--,--,--,--,--,--,--,--,--
﻿TrialNumber,Trialn,TrialType,Partner,Feedback,ITI,ISI,ran,order,studyStart,InitFixOnset,decision_onset,resp,resp_onset,rt,outcome_val,outcome_onset,outcome_offset,trialDuration,ITIonset,ITIoffset
1,1,1,1,1,2,2.550000e+00,1.0,0.0,4.0000305e-06,0.0016767001,4.0101,1.0,4.604878,0.5947783,8.0,6.5264688,7.5367336,3.5266337,7.536901,9.537096
2,2,8,3,2,1,2.550000e+00,1.0,1.0,--,--,9.546993,2.0,10.15409,0.6070971,5.0,12.063267,13.06979,3.522797,13.069937,14.070514
3,3,1,1,1,2,1.700000e+00,1.0,2.0,--,--,14.078328,1.0,14.770743,0.692415,6.0,16.59494,17.612616,3.5342872,17.612774,19.620283
4,4,6,2,3,2,8.500000e-01,1.0,3.0,--,--,19.670343,2.0,20.25403,0.583687,8.0,22.187513,23.193506,3.5231643,23.193647,25.203468
5,5,2,1,2,4,2.550000e+00,1.0,4.0,--,--,25.21054,2.0,25.787472,0.5769313,5.0,27.728132,28.731966,3.521425,28.732143,32.73668
6,6,4,2,1,1,2.550000e+00,1.0,5.0,--,--,32.776848,1.0,33.653896,0.877048,9.0,35.29285,36.29859,3.5217428,36.29876,37.30329
7,7,7,3,1,4,1.700000e+00,1.0,6.0,--,--,37.3112,2.0,38.4206,1.1094037,1.0,39.8273,40.83176,3.5205631,40.83191,44.83672
8,8,5,2,2,1,8.500000e-01,1.0,7.0,--,--,44.876453,1.0,45.80412,0.9276675,5.0,47.392735,48.396873,3.5204198,48.39703,49.40315
9,9,7,3,1,3,2.550000e+00,1.0,8.0,--,--,49.409885,2.0,50.786846,1.3769634,3.0,51.927013,52.935863,3.5259788,52.936047,55.93625
10,10,7,3,1,4,1.700000e+00,1.0,9.0,--,--,55.940838,2.0,57.402977,1.4621402,3.0,58.457626,59.461147,3.520311,59.4613,63.469513
11,11,4,2,1,1,8.500000e-01,1.0,10.0,--,--,63.509426,1.0,64.88729,1.3778677,9.0,66.025894,67.029434,3.5200121,67.029594,68.036224
12,12,6,2,3,2,8.500000e-01,1.0,11.0,--,--,68.07638,2.0,69.05348,0.9771043,6.0,70.59244,71.59665,3.5202694,71.59681,73.60294
13,13,6,2,3,2,1.700000e+00,1.0,12.0,--,--,73.646614,1.0,74.58773,0.9411123,3.0,76.161606,77.16496,3.5183475,77.16526,79.16953
14,14,6,2,3,4,8.500000e-01,1.0,13.0,--,--,79.22114,2.0,79.78654,0.5653968,8.0,81.73784,82.74206,3.5209186,82.7422,86.75267
15,15,9,3,3,4,2.550000e+00,1.0,14.0,--,--,86.75918,1.0,87.33665,0.5774693,1.0,89.27549,90.278694,3.519516,90.278854,94.28603
16,16,1,1,1,3,8.500000e-01,1.0,15.0,--,--,94.29391,1.0,95.08665,0.7927445,7.0,96.810455,97.81667,3.5227695,97.816826,100.81928
17,17,7,3,1,3,2.550000e+00,1.0,16.0,--,--,100.826256,2.0,101.46963,0.643372,3.0,103.34267,104.34656,3.5203016,104.346756,107.35242
18,18,9,3,3,3,8.500000e-01,1.0,17.0,--,--,107.35711,2.0,108.703064,1.3459553,7.0,109.87404,110.87962,3.5225117,110.879776,113.8856
19,19,6,2,3,2,1.700000e+00,1.0,18.0,--,--,113.9408,1.0,114.5196,0.5788003,4.0,116.45741,117.46224,3.5214431,117.462395,119.46898
20,20,5,2,2,3,2.550000e+00,1.0,19.0,--,--,119.5089,2.0,120.003075,0.4941697,5.0,122.024796,123.02901,3.520104,123.02915,126.035355
21,21,1,1,1,2,8.500000e-01,1.0,20.0,--,--,126.04453,2.0,126.73658,0.6920451,4.0,128.56015,129.56847,3.5239377,129.56868,131.56871
22,22,7,3,1,2,8.500000e-01,1.0,21.0,--,--,131.5745,1.0,132.00262,0.4281383,7.0,134.09047,135.09387,3.5193787,135.09402,137.10204
23,23,9,3,3,1,2.550000e+00,1.0,22.0,--,--,137.10678,2.0,137.8193,0.7125252,8.0,139.62311,140.62738,3.5205941,140.62753,141.63531
24,24,7,3,1,4,2.550000e+00,1.0,23.0,--,--,141.63846,2.0,142.36945,0.7309975,4.0,144.15575,145.16098,3.52252,145.16112,149.16806
25,25,1,1,1,1,8.500000e-01,1.0,24.0,--,--,149.17334,1.0,150.46916,1.2958149,8.0,151.69032,152.69371,3.5203674,152.69383,153.70195
26,26,3,1,3,2,1.700000e+00,1.0,25.0,--,--,153.70746,1.0,154.6856,0.9781398,2.0,156.22403,157.22984,3.5223787,157.22998,159.23488
27,27,1,1,1,3,8.500000e-01,1.0,26.0,--,--,159.23834,2.0,159.85309,0.6147471,1.0,161.7542,162.75842,3.5200775,162.75858,165.76842
28,28,8,3,2,4,1.700000e+00,1.0,27.0,--,--,165.77711,2.0,166.33536,0.5582456,5.0,168.2935,169.29895,3.5218363,169.2991,173.3015
29,29,6,2,3,3,1.700000e+00,1.0,28.0,--,--,173.35283,2.0,173.93542,0.5826038,7.0,175.87007,176.87468,3.5218582,176.87483,179.88487
30,30,2,1,2,1,8.500000e-01,1.0,29.0,--,--,179.89183,2.0,180.48523,0.5933926,5.0,182.40831,183.41307,3.5212424,183.41325,184.41817
31,31,1,1,1,4,2.550000e+00,1.0,30.0,--,--,184.4224,2.0,185.31898,0.896588,3.0,186.9386,187.9431,3.5207062,187.94322,191.95126
32,32,8,3,2,4,1.700000e+00,1.0,31.0,--,--,191.9587,2.0,193.31813,1.3594304,5.0,194.47557,195.47925,3.520552,195.4794,199.48459
33,33,7,3,1,3,8.500000e-01,1.0,32.0,--,--,199.48923,2.0,200.21828,0.7290501,1.0,202.00623,203.01044,3.5212033,203.01054,206.01768
34,34,3,1,3,4,8.500000e-01,1.0,33.0,--,--,206.0263,2.0,206.60165,0.5753537,9.0,208.54295,209.548,3.5216954,209.54817,213.55118
35,35,6,2,3,2,1.700000e+00,1.0,34.0,--,--,213.60956,1.0,214.25157,0.642012,4.0,216.12556,217.12904,3.519492,217.12921,219.13431
36,36,1,1,1,2,8.500000e-01,1.0,35.0,--,--,219.14383,2.0,219.55193,0.4080992,1.0,221.65955,222.66399,3.5201654,222.66414,224.6677
37,37,7,3,1,3,1.700000e+00,1.0,36.0,--,--,224.67525,2.0,225.10146,0.4262024,1.0,227.19138,228.19475,3.5194979,228.1949,231.20087
38,38,3,1,3,1,1.700000e+00,1.0,37.0,--,--,231.21223,1.0,231.71803,0.5058018,4.0,233.72894,234.73393,3.521699,234.73409,235.75061
39,39,9,3,3,3,2.550000e+00,1.0,38.0,--,--,235.75717,1.0,236.38492,0.627746,2.0,238.27412,239.2779,3.5207195,239.2782,242.28412
40,40,1,1,1,3,1.700000e+00,1.0,39.0,--,--,242.29126,2.0,242.88469,0.5934353,2.0,244.80814,245.81244,3.5211775,245.81259,248.81705
41,41,9,3,3,4,2.550000e+00,1.0,40.0,--,--,248.82202,1.0,249.31761,0.4955928,3.0,251.33875,252.34279,3.5207803,252.34294,256.35052
42,42,6,2,3,2,8.500000e-01,1.0,41.0,--,--,256.4039,1.0,256.8171,0.4132212,1.0,258.92105,259.924,3.520114,259.92416,261.9336
43,43,6,2,3,3,1.700000e+00,1.0,42.0,--,--,261.97876,1.0,262.6006,0.6218377,3.0,264.49585,265.4993,3.520541,265.49945,268.50043
44,44,9,3,3,2,1.700000e+00,1.0,43.0,--,--,268.50723,2.0,269.08426,0.5770545,7.0,271.02304,272.02628,3.5190423,272.0264,274.03333
45,45,4,2,1,3,8.500000e-01,1.0,44.0,--,--,274.0728,1.0,274.6672,0.5943956,6.0,276.58932,277.59384,3.5210364,277.594,280.6001
46,46,3,1,3,2,2.550000e+00,1.0,45.0,--,--,280.61322,2.0,281.08405,0.4708304,7.0,283.12997,284.1348,3.521581,284.13495,286.1498
47,47,4,2,1,1,1.700000e+00,1.0,46.0,--,--,286.19003,1.0,286.66687,0.4768496,8.0,288.7071,289.71207,3.5220487,289.71222,290.7166
48,48,6,2,3,4,8.500000e-01,1.0,47.0,--,--,290.75494,1.0,291.51712,0.762196,2.0,293.27197,294.27704,3.5221014,294.2772,298.2831
49,49,4,2,1,3,2.550000e+00,1.0,48.0,--,--,298.32172,2.0,298.8168,0.495069,2.0,300.83795,301.8437,3.5219727,301.84384,304.84946
50,50,4,2,1,4,8.500000e-01,1.0,49.0,--,--,304.89786,1.0,305.4672,0.5693542,9.0,307.414,308.41803,3.520164,308.41818,312.43246
51,51,1,1,1,3,2.550000e+00,1.0,50.0,--,--,312.43594,2.0,313.09952,0.6635695,2.0,314.9531,315.95648,3.5205293,315.95663,318.96613
52,52,7,3,1,2,8.500000e-01,1.0,51.0,--,--,318.97165,1.0,319.83337,0.8617082,6.0,321.48846,322.49182,3.5201557,322.49194,324.49954
53,53,4,2,1,2,1.700000e+00,1.0,52.0,--,--,324.54327,1.0,325.28394,0.7406508,6.0,327.05927,328.06253,3.5192592,328.0627,330.06592
54,54,9,3,3,4,1.700000e+00,1.0,53.0,--,--,330.07053,2.0,330.5169,0.446389,8.0,332.5866,333.5907,3.5201676,333.59085,337.59946
55,55,3,1,3,3,1.700000e+00,1.0,54.0,--,--,337.60754,1.0,338.09982,0.4922717,4.0,340.12396,341.12766,3.5201137,341.1278,344.13266
56,56,3,1,3,3,2.550000e+00,1.0,55.0,--,--,344.13913,1.0,344.85022,0.7111075,3.0,346.6553,347.6595,3.5203683,347.65964,350.6655
57,57,2,1,2,1,1.700000e+00,1.0,56.0,--,--,350.66815,2.0,351.2498,0.5816246,5.0,353.1846,354.19104,3.5228717,354.1912,355.19913
58,58,9,3,3,2,1.700000e+00,1.0,57.0,--,--,355.2066,1.0,355.7829,0.5763108,4.0,357.7229,358.72836,3.5217745,358.72852,360.7324
59,59,5,2,2,4,1.700000e+00,1.0,58.0,--,--,360.78882,1.0,361.34995,0.5611188,5.0,363.30478,364.30972,3.5209098,364.3099,368.31577
60,60,2,1,2,4,2.550000e+00,1.0,59.0,--,--,368.32394,2.0,369.0656,0.7416614,5.0,370.84106,371.84485,3.5209064,371.845,375.84888
61,61,4,2,1,2,2.550000e+00,1.0,60.0,--,--,375.90582,2.0,376.73294,0.8271259,3.0,378.4217,379.42667,3.520863,379.42682,381.43213
62,62,8,3,2,2,2.550000e+00,1.0,61.0,--,--,381.4407,1.0,381.86624,0.4255529,5.0,383.9569,384.96127,3.5205593,384.96143,386.96533
63,63,4,2,1,1,1.700000e+00,1.0,62.0,--,--,387.01154,2.0,387.64954,0.6379823,4.0,389.52884,390.5349,3.523368,390.53503,391.54855
64,64,4,2,1,1,8.500000e-01,1.0,63.0,--,--,391.58838,2.0,392.4158,0.8274246,3.0,394.10538,395.1084,3.5200107,395.10855,396.11526
65,65,7,3,1,3,2.550000e+00,1.0,64.0,--,--,396.1215,1.0,396.78262,0.6611355,9.0,398.63742,399.64075,3.519264,399.64093,402.6485
66,66,8,3,2,2,8.500000e-01,1.0,65.0,--,--,402.65433,2.0,403.3153,0.6609536,5.0,405.17282,406.1777,3.5233705,406.17786,408.1818
67,67,9,3,3,3,8.500000e-01,1.0,66.0,--,--,408.18726,1.0,408.93277,0.7455124,2.0,410.70325,411.7078,3.5205235,411.70795,414.715
68,68,3,1,3,4,2.550000e+00,1.0,67.0,--,--,414.72583,2.0,415.4493,0.7234753,7.0,417.24176,418.2455,3.5196693,418.24567,422.24838
69,69,6,2,3,2,8.500000e-01,1.0,68.0,--,--,422.3046,1.0,422.84857,0.543973,2.0,424.8217,425.82465,3.520048,425.8248,427.8315
70,70,3,1,3,4,1.700000e+00,1.0,69.0,--,--,427.84033,2.0,428.3154,0.4750571,8.0,430.35657,431.36078,3.520444,431.36093,435.36462
71,71,9,3,3,1,1.700000e+00,1.0,70.0,--,--,435.3723,1.0,436.06564,0.6933315,2.0,437.88843,438.89206,3.519753,438.89218,439.89795
72,72,2,1,2,1,2.550000e+00,1.0,71.0,--,--,439.90485,2.0,440.41504,0.5102045,5.0,442.4209,443.42535,3.5204976,443.4255,444.43127
73,73,9,3,3,2,1.700000e+00,1.0,72.0,--,--,444.4384,1.0,445.03217,0.5937882,1.0,446.95547,447.96048,3.5220928,447.96063,449.96448
74,74,5,2,2,3,2.550000e+00,1.0,73.0,--,--,450.01923,2.0,450.4319,0.4126549,5.0,452.53546,453.54044,3.5212007,453.5406,456.5478
75,75,4,2,1,1,1.700000e+00,1.0,74.0,--,--,456.60266,1.0,457.06543,0.4627817,7.0,459.11896,460.12436,3.5217013,460.1245,461.13104
76,76,3,1,3,3,8.500000e-01,1.0,75.0,--,--,461.14032,2.0,461.49872,0.3583871,8.0,463.6562,464.66095,3.5206225,464.6611,467.66403
77,77,3,1,3,2,8.500000e-01,1.0,76.0,--,--,467.6709,1.0,468.04822,0.3773296,2.0,470.18707,471.19034,3.519451,471.1905,473.19748
78,78,7,3,1,3,2.550000e+00,1.0,77.0,--,--,473.20395,2.0,473.7814,0.5774649,3.0,475.72043,476.72525,3.521314,476.7254,479.7307
79,79,3,1,3,4,2.550000e+00,1.0,78.0,--,--,479.7381,1.0,480.3645,0.6264011,1.0,482.2546,483.2588,3.5206914,483.25894,487.26395
80,80,1,1,1,1,8.500000e-01,1.0,79.0,--,--,487.27008,2.0,487.74817,0.4780834,1.0,489.78574,490.79092,3.520815,490.79108,491.79724
81,81,5,2,2,2,2.550000e+00,1.0,80.0,--,--,491.85602,1.0,492.3975,0.541484,5.0,494.3728,495.37744,3.5214255,495.3776,497.38046
﻿TrialNumber,Trialn,TrialType,Partner,Feedback,ITI,ISI,ran,order,studyStart,InitFixOnset,decision_onset,resp,resp_onset,rt,outcome_val,outcome_onset,outcome_offset,trialDuration,ITIonset,ITIoffset
1,1,1,1,1,2,2.550000e+00,1.0,0.0,2.8000213e-06,0.0019183,4.0118794,0.0,999.0,999.0,999.0,6.52312,7.539093,3.5272136,7.53927,9.55527
2,2,8,3,2,1,2.550000e+00,1.0,1.0,--,--,9.570777,0.0,999.0,999.0,999.0,12.071911,13.087709,3.5169322,13.087951,14.08798
3,3,1,1,1,2,1.700000e+00,1.0,2.0,--,--,14.095425,0.0,999.0,999.0,999.0,16.605944,17.622223,3.5267978,17.622347,19.638334
4,4,6,2,3,2,8.500000e-01,1.0,3.0,--,--,19.695387,0.0,999.0,999.0,999.0,22.20541,23.222569,3.5271816,23.222708,25.238277
5,5,2,1,2,4,2.550000e+00,1.0,4.0,--,--,25.246183,0.0,999.0,999.0,999.0,27.7561,28.771471,3.5252879,28.77162,32.78826
6,6,4,2,1,1,2.550000e+00,1.0,5.0,--,--,32.82978,0.0,999.0,999.0,999.0,35.33931,36.35479,3.5250087,36.35494,37.371407
7,7,7,3,1,4,1.700000e+00,1.0,6.0,--,--,37.378548,0.0,999.0,999.0,999.0,39.88934,40.905293,3.526744,40.90544,44.92126
8,8,5,2,2,1,8.500000e-01,1.0,7.0,--,--,44.972443,0.0,999.0,999.0,999.0,47.48896,48.504616,3.532173,48.504757,49.521355
9,9,7,3,1,3,2.550000e+00,1.0,8.0,--,--,49.529953,0.0,999.0,999.0,999.0,52.038887,53.054073,3.5241184,53.054222,56.054356
10,10,7,3,1,4,1.700000e+00,1.0,9.0,--,--,56.05916,0.0,999.0,999.0,999.0,58.572083,59.58765,3.528489,59.587807,63.604355
11,11,4,2,1,1,8.500000e-01,1.0,10.0,--,--,63.664757,0.0,999.0,999.0,999.0,66.17204,67.1883,3.5235465,67.188446,68.20407
12,12,6,2,3,2,8.500000e-01,1.0,11.0,--,--,68.25511,0.0,999.0,999.0,999.0,70.77189,71.78744,3.5323243,71.787575,73.8039
13,13,6,2,3,2,1.700000e+00,1.0,12.0,--,--,73.853455,0.0,999.0,999.0,999.0,76.354805,77.37152,3.5180633,77.37168,79.3873
14,14,6,2,3,4,8.500000e-01,1.0,13.0,--,--,79.44262,0.0,999.0,999.0,999.0,81.955055,82.971375,3.5287573,82.97154,86.98726
15,15,9,3,3,4,2.550000e+00,1.0,14.0,--,--,86.99271,0.0,999.0,999.0,999.0,89.50482,90.52048,3.527769,90.520615,94.53716
16,16,1,1,1,3,8.500000e-01,1.0,15.0,--,--,94.54228,0.0,999.0,999.0,999.0,97.05479,98.07036,3.5280821,98.070496,101.087135
17,17,7,3,1,3,2.550000e+00,1.0,16.0,--,--,101.0931,0.0,999.0,999.0,999.0,103.60433,104.62047,3.5273688,104.620636,107.63734
18,18,9,3,3,3,8.500000e-01,1.0,17.0,--,--,107.64303,0.0,999.0,999.0,999.0,110.15508,111.171036,3.5280063,111.17127,114.187126
19,19,6,2,3,2,1.700000e+00,1.0,18.0,--,--,114.277565,0.0,999.0,999.0,999.0,116.788155,117.80422,3.5266557,117.80441,119.820206
20,20,5,2,2,3,2.550000e+00,1.0,19.0,--,--,119.91145,0.0,999.0,999.0,999.0,122.421295,123.43702,3.5255675,123.43718,126.45371
21,21,1,1,1,2,8.500000e-01,1.0,20.0,--,--,126.465294,0.0,999.0,999.0,999.0,128.97148,129.98772,3.5224195,129.98788,132.00346
22,22,7,3,1,2,8.500000e-01,1.0,21.0,--,--,132.01183,0.0,999.0,999.0,999.0,134.52113,135.53639,3.5245647,135.53658,137.53682
23,23,9,3,3,1,2.550000e+00,1.0,22.0,--,--,137.5417,0.0,999.0,999.0,999.0,140.05435,141.07062,3.528904,141.07077,142.0874
24,24,7,3,1,4,2.550000e+00,1.0,23.0,--,--,142.09221,0.0,999.0,999.0,999.0,144.60434,145.62054,3.5283332,145.62071,149.6367
25,25,1,1,1,1,8.500000e-01,1.0,24.0,--,--,149.6488,0.0,999.0,999.0,999.0,152.1545,153.16951,3.520703,153.16968,154.16971
26,26,3,1,3,2,1.700000e+00,1.0,25.0,--,--,154.17604,0.0,999.0,999.0,999.0,156.68777,157.70375,3.5277045,157.70393,159.71994
27,27,1,1,1,3,8.500000e-01,1.0,26.0,--,--,159.72658,0.0,999.0,999.0,999.0,162.23746,163.25311,3.5265462,163.25327,166.2697
28,28,8,3,2,4,1.700000e+00,1.0,27.0,--,--,166.27702,0.0,999.0,999.0,999.0,168.78743,169.80258,3.5255635,169.80272,173.80292
29,29,6,2,3,3,1.700000e+00,1.0,28.0,--,--,173.8543,0.0,999.0,999.0,999.0,176.37053,177.38626,3.5319684,177.3864,180.40282
30,30,2,1,2,1,8.500000e-01,1.0,29.0,--,--,180.41425,0.0,999.0,999.0,999.0,182.92072,183.9357,3.5214517,183.93585,184.93604
31,31,1,1,1,4,2.550000e+00,1.0,30.0,--,--,184.94263,0.0,999.0,999.0,999.0,187.45392,188.46931,3.5266905,188.46945,192.4695
32,32,8,3,2,4,1.700000e+00,1.0,31.0,--,--,192.47672,0.0,999.0,999.0,999.0,194.98694,196.00244,3.5257342,196.0026,200.01923
33,33,7,3,1,3,8.500000e-01,1.0,32.0,--,--,200.0238,0.0,999.0,999.0,999.0,202.53682,203.55319,3.5293808,203.55333,206.56853
34,34,3,1,3,4,8.500000e-01,1.0,33.0,--,--,206.57457,0.0,999.0,999.0,999.0,209.0865,210.1031,3.5285325,210.10327,214.11917
35,35,6,2,3,2,1.700000e+00,1.0,34.0,--,--,214.17459,0.0,999.0,999.0,999.0,216.68689,217.70215,3.5275667,217.7023,219.70238
36,36,1,1,1,2,8.500000e-01,1.0,35.0,--,--,219.71028,0.0,999.0,999.0,999.0,222.22021,223.23518,3.5249064,223.23534,225.23567
37,37,7,3,1,3,1.700000e+00,1.0,36.0,--,--,225.24385,0.0,999.0,999.0,999.0,227.75288,228.76941,3.525552,228.76956,231.78563
38,38,3,1,3,1,1.700000e+00,1.0,37.0,--,--,231.79486,0.0,999.0,999.0,999.0,234.3034,235.31836,3.5235014,235.3185,236.31873
39,39,9,3,3,3,2.550000e+00,1.0,38.0,--,--,236.32564,0.0,999.0,999.0,999.0,238.83662,239.85168,3.5260415,239.85185,242.85207
40,40,1,1,1,3,1.700000e+00,1.0,39.0,--,--,242.86017,0.0,999.0,999.0,999.0,245.36952,246.38547,3.5253036,246.38562,249.40201
41,41,9,3,3,4,2.550000e+00,1.0,40.0,--,--,249.40929,0.0,999.0,999.0,999.0,251.91954,252.93475,3.525478,252.9349,256.93518
42,42,6,2,3,2,8.500000e-01,1.0,41.0,--,--,256.9896,0.0,999.0,999.0,999.0,259.50247,260.5186,3.5289967,260.51874,262.53522
43,43,6,2,3,3,1.700000e+00,1.0,42.0,--,--,262.576,0.0,999.0,999.0,999.0,265.08594,266.10187,3.5258558,266.102,269.11832
44,44,9,3,3,2,1.700000e+00,1.0,43.0,--,--,269.12485,0.0,999.0,999.0,999.0,271.63608,272.65216,3.5272982,272.6523,274.66824
45,45,4,2,1,3,8.500000e-01,1.0,44.0,--,--,274.70816,0.0,999.0,999.0,999.0,277.21927,278.23444,3.5262764,278.2346,281.23462
46,46,3,1,3,2,2.550000e+00,1.0,45.0,--,--,281.24417,0.0,999.0,999.0,999.0,283.75247,284.76764,3.523474,284.7678,286.76807
47,47,4,2,1,1,1.700000e+00,1.0,46.0,--,--,286.80588,0.0,999.0,999.0,999.0,289.31927,290.33432,3.5284493,290.33447,291.33472
48,48,6,2,3,4,8.500000e-01,1.0,47.0,--,--,291.3762,0.0,999.0,999.0,999.0,293.88602,294.90088,3.5246944,294.90103,298.9013
49,49,4,2,1,3,2.550000e+00,1.0,48.0,--,--,298.95374,0.0,999.0,999.0,999.0,301.469,302.48416,3.530409,302.48428,305.4845
50,50,4,2,1,4,8.500000e-01,1.0,49.0,--,--,305.53824,0.0,999.0,999.0,999.0,308.05197,309.0674,3.529166,309.0675,313.06775
51,51,1,1,1,3,2.550000e+00,1.0,50.0,--,--,313.0763,0.0,999.0,999.0,999.0,315.58533,316.60147,3.5251715,316.60162,319.61777
52,52,7,3,1,2,8.500000e-01,1.0,51.0,--,--,319.6243,0.0,999.0,999.0,999.0,322.13443,323.15057,3.5262735,323.15073,325.167
53,53,4,2,1,2,1.700000e+00,1.0,52.0,--,--,325.20892,0.0,999.0,999.0,999.0,327.71817,328.73444,3.5255122,328.73468,330.75082
54,54,9,3,3,4,1.700000e+00,1.0,53.0,--,--,330.7578,0.0,999.0,999.0,999.0,333.2679,334.28467,3.5268643,334.28482,338.3004
55,55,3,1,3,3,1.700000e+00,1.0,54.0,--,--,338.3053,0.0,999.0,999.0,999.0,340.8182,341.8339,3.528595,341.834,344.8507
56,56,3,1,3,3,2.550000e+00,1.0,55.0,--,--,344.8561,0.0,999.0,999.0,999.0,347.36743,348.38412,3.5280066,348.38428,351.40045
57,57,2,1,2,1,1.700000e+00,1.0,56.0,--,--,351.40558,0.0,999.0,999.0,999.0,353.91772,354.93414,3.5285342,354.93427,355.95035
58,58,9,3,3,2,1.700000e+00,1.0,57.0,--,--,355.95398,0.0,999.0,999.0,999.0,358.46722,359.48346,3.529475,359.4836,361.50024
59,59,5,2,2,4,1.700000e+00,1.0,58.0,--,--,361.55246,0.0,999.0,999.0,999.0,364.06808,365.08426,3.531796,365.08438,369.1
60,60,2,1,2,4,2.550000e+00,1.0,59.0,--,--,369.1059,0.0,999.0,999.0,999.0,371.61777,372.63312,3.5272272,372.63327,376.64987
61,61,4,2,1,2,2.550000e+00,1.0,60.0,--,--,376.7035,0.0,999.0,999.0,999.0,379.21732,380.23322,3.529742,380.2334,382.2335
62,62,8,3,2,2,2.550000e+00,1.0,61.0,--,--,382.23914,0.0,999.0,999.0,999.0,384.75098,385.76703,3.5278814,385.76724,387.78317
63,63,4,2,1,1,1.700000e+00,1.0,62.0,--,--,387.82208,0.0,999.0,999.0,999.0,390.33408,391.34967,3.527577,391.34985,392.3499
64,64,4,2,1,1,8.500000e-01,1.0,63.0,--,--,392.40485,0.0,999.0,999.0,999.0,394.91788,395.93384,3.5289817,395.93396,396.9498
65,65,7,3,1,3,2.550000e+00,1.0,64.0,--,--,396.95786,0.0,999.0,999.0,999.0,399.46677,400.48294,3.5250938,400.4831,403.49948
66,66,8,3,2,2,8.500000e-01,1.0,65.0,--,--,403.50394,0.0,999.0,999.0,999.0,406.01715,407.03262,3.5286934,407.03278,409.03296
67,67,9,3,3,3,8.500000e-01,1.0,66.0,--,--,409.03662,0.0,999.0,999.0,999.0,411.55038,412.56598,3.529349,412.5661,415.5662
68,68,3,1,3,4,2.550000e+00,1.0,67.0,--,--,415.57532,0.0,999.0,999.0,999.0,418.08325,419.0991,3.523754,419.09924,423.0996
69,69,6,2,3,2,8.500000e-01,1.0,68.0,--,--,423.15677,0.0,999.0,999.0,999.0,425.66724,426.68344,3.5266724,426.68356,428.69955
70,70,3,1,3,4,1.700000e+00,1.0,69.0,--,--,428.7083,0.0,999.0,999.0,999.0,431.21948,432.23215,3.5238178,432.2323,436.23294
71,71,9,3,3,1,1.700000e+00,1.0,70.0,--,--,436.23956,0.0,999.0,999.0,999.0,438.7506,439.76627,3.52669,439.76642,440.78265
72,72,2,1,2,1,2.550000e+00,1.0,71.0,--,--,440.78998,0.0,999.0,999.0,999.0,443.30057,444.31558,3.5256276,444.3157,445.31586
73,73,9,3,3,2,1.700000e+00,1.0,72.0,--,--,445.32242,0.0,999.0,999.0,999.0,447.8337,448.84927,3.5268557,448.84943,450.86578
74,74,5,2,2,3,2.550000e+00,1.0,73.0,--,--,450.9201,0.0,999.0,999.0,999.0,453.43317,454.44882,3.528721,454.44897,457.4491
75,75,4,2,1,1,1.700000e+00,1.0,74.0,--,--,457.48862,0.0,999.0,999.0,999.0,459.99957,461.01532,3.526686,461.01547,462.03235
76,76,3,1,3,3,8.500000e-01,1.0,75.0,--,--,462.0388,0.0,999.0,999.0,999.0,464.55035,465.56525,3.5264823,465.5654,468.5656
77,77,3,1,3,2,8.500000e-01,1.0,76.0,--,--,468.5715,0.0,999.0,999.0,999.0,471.08282,472.0984,3.5268886,472.0985,474.09888
78,78,7,3,1,3,2.550000e+00,1.0,77.0,--,--,474.10464,0.0,999.0,999.0,999.0,476.61603,477.63223,3.5275817,477.6324,480.64896
79,79,3,1,3,4,2.550000e+00,1.0,78.0,--,--,480.65863,0.0,999.0,999.0,999.0,483.16614,484.18195,3.523294,484.1821,488.19827
80,80,1,1,1,1,8.500000e-01,1.0,79.0,--,--,488.20203,0.0,999.0,999.0,999.0,490.71655,491.7325,3.5304925,491.73267,492.74884
81,81,5,2,2,2,2.550000e+00,1.0,80.0,--,--,492.83817,0.0,999.0,999.0,999.0,495.34988,496.36484,3.526661,496.36496,498.36523
﻿TrialNumber,Trialn,TrialType,Partner,Feedback,ITI,ISI,ran,order,studyStart,InitFixOnset,decision_onset,resp,resp_onset,rt,outcome_val,outcome_onset,outcome_offset,trialDuration,ITIonset,ITIoffset
1,1,1,1,1,2,2.550000e+00,1.0,0.0,3.7999998e-06,0.0019813,4.0207562,0.0,999.0,999.0,999.0,6.5374856,7.5542974,3.533541,7.55444,9.570526
2,2,8,3,2,1,2.550000e+00,1.0,1.0,--,--,9.589821,0.0,999.0,999.0,999.0,12.104559,13.121076,3.5312555,13.121201,14.13713
3,3,1,1,1,2,1.700000e+00,1.0,2.0,--,--,14.141593,0.0,999.0,999.0,999.0,16.654646,17.670288,3.528695,17.670412,19.670555
4,4,6,2,3,2,8.500000e-01,1.0,3.0,--,--,19.732908,0.0,999.0,999.0,999.0,22.2379,23.253874,3.5209665,23.253998,25.270447
5,5,2,1,2,4,2.550000e+00,1.0,4.0,--,--,25.276493,0.0,999.0,999.0,999.0,27.787218,28.803905,3.5274131,28.80404,32.8203
6,6,4,2,1,1,2.550000e+00,1.0,5.0,--,--,32.8627,0.0,999.0,999.0,999.0,35.370853,36.38743,3.5247266,36.38755,37.40356
7,7,7,3,1,4,1.700000e+00,1.0,6.0,--,--,37.407883,0.0,999.0,999.0,999.0,39.920845,40.93737,3.529489,40.93751,44.953632
8,8,5,2,2,1,8.500000e-01,1.0,7.0,--,--,44.992805,0.0,999.0,999.0,999.0,47.50398,48.52012,3.5273116,48.52028,49.53671
9,9,7,3,1,3,2.550000e+00,1.0,8.0,--,--,49.54023,0.0,999.0,999.0,999.0,52.05393,53.07079,3.5305607,53.070942,56.086666
10,10,7,3,1,4,1.700000e+00,1.0,9.0,--,--,56.091057,0.0,999.0,999.0,999.0,58.603725,59.62061,3.5295534,59.62073,63.636406
11,11,4,2,1,1,8.500000e-01,1.0,10.0,--,--,63.68093,0.0,999.0,999.0,999.0,66.18694,67.20299,3.522059,67.20312,68.21989
12,12,6,2,3,2,8.500000e-01,1.0,11.0,--,--,68.262215,0.0,999.0,999.0,999.0,70.77018,71.787415,3.5252051,71.78754,73.80293
13,13,6,2,3,2,1.700000e+00,1.0,12.0,--,--,73.847,0.0,999.0,999.0,999.0,76.353516,77.37014,3.5231385,77.37027,79.38622
14,14,6,2,3,4,8.500000e-01,1.0,13.0,--,--,79.43144,0.0,999.0,999.0,999.0,81.937355,82.95404,3.5226052,82.95416,86.96953
15,15,9,3,3,4,2.550000e+00,1.0,14.0,--,--,86.97493,0.0,999.0,999.0,999.0,89.48628,90.50324,3.5283155,90.50337,94.51933
16,16,1,1,1,3,8.500000e-01,1.0,15.0,--,--,94.52565,0.0,999.0,999.0,999.0,97.03715,98.0522,3.526548,98.052345,101.05278
17,17,7,3,1,3,2.550000e+00,1.0,16.0,--,--,101.056076,0.0,999.0,999.0,999.0,103.57006,104.58597,3.5298853,104.58611,107.602615
18,18,9,3,3,3,8.500000e-01,1.0,17.0,--,--,107.60428,0.0,999.0,999.0,999.0,110.11962,111.136635,3.5323565,111.13676,114.15256
19,19,6,2,3,2,1.700000e+00,1.0,18.0,--,--,114.2065,0.0,999.0,999.0,999.0,116.71984,117.735985,3.5294895,117.73613,119.75237
20,20,5,2,2,3,2.550000e+00,1.0,19.0,--,--,119.79444,0.0,999.0,999.0,999.0,122.30275,123.31887,3.5244298,123.31901,126.31905
21,21,1,1,1,2,8.500000e-01,1.0,20.0,--,--,126.32422,0.0,999.0,999.0,999.0,128.83641,129.85338,3.529155,129.8535,131.8692
22,22,7,3,1,2,8.500000e-01,1.0,21.0,--,--,131.87315,0.0,999.0,999.0,999.0,134.38593,135.40326,3.530096,135.40338,137.41902
23,23,9,3,3,1,2.550000e+00,1.0,22.0,--,--,137.42317,0.0,999.0,999.0,999.0,139.93605,140.95229,3.529119,140.95244,141.96893
24,24,7,3,1,4,2.550000e+00,1.0,23.0,--,--,141.97124,0.0,999.0,999.0,999.0,144.48613,145.50299,3.5317502,145.50311,149.51895
25,25,1,1,1,1,8.500000e-01,1.0,24.0,--,--,149.52399,0.0,999.0,999.0,999.0,152.03629,153.05241,3.5284288,153.05255,154.06859
26,26,3,1,3,2,1.700000e+00,1.0,25.0,--,--,154.07259,0.0,999.0,999.0,999.0,156.58636,157.60254,3.5299425,157.60266,159.61862
27,27,1,1,1,3,8.500000e-01,1.0,26.0,--,--,159.62102,0.0,999.0,999.0,999.0,162.13634,163.1526,3.531574,163.15273,166.16847
28,28,8,3,2,4,1.700000e+00,1.0,27.0,--,--,166.17188,0.0,999.0,999.0,999.0,168.6856,169.7019,3.5300412,169.70206,173.71864
29,29,6,2,3,3,1.700000e+00,1.0,28.0,--,--,173.76613,0.0,999.0,999.0,999.0,176.26909,177.28574,3.5195937,177.28586,180.30162
30,30,2,1,2,1,8.500000e-01,1.0,29.0,--,--,180.30946,0.0,999.0,999.0,999.0,182.8191,183.8358,3.5263255,183.83594,184.85153
31,31,1,1,1,4,2.550000e+00,1.0,30.0,--,--,184.85483,0.0,999.0,999.0,999.0,187.36879,188.38492,3.530095,188.38506,192.40125
32,32,8,3,2,4,1.700000e+00,1.0,31.0,--,--,192.40486,0.0,999.0,999.0,999.0,194.91866,195.93474,3.5298893,195.93488,199.95164
33,33,7,3,1,3,8.500000e-01,1.0,32.0,--,--,199.95425,0.0,999.0,999.0,999.0,202.4685,203.48564,3.5313797,203.48576,206.5014
34,34,3,1,3,4,8.500000e-01,1.0,33.0,--,--,206.50778,0.0,999.0,999.0,999.0,209.01863,210.03418,3.5264022,210.03436,214.03467
35,35,6,2,3,2,1.700000e+00,1.0,34.0,--,--,214.08456,0.0,999.0,999.0,999.0,216.58537,217.60188,3.517323,217.60207,219.61806
36,36,1,1,1,2,8.500000e-01,1.0,35.0,--,--,219.62679,0.0,999.0,999.0,999.0,222.13536,223.15057,3.5237863,223.15071,225.15108
37,37,7,3,1,3,1.700000e+00,1.0,36.0,--,--,225.1561,0.0,999.0,999.0,999.0,227.66875,228.68472,3.5286288,228.68486,231.70122
38,38,3,1,3,1,1.700000e+00,1.0,37.0,--,--,231.70563,0.0,999.0,999.0,999.0,234.21829,235.23431,3.5286894,235.23447,236.2345
39,39,9,3,3,3,2.550000e+00,1.0,38.0,--,--,236.23825,0.0,999.0,999.0,999.0,238.75194,239.76776,3.5295012,239.76787,242.78424
40,40,1,1,1,3,1.700000e+00,1.0,39.0,--,--,242.78989,0.0,999.0,999.0,999.0,245.30145,246.31741,3.5275378,246.31758,249.31766
41,41,9,3,3,4,2.550000e+00,1.0,40.0,--,--,249.3233,0.0,999.0,999.0,999.0,251.83467,252.85162,3.528323,252.85176,256.8673
42,42,6,2,3,2,8.500000e-01,1.0,41.0,--,--,256.92062,0.0,999.0,999.0,999.0,259.4346,260.45117,3.5305767,260.45132,262.46732
43,43,6,2,3,3,1.700000e+00,1.0,42.0,--,--,262.5157,0.0,999.0,999.0,999.0,265.01837,266.03375,3.5180411,266.03387,269.0339
44,44,9,3,3,2,1.700000e+00,1.0,43.0,--,--,269.03687,0.0,999.0,999.0,999.0,271.55164,272.5675,3.5306492,272.56763,274.58386
45,45,4,2,1,3,8.500000e-01,1.0,44.0,--,--,274.62555,0.0,999.0,999.0,999.0,277.13416,278.1506,3.5250528,278.15073,281.16708
46,46,3,1,3,2,2.550000e+00,1.0,45.0,--,--,281.1723,0.0,999.0,999.0,999.0,283.6842,284.7002,3.5279133,284.70035,286.70047
47,47,4,2,1,1,1.700000e+00,1.0,46.0,--,--,286.7423,0.0,999.0,999.0,999.0,289.25116,290.2676,3.5252826,290.26776,291.2837
48,48,6,2,3,4,8.500000e-01,1.0,47.0,--,--,291.3213,0.0,999.0,999.0,999.0,293.83453,294.85028,3.5289755,294.8504,298.86685
49,49,4,2,1,3,2.550000e+00,1.0,48.0,--,--,298.9098,0.0,999.0,999.0,999.0,301.41745,302.43356,3.5237775,302.43372,305.4502
50,50,4,2,1,4,8.500000e-01,1.0,49.0,--,--,305.49884,0.0,999.0,999.0,999.0,308.0005,309.01703,3.5181751,309.01715,313.03345
51,51,1,1,1,3,2.550000e+00,1.0,50.0,--,--,313.0383,0.0,999.0,999.0,999.0,315.55075,316.56747,3.5291722,316.5676,319.5834
52,52,7,3,1,2,8.500000e-01,1.0,51.0,--,--,319.58667,0.0,999.0,999.0,999.0,322.10062,323.1173,3.5306332,323.11752,325.1333
53,53,4,2,1,2,1.700000e+00,1.0,52.0,--,--,325.17627,0.0,999.0,999.0,999.0,327.6842,328.7005,3.5242426,328.7007,330.7165
54,54,9,3,3,4,1.700000e+00,1.0,53.0,--,--,330.72,0.0,999.0,999.0,999.0,333.23383,334.2503,3.530298,334.25043,338.26645
55,55,3,1,3,3,1.700000e+00,1.0,54.0,--,--,338.27252,0.0,999.0,999.0,999.0,340.7834,341.7994,3.5268803,341.79953,344.79993
56,56,3,1,3,3,2.550000e+00,1.0,55.0,--,--,344.80234,0.0,999.0,999.0,999.0,347.31686,348.3335,3.5311577,348.33362,351.34952
57,57,2,1,2,1,1.700000e+00,1.0,56.0,--,--,351.35226,0.0,999.0,999.0,999.0,353.8668,354.8825,3.5302463,354.8827,355.88284
58,58,9,3,3,2,1.700000e+00,1.0,57.0,--,--,355.88718,0.0,999.0,999.0,999.0,358.39984,359.4168,3.5296254,359.41693,361.4329
59,59,5,2,2,4,1.700000e+00,1.0,58.0,--,--,361.47668,0.0,999.0,999.0,999.0,363.98325,364.99985,3.523155,365.0,369.01614
60,60,2,1,2,4,2.550000e+00,1.0,59.0,--,--,369.0241,0.0,999.0,999.0,999.0,371.5333,372.5491,3.5249953,372.54922,376.54938
61,61,4,2,1,2,2.550000e+00,1.0,60.0,--,--,376.60083,0.0,999.0,999.0,999.0,379.11688,380.13214,3.531314,380.13232,382.13242
62,62,8,3,2,2,2.550000e+00,1.0,61.0,--,--,382.1368,0.0,999.0,999.0,999.0,384.64978,385.6663,3.5294807,385.6664,387.68237
63,63,4,2,1,1,1.700000e+00,1.0,62.0,--,--,387.7269,0.0,999.0,999.0,999.0,390.23325,391.24994,3.5230522,391.2501,392.26556
64,64,4,2,1,1,8.500000e-01,1.0,63.0,--,--,392.3092,0.0,999.0,999.0,999.0,394.81665,395.8324,3.523193,395.83252,396.84888
65,65,7,3,1,3,2.550000e+00,1.0,64.0,--,--,396.8523,0.0,999.0,999.0,999.0,399.36646,400.38248,3.5301564,400.38263,403.39917
66,66,8,3,2,2,8.500000e-01,1.0,65.0,--,--,403.4018,0.0,999.0,999.0,999.0,405.91583,406.932,3.5301974,406.93216,408.93222
67,67,9,3,3,3,8.500000e-01,1.0,66.0,--,--,408.93387,0.0,999.0,999.0,999.0,411.44937,412.4663,3.5324314,412.46646,415.48203
68,68,3,1,3,4,2.550000e+00,1.0,67.0,--,--,415.48947,0.0,999.0,999.0,999.0,417.99954,419.01566,3.5261953,419.01578,423.0322
69,69,6,2,3,2,8.500000e-01,1.0,68.0,--,--,423.08182,0.0,999.0,999.0,999.0,425.58258,426.59854,3.5167203,426.59872,428.59875
70,70,3,1,3,4,1.700000e+00,1.0,69.0,--,--,428.60648,0.0,999.0,999.0,999.0,431.11618,432.13162,3.5251524,432.1318,436.13202
71,71,9,3,3,1,1.700000e+00,1.0,70.0,--,--,436.13632,0.0,999.0,999.0,999.0,438.64877,439.66592,3.5295956,439.66605,440.6817
72,72,2,1,2,1,2.550000e+00,1.0,71.0,--,--,440.68518,0.0,999.0,999.0,999.0,443.199,444.21548,3.5303247,444.2156,445.23175
73,73,9,3,3,2,1.700000e+00,1.0,72.0,--,--,445.24124,0.0,999.0,999.0,999.0,447.74896,448.76614,3.5249066,448.76627,450.78168
74,74,5,2,2,3,2.550000e+00,1.0,73.0,--,--,450.836,0.0,999.0,999.0,999.0,453.34845,454.3652,3.5291843,454.36533,457.38162
75,75,4,2,1,1,1.700000e+00,1.0,74.0,--,--,457.4265,0.0,999.0,999.0,999.0,459.9319,460.94858,3.5220833,460.94873,461.96497
76,76,3,1,3,3,8.500000e-01,1.0,75.0,--,--,461.97586,0.0,999.0,999.0,999.0,464.48257,465.4985,3.5226448,465.49863,468.51498
77,77,3,1,3,2,8.500000e-01,1.0,76.0,--,--,468.51965,0.0,999.0,999.0,999.0,471.0321,472.04895,3.5292907,472.04907,474.06485
78,78,7,3,1,3,2.550000e+00,1.0,77.0,--,--,474.06998,0.0,999.0,999.0,999.0,476.5818,477.59808,3.5281167,477.5982,480.61478
79,79,3,1,3,4,2.550000e+00,1.0,78.0,--,--,480.62204,0.0,999.0,999.0,999.0,483.13187,484.1483,3.526266,484.14844,488.16455
80,80,1,1,1,1,8.500000e-01,1.0,79.0,--,--,488.16815,0.0,999.0,999.0,999.0,490.6817,491.6986,3.5304582,491.69873,492.71448
81,81,5,2,2,2,2.550000e+00,1.0,80.0,--,--,492.76633,0.0,999.0,999.0,999.0,495.2819,496.298,3.5316637,496.29816,498.31448
﻿TrialNumber,Trialn,TrialType,Partner,Feedback,ITI,ISI,ran,order,studyStart,InitFixOnset,decision_onset,resp,resp_onset,rt,outcome_val,outcome_onset,outcome_offset,trialDuration,ITIonset,ITIoffset
1,1,1,1,1,2,2.550000e+00,1.0,0.0,2.6000198e-06,0.0015482,4.008341,1.0,4.96379,0.9554491,6.0,6.525331,7.535313,3.5269725,7.5354548,9.546827
2,2,8,3,2,1,2.550000e+00,1.0,1.0,--,--,9.55353,1.0,10.16418,0.61065,5.0,12.0703535,13.077497,3.5239658,13.077854,14.080079
3,3,1,1,1,2,1.700000e+00,1.0,2.0,--,--,14.084684,2.0,14.480321,0.395637,4.0,16.602665,17.60792,3.5232363,17.60807,19.612915
4,4,6,2,3,2,8.500000e-01,1.0,3.0,--,--,19.669504,1.0,20.080477,0.4109726,2.0,22.18715,23.194647,3.525143,23.194796,25.196507
5,5,2,1,2,4,2.550000e+00,1.0,4.0,--,--,25.204502,2.0,25.54701,0.342508,5.0,27.721733,28.72575,3.5212474,28.72596,32.729706
6,6,4,2,1,1,2.550000e+00,1.0,5.0,--,--,32.77673,1.0,33.213562,0.4368345,9.0,35.294674,36.301006,3.5242772,36.30113,37.313183
7,7,7,3,1,4,1.700000e+00,1.0,6.0,--,--,37.316734,1.0,37.91337,0.5966364,6.0,39.83325,40.836838,3.5201056,40.83696,44.84611
8,8,5,2,2,1,8.500000e-01,1.0,7.0,--,--,44.88531,2.0,45.314037,0.4287263,5.0,47.401814,48.408573,3.5232604,48.40872,49.41279
9,9,7,3,1,3,2.550000e+00,1.0,8.0,--,--,49.416756,1.0,49.83109,0.4143331,7.0,51.932537,52.93856,3.5218067,52.9387,55.94603
10,10,7,3,1,4,1.700000e+00,1.0,9.0,--,--,55.947697,1.0,56.44694,0.4992438,8.0,58.464863,59.469433,3.5217376,59.469574,63.479515
11,11,4,2,1,1,8.500000e-01,1.0,10.0,--,--,63.530113,1.0,63.91357,0.3834569,6.0,66.04689,67.05041,3.5202966,67.05052,68.06288
12,12,6,2,3,2,8.500000e-01,1.0,11.0,--,--,68.11007,1.0,68.63074,0.5206694,1.0,70.627625,71.63616,3.5260932,71.63629,73.646034
13,13,6,2,3,2,1.700000e+00,1.0,12.0,--,--,73.686035,2.0,74.02998,0.3439486,9.0,76.203026,77.20593,3.5198932,77.206085,79.212776
14,14,6,2,3,4,8.500000e-01,1.0,13.0,--,--,79.26371,1.0,79.696785,0.4330753,2.0,81.78028,82.78396,3.5202484,82.78409,86.79577
15,15,9,3,3,4,2.550000e+00,1.0,14.0,--,--,86.80126,1.0,87.34683,0.5455733,2.0,89.31872,90.32237,3.5211167,90.322525,94.329025
16,16,1,1,1,3,8.500000e-01,1.0,15.0,--,--,94.33379,1.0,95.34635,1.0125577,6.0,96.85152,97.85759,3.5237937,97.85773,100.86223
17,17,7,3,1,3,2.550000e+00,1.0,16.0,--,--,100.86636,1.0,101.313,0.4466401,7.0,103.383484,104.3873,3.5209346,104.387436,107.39571
18,18,9,3,3,3,8.500000e-01,1.0,17.0,--,--,107.398254,1.0,107.846664,0.448412,3.0,109.91432,110.93129,3.5330365,110.93141,113.94546
19,19,6,2,3,2,1.700000e+00,1.0,18.0,--,--,113.99183,1.0,114.59607,0.6042404,2.0,116.509,117.51201,3.5201797,117.51212,119.52885
20,20,5,2,2,3,2.550000e+00,1.0,19.0,--,--,119.56735,1.0,120.02903,0.4616794,5.0,122.084885,123.09057,3.5232177,123.0907,126.09531
21,21,1,1,1,2,8.500000e-01,1.0,20.0,--,--,126.09897,1.0,127.77895,1.6799833,9.0,128.61652,129.62119,3.522214,129.6213,131.62868
22,22,7,3,1,2,8.500000e-01,1.0,21.0,--,--,131.63205,1.0,132.19684,0.5647842,8.0,134.1484,135.15184,3.5197868,135.15196,137.16167
23,23,9,3,3,1,2.550000e+00,1.0,22.0,--,--,137.16454,1.0,137.79533,0.6307989,4.0,139.68156,140.68532,3.520791,140.68544,141.6952
24,24,7,3,1,4,2.550000e+00,1.0,23.0,--,--,141.69754,1.0,142.29543,0.5978884,9.0,144.2157,145.21964,3.522094,145.21976,149.22836
25,25,1,1,1,1,8.500000e-01,1.0,24.0,--,--,149.23593,1.0,150.54523,1.3093026,7.0,151.75317,152.75624,3.5203185,152.7564,153.7616
26,26,3,1,3,2,1.700000e+00,1.0,25.0,--,--,153.764,1.0,154.69551,0.9315057,2.0,156.2811,157.28596,3.5219479,157.2861,159.29495
27,27,1,1,1,3,8.500000e-01,1.0,26.0,--,--,159.2978,1.0,159.74551,0.4477082,6.0,161.8147,162.81873,3.520926,162.81886,165.82816
28,28,8,3,2,4,1.700000e+00,1.0,27.0,--,--,165.83522,1.0,166.46175,0.6265258,5.0,168.35283,169.3572,3.5219655,169.35733,173.36147
29,29,6,2,3,3,1.700000e+00,1.0,28.0,--,--,173.40915,1.0,174.01186,0.6026993,1.0,175.92651,176.93071,3.5215602,176.93085,179.94473
30,30,2,1,2,1,8.500000e-01,1.0,29.0,--,--,179.95154,2.0,180.91241,0.9608816,5.0,182.46806,183.47258,3.5210395,183.4727,184.47795
31,31,1,1,1,4,2.550000e+00,1.0,30.0,--,--,184.48267,1.0,186.19586,1.7131968,8.0,186.99852,188.00244,3.5197732,188.00258,192.01111
32,32,8,3,2,4,1.700000e+00,1.0,31.0,--,--,192.01805,2.0,192.44643,0.4283755,5.0,194.5334,195.53883,3.5207705,195.53897,199.54425
33,33,7,3,1,3,8.500000e-01,1.0,32.0,--,--,199.54706,1.0,199.96243,0.415362,6.0,202.0637,203.06747,3.5204172,203.06761,206.0777
34,34,3,1,3,4,8.500000e-01,1.0,33.0,--,--,206.0829,2.0,206.49466,0.411765,7.0,208.60051,209.60553,3.5226305,209.60567,213.61082
35,35,6,2,3,2,1.700000e+00,1.0,34.0,--,--,213.6574,1.0,214.04453,0.3871414,3.0,216.17433,217.17792,3.5205297,217.17805,219.19423
36,36,1,1,1,2,8.500000e-01,1.0,35.0,--,--,219.20183,1.0,220.46104,1.2592103,8.0,221.7184,222.72328,3.5214453,222.72342,224.7273
37,37,7,3,1,3,1.700000e+00,1.0,36.0,--,--,224.73087,1.0,225.14587,0.4150201,9.0,227.24646,228.25024,3.5193882,228.25038,231.26088
38,38,3,1,3,1,1.700000e+00,1.0,37.0,--,--,231.26453,1.0,231.69466,0.430133,3.0,233.78105,234.78517,3.5206418,234.78531,235.79391
39,39,9,3,3,3,2.550000e+00,1.0,38.0,--,--,235.79926,1.0,236.19405,0.394795,2.0,238.31625,239.31927,3.5200224,239.31941,242.32707
40,40,1,1,1,3,1.700000e+00,1.0,39.0,--,--,242.33075,1.0,243.56082,1.2300594,9.0,244.84853,245.85332,3.5225666,245.85345,248.86046
41,41,9,3,3,4,2.550000e+00,1.0,40.0,--,--,248.86363,1.0,249.34404,0.4804095,3.0,251.38075,252.3852,3.5215528,252.38533,256.39365
42,42,6,2,3,2,8.500000e-01,1.0,41.0,--,--,256.44388,1.0,256.84393,0.4000745,4.0,258.96143,259.96466,3.5207918,259.96478,261.97696
43,43,6,2,3,3,1.700000e+00,1.0,42.0,--,--,262.0136,1.0,262.5441,0.5304726,2.0,264.53073,265.53516,3.5215433,265.5353,268.54364
44,44,9,3,3,2,1.700000e+00,1.0,43.0,--,--,268.54794,1.0,268.97745,0.4294925,1.0,271.0654,272.0689,3.5209403,272.06903,274.07693
45,45,4,2,1,3,8.500000e-01,1.0,44.0,--,--,274.11896,1.0,274.5769,0.4579641,8.0,276.63672,277.641,3.5220563,277.6411,280.64343
46,46,3,1,3,2,2.550000e+00,1.0,45.0,--,--,280.6497,2.0,281.09384,0.444138,6.0,283.16663,284.17108,3.5213885,284.1712,286.17645
47,47,4,2,1,1,1.700000e+00,1.0,46.0,--,--,286.21347,1.0,286.57697,0.3634927,9.0,288.73123,289.73608,3.5226264,289.73624,290.7433
48,48,6,2,3,4,8.500000e-01,1.0,47.0,--,--,290.77914,2.0,291.19388,0.4147422,8.0,293.2959,294.30136,3.522227,294.3015,298.31006
49,49,4,2,1,3,2.550000e+00,1.0,48.0,--,--,298.3519,1.0,298.79333,0.4414221,9.0,300.86978,301.87375,3.521838,301.87387,304.87646
50,50,4,2,1,4,8.500000e-01,1.0,49.0,--,--,304.91837,1.0,305.29364,0.3752571,6.0,307.43542,308.43976,3.5213904,308.4399,312.44296
51,51,1,1,1,3,2.550000e+00,1.0,50.0,--,--,312.4479,1.0,312.8611,0.4132055,9.0,314.96445,315.96848,3.520573,315.96863,318.97623
52,52,7,3,1,2,8.500000e-01,1.0,51.0,--,--,318.98132,2.0,319.4102,0.4288513,2.0,321.49915,322.50345,3.5220964,322.50357,324.50958
53,53,4,2,1,2,1.700000e+00,1.0,52.0,--,--,324.56192,1.0,325.09326,0.531327,8.0,327.0795,328.08307,3.521134,328.0832,330.0928
54,54,9,3,3,4,1.700000e+00,1.0,53.0,--,--,330.09787,1.0,330.54303,0.4451779,3.0,332.61505,333.6197,3.5218143,333.62027,337.6267
55,55,3,1,3,3,1.700000e+00,1.0,54.0,--,--,337.63092,1.0,338.04282,0.4119098,3.0,340.14978,341.1531,3.5221987,341.15326,344.15912
56,56,3,1,3,3,2.550000e+00,1.0,55.0,--,--,344.16278,1.0,344.57687,0.4140878,2.0,346.6804,347.68503,3.5222638,347.68518,350.6931
57,57,2,1,2,1,1.700000e+00,1.0,56.0,--,--,350.6967,1.0,351.12762,0.430939,5.0,353.2138,354.21854,3.5218537,354.2187,355.22586
58,58,9,3,3,2,1.700000e+00,1.0,57.0,--,--,355.22888,1.0,355.726,0.4971258,2.0,357.74573,358.74997,3.5211039,358.75012,360.75922
59,59,5,2,2,4,1.700000e+00,1.0,58.0,--,--,360.80676,1.0,361.576,0.7692349,5.0,363.32455,364.32938,3.5226123,364.3295,368.3421
60,60,2,1,2,4,2.550000e+00,1.0,59.0,--,--,368.34924,1.0,369.97678,1.627528,5.0,370.86646,371.87033,3.5210917,371.87045,375.8753
61,61,4,2,1,2,2.550000e+00,1.0,60.0,--,--,375.91605,2.0,376.39413,0.4780821,2.0,378.43097,379.43533,3.519288,379.4355,381.4422
62,62,8,3,2,2,2.550000e+00,1.0,61.0,--,--,381.4471,2.0,381.92627,0.4791642,5.0,383.96356,384.96802,3.520932,384.96817,386.97562
63,63,4,2,1,1,1.700000e+00,1.0,62.0,--,--,387.01736,1.0,387.3929,0.3755309,7.0,389.53387,390.5385,3.5211456,390.53867,391.54196
64,64,4,2,1,1,8.500000e-01,1.0,63.0,--,--,391.5925,2.0,392.6429,1.0504221,3.0,394.10995,395.11346,3.5209906,395.11362,396.125
65,65,7,3,1,3,2.550000e+00,1.0,64.0,--,--,396.12946,2.0,396.8261,0.6966341,2.0,398.64557,399.64975,3.5202954,399.64987,402.65863
66,66,8,3,2,2,8.500000e-01,1.0,65.0,--,--,402.66052,2.0,403.1088,0.4482719,5.0,405.17752,406.18286,3.5223286,406.18298,408.19174
67,67,9,3,3,3,8.500000e-01,1.0,66.0,--,--,408.19385,2.0,408.59244,0.3985833,8.0,410.71017,411.7149,3.5210433,411.71503,414.72513
68,68,3,1,3,4,2.550000e+00,1.0,67.0,--,--,414.72955,2.0,415.20935,0.4798017,6.0,417.24667,418.25024,3.520672,418.25037,422.2583
69,69,6,2,3,2,8.500000e-01,1.0,68.0,--,--,422.30853,2.0,422.7429,0.4343456,8.0,424.824,425.82812,3.5195763,425.82825,427.8415
70,70,3,1,3,4,1.700000e+00,1.0,69.0,--,--,427.84497,2.0,429.2752,1.4302539,9.0,430.36197,431.3663,3.5213358,431.36642,435.37473
71,71,9,3,3,1,1.700000e+00,1.0,70.0,--,--,435.37833,1.0,435.79224,0.4139189,2.0,437.89554,438.89932,3.5210226,438.89948,439.90805
72,72,2,1,2,1,2.550000e+00,1.0,71.0,--,--,439.91248,2.0,440.4586,0.5461222,5.0,442.42953,443.43442,3.5219545,443.43454,444.4415
73,73,9,3,3,2,1.700000e+00,1.0,72.0,--,--,444.4487,1.0,444.8752,0.4265114,1.0,446.96667,447.97165,3.5229511,447.9718,449.97485
74,74,5,2,2,3,2.550000e+00,1.0,73.0,--,--,450.02505,2.0,450.42514,0.4000606,5.0,452.54138,453.54608,3.5210104,453.5462,456.55786
75,75,4,2,1,1,1.700000e+00,1.0,74.0,--,--,456.60385,2.0,457.0583,0.4544417,2.0,459.12085,460.1252,3.5213604,460.12534,461.14108
76,76,3,1,3,3,8.500000e-01,1.0,75.0,--,--,461.14917,2.0,461.67508,0.5258898,8.0,463.6673,464.6718,3.5226336,464.67197,467.67432
77,77,3,1,3,2,8.500000e-01,1.0,76.0,--,--,467.6795,1.0,468.05838,0.378903,4.0,470.19623,471.20016,3.5206852,471.2003,473.20773
78,78,7,3,1,3,2.550000e+00,1.0,77.0,--,--,473.21506,2.0,473.64172,0.4266832,2.0,475.73294,476.73682,3.521772,476.73694,479.74103
79,79,3,1,3,4,2.550000e+00,1.0,78.0,--,--,479.74603,1.0,480.12454,0.3785166,2.0,482.2633,483.27023,3.5241952,483.27036,487.2742
80,80,1,1,1,1,8.500000e-01,1.0,79.0,--,--,487.27948,2.0,487.7417,0.4622181,2.0,489.79584,490.8006,3.5211296,490.80072,491.80746
81,81,5,2,2,2,2.550000e+00,1.0,80.0,--,--,491.85257,2.0,492.39096,0.5383969,5.0,494.36917,495.37476,3.5221856,495.37488,497.39062
﻿TrialNumber,Trialn,TrialType,Partner,Feedback,ITI,ISI,ran,order,studyStart,InitFixOnset,decision_onset,resp,resp_onset,rt,outcome_val,outcome_onset,outcome_offset,trialDuration,ITIonset,ITIoffset
1,1,1,1,1,2,2.550000e+00,1.0,0.0,2.900022e-06,0.0016525,4.022225,2.0,4.622132,0.599907,2.0,6.539052,7.559483,3.5372581,7.5596275,9.570419
2,2,8,3,2,1,2.550000e+00,1.0,1.0,--,--,9.588993,2.0,10.17142,0.5824264,5.0,12.105253,13.112347,3.5233536,13.11249,14.119906
3,3,1,1,1,2,1.700000e+00,1.0,2.0,--,--,14.126003,2.0,14.904727,0.7787237,1.0,16.642504,17.64838,3.5223775,17.64851,19.653038
4,4,6,2,3,2,8.500000e-01,1.0,3.0,--,--,19.710947,2.0,20.07055,0.3596042,8.0,22.228594,23.23581,3.5248637,23.235964,25.236387
5,5,2,1,2,4,2.550000e+00,1.0,4.0,--,--,25.240776,2.0,25.654264,0.4134893,5.0,27.757874,28.763979,3.523204,28.76413,32.76986
6,6,4,2,1,1,2.550000e+00,1.0,5.0,--,--,32.80827,1.0,33.28712,0.4788509,6.0,35.32539,36.33183,3.5235593,36.331955,37.336216
7,7,7,3,1,4,1.700000e+00,1.0,6.0,--,--,37.341095,2.0,38.003906,0.662811,2.0,39.858685,40.862972,3.521875,40.863102,44.86956
8,8,5,2,2,1,8.500000e-01,1.0,7.0,--,--,44.91419,2.0,45.687126,0.7729382,5.0,47.431564,48.43724,3.52305,48.437393,49.452705
9,9,7,3,1,3,2.550000e+00,1.0,8.0,--,--,49.457657,1.0,50.769566,1.3119087,7.0,51.974724,52.9921,3.5344434,52.992218,56.00278
10,10,7,3,1,4,1.700000e+00,1.0,9.0,--,--,56.005035,2.0,56.437023,0.4319879,1.0,58.522346,59.52619,3.5211575,59.526314,63.535816
11,11,4,2,1,1,8.500000e-01,1.0,10.0,--,--,63.586433,2.0,64.35336,0.7669249,4.0,66.10352,67.10907,3.5226345,67.10929,68.11925
12,12,6,2,3,2,8.500000e-01,1.0,11.0,--,--,68.15681,2.0,69.82073,1.6639309,7.0,70.67406,71.67904,3.5222366,71.67918,73.68594
13,13,6,2,3,2,1.700000e+00,1.0,12.0,--,--,73.7286,1.0,74.12058,0.3919797,3.0,76.24534,77.25097,3.5223653,77.251114,79.25239
14,14,6,2,3,4,8.500000e-01,1.0,13.0,--,--,79.292946,2.0,80.15353,0.8605738,7.0,81.80943,82.81271,3.5197678,82.81286,86.81906
15,15,9,3,3,4,2.550000e+00,1.0,14.0,--,--,86.82559,1.0,87.23631,0.4107219,4.0,89.34296,90.3464,3.5208073,90.346535,94.35221
16,16,1,1,1,3,8.500000e-01,1.0,15.0,--,--,94.35665,2.0,95.23768,0.8810323,3.0,96.87202,97.87632,3.5196679,97.87644,100.88549
17,17,7,3,1,3,2.550000e+00,1.0,16.0,--,--,100.891815,2.0,101.36919,0.4773713,2.0,103.40883,104.41186,3.5200455,104.412,107.41862
18,18,9,3,3,3,8.500000e-01,1.0,17.0,--,--,107.42199,2.0,107.86944,0.4474445,6.0,109.93966,110.94469,3.5226958,110.944824,113.951904
19,19,6,2,3,2,1.700000e+00,1.0,18.0,--,--,114.00009,2.0,114.40296,0.4028656,7.0,116.51715,117.52227,3.5221744,117.522385,119.53547
20,20,5,2,2,3,2.550000e+00,1.0,19.0,--,--,119.5809,2.0,119.987305,0.4064021,5.0,122.096954,123.10119,3.5202847,123.101326,126.10186
21,21,1,1,1,2,8.500000e-01,1.0,20.0,--,--,126.10609,2.0,126.535614,0.429525,1.0,128.6233,129.62799,3.5218964,129.62811,131.63535
22,22,7,3,1,2,8.500000e-01,1.0,21.0,--,--,131.6391,2.0,133.61888,1.979783,3.0,134.15717,135.16139,3.5222938,135.16151,137.16905
23,23,9,3,3,1,2.550000e+00,1.0,22.0,--,--,137.17099,2.0,138.13577,0.9647831,8.0,139.68788,140.6925,3.5215156,140.69264,141.7017
24,24,7,3,1,4,2.550000e+00,1.0,23.0,--,--,141.70451,2.0,142.15273,0.448214,3.0,144.22105,145.22693,3.5224164,145.22708,149.23477
25,25,1,1,1,1,8.500000e-01,1.0,24.0,--,--,149.24203,1.0,149.65218,0.4101391,9.0,151.75803,152.763,3.5209703,152.76315,153.76814
26,26,3,1,3,2,1.700000e+00,1.0,25.0,--,--,153.77043,2.0,154.17004,0.3996125,6.0,156.2867,157.29216,3.521728,157.2923,159.30153
27,27,1,1,1,3,8.500000e-01,1.0,26.0,--,--,159.3045,2.0,159.7525,0.4480006,1.0,161.82108,162.82619,3.5216868,162.82632,165.83464
28,28,8,3,2,4,1.700000e+00,1.0,27.0,--,--,165.8382,2.0,166.33502,0.4968294,5.0,168.35556,169.36037,3.5221677,169.36052,173.3681
29,29,6,2,3,3,1.700000e+00,1.0,28.0,--,--,173.41316,2.0,173.76901,0.3558415,6.0,175.92973,176.93335,3.520187,176.9335,179.93445
30,30,2,1,2,1,8.500000e-01,1.0,29.0,--,--,179.93893,2.0,180.4349,0.4959778,5.0,182.45721,183.46257,3.5236416,183.4627,184.46776
31,31,1,1,1,4,2.550000e+00,1.0,30.0,--,--,184.47215,2.0,185.31816,0.8460058,1.0,186.98921,187.99448,3.5223227,187.99461,192.00096
32,32,8,3,2,4,1.700000e+00,1.0,31.0,--,--,192.00613,2.0,192.5182,0.5120714,5.0,194.52277,195.52759,3.521453,195.52773,199.53435
33,33,7,3,1,3,8.500000e-01,1.0,32.0,--,--,199.53688,2.0,200.13568,0.5988077,2.0,202.05362,203.05803,3.5211513,203.05815,206.06755
34,34,3,1,3,4,8.500000e-01,1.0,33.0,--,--,206.07562,2.0,206.68457,0.6089489,7.0,208.59348,209.59845,3.5228343,209.59859,213.60063
35,35,6,2,3,2,1.700000e+00,1.0,34.0,--,--,213.64734,1.0,214.21794,0.5705957,2.0,216.16464,217.16875,3.5214088,217.16893,219.18433
36,36,1,1,1,2,8.500000e-01,1.0,35.0,--,--,219.18979,2.0,219.6013,0.4115115,3.0,221.70683,222.71214,3.522357,222.71228,224.71748
37,37,7,3,1,3,1.700000e+00,1.0,36.0,--,--,224.72166,1.0,225.31747,0.5958098,6.0,227.24008,228.24393,3.5222578,228.2441,231.25047
38,38,3,1,3,1,1.700000e+00,1.0,37.0,--,--,231.25447,2.0,231.73419,0.4797168,9.0,233.77214,234.77625,3.5217624,234.77641,235.78375
39,39,9,3,3,3,2.550000e+00,1.0,38.0,--,--,235.78752,1.0,236.30064,0.5131095,3.0,238.30457,239.30879,3.5212586,239.30893,242.31703
40,40,1,1,1,3,1.700000e+00,1.0,39.0,--,--,242.32506,2.0,242.75064,0.4255708,1.0,244.84291,245.84738,3.5223176,245.8475,248.85028
41,41,9,3,3,4,2.550000e+00,1.0,40.0,--,--,248.85313,2.0,249.33424,0.4811216,9.0,251.36996,252.37445,3.5213213,252.37457,256.38364
42,42,6,2,3,2,8.500000e-01,1.0,41.0,--,--,256.43567,2.0,257.1007,0.6650382,7.0,258.9523,259.956,3.5203238,259.95612,261.96695
43,43,6,2,3,3,1.700000e+00,1.0,42.0,--,--,262.02032,2.0,263.00208,0.9817512,8.0,264.53586,265.5403,3.5199919,265.54044,268.55
44,44,9,3,3,2,1.700000e+00,1.0,43.0,--,--,268.55304,2.0,269.4838,0.930778,9.0,271.071,272.07462,3.521593,272.07477,274.0834
45,45,4,2,1,3,8.500000e-01,1.0,44.0,--,--,274.1241,2.0,274.55115,0.4270443,2.0,276.64096,277.6452,3.5211005,277.64532,280.65005
46,46,3,1,3,2,2.550000e+00,1.0,45.0,--,--,280.6541,2.0,281.13397,0.4798518,7.0,283.1715,284.17575,3.5216372,284.1759,286.18307
47,47,4,2,1,1,1.700000e+00,1.0,46.0,--,--,286.22382,1.0,286.7349,0.5110732,9.0,288.73962,289.74332,3.5194838,289.74347,290.74988
48,48,6,2,3,4,8.500000e-01,1.0,47.0,--,--,290.7886,2.0,291.35016,0.5615436,7.0,293.30585,294.3096,3.521005,294.30975,298.31662
49,49,4,2,1,3,2.550000e+00,1.0,48.0,--,--,298.3634,2.0,300.00085,1.6374558,1.0,300.88043,301.8852,3.5217874,301.8853,304.8997
