onset	duration	trial_type	rt	resp	gender	image_left	image_right
0.5963554000481963	3.0010868998942897	decision	2.2830949999624863	right	D	DD017.jpg	DD018.jpg
4.146326299989596	1.0165883000008762	loss	n/a	n/a	n/a	DD017.jpg	DD018.jpg
11.096638399991207	3.00115080003161	decision	1.7831341000273824	left	D	DD035.jpg	DD036.jpg
14.646217899979092	1.0000712000764906	win	n/a	n/a	n/a	DD035.jpg	DD036.jpg
21.562924499972723	3.0019252999918535	decision	2.032603800063953	left	D	DD021.jpg	DD022.jpg
25.112912700045854	1.0000268999719992	loss	n/a	n/a	n/a	DD021.jpg	DD022.jpg
32.029559800052084	3.001164999906905	decision	2.7831721999682486	right	S	SD025.jpg	SD026.jpg
35.57977239997126	1.0162457000697032	loss	n/a	n/a	n/a	SD025.jpg	SD026.jpg
38.31312379997689	3.0010379999876022	decision	2.532417600043118	right	S	SD027.jpg	SD028.jpg
41.862844399991445	1.0000665000407025	loss	n/a	n/a	n/a	SD027.jpg	SD028.jpg
44.57954039995093	3.000701400102116	decision	2.283089300035499	left	S	SD023.jpg	SD024.jpg
48.12950739997905	1.0166116000618786	win	n/a	n/a	n/a	SD023.jpg	SD024.jpg
50.86290189996362	3.002408600063063	decision	2.7999831000342965	right	D	DD037.jpg	DD038.jpg
54.412880299962126	1.0166043000062928	win	n/a	n/a	n/a	DD037.jpg	DD038.jpg
59.26289100002032	3.0012876000255346	decision	2.532696299953386	right	S	SD011.jpg	SD012.jpg
62.812885600025766	1.0165832999628037	loss	n/a	n/a	n/a	SD011.jpg	SD012.jpg
67.64612649998162	3.0016900000628084	decision	2.2828777000540867	right	D	DD009.jpg	DD010.jpg
71.19612540001981	1.0000684999395162	win	n/a	n/a	n/a	DD009.jpg	DD010.jpg
73.9129218000453	3.0002681999467313	decision	2.032484499970451	left	D	DD027.jpg	DD028.jpg
77.46286720002536	1.0166265999432653	win	n/a	n/a	n/a	DD027.jpg	DD028.jpg
82.31291970005259	3.0008687999797985	decision	2.282320600003004	right	D	DD015.jpg	DD016.jpg
85.86284560000058	1.0002970000496134	loss	n/a	n/a	n/a	DD015.jpg	DD016.jpg
92.77952920005191	3.0019541999790817	decision	2.0333785999100655	right	S	SD029.jpg	SD030.jpg
96.32947740005329	1.0166563999373466	loss	n/a	n/a	n/a	SD029.jpg	SD030.jpg
101.16276530001778	3.0014011999592185	decision	2.2827021999983117	right	S	SD015.jpg	SD016.jpg
104.71322969999164	1.016234299982898	win	n/a	n/a	n/a	SD015.jpg	SD016.jpg
111.64603760000318	3.0013647000305355	decision	2.532703800010495	left	S	SD007.jpg	SD008.jpg
115.1964170000283	1.0162763999542221	win	n/a	n/a	n/a	SD007.jpg	SD008.jpg
120.02951939997729	3.001210100017488	decision	2.2823990000179037	left	S	SD017.jpg	SD018.jpg
123.57944999996107	1.0166241000406444	win	n/a	n/a	n/a	SD017.jpg	SD018.jpg
126.31286259996705	3.0016590000595897	decision	2.2829239000566304	right	D	DD033.jpg	DD034.jpg
129.86282789998222	1.0000940000172704	win	n/a	n/a	n/a	DD033.jpg	DD034.jpg
132.59614070004318	3.0016627999721095	decision	2.283352099941112	left	D	DD007.jpg	DD008.jpg
136.1460765999509	1.0165751000167802	loss	n/a	n/a	n/a	DD007.jpg	DD008.jpg
138.87944319995586	3.001367700053379	decision	2.0337872999953106	right	D	DD023.jpg	DD024.jpg
142.42935720004607	1.0000257999636233	loss	n/a	n/a	n/a	DD023.jpg	DD024.jpg
155.66268019995186	3.0008390001021326	decision	1.7831443001050502	right	S	SD009.jpg	SD010.jpg
159.21275209996384	1.016632299986668	loss	n/a	n/a	n/a	SD009.jpg	SD010.jpg
164.04632890003268	3.000692799920216	decision	2.7833885999862105	right	D	DD001.jpg	DD002.jpg
167.59619119996205	1.0162264000391588	win	n/a	n/a	n/a	DD001.jpg	DD002.jpg
170.3626474000048	3.001153599936515	decision	2.0335335000418127	right	S	SD019.jpg	SD020.jpg
173.91257369995583	1.0167405999964103	loss	n/a	n/a	n/a	SD019.jpg	SD020.jpg
180.86284079996403	3.001059400034137	decision	1.7833100000862032	right	D	DD031.jpg	DD032.jpg
184.412452199962	1.000099000055343	loss	n/a	n/a	n/a	DD031.jpg	DD032.jpg
189.22933430003468	3.0009773999918252	decision	2.5344002000056207	left	S	SD005.jpg	SD006.jpg
192.77929410000797	1.0002489000326023	win	n/a	n/a	n/a	SD005.jpg	SD006.jpg
195.52968250005506	3.000766299897805	decision	2.2830093998927623	left	D	DD019.jpg	DD020.jpg
199.07927210000344	1.0165781000396237	win	n/a	n/a	n/a	DD019.jpg	DD020.jpg
206.0128226999659	3.00186840002425	decision	2.533698200015351	right	S	SD013.jpg	SD014.jpg
209.56252010003664	1.0166770999785513	loss	n/a	n/a	n/a	SD013.jpg	SD014.jpg
216.49591249995865	3.0015485000330955	decision	2.0328135000308976	left	S	SD031.jpg	SD032.jpg
220.0457596000051	1.000122099998407	loss	n/a	n/a	n/a	SD031.jpg	SD032.jpg
224.86258900002576	3.00122889992781	decision	2.033045999938622	left	D	DD039.jpg	DD040.jpg
228.41250330000184	1.0166074000298977	loss	n/a	n/a	n/a	DD039.jpg	DD040.jpg
231.16257279994898	3.0012580000329763	decision	2.533323400071822	left	D	DD005.jpg	DD006.jpg
234.71250170003623	1.0166269999463111	loss	n/a	n/a	n/a	DD005.jpg	DD006.jpg
241.6458918999415	3.0010168000590056	decision	2.0325521000195295	right	S	SD037.jpg	SD038.jpg
245.1958196000196	1.0166639999952167	loss	n/a	n/a	n/a	SD037.jpg	SD038.jpg
247.92924049997237	3.0010630000615492	decision	2.0324738000053912	right	S	SD039.jpg	SD040.jpg
251.479444699944	1.0162744000554085	win	n/a	n/a	n/a	SD039.jpg	SD040.jpg
254.21255359996576	3.001257500029169	decision	2.032534600002691	left	S	SD033.jpg	SD034.jpg
257.7624918000074	1.0166413999395445	loss	n/a	n/a	n/a	SD033.jpg	SD034.jpg
260.4958281000145	3.0009365000296384	decision	2.033338899957016	right	D	DD013.jpg	DD014.jpg
264.0457188000437	1.016706799971871	win	n/a	n/a	n/a	DD013.jpg	DD014.jpg
268.879089999944	3.001741500105709	decision	2.0326451000291854	left	S	SD001.jpg	SD002.jpg
272.4290563999675	1.0000417000846937	win	n/a	n/a	n/a	SD001.jpg	SD002.jpg
275.14582730003167	3.0016484999796376	decision	1.782978200004436	left	D	DD003.jpg	DD004.jpg
278.6956312999828	1.0000216000480577	win	n/a	n/a	n/a	DD003.jpg	DD004.jpg
283.51230019994546	3.0009893000824377	decision	2.28248750010971	left	S	SD003.jpg	SD004.jpg
287.06242410000414	1.0166047000093386	win	n/a	n/a	n/a	SD003.jpg	SD004.jpg
293.9961030000122	3.049285199958831	decision	3.0487767999293283	right	D	DD025.jpg	DD026.jpg
297.59567740000784	1.016628099954687	win	n/a	n/a	n/a	DD025.jpg	DD026.jpg
304.5456875000382	3.0011285999789834	decision	2.533184799947776	right	S	SD035.jpg	SD036.jpg
308.09560080000665	1.0001632999628782	win	n/a	n/a	n/a	SD035.jpg	SD036.jpg
310.81233430001885	3.000878599938005	decision	2.7993111999239773	left	D	DD011.jpg	DD012.jpg
314.3623559999978	1.016566399950534	loss	n/a	n/a	n/a	DD011.jpg	DD012.jpg
317.09564710000996	3.0009714999468997	decision	2.033244299935177	left	S	SD021.jpg	SD022.jpg
320.6455657000188	1.0001406000228599	win	n/a	n/a	n/a	SD021.jpg	SD022.jpg
325.46229669998866	3.034682900062762	decision	3.0341774000553414	left	D	DD029.jpg	DD030.jpg
329.045537399943	1.0000037000281736	loss	n/a	n/a	n/a	DD029.jpg	DD030.jpg
