instrText,stimDoor,stimDoorLure,stimFace,stimFaceLure,Instructions.thisRepN,Instructions.thisTrialN,Instructions.thisN,Instructions.thisIndex,Trials.thisRepN,Trials.thisTrialN,Trials.thisN,Trials.thisIndex,Func,Keys,Text,RespTime,Onset,Offset,SystemTime_Start,SystemTime_Stop,Stim,Lure,Participant*,Age,date,expName,psychopyVersion,frameRate,
"In the earlier Feedback Games, you chose which doors contained a prize, and which peers liked you. 

You then saw positive or negative feedback (green check mark or red X) from the door or peer you selected.

You will now see a series of doors and peers, some of which you saw during the earlier Feedback Games, and some that you have never seen before.

Please press the spacebar to continue.",,,,,0,0,0,0,,,,,instrFunc,space,"In the earlier Feedback Games, you chose which doors contained a prize, and which peers liked you. 

You then saw positive or negative feedback (green check mark or red X) from the door or peer you selected.

You will now see a series of doors and peers, some of which you saw during the earlier Feedback Games, and some that you have never seen before.

Please press the spacebar to continue.",14.622620000038296,82.68932679994032,97.38128671003506,2023-06-26 15:20:48.711629,2023-06-26 15:21:03.389192,,,10723,18-29,2023-06-26_15h20.45.096,Recall,2021.2.3,59.9055648458938,
"For doors/peers that you remember selecting and getting feedback from, your job is to RECALL what feedback you received. 

Press '1' if you recall positive feedback. 

Press '2' if you recall negative feedback

Press the spacebar to continue.",,,,,0,1,1,1,,,,,instrFunc,space,"For doors/peers that you remember selecting and getting feedback from, your job is to RECALL what feedback you received. 

Press '1' if you recall positive feedback. 

Press '2' if you recall negative feedback

Press the spacebar to continue.",11.098409600090235,97.34966789977625,108.50483741005883,2023-06-26 15:21:03.390189,2023-06-26 15:21:14.530094,,,10723,18-29,2023-06-26_15h20.45.096,Recall,2021.2.3,59.9055648458938,
"For doors/peers that you don't remember getting feedback from, your job is to PREDICT what feedback you WOULD HAVE received.

Press '9' if you predict positive feedback.

Press '0' if you predict negative feedback. 

Please press the spacebar to continue.",,,,,0,2,2,2,,,,,instrFunc,space,"For doors/peers that you don't remember getting feedback from, your job is to PREDICT what feedback you WOULD HAVE received.

Press '9' if you predict positive feedback.

Press '0' if you predict negative feedback. 

Please press the spacebar to continue.",44.39653669996187,108.49148879991844,152.93773970985785,2023-06-26 15:21:14.531094,2023-06-26 15:21:58.962682,,,10723,18-29,2023-06-26_15h20.45.096,Recall,2021.2.3,59.9055648458938,
"This task is self-paced, and the prompts will always stay on the screen so that you know which buttons to press.

On the next screen we will show you what those prompts look like, so that you know exactly what to expect. 

You will start with either doors or peers, and then switch halfway through. 

Please press the spacebar to continue.",,,,,0,3,3,3,,,,,instrFunc,space,"This task is self-paced, and the prompts will always stay on the screen so that you know which buttons to press.

On the next screen we will show you what those prompts look like, so that you know exactly what to expect. 

You will start with either doors or peers, and then switch halfway through. 

Please press the spacebar to continue.",9.11961179994978,152.92029979988,162.09140661009587,2023-06-26 15:21:58.963682,2023-06-26 15:22:08.119744,,,10723,18-29,2023-06-26_15h20.45.096,Recall,2021.2.3,59.9055648458938,
,,,,,,,,,,,,,imgtextFunc,space,"Here is what the screen will look like while you make your ratings.
The green circles remind you to press 1 or 9 for positive feedback.
The red circles remind you to press 2 or 0 for negative feedback.









Please let the experimenter know if you have any questions.

Whenever you're ready, press the spacebar to start the task.",12.384689200203866,162.2310448999051,174.80231460975483,2023-06-26 15:22:08.130525,2023-06-26 15:22:20.695912,,,10723,18-29,2023-06-26_15h20.45.096,Recall,2021.2.3,59.9055648458938,
,SD030.jpg,0,MF030.jpg,0,,,,,0,0,0,79,imgFunc,2,NA,10.353597000008449,174.78215779992752,185.2787753297016,2023-06-26 15:22:20.734808,2023-06-26 15:22:31.219998,SD030.jpg,0,10723,18-29,2023-06-26_15h20.45.096,Recall,2021.2.3,59.9055648458938,
,SD004.jpg,0,MF004.jpg,0,,,,,0,1,1,53,imgFunc,0,NA,3.0307140999939293,185.2812952999957,188.44164961017668,2023-06-26 15:22:31.232697,2023-06-26 15:22:34.388918,SD004.jpg,0,10723,18-29,2023-06-26_15h20.45.096,Recall,2021.2.3,59.9055648458938,
,DD007.jpg,0,FF007.jpg,0,,,,,0,2,2,6,imgFunc,1,NA,2.9279283999931067,188.41605889983475,191.44915860984474,2023-06-26 15:22:34.397896,2023-06-26 15:22:37.424247,DD007.jpg,0,10723,18-29,2023-06-26_15h20.45.096,Recall,2021.2.3,59.9055648458938,
,L_SD503.jpg,1,L_MF503.jpg,1,,,,,0,3,3,92,imgFunc,2,NA,3.384471100056544,191.44730139989406,194.92542230989784,2023-06-26 15:22:37.436216,2023-06-26 15:22:40.909713,L_SD503.jpg,1,10723,18-29,2023-06-26_15h20.45.096,Recall,2021.2.3,59.9055648458938,
,L_DD503.jpg,1,L_FF503.jpg,1,,,,,0,4,4,42,imgFunc,9,NA,2.815089700045064,194.92065269988962,197.82419630978256,2023-06-26 15:22:40.917693,2023-06-26 15:22:43.811827,L_DD503.jpg,1,10723,18-29,2023-06-26_15h20.45.096,Recall,2021.2.3,59.9055648458938,
,DD038.jpg,0,FF038.jpg,0,,,,,0,5,5,37,imgFunc,1,NA,4.877586599905044,197.82625139993615,202.79759680991992,2023-06-26 15:22:43.819805,2023-06-26 15:22:48.782081,DD038.jpg,0,10723,18-29,2023-06-26_15h20.45.096,Recall,2021.2.3,59.9055648458938,
,SD008.jpg,0,MF008.jpg,0,,,,,0,6,6,57,imgFunc,2,NA,3.1377531001344323,202.82230549980886,206.07374690985307,2023-06-26 15:22:48.791055,2023-06-26 15:22:52.035549,SD008.jpg,0,10723,18-29,2023-06-26_15h20.45.096,Recall,2021.2.3,59.9055648458938,
,SD018.jpg,0,MF018.jpg,0,,,,,0,7,7,67,imgFunc,0,NA,2.7436049000825733,206.06433500000276,208.90587771008722,2023-06-26 15:22:52.048516,2023-06-26 15:22:54.887197,SD018.jpg,0,10723,18-29,2023-06-26_15h20.45.096,Recall,2021.2.3,59.9055648458938,
,DD027.jpg,0,FF027.jpg,0,,,,,0,8,8,26,imgFunc,1,NA,1.7435945998877287,208.90438849991187,210.7410825099796,2023-06-26 15:22:54.894180,2023-06-26 15:22:56.721934,DD027.jpg,0,10723,18-29,2023-06-26_15h20.45.096,Recall,2021.2.3,59.9055648458938,
,L_SD507.jpg,1,L_MF507.jpg,1,,,,,0,9,9,96,imgFunc,0,NA,4.391723399981856,210.7363901999779,215.22436971007846,2023-06-26 15:22:56.728917,2023-06-26 15:23:01.208312,L_SD507.jpg,1,10723,18-29,2023-06-26_15h20.45.096,Recall,2021.2.3,59.9055648458938,
,SD007.jpg,0,MF007.jpg,0,,,,,0,10,10,56,imgFunc,9,NA,7.469951700186357,215.22618069988675,222.79742451012135,2023-06-26 15:23:01.216318,2023-06-26 15:23:08.780526,SD007.jpg,0,10723,18-29,2023-06-26_15h20.45.096,Recall,2021.2.3,59.9055648458938,
,L_DD508.jpg,1,L_FF508.jpg,1,,,,,0,11,11,47,imgFunc,0,NA,2.8049208000302315,222.82707249978557,225.7610968099907,2023-06-26 15:23:08.789504,2023-06-26 15:23:11.715982,L_DD508.jpg,1,10723,18-29,2023-06-26_15h20.45.096,Recall,2021.2.3,59.9055648458938,
,L_DD501.jpg,1,L_FF501.jpg,1,,,,,0,12,12,40,imgFunc,1,NA,1.8623165001627058,225.74566019978374,227.70092251012102,2023-06-26 15:23:11.730944,2023-06-26 15:23:13.684204,L_DD501.jpg,1,10723,18-29,2023-06-26_15h20.45.096,Recall,2021.2.3,59.9055648458938,
,L_SD508.jpg,1,L_MF508.jpg,1,,,,,0,13,13,97,imgFunc,9,NA,2.3262875999789685,227.69788529979996,230.11677800980397,2023-06-26 15:23:13.692184,2023-06-26 15:23:16.102619,L_SD508.jpg,1,10723,18-29,2023-06-26_15h20.45.096,Recall,2021.2.3,59.9055648458938,
,DD035.jpg,0,FF035.jpg,0,,,,,0,14,14,34,imgFunc,9,NA,6.257826199987903,230.1182704998646,236.47391710989177,2023-06-26 15:23:16.109602,2023-06-26 15:23:22.457107,DD035.jpg,0,10723,18-29,2023-06-26_15h20.45.096,Recall,2021.2.3,59.9055648458938,
,SD009.jpg,0,MF009.jpg,0,,,,,0,15,15,58,imgFunc,2,NA,4.039538400014862,236.50457769981585,240.67199160950258,2023-06-26 15:23:22.466099,2023-06-26 15:23:26.626702,SD009.jpg,0,10723,18-29,2023-06-26_15h20.45.096,Recall,2021.2.3,59.9055648458938,
,SD037.jpg,0,MF037.jpg,0,,,,,0,16,16,86,imgFunc,1,NA,2.385819199960679,240.6542000998743,243.13954291003756,2023-06-26 15:23:26.634704,2023-06-26 15:23:29.112199,SD037.jpg,0,10723,18-29,2023-06-26_15h20.45.096,Recall,2021.2.3,59.9055648458938,
,DD034.jpg,0,FF034.jpg,0,,,,,0,17,17,33,imgFunc,2,NA,4.494655899936333,243.1453327999916,247.7354557099752,2023-06-26 15:23:29.127161,2023-06-26 15:23:33.715480,DD034.jpg,0,10723,18-29,2023-06-26_15h20.45.096,Recall,2021.2.3,59.9055648458938,
,DD029.jpg,0,FF029.jpg,0,,,,,0,18,18,28,imgFunc,9,NA,2.0629601997788996,247.73718609986827,249.90596120990813,2023-06-26 15:23:33.723460,2023-06-26 15:23:35.883238,DD029.jpg,0,10723,18-29,2023-06-26_15h20.45.096,Recall,2021.2.3,59.9055648458938,
,SD017.jpg,0,MF017.jpg,0,,,,,0,19,19,66,imgFunc,0,NA,1.7359003000892699,249.9041195998434,251.73907690960914,2023-06-26 15:23:35.891241,2023-06-26 15:23:37.718095,SD017.jpg,0,10723,18-29,2023-06-26_15h20.45.096,Recall,2021.2.3,59.9055648458938,
,DD040.jpg,0,FF040.jpg,0,,,,,0,20,20,39,imgFunc,2,NA,3.243415799923241,251.73266819980927,255.06998730963096,2023-06-26 15:23:37.725078,2023-06-26 15:23:41.053914,DD040.jpg,0,10723,18-29,2023-06-26_15h20.45.096,Recall,2021.2.3,59.9055648458938,
,L_SD509.jpg,1,L_MF509.jpg,1,,,,,0,21,21,98,imgFunc,1,NA,1.2815789000596851,255.09460660000332,256.49690800975077,2023-06-26 15:23:41.060897,2023-06-26 15:23:42.454882,L_SD509.jpg,1,10723,18-29,2023-06-26_15h20.45.096,Recall,2021.2.3,59.9055648458938,
,DD039.jpg,0,FF039.jpg,0,,,,,0,22,22,38,imgFunc,0,NA,3.140202699927613,256.4679051998537,259.7050503096543,2023-06-26 15:23:42.461865,2023-06-26 15:23:45.690557,DD039.jpg,0,10723,18-29,2023-06-26_15h20.45.096,Recall,2021.2.3,59.9055648458938,
,SD023.jpg,0,MF023.jpg,0,,,,,0,23,23,72,imgFunc,0,NA,2.552388600073755,259.7036076998338,262.3570150099695,2023-06-26 15:23:45.697541,2023-06-26 15:23:48.342442,SD023.jpg,0,10723,18-29,2023-06-26_15h20.45.096,Recall,2021.2.3,59.9055648458938,
,L_DD504.jpg,1,L_FF504.jpg,1,,,,,0,24,24,43,imgFunc,9,NA,1.5851686999667436,262.3671323999297,264.0530193098821,2023-06-26 15:23:48.349425,2023-06-26 15:23:50.027212,L_DD504.jpg,1,10723,18-29,2023-06-26_15h20.45.096,Recall,2021.2.3,59.9055648458938,
,L_DD510.jpg,1,L_FF510.jpg,1,,,,,0,25,25,49,imgFunc,9,NA,1.3939153999090195,264.04615839989856,265.5474193098489,2023-06-26 15:23:50.035192,2023-06-26 15:23:51.527954,L_DD510.jpg,1,10723,18-29,2023-06-26_15h20.45.096,Recall,2021.2.3,59.9055648458938,
,L_SD504.jpg,1,L_MF504.jpg,1,,,,,0,26,26,93,imgFunc,2,NA,2.2408809999469668,265.55925229983404,267.9005855098367,2023-06-26 15:23:51.540920,2023-06-26 15:23:53.879906,L_SD504.jpg,1,10723,18-29,2023-06-26_15h20.45.096,Recall,2021.2.3,59.9055648458938,
,SD014.jpg,0,MF014.jpg,0,,,,,0,27,27,63,imgFunc,0,NA,1.736385199939832,267.89571449998766,269.73224621010013,2023-06-26 15:23:53.886889,2023-06-26 15:23:55.714397,SD014.jpg,0,10723,18-29,2023-06-26_15h20.45.096,Recall,2021.2.3,59.9055648458938,
,DD009.jpg,0,FF009.jpg,0,,,,,0,28,28,8,imgFunc,2,NA,2.194900200003758,269.73319069994614,272.0363244100008,2023-06-26 15:23:55.721405,2023-06-26 15:23:58.016125,DD009.jpg,0,10723,18-29,2023-06-26_15h20.45.096,Recall,2021.2.3,59.9055648458938,
,L_SD506.jpg,1,L_MF506.jpg,1,,,,,0,29,29,95,imgFunc,0,NA,2.990013499977067,272.0420727999881,275.14553691027686,2023-06-26 15:23:58.023131,2023-06-26 15:24:01.118382,L_SD506.jpg,1,10723,18-29,2023-06-26_15h20.45.096,Recall,2021.2.3,59.9055648458938,
,DD037.jpg,0,FF037.jpg,0,,,,,0,30,30,36,imgFunc,2,NA,1.4930384999606758,275.1386648998596,276.7417732097674,2023-06-26 15:24:01.125365,2023-06-26 15:24:02.719616,DD037.jpg,0,10723,18-29,2023-06-26_15h20.45.096,Recall,2021.2.3,59.9055648458938,
,SD029.jpg,0,MF029.jpg,0,,,,,0,31,31,78,imgFunc,0,NA,1.6820634000469,276.7499740999192,278.5213196100667,2023-06-26 15:24:02.734578,2023-06-26 15:24:04.504474,SD029.jpg,0,10723,18-29,2023-06-26_15h20.45.096,Recall,2021.2.3,59.9055648458938,
,SD025.jpg,0,MF025.jpg,0,,,,,0,32,32,74,imgFunc,0,NA,1.2681283000856638,278.5157684998121,279.8850443097763,2023-06-26 15:24:04.511457,2023-06-26 15:24:05.871837,SD025.jpg,0,10723,18-29,2023-06-26_15h20.45.096,Recall,2021.2.3,59.9055648458938,
,SD020.jpg,0,MF020.jpg,0,,,,,0,33,33,69,imgFunc,9,NA,1.7640235999133438,279.89991389983334,281.76975111011416,2023-06-26 15:24:05.878820,2023-06-26 15:24:07.739969,SD020.jpg,0,10723,18-29,2023-06-26_15h20.45.096,Recall,2021.2.3,59.9055648458938,
,SD038.jpg,0,MF038.jpg,0,,,,,0,34,34,87,imgFunc,2,NA,1.7331958999857306,281.75479479995556,283.5909689099062,2023-06-26 15:24:07.746952,2023-06-26 15:24:09.574621,SD038.jpg,0,10723,18-29,2023-06-26_15h20.45.096,Recall,2021.2.3,59.9055648458938,
,SD013.jpg,0,MF013.jpg,0,,,,,0,35,35,62,imgFunc,0,NA,1.8264271998777986,283.58949709986337,285.50931500969455,2023-06-26 15:24:09.581604,2023-06-26 15:24:11.492686,SD013.jpg,0,10723,18-29,2023-06-26_15h20.45.096,Recall,2021.2.3,59.9055648458938,
,DD026.jpg,0,FF026.jpg,0,,,,,0,36,36,25,imgFunc,0,NA,2.008721400052309,285.5033987998031,287.60621750960127,2023-06-26 15:24:11.499669,2023-06-26 15:24:13.594103,DD026.jpg,0,10723,18-29,2023-06-26_15h20.45.096,Recall,2021.2.3,59.9055648458938,
,DD020.jpg,0,FF020.jpg,0,,,,,0,37,37,19,imgFunc,1,NA,1.3428154001012444,287.6090077999979,289.04519880982116,2023-06-26 15:24:13.601087,2023-06-26 15:24:15.028568,DD020.jpg,0,10723,18-29,2023-06-26_15h20.45.096,Recall,2021.2.3,59.9055648458938,
,SD019.jpg,0,MF019.jpg,0,,,,,0,38,38,68,imgFunc,2,NA,1.5107625999953598,289.04139399994165,290.6439639101736,2023-06-26 15:24:15.035551,2023-06-26 15:24:16.629354,SD019.jpg,0,10723,18-29,2023-06-26_15h20.45.096,Recall,2021.2.3,59.9055648458938,
,SD021.jpg,0,MF021.jpg,0,,,,,0,39,39,70,imgFunc,0,NA,1.3933820999227464,290.6466017998755,292.1329774095211,2023-06-26 15:24:16.636338,2023-06-26 15:24:18.114131,SD021.jpg,0,10723,18-29,2023-06-26_15h20.45.096,Recall,2021.2.3,59.9055648458938,
,DD010.jpg,0,FF010.jpg,0,,,,,0,40,40,9,imgFunc,0,NA,2.395411000121385,292.14067559991963,294.6327273098286,2023-06-26 15:24:18.127098,2023-06-26 15:24:20.615813,DD010.jpg,0,10723,18-29,2023-06-26_15h20.45.096,Recall,2021.2.3,59.9055648458938,
,SD040.jpg,0,MF040.jpg,0,,,,,0,41,41,89,imgFunc,0,NA,8.26857960014604,294.6275313999504,302.9842109098099,2023-06-26 15:24:20.623794,2023-06-26 15:24:28.971931,SD040.jpg,0,10723,18-29,2023-06-26_15h20.45.096,Recall,2021.2.3,59.9055648458938,
,L_DD506.jpg,1,L_FF506.jpg,1,,,,,0,42,42,45,imgFunc,1,NA,2.7619149000383914,303.00606439984404,305.87241020961665,2023-06-26 15:24:28.981519,2023-06-26 15:24:31.840485,L_DD506.jpg,1,10723,18-29,2023-06-26_15h20.45.096,Recall,2021.2.3,59.9055648458938,
,DD028.jpg,0,FF028.jpg,0,,,,,0,43,43,27,imgFunc,1,NA,2.7697193000931293,305.8704450998921,308.75521801016293,2023-06-26 15:24:31.848466,2023-06-26 15:24:34.726016,DD028.jpg,0,10723,18-29,2023-06-26_15h20.45.096,Recall,2021.2.3,59.9055648458938,
,L_SD502.jpg,1,L_MF502.jpg,1,,,,,0,44,44,91,imgFunc,9,NA,2.768425599904731,308.74354929989204,311.614051009994,2023-06-26 15:24:34.732999,2023-06-26 15:24:37.594710,L_SD502.jpg,1,10723,18-29,2023-06-26_15h20.45.096,Recall,2021.2.3,59.9055648458938,
,DD015.jpg,0,FF015.jpg,0,,,,,0,45,45,14,imgFunc,2,NA,3.832119399914518,311.61603579996154,315.5390276098624,2023-06-26 15:24:37.609533,2023-06-26 15:24:41.530908,DD015.jpg,0,10723,18-29,2023-06-26_15h20.45.096,Recall,2021.2.3,59.9055648458938,
,SD003.jpg,0,MF003.jpg,0,,,,,0,46,46,52,imgFunc,1,NA,1.6578413001261652,315.5421718999278,317.2953259097412,2023-06-26 15:24:41.537892,2023-06-26 15:24:43.282356,SD003.jpg,0,10723,18-29,2023-06-26_15h20.45.096,Recall,2021.2.3,59.9055648458938,
,L_SD510.jpg,1,L_MF510.jpg,1,,,,,0,47,47,99,imgFunc,9,NA,4.518073600018397,317.297986399848,321.9195981095545,2023-06-26 15:24:43.289339,2023-06-26 15:24:47.902273,L_SD510.jpg,1,10723,18-29,2023-06-26_15h20.45.096,Recall,2021.2.3,59.9055648458938,
,SD024.jpg,0,MF024.jpg,0,,,,,0,48,48,73,imgFunc,1,NA,7.869674499845132,321.9384732998442,329.922505909577,2023-06-26 15:24:47.913246,2023-06-26 15:24:55.891254,SD024.jpg,0,10723,18-29,2023-06-26_15h20.45.096,Recall,2021.2.3,59.9055648458938,
,SD027.jpg,0,MF027.jpg,0,,,,,0,49,49,76,imgFunc,2,NA,2.303125100210309,329.93679839977995,332.3693383100908,2023-06-26 15:24:55.900257,2023-06-26 15:24:58.326439,SD027.jpg,0,10723,18-29,2023-06-26_15h20.45.096,Recall,2021.2.3,59.9055648458938,
,DD012.jpg,0,FF012.jpg,0,,,,,0,50,50,11,imgFunc,2,NA,2.354649299988523,332.34931839979254,334.7889961095061,2023-06-26 15:24:58.340404,2023-06-26 15:25:00.778316,DD012.jpg,0,10723,18-29,2023-06-26_15h20.45.096,Recall,2021.2.3,59.9055648458938,
,DD030.jpg,0,FF030.jpg,0,,,,,0,51,51,29,imgFunc,2,NA,1.7943964002188295,334.7897038999945,336.67582341004163,2023-06-26 15:25:00.785299,2023-06-26 15:25:02.662904,DD030.jpg,0,10723,18-29,2023-06-26_15h20.45.096,Recall,2021.2.3,59.9055648458938,
,L_DD502.jpg,1,L_FF502.jpg,1,,,,,0,52,52,41,imgFunc,2,NA,1.6338594001717865,336.6782077997923,338.41451830998994,2023-06-26 15:25:02.669887,2023-06-26 15:25:04.397554,L_DD502.jpg,1,10723,18-29,2023-06-26_15h20.45.096,Recall,2021.2.3,59.9055648458938,
,DD005.jpg,0,FF005.jpg,0,,,,,0,53,53,4,imgFunc,0,NA,2.8069931999780238,338.4169824998826,341.32093911012635,2023-06-26 15:25:04.404537,2023-06-26 15:25:07.299753,DD005.jpg,0,10723,18-29,2023-06-26_15h20.45.096,Recall,2021.2.3,59.9055648458938,
,SD034.jpg,0,MF034.jpg,0,,,,,0,54,54,83,imgFunc,2,NA,2.0535962998401374,341.3145320999902,343.4671743097715,2023-06-26 15:25:07.306735,2023-06-26 15:25:09.451128,SD034.jpg,0,10723,18-29,2023-06-26_15h20.45.096,Recall,2021.2.3,59.9055648458938,
,L_DD509.jpg,1,L_FF509.jpg,1,,,,,0,55,55,48,imgFunc,1,NA,2.264677600003779,343.4632214999292,345.81687030987814,2023-06-26 15:25:09.458111,2023-06-26 15:25:11.802978,L_DD509.jpg,1,10723,18-29,2023-06-26_15h20.45.096,Recall,2021.2.3,59.9055648458938,
,DD016.jpg,0,FF016.jpg,0,,,,,0,56,56,15,imgFunc,0,NA,3.8354495000094175,345.8285340999719,349.76592201017775,2023-06-26 15:25:11.809962,2023-06-26 15:25:15.739223,DD016.jpg,0,10723,18-29,2023-06-26_15h20.45.096,Recall,2021.2.3,59.9055648458938,
,SD033.jpg,0,MF033.jpg,0,,,,,0,57,57,82,imgFunc,2,NA,2.0248666999395937,349.7512221999932,351.87065790989436,2023-06-26 15:25:15.746206,2023-06-26 15:25:17.857116,SD033.jpg,0,10723,18-29,2023-06-26_15h20.45.096,Recall,2021.2.3,59.9055648458938,
,L_DD507.jpg,1,L_FF507.jpg,1,,,,,0,58,58,46,imgFunc,9,NA,1.6648530999664217,351.8871817998588,353.657018810045,2023-06-26 15:25:17.864099,2023-06-26 15:25:19.625359,L_DD507.jpg,1,10723,18-29,2023-06-26_15h20.45.096,Recall,2021.2.3,59.9055648458938,
,DD008.jpg,0,FF008.jpg,0,,,,,0,59,59,7,imgFunc,0,NA,2.2352872998453677,353.66084689996205,356.00154751027003,2023-06-26 15:25:19.638326,2023-06-26 15:25:21.976867,DD008.jpg,0,10723,18-29,2023-06-26_15h20.45.096,Recall,2021.2.3,59.9055648458938,
,SD002.jpg,0,MF002.jpg,0,,,,,0,60,60,51,imgFunc,9,NA,2.0962602000217885,356.00772949983366,358.20994570991024,2023-06-26 15:25:21.984848,2023-06-26 15:25:24.178543,SD002.jpg,0,10723,18-29,2023-06-26_15h20.45.096,Recall,2021.2.3,59.9055648458938,
,SD032.jpg,0,MF032.jpg,0,,,,,0,61,61,81,imgFunc,9,NA,1.8588209000881761,358.2052953999955,360.1741754100658,2023-06-26 15:25:24.186568,2023-06-26 15:25:26.146587,SD032.jpg,0,10723,18-29,2023-06-26_15h20.45.096,Recall,2021.2.3,59.9055648458938,
,DD002.jpg,0,FF002.jpg,0,,,,,0,62,62,1,imgFunc,1,NA,2.475846800021827,360.1641182999592,362.73271191027015,2023-06-26 15:25:26.154567,2023-06-26 15:25:28.715267,DD002.jpg,0,10723,18-29,2023-06-26_15h20.45.096,Recall,2021.2.3,59.9055648458938,
,SD001.jpg,0,MF001.jpg,0,,,,,0,63,63,50,imgFunc,0,NA,2.9132759000640363,362.7348677997943,365.75367230991833,2023-06-26 15:25:28.723247,2023-06-26 15:25:31.734076,SD001.jpg,0,10723,18-29,2023-06-26_15h20.45.096,Recall,2021.2.3,59.9055648458938,
,DD031.jpg,0,FF031.jpg,0,,,,,0,64,64,30,imgFunc,0,NA,2.949373399838805,365.7547457998153,368.79432020988315,2023-06-26 15:25:31.748041,2023-06-26 15:25:34.786167,DD031.jpg,0,10723,18-29,2023-06-26_15h20.45.096,Recall,2021.2.3,59.9055648458938,
,DD024.jpg,0,FF024.jpg,0,,,,,0,65,65,23,imgFunc,1,NA,2.6074063000269234,368.8006926998496,371.50437271012925,2023-06-26 15:25:34.793150,2023-06-26 15:25:37.488194,DD024.jpg,0,10723,18-29,2023-06-26_15h20.45.096,Recall,2021.2.3,59.9055648458938,
,DD023.jpg,0,FF023.jpg,0,,,,,0,66,66,22,imgFunc,1,NA,10.452343600103632,371.49975759978406,382.0424482098315,2023-06-26 15:25:37.495177,2023-06-26 15:25:48.029249,DD023.jpg,0,10723,18-29,2023-06-26_15h20.45.096,Recall,2021.2.3,59.9055648458938,
,SD016.jpg,0,MF016.jpg,0,,,,,0,67,67,65,imgFunc,9,NA,2.578680400038138,382.0773666999303,384.77604931010865,2023-06-26 15:25:48.039248,2023-06-26 15:25:50.731252,SD016.jpg,0,10723,18-29,2023-06-26_15h20.45.096,Recall,2021.2.3,59.9055648458938,
,DD025.jpg,0,FF025.jpg,0,,,,,0,68,68,24,imgFunc,2,NA,1.5266130999661982,384.7534675998613,386.3892199099064,2023-06-26 15:25:50.738235,2023-06-26 15:25:52.365524,DD025.jpg,0,10723,18-29,2023-06-26_15h20.45.096,Recall,2021.2.3,59.9055648458938,
,SD012.jpg,0,MF012.jpg,0,,,,,0,69,69,61,imgFunc,9,NA,2.136291499948129,386.3838760999497,388.6067039100453,2023-06-26 15:25:52.379489,2023-06-26 15:25:54.600440,SD012.jpg,0,10723,18-29,2023-06-26_15h20.45.096,Recall,2021.2.3,59.9055648458938,
,SD006.jpg,0,MF006.jpg,0,,,,,0,70,70,55,imgFunc,0,NA,2.66012949985452,388.60386929987,391.3576735102106,2023-06-26 15:25:54.607423,2023-06-26 15:25:57.352414,SD006.jpg,0,10723,18-29,2023-06-26_15h20.45.096,Recall,2021.2.3,59.9055648458938,
,DD013.jpg,0,FF013.jpg,0,,,,,0,71,71,12,imgFunc,0,NA,5.451876200037077,391.36393299978226,396.90241910959594,2023-06-26 15:25:57.359419,2023-06-26 15:26:02.889589,DD013.jpg,0,10723,18-29,2023-06-26_15h20.45.096,Recall,2021.2.3,59.9055648458938,
,DD004.jpg,0,FF004.jpg,0,,,,,0,72,72,3,imgFunc,2,NA,2.3315383000299335,396.9167117998004,399.3466570097953,2023-06-26 15:26:02.900560,2023-06-26 15:26:05.324991,DD004.jpg,0,10723,18-29,2023-06-26_15h20.45.096,Recall,2021.2.3,59.9055648458938,
,DD001.jpg,0,FF001.jpg,0,,,,,0,73,73,0,imgFunc,9,NA,2.5004978999495506,399.3395992999431,401.94329790980555,2023-06-26 15:26:05.331974,2023-06-26 15:26:07.926886,DD001.jpg,0,10723,18-29,2023-06-26_15h20.45.096,Recall,2021.2.3,59.9055648458938,
,DD018.jpg,0,FF018.jpg,0,,,,,0,74,74,17,imgFunc,1,NA,1.4517548000440001,401.9401118999813,403.49298260966316,2023-06-26 15:26:07.933869,2023-06-26 15:26:09.477649,DD018.jpg,0,10723,18-29,2023-06-26_15h20.45.096,Recall,2021.2.3,59.9055648458938,
,DD006.jpg,0,FF006.jpg,0,,,,,0,75,75,5,imgFunc,0,NA,4.4435942999552935,403.492361899931,408.0303450098727,2023-06-26 15:26:09.485651,2023-06-26 15:26:14.014658,DD006.jpg,0,10723,18-29,2023-06-26_15h20.45.096,Recall,2021.2.3,59.9055648458938,
,SD036.jpg,0,MF036.jpg,0,,,,,0,76,76,85,imgFunc,0,NA,1.6934553000610322,408.026692799991,409.8106773099862,2023-06-26 15:26:14.022639,2023-06-26 15:26:15.799039,SD036.jpg,0,10723,18-29,2023-06-26_15h20.45.096,Recall,2021.2.3,59.9055648458938,
,L_SD505.jpg,1,L_MF505.jpg,1,,,,,0,77,77,94,imgFunc,2,NA,1.2958340998739004,409.8162343997974,411.2185681099072,2023-06-26 15:26:15.806046,2023-06-26 15:26:17.200143,L_SD505.jpg,1,10723,18-29,2023-06-26_15h20.45.096,Recall,2021.2.3,59.9055648458938,
,DD033.jpg,0,FF033.jpg,0,,,,,0,78,78,32,imgFunc,1,NA,1.885637499857694,411.2261552999262,413.21754980972037,2023-06-26 15:26:17.213110,2023-06-26 15:26:19.201439,DD033.jpg,0,10723,18-29,2023-06-26_15h20.45.096,Recall,2021.2.3,59.9055648458938,
,SD011.jpg,0,MF011.jpg,0,,,,,0,79,79,60,imgFunc,9,NA,3.8895592999178916,413.21427689981647,417.20121440966614,2023-06-26 15:26:19.209442,2023-06-26 15:26:23.187827,SD011.jpg,0,10723,18-29,2023-06-26_15h20.45.096,Recall,2021.2.3,59.9055648458938,
,DD036.jpg,0,FF036.jpg,0,,,,,0,80,80,35,imgFunc,9,NA,2.286113200010732,417.20206119981594,419.58737931004725,2023-06-26 15:26:23.195807,2023-06-26 15:26:25.572916,DD036.jpg,0,10723,18-29,2023-06-26_15h20.45.096,Recall,2021.2.3,59.9055648458938,
,SD022.jpg,0,MF022.jpg,0,,,,,0,81,81,71,imgFunc,0,NA,4.0197232000064105,419.58834089990705,423.7096214098856,2023-06-26 15:26:25.579899,2023-06-26 15:26:29.692534,SD022.jpg,0,10723,18-29,2023-06-26_15h20.45.096,Recall,2021.2.3,59.9055648458938,
,SD015.jpg,0,MF015.jpg,0,,,,,0,82,82,64,imgFunc,1,NA,2.0775954998098314,423.7065315998625,425.8763571099844,2023-06-26 15:26:29.699517,2023-06-26 15:26:31.860847,SD015.jpg,0,10723,18-29,2023-06-26_15h20.45.096,Recall,2021.2.3,59.9055648458938,
,SD010.jpg,0,MF010.jpg,0,,,,,0,83,83,59,imgFunc,1,NA,1.916652200045064,425.8914510998875,427.9104791099671,2023-06-26 15:26:31.876834,2023-06-26 15:26:33.895650,SD010.jpg,0,10723,18-29,2023-06-26_15h20.45.096,Recall,2021.2.3,59.9055648458938,
,L_SD501.jpg,1,L_MF501.jpg,1,,,,,0,84,84,90,imgFunc,2,NA,1.1379244001582265,427.91019719978794,429.14622490969487,2023-06-26 15:26:33.902633,2023-06-26 15:26:35.129870,L_SD501.jpg,1,10723,18-29,2023-06-26_15h20.45.096,Recall,2021.2.3,59.9055648458938,
,DD011.jpg,0,FF011.jpg,0,,,,,0,85,85,10,imgFunc,1,NA,2.22953990008682,429.13854209985584,431.4585001098458,2023-06-26 15:26:35.136853,2023-06-26 15:26:37.448108,DD011.jpg,0,10723,18-29,2023-06-26_15h20.45.096,Recall,2021.2.3,59.9055648458938,
,DD022.jpg,0,FF022.jpg,0,,,,,0,86,86,21,imgFunc,2,NA,1.4896170999854803,431.46248269989155,433.04873440996744,2023-06-26 15:26:37.455092,2023-06-26 15:26:39.032591,DD022.jpg,0,10723,18-29,2023-06-26_15h20.45.096,Recall,2021.2.3,59.9055648458938,
,SD039.jpg,0,MF039.jpg,0,,,,,0,87,87,88,imgFunc,9,NA,2.0311423998791724,433.0489418997895,435.1858170100022,2023-06-26 15:26:39.039573,2023-06-26 15:26:41.167382,SD039.jpg,0,10723,18-29,2023-06-26_15h20.45.096,Recall,2021.2.3,59.9055648458938,
,DD014.jpg,0,FF014.jpg,0,,,,,0,88,88,13,imgFunc,9,NA,2.781051700003445,435.187073999783,438.0578066101298,2023-06-26 15:26:41.183221,2023-06-26 15:26:44.052771,DD014.jpg,0,10723,18-29,2023-06-26_15h20.45.096,Recall,2021.2.3,59.9055648458938,
,DD003.jpg,0,FF003.jpg,0,,,,,0,89,89,2,imgFunc,0,NA,9.382306500105187,438.06570389983244,447.5403566097375,2023-06-26 15:26:44.060786,2023-06-26 15:26:53.526599,DD003.jpg,0,10723,18-29,2023-06-26_15h20.45.096,Recall,2021.2.3,59.9055648458938,
,SD028.jpg,0,MF028.jpg,0,,,,,0,90,90,77,imgFunc,2,NA,1.6900440000463277,447.5580580998212,449.3559994099196,2023-06-26 15:26:53.536575,2023-06-26 15:26:55.327524,SD028.jpg,0,10723,18-29,2023-06-26_15h20.45.096,Recall,2021.2.3,59.9055648458938,
,DD017.jpg,0,FF017.jpg,0,,,,,0,91,91,16,imgFunc,0,NA,1.7396774000953883,449.3643959998153,451.21584950969554,2023-06-26 15:26:55.335504,2023-06-26 15:26:57.179230,DD017.jpg,0,10723,18-29,2023-06-26_15h20.45.096,Recall,2021.2.3,59.9055648458938,
,SD035.jpg,0,MF035.jpg,0,,,,,0,92,92,84,imgFunc,0,NA,1.6369210998527706,451.2030777998734,452.9545435097534,2023-06-26 15:26:57.187210,2023-06-26 15:26:58.930314,SD035.jpg,0,10723,18-29,2023-06-26_15h20.45.096,Recall,2021.2.3,59.9055648458938,
,SD005.jpg,0,MF005.jpg,0,,,,,0,93,93,54,imgFunc,0,NA,3.629287199815735,452.938686999958,456.6593630097341,2023-06-26 15:26:58.937297,2023-06-26 15:27:02.649670,SD005.jpg,0,10723,18-29,2023-06-26_15h20.45.096,Recall,2021.2.3,59.9055648458938,
,SD031.jpg,0,MF031.jpg,0,,,,,0,94,94,80,imgFunc,0,NA,1.9572012000717223,456.65891519980505,458.7119625096675,2023-06-26 15:27:02.656653,2023-06-26 15:27:04.701192,SD031.jpg,0,10723,18-29,2023-06-26_15h20.45.096,Recall,2021.2.3,59.9055648458938,
,L_DD505.jpg,1,L_FF505.jpg,1,,,,,0,95,95,44,imgFunc,1,NA,1.9823584998957813,458.71360789984465,460.8001003097743,2023-06-26 15:27:04.708175,2023-06-26 15:27:06.785856,L_DD505.jpg,1,10723,18-29,2023-06-26_15h20.45.096,Recall,2021.2.3,59.9055648458938,
,DD032.jpg,0,FF032.jpg,0,,,,,0,96,96,31,imgFunc,2,NA,5.955486899940297,460.8046535998583,466.8604136102367,2023-06-26 15:27:06.792862,2023-06-26 15:27:12.840283,DD032.jpg,0,10723,18-29,2023-06-26_15h20.45.096,Recall,2021.2.3,59.9055648458938,
,DD019.jpg,0,FF019.jpg,0,,,,,0,97,97,18,imgFunc,1,NA,2.335852999938652,466.8800877998583,469.31921440991573,2023-06-26 15:27:12.854249,2023-06-26 15:27:15.292258,DD019.jpg,0,10723,18-29,2023-06-26_15h20.45.096,Recall,2021.2.3,59.9055648458938,
,SD026.jpg,0,MF026.jpg,0,,,,,0,98,98,75,imgFunc,0,NA,2.3116385999601334,469.30470029986463,471.70816970965825,2023-06-26 15:27:15.299241,2023-06-26 15:27:17.694109,SD026.jpg,0,10723,18-29,2023-06-26_15h20.45.096,Recall,2021.2.3,59.9055648458938,
,DD021.jpg,0,FF021.jpg,0,,,,,0,99,99,20,imgFunc,1,NA,2.785690899938345,471.710460399976,474.59716201014817,2023-06-26 15:27:17.701092,2023-06-26 15:27:20.579279,DD021.jpg,0,10723,18-29,2023-06-26_15h20.45.096,Recall,2021.2.3,59.9055648458938,
,,,,,,,,,,,,,instrFunc,space,"Great work! 

 Now you will switch to the other image type.

 Press the spacebar whenever you are ready to start.",5.340716699836776,474.523226399906,479.907350809779,2023-06-26 15:27:20.580279,2023-06-26 15:27:25.948591,,,10723,18-29,2023-06-26_15h20.45.096,Recall,2021.2.3,59.9055648458938,
,L_SD503.jpg,1,L_MF503.jpg,1,,,,,0,0,0,92,imgFunc,2,NA,9.002007700037211,479.9979835997801,489.1123786200769,2023-06-26 15:27:25.978512,2023-06-26 15:27:35.090052,L_MF503.jpg,1,10723,18-29,2023-06-26_15h20.45.096,Recall,2021.2.3,59.9055648458938,
,L_DD507.jpg,1,L_FF507.jpg,1,,,,,0,1,1,46,imgFunc,1,NA,2.7619731000158936,489.11810989980586,491.9835620096419,2023-06-26 15:27:35.099915,2023-06-26 15:27:37.958697,L_FF507.jpg,1,10723,18-29,2023-06-26_15h20.45.096,Recall,2021.2.3,59.9055648458938,
,DD018.jpg,0,FF018.jpg,0,,,,,0,2,2,17,imgFunc,2,NA,1.3067900999449193,491.9814044998493,493.40064131002873,2023-06-26 15:27:37.965680,2023-06-26 15:27:39.376286,FF018.jpg,0,10723,18-29,2023-06-26_15h20.45.096,Recall,2021.2.3,59.9055648458938,
,L_SD509.jpg,1,L_MF509.jpg,1,,,,,0,3,3,98,imgFunc,2,NA,2.27756329998374,493.4186279999558,495.81190671003424,2023-06-26 15:27:39.388256,2023-06-26 15:27:41.777944,L_MF509.jpg,1,10723,18-29,2023-06-26_15h20.45.096,Recall,2021.2.3,59.9055648458938,
,SD023.jpg,0,MF023.jpg,0,,,,,0,4,4,72,imgFunc,0,NA,5.741253799991682,495.8107183999382,501.66544890985824,2023-06-26 15:27:41.785924,2023-06-26 15:27:47.632105,MF023.jpg,0,10723,18-29,2023-06-26_15h20.45.096,Recall,2021.2.3,59.9055648458938,
,SD030.jpg,0,MF030.jpg,0,,,,,0,5,5,79,imgFunc,2,NA,1.6768972999416292,501.6592497997917,503.44213840947486,2023-06-26 15:27:47.641083,2023-06-26 15:27:49.416694,MF030.jpg,0,10723,18-29,2023-06-26_15h20.45.096,Recall,2021.2.3,59.9055648458938,
,DD006.jpg,0,FF006.jpg,0,,,,,0,6,6,5,imgFunc,1,NA,1.9954286001157016,503.4448402998969,505.5481225098483,2023-06-26 15:27:49.423678,2023-06-26 15:27:51.518497,FF006.jpg,0,10723,18-29,2023-06-26_15h20.45.096,Recall,2021.2.3,59.9055648458938,
,DD014.jpg,0,FF014.jpg,0,,,,,0,7,7,13,imgFunc,2,NA,1.838672999991104,505.5454860997852,507.4965212098323,2023-06-26 15:27:51.526477,2023-06-26 15:27:53.469861,FF014.jpg,0,10723,18-29,2023-06-26_15h20.45.096,Recall,2021.2.3,59.9055648458938,
,SD005.jpg,0,MF005.jpg,0,,,,,0,8,8,54,imgFunc,2,NA,2.866256100125611,507.485880299937,510.4567066100426,2023-06-26 15:27:53.476844,2023-06-26 15:27:56.438750,MF005.jpg,0,10723,18-29,2023-06-26_15h20.45.096,Recall,2021.2.3,59.9055648458938,
,SD034.jpg,0,MF034.jpg,0,,,,,0,9,9,83,imgFunc,1,NA,3.3786655999720097,510.4534516998101,513.9241320097353,2023-06-26 15:27:56.445733,2023-06-26 15:27:59.907703,MF034.jpg,0,10723,18-29,2023-06-26_15h20.45.096,Recall,2021.2.3,59.9055648458938,
,SD014.jpg,0,MF014.jpg,0,,,,,0,10,10,63,imgFunc,2,NA,2.0874368001241237,513.9286156999879,516.1151921101846,2023-06-26 15:27:59.914604,2023-06-26 15:28:02.092917,MF014.jpg,0,10723,18-29,2023-06-26_15h20.45.096,Recall,2021.2.3,59.9055648458938,
,DD019.jpg,0,FF019.jpg,0,,,,,0,11,11,18,imgFunc,2,NA,1.3403688999824226,516.1077270999085,517.5434778097551,2023-06-26 15:28:02.099900,2023-06-26 15:28:03.526935,FF019.jpg,0,10723,18-29,2023-06-26_15h20.45.096,Recall,2021.2.3,59.9055648458938,
,SD031.jpg,0,MF031.jpg,0,,,,,0,12,12,80,imgFunc,2,NA,2.0829646999482065,517.5571827997919,519.7488971098792,2023-06-26 15:28:03.539902,2023-06-26 15:28:05.728659,MF031.jpg,0,10723,18-29,2023-06-26_15h20.45.096,Recall,2021.2.3,59.9055648458938,
,SD025.jpg,0,MF025.jpg,0,,,,,0,13,13,74,imgFunc,1,NA,1.1997594002168626,519.7522614998743,521.0550565100275,2023-06-26 15:28:05.735643,2023-06-26 15:28:07.029422,MF025.jpg,0,10723,18-29,2023-06-26_15h20.45.096,Recall,2021.2.3,59.9055648458938,
,DD025.jpg,0,FF025.jpg,0,,,,,0,14,14,24,imgFunc,2,NA,1.2088264001067728,521.046976499958,522.3668996100314,2023-06-26 15:28:07.036405,2023-06-26 15:28:08.347363,FF025.jpg,0,10723,18-29,2023-06-26_15h20.45.096,Recall,2021.2.3,59.9055648458938,
,SD026.jpg,0,MF026.jpg,0,,,,,0,15,15,75,imgFunc,0,NA,3.4615767998620868,522.3624834998045,525.9169458099641,2023-06-26 15:28:08.354346,2023-06-26 15:28:11.899844,MF026.jpg,0,10723,18-29,2023-06-26_15h20.45.096,Recall,2021.2.3,59.9055648458938,
,DD021.jpg,0,FF021.jpg,0,,,,,0,16,16,20,imgFunc,9,NA,3.332114400109276,525.9160937999841,529.3531753097195,2023-06-26 15:28:11.906827,2023-06-26 15:28:15.335378,FF021.jpg,0,10723,18-29,2023-06-26_15h20.45.096,Recall,2021.2.3,59.9055648458938,
,L_SD501.jpg,1,L_MF501.jpg,1,,,,,0,17,17,90,imgFunc,1,NA,5.437792800134048,529.3704466999043,534.9100003098138,2023-06-26 15:28:15.350361,2023-06-26 15:28:20.889460,L_MF501.jpg,1,10723,18-29,2023-06-26_15h20.45.096,Recall,2021.2.3,59.9055648458938,
,SD032.jpg,0,MF032.jpg,0,,,,,0,18,18,81,imgFunc,2,NA,5.042489799903706,534.9016758999787,540.0369080102537,2023-06-26 15:28:20.898438,2023-06-26 15:28:26.026575,MF032.jpg,0,10723,18-29,2023-06-26_15h20.45.096,Recall,2021.2.3,59.9055648458938,
,DD016.jpg,0,FF016.jpg,0,,,,,0,19,19,15,imgFunc,0,NA,5.922549200011417,540.0696385998745,546.1221636096016,2023-06-26 15:28:26.035552,2023-06-26 15:28:32.081124,FF016.jpg,0,10723,18-29,2023-06-26_15h20.45.096,Recall,2021.2.3,59.9055648458938,
,DD028.jpg,0,FF028.jpg,0,,,,,0,20,20,27,imgFunc,2,NA,3.568764599971473,546.1274450998753,549.8274891097099,2023-06-26 15:28:32.090101,2023-06-26 15:28:35.783660,FF028.jpg,0,10723,18-29,2023-06-26_15h20.45.096,Recall,2021.2.3,59.9055648458938,
,DD038.jpg,0,FF038.jpg,0,,,,,0,21,21,37,imgFunc,9,NA,3.0956182999070734,549.80856639985,553.0123650101013,2023-06-26 15:28:35.790643,2023-06-26 15:28:38.985945,FF038.jpg,0,10723,18-29,2023-06-26_15h20.45.096,Recall,2021.2.3,59.9055648458938,
,DD010.jpg,0,FF010.jpg,0,,,,,0,22,22,9,imgFunc,1,NA,2.6360645999666303,553.0038930999581,555.7404815100599,2023-06-26 15:28:38.992928,2023-06-26 15:28:41.721269,FF010.jpg,0,10723,18-29,2023-06-26_15h20.45.096,Recall,2021.2.3,59.9055648458938,
,SD039.jpg,0,MF039.jpg,0,,,,,0,23,23,88,imgFunc,9,NA,2.8962479000911117,555.735568099888,558.7393001096789,2023-06-26 15:28:41.728252,2023-06-26 15:28:44.723496,MF039.jpg,0,10723,18-29,2023-06-26_15h20.45.096,Recall,2021.2.3,59.9055648458938,
,L_DD506.jpg,1,L_FF506.jpg,1,,,,,0,24,24,45,imgFunc,9,NA,2.567625400144607,558.7442500998732,561.4143054098822,2023-06-26 15:28:44.730479,2023-06-26 15:28:47.392263,L_FF506.jpg,1,10723,18-29,2023-06-26_15h20.45.096,Recall,2021.2.3,59.9055648458938,
,DD007.jpg,0,FF007.jpg,0,,,,,0,25,25,6,imgFunc,0,NA,2.00939240003936,561.4148143997882,563.5334369097836,2023-06-26 15:28:47.400243,2023-06-26 15:28:49.510173,FF007.jpg,0,10723,18-29,2023-06-26_15h20.45.096,Recall,2021.2.3,59.9055648458938,
,SD003.jpg,0,MF003.jpg,0,,,,,0,26,26,52,imgFunc,9,NA,2.3233781000599265,563.5408203999978,565.9658870098647,2023-06-26 15:28:49.523141,2023-06-26 15:28:51.945145,MF003.jpg,0,10723,18-29,2023-06-26_15h20.45.096,Recall,2021.2.3,59.9055648458938,
,L_DD510.jpg,1,L_FF510.jpg,1,,,,,0,27,27,49,imgFunc,9,NA,3.7820356998126954,565.9621890999842,569.8503542097751,2023-06-26 15:28:51.952134,2023-06-26 15:28:55.831568,L_FF510.jpg,1,10723,18-29,2023-06-26_15h20.45.096,Recall,2021.2.3,59.9055648458938,
,SD037.jpg,0,MF037.jpg,0,,,,,0,28,28,86,imgFunc,0,NA,5.649383899988607,569.8464389999863,575.6021430098917,2023-06-26 15:28:55.838551,2023-06-26 15:29:01.585682,MF037.jpg,0,10723,18-29,2023-06-26_15h20.45.096,Recall,2021.2.3,59.9055648458938,
,SD015.jpg,0,MF015.jpg,0,,,,,0,29,29,64,imgFunc,1,NA,3.1687775999307632,575.6153225000016,578.8996596101206,2023-06-26 15:29:01.594659,2023-06-26 15:29:04.872010,MF015.jpg,0,10723,18-29,2023-06-26_15h20.45.096,Recall,2021.2.3,59.9055648458938,
,SD013.jpg,0,MF013.jpg,0,,,,,0,30,30,62,imgFunc,9,NA,5.780637899879366,578.8995019998401,584.7884760098532,2023-06-26 15:29:04.878993,2023-06-26 15:29:10.759059,MF013.jpg,0,10723,18-29,2023-06-26_15h20.45.096,Recall,2021.2.3,59.9055648458938,
,L_DD503.jpg,1,L_FF503.jpg,1,,,,,0,31,31,42,imgFunc,2,NA,2.717592699918896,584.7945798998699,587.6295410199091,2023-06-26 15:29:10.775557,2023-06-26 15:29:13.594403,L_FF503.jpg,1,10723,18-29,2023-06-26_15h20.45.096,Recall,2021.2.3,59.9055648458938,
,SD035.jpg,0,MF035.jpg,0,,,,,0,32,32,84,imgFunc,1,NA,2.1466835997998714,587.605367399985,589.8419763101265,2023-06-26 15:29:13.601386,2023-06-26 15:29:15.829482,MF035.jpg,0,10723,18-29,2023-06-26_15h20.45.096,Recall,2021.2.3,59.9055648458938,
,DD034.jpg,0,FF034.jpg,0,,,,,0,33,33,33,imgFunc,2,NA,2.961256500100717,589.8469080999494,592.917560310103,2023-06-26 15:29:15.836465,2023-06-26 15:29:18.898300,FF034.jpg,0,10723,18-29,2023-06-26_15h20.45.096,Recall,2021.2.3,59.9055648458938,
,SD033.jpg,0,MF033.jpg,0,,,,,0,34,34,82,imgFunc,2,NA,1.786238599801436,592.9178509998601,594.8042686097324,2023-06-26 15:29:18.905283,2023-06-26 15:29:20.783036,MF033.jpg,0,10723,18-29,2023-06-26_15h20.45.096,Recall,2021.2.3,59.9055648458938,
,SD024.jpg,0,MF024.jpg,0,,,,,0,35,35,73,imgFunc,1,NA,1.3410698000807315,594.8110777998809,596.2636451097205,2023-06-26 15:29:20.790019,2023-06-26 15:29:22.233913,MF024.jpg,0,10723,18-29,2023-06-26_15h20.45.096,Recall,2021.2.3,59.9055648458938,
,DD008.jpg,0,FF008.jpg,0,,,,,0,36,36,7,imgFunc,0,NA,3.82131509995088,596.2508917998057,600.172353209462,2023-06-26 15:29:22.240896,2023-06-26 15:29:26.153407,FF008.jpg,0,10723,18-29,2023-06-26_15h20.45.096,Recall,2021.2.3,59.9055648458938,
,L_DD508.jpg,1,L_FF508.jpg,1,,,,,0,37,37,47,imgFunc,9,NA,5.436539100017399,600.1635543999728,605.7026668100152,2023-06-26 15:29:26.160390,2023-06-26 15:29:31.690757,L_FF508.jpg,1,10723,18-29,2023-06-26_15h20.45.096,Recall,2021.2.3,59.9055648458938,
,L_SD505.jpg,1,L_MF505.jpg,1,,,,,0,38,38,94,imgFunc,9,NA,2.343757800059393,605.7124232999049,608.1622983100824,2023-06-26 15:29:31.699734,2023-06-26 15:29:34.142758,L_MF505.jpg,1,10723,18-29,2023-06-26_15h20.45.096,Recall,2021.2.3,59.9055648458938,
,DD036.jpg,0,FF036.jpg,0,,,,,0,39,39,35,imgFunc,0,NA,4.1104018001351506,608.1697536997963,612.3901767099742,2023-06-26 15:29:34.149741,2023-06-26 15:29:38.362066,FF036.jpg,0,10723,18-29,2023-06-26_15h20.45.096,Recall,2021.2.3,59.9055648458938,
,SD020.jpg,0,MF020.jpg,0,,,,,0,40,40,69,imgFunc,9,NA,2.347013699822128,612.3970392998308,614.8523700097576,2023-06-26 15:29:38.377051,2023-06-26 15:29:40.830562,MF020.jpg,0,10723,18-29,2023-06-26_15h20.45.096,Recall,2021.2.3,59.9055648458938,
,SD022.jpg,0,MF022.jpg,0,,,,,0,41,41,71,imgFunc,1,NA,2.1875738999806345,614.8446131998207,617.13008791022,2023-06-26 15:29:40.838565,2023-06-26 15:29:43.115638,MF022.jpg,0,10723,18-29,2023-06-26_15h20.45.096,Recall,2021.2.3,59.9055648458938,
,L_SD508.jpg,1,L_MF508.jpg,1,,,,,0,42,42,97,imgFunc,1,NA,1.3724877999629825,617.1315217998344,618.6010838099755,2023-06-26 15:29:43.122621,2023-06-26 15:29:44.583560,L_MF508.jpg,1,10723,18-29,2023-06-26_15h20.45.096,Recall,2021.2.3,59.9055648458938,
,SD036.jpg,0,MF036.jpg,0,,,,,0,43,43,85,imgFunc,1,NA,1.3276396000292152,618.600499499822,620.0365595100448,2023-06-26 15:29:44.590543,2023-06-26 15:29:46.017811,MF036.jpg,0,10723,18-29,2023-06-26_15h20.45.096,Recall,2021.2.3,59.9055648458938,
,L_DD501.jpg,1,L_FF501.jpg,1,,,,,0,44,44,40,imgFunc,9,NA,4.174913499969989,620.033199199941,624.3044479102828,2023-06-26 15:29:46.024794,2023-06-26 15:29:50.287425,L_FF501.jpg,1,10723,18-29,2023-06-26_15h20.45.096,Recall,2021.2.3,59.9055648458938,
,SD008.jpg,0,MF008.jpg,0,,,,,0,45,45,57,imgFunc,9,NA,2.739559300011024,624.3242763997987,627.1790301098954,2023-06-26 15:29:50.302409,2023-06-26 15:29:53.156214,MF008.jpg,0,10723,18-29,2023-06-26_15h20.45.096,Recall,2021.2.3,59.9055648458938,
,L_SD510.jpg,1,L_MF510.jpg,1,,,,,0,46,46,99,imgFunc,9,NA,3.3734953000675887,627.186609499855,630.672812510049,2023-06-26 15:29:53.164216,2023-06-26 15:29:56.641960,L_MF510.jpg,1,10723,18-29,2023-06-26_15h20.45.096,Recall,2021.2.3,59.9055648458938,
,SD006.jpg,0,MF006.jpg,0,,,,,0,47,47,55,imgFunc,0,NA,2.1480219000950456,630.6681648998056,632.9210114097223,2023-06-26 15:29:56.649940,2023-06-26 15:29:58.894082,MF006.jpg,0,10723,18-29,2023-06-26_15h20.45.096,Recall,2021.2.3,59.9055648458938,
,SD021.jpg,0,MF021.jpg,0,,,,,0,48,48,70,imgFunc,2,NA,5.722490800078958,632.9096051999368,638.731805609772,2023-06-26 15:29:58.901065,2023-06-26 15:30:04.714493,MF021.jpg,0,10723,18-29,2023-06-26_15h20.45.096,Recall,2021.2.3,59.9055648458938,
,L_DD509.jpg,1,L_FF509.jpg,1,,,,,0,49,49,48,imgFunc,2,NA,1.7645208002068102,638.7476458000019,640.6307904100977,2023-06-26 15:30:04.723471,2023-06-26 15:30:06.599397,L_FF509.jpg,1,10723,18-29,2023-06-26_15h20.45.096,Recall,2021.2.3,59.9055648458938,
,L_DD504.jpg,1,L_FF504.jpg,1,,,,,0,50,50,43,imgFunc,9,NA,2.279863800154999,640.6163027998991,643.0031027097721,2023-06-26 15:30:06.606379,2023-06-26 15:30:08.984364,L_FF504.jpg,1,10723,18-29,2023-06-26_15h20.45.096,Recall,2021.2.3,59.9055648458938,
,DD001.jpg,0,FF001.jpg,0,,,,,0,51,51,0,imgFunc,1,NA,1.4500059999991208,642.9982104999945,644.5509905098006,2023-06-26 15:30:08.991347,2023-06-26 15:30:10.535461,FF001.jpg,0,10723,18-29,2023-06-26_15h20.45.096,Recall,2021.2.3,59.9055648458938,
,DD027.jpg,0,FF027.jpg,0,,,,,0,52,52,26,imgFunc,0,NA,8.888076700037345,644.5519749999512,653.5435923098121,2023-06-26 15:30:10.542445,2023-06-26 15:30:19.525281,FF027.jpg,0,10723,18-29,2023-06-26_15h20.45.096,Recall,2021.2.3,59.9055648458938,
,SD011.jpg,0,MF011.jpg,0,,,,,0,53,53,60,imgFunc,9,NA,2.3312915000133216,653.5568617999088,656.0054455099162,2023-06-26 15:30:19.535253,2023-06-26 15:30:21.977091,MF011.jpg,0,10723,18-29,2023-06-26_15h20.45.096,Recall,2021.2.3,59.9055648458938,
,L_DD505.jpg,1,L_FF505.jpg,1,,,,,0,54,54,44,imgFunc,1,NA,1.5840178998187184,656.0081437998451,657.6981157099362,2023-06-26 15:30:21.991056,2023-06-26 15:30:23.678236,L_FF505.jpg,1,10723,18-29,2023-06-26_15h20.45.096,Recall,2021.2.3,59.9055648458938,
,DD013.jpg,0,FF013.jpg,0,,,,,0,55,55,12,imgFunc,0,NA,1.7709557001944631,657.7010923998896,659.5871015095618,2023-06-26 15:30:23.685219,2023-06-26 15:30:25.562330,FF013.jpg,0,10723,18-29,2023-06-26_15h20.45.096,Recall,2021.2.3,59.9055648458938,
,DD029.jpg,0,FF029.jpg,0,,,,,0,56,56,28,imgFunc,0,NA,1.9180572000332177,659.570047599962,661.5897265097592,2023-06-26 15:30:25.570334,2023-06-26 15:30:27.581160,FF029.jpg,0,10723,18-29,2023-06-26_15h20.45.096,Recall,2021.2.3,59.9055648458938,
,SD019.jpg,0,MF019.jpg,0,,,,,0,57,57,68,imgFunc,0,NA,5.221311199944466,661.5948864999227,666.9174109098967,2023-06-26 15:30:27.588144,2023-06-26 15:30:32.901816,MF019.jpg,0,10723,18-29,2023-06-26_15h20.45.096,Recall,2021.2.3,59.9055648458938,
,DD002.jpg,0,FF002.jpg,0,,,,,0,58,58,1,imgFunc,0,NA,2.847659199964255,666.928472999949,669.878464509733,2023-06-26 15:30:32.910794,2023-06-26 15:30:35.854069,FF002.jpg,0,10723,18-29,2023-06-26_15h20.45.096,Recall,2021.2.3,59.9055648458938,
,DD031.jpg,0,FF031.jpg,0,,,,,0,59,59,30,imgFunc,9,NA,1.889855199959129,669.8942969997879,671.8970784095582,2023-06-26 15:30:35.870029,2023-06-26 15:30:37.871868,FF031.jpg,0,10723,18-29,2023-06-26_15h20.45.096,Recall,2021.2.3,59.9055648458938,
,DD024.jpg,0,FF024.jpg,0,,,,,0,60,60,23,imgFunc,9,NA,2.608358999947086,671.8877321998589,674.5904218098149,2023-06-26 15:30:37.879696,2023-06-26 15:30:40.574034,FF024.jpg,0,10723,18-29,2023-06-26_15h20.45.096,Recall,2021.2.3,59.9055648458938,
,SD009.jpg,0,MF009.jpg,0,,,,,0,61,61,58,imgFunc,9,NA,4.836475499905646,674.5874611998443,679.5260515101254,2023-06-26 15:30:40.581017,2023-06-26 15:30:45.510988,MF009.jpg,0,10723,18-29,2023-06-26_15h20.45.096,Recall,2021.2.3,59.9055648458938,
,SD040.jpg,0,MF040.jpg,0,,,,,0,62,62,89,imgFunc,0,NA,2.563589100027457,679.5245946999639,682.1913428101689,2023-06-26 15:30:45.519966,2023-06-26 15:30:48.179442,MF040.jpg,0,10723,18-29,2023-06-26_15h20.45.096,Recall,2021.2.3,59.9055648458938,
,L_SD507.jpg,1,L_MF507.jpg,1,,,,,0,63,63,96,imgFunc,0,NA,1.4022607000079006,682.2059147998225,683.725037809927,2023-06-26 15:30:48.186426,2023-06-26 15:30:49.697141,L_MF507.jpg,1,10723,18-29,2023-06-26_15h20.45.096,Recall,2021.2.3,59.9055648458938,
,SD004.jpg,0,MF004.jpg,0,,,,,0,64,64,53,imgFunc,9,NA,7.282057299977168,683.7181797998492,691.1079135097098,2023-06-26 15:30:49.704123,2023-06-26 15:30:57.085853,MF004.jpg,0,10723,18-29,2023-06-26_15h20.45.096,Recall,2021.2.3,59.9055648458938,
,DD040.jpg,0,FF040.jpg,0,,,,,0,65,65,39,imgFunc,9,NA,1.6966707000974566,691.1034966998268,692.9020401099697,2023-06-26 15:30:57.094831,2023-06-26 15:30:58.887103,FF040.jpg,0,10723,18-29,2023-06-26_15h20.45.096,Recall,2021.2.3,59.9055648458938,
,SD038.jpg,0,MF038.jpg,0,,,,,0,66,66,87,imgFunc,0,NA,1.9364737998694181,692.9034662998747,694.9401344098151,2023-06-26 15:30:58.894086,2023-06-26 15:31:00.922136,MF038.jpg,0,10723,18-29,2023-06-26_15h20.45.096,Recall,2021.2.3,59.9055648458938,
,SD002.jpg,0,MF002.jpg,0,,,,,0,67,67,51,imgFunc,0,NA,1.6391449999064207,694.9449560998473,696.6977735096589,2023-06-26 15:31:00.929119,2023-06-26 15:31:02.673220,MF002.jpg,0,10723,18-29,2023-06-26_15h20.45.096,Recall,2021.2.3,59.9055648458938,
,DD015.jpg,0,FF015.jpg,0,,,,,0,68,68,14,imgFunc,1,NA,4.345357300015166,696.7027155999094,701.1459867097437,2023-06-26 15:31:02.686187,2023-06-26 15:31:07.126563,FF015.jpg,0,10723,18-29,2023-06-26_15h20.45.096,Recall,2021.2.3,59.9055648458938,
,DD011.jpg,0,FF011.jpg,0,,,,,0,69,69,10,imgFunc,1,NA,1.2461057999171317,701.1377452998422,702.4901778097264,2023-06-26 15:31:07.133546,2023-06-26 15:31:08.477620,FF011.jpg,0,10723,18-29,2023-06-26_15h20.45.096,Recall,2021.2.3,59.9055648458938,
,DD012.jpg,0,FF012.jpg,0,,,,,0,70,70,11,imgFunc,0,NA,6.23481100006029,702.4933357997797,708.8328098095953,2023-06-26 15:31:08.484602,2023-06-26 15:31:14.815330,FF012.jpg,0,10723,18-29,2023-06-26_15h20.45.096,Recall,2021.2.3,59.9055648458938,
,L_SD506.jpg,1,L_MF506.jpg,1,,,,,0,71,71,95,imgFunc,1,NA,1.8109400998800993,708.8532702999655,710.7862450098619,2023-06-26 15:31:14.824308,2023-06-26 15:31:16.749894,L_MF506.jpg,1,10723,18-29,2023-06-26_15h20.45.096,Recall,2021.2.3,59.9055648458938,
,DD004.jpg,0,FF004.jpg,0,,,,,0,72,72,3,imgFunc,0,NA,1.823512100148946,710.7843467998318,712.7371715097688,2023-06-26 15:31:16.756899,2023-06-26 15:31:18.701571,FF004.jpg,0,10723,18-29,2023-06-26_15h20.45.096,Recall,2021.2.3,59.9055648458938,
,DD022.jpg,0,FF022.jpg,0,,,,,0,73,73,21,imgFunc,1,NA,1.277962899999693,712.7300797998905,714.1005458100699,2023-06-26 15:31:18.716555,2023-06-26 15:31:20.085251,FF022.jpg,0,10723,18-29,2023-06-26_15h20.45.096,Recall,2021.2.3,59.9055648458938,
,DD020.jpg,0,FF020.jpg,0,,,,,0,74,74,19,imgFunc,9,NA,2.085109200095758,714.0990239998791,716.2848675099667,2023-06-26 15:31:20.093255,2023-06-26 15:31:22.270694,FF020.jpg,0,10723,18-29,2023-06-26_15h20.45.096,Recall,2021.2.3,59.9055648458938,
,SD018.jpg,0,MF018.jpg,0,,,,,0,75,75,67,imgFunc,9,NA,9.147023799829185,716.2851141998544,725.5270642100368,2023-06-26 15:31:22.277677,2023-06-26 15:31:31.510968,MF018.jpg,0,10723,18-29,2023-06-26_15h20.45.096,Recall,2021.2.3,59.9055648458938,
,SD010.jpg,0,MF010.jpg,0,,,,,0,76,76,59,imgFunc,2,NA,2.2705628001131117,725.5456044999883,727.9278289100621,2023-06-26 15:31:31.519971,2023-06-26 15:31:33.895986,MF010.jpg,0,10723,18-29,2023-06-26_15h20.45.096,Recall,2021.2.3,59.9055648458938,
,SD017.jpg,0,MF017.jpg,0,,,,,0,77,77,66,imgFunc,9,NA,2.119351000059396,727.9286765998695,730.1647185098846,2023-06-26 15:31:33.902969,2023-06-26 15:31:36.130822,MF017.jpg,0,10723,18-29,2023-06-26_15h20.45.096,Recall,2021.2.3,59.9055648458938,
,DD030.jpg,0,FF030.jpg,0,,,,,0,78,78,29,imgFunc,1,NA,1.8151857000775635,730.136841799831,732.0401461098809,2023-06-26 15:31:36.137805,2023-06-26 15:31:38.032163,FF030.jpg,0,10723,18-29,2023-06-26_15h20.45.096,Recall,2021.2.3,59.9055648458938,
,L_SD502.jpg,1,L_MF502.jpg,1,,,,,0,79,79,91,imgFunc,2,NA,2.939520600019023,732.0446317999158,735.0811215101276,2023-06-26 15:31:38.039168,2023-06-26 15:31:41.067384,L_MF502.jpg,1,10723,18-29,2023-06-26_15h20.45.096,Recall,2021.2.3,59.9055648458938,
,DD017.jpg,0,FF017.jpg,0,,,,,0,80,80,16,imgFunc,0,NA,3.6978508001193404,735.0863227997907,738.8912775097415,2023-06-26 15:31:41.074369,2023-06-26 15:31:44.870918,FF017.jpg,0,10723,18-29,2023-06-26_15h20.45.096,Recall,2021.2.3,59.9055648458938,
,DD009.jpg,0,FF009.jpg,0,,,,,0,81,81,8,imgFunc,1,NA,1.826150800101459,738.8940334999934,740.8298974102363,2023-06-26 15:31:44.877901,2023-06-26 15:31:46.805050,FF009.jpg,0,10723,18-29,2023-06-26_15h20.45.096,Recall,2021.2.3,59.9055648458938,
,DD039.jpg,0,FF039.jpg,0,,,,,0,82,82,38,imgFunc,9,NA,6.233557000057772,740.8386229998432,747.1830053098965,2023-06-26 15:31:46.818017,2023-06-26 15:31:53.159895,FF039.jpg,0,10723,18-29,2023-06-26_15h20.45.096,Recall,2021.2.3,59.9055648458938,
,DD035.jpg,0,FF035.jpg,0,,,,,0,83,83,34,imgFunc,1,NA,1.5691492999903858,747.1750371998642,748.8406401101965,2023-06-26 15:31:53.168873,2023-06-26 15:31:54.827354,FF035.jpg,0,10723,18-29,2023-06-26_15h20.45.096,Recall,2021.2.3,59.9055648458938,
,SD007.jpg,0,MF007.jpg,0,,,,,0,84,84,56,imgFunc,0,NA,2.550036899978295,748.8420703997836,751.4954306099098,2023-06-26 15:31:54.834337,2023-06-26 15:31:57.479453,MF007.jpg,0,10723,18-29,2023-06-26_15h20.45.096,Recall,2021.2.3,59.9055648458938,
,DD023.jpg,0,FF023.jpg,0,,,,,0,85,85,22,imgFunc,1,NA,2.9871453000232577,751.5090739999432,754.6122148097493,2023-06-26 15:31:57.487434,2023-06-26 15:32:00.581694,FF023.jpg,0,10723,18-29,2023-06-26_15h20.45.096,Recall,2021.2.3,59.9055648458938,
,L_DD502.jpg,1,L_FF502.jpg,1,,,,,0,86,86,41,imgFunc,0,NA,3.8181908999104053,754.6058400999755,758.5434171101078,2023-06-26 15:32:00.588677,2023-06-26 15:32:04.518053,L_FF502.jpg,1,10723,18-29,2023-06-26_15h20.45.096,Recall,2021.2.3,59.9055648458938,
,SD001.jpg,0,MF001.jpg,0,,,,,0,87,87,50,imgFunc,9,NA,2.546535500092432,758.549576499965,761.2041454100981,2023-06-26 15:32:04.533014,2023-06-26 15:32:07.186458,MF001.jpg,0,10723,18-29,2023-06-26_15h20.45.096,Recall,2021.2.3,59.9055648458938,
,SD028.jpg,0,MF028.jpg,0,,,,,0,88,88,77,imgFunc,9,NA,2.5282331998459995,761.1996639999561,763.8355661099777,2023-06-26 15:32:07.194439,2023-06-26 15:32:09.821790,MF028.jpg,0,10723,18-29,2023-06-26_15h20.45.096,Recall,2021.2.3,59.9055648458938,
,SD027.jpg,0,MF027.jpg,0,,,,,0,89,89,76,imgFunc,9,NA,12.549574099946767,763.8345631998964,776.4786096096504,2023-06-26 15:32:09.828773,2023-06-26 15:32:22.464474,MF027.jpg,0,10723,18-29,2023-06-26_15h20.45.096,Recall,2021.2.3,59.9055648458938,
,DD032.jpg,0,FF032.jpg,0,,,,,0,90,90,31,imgFunc,1,NA,2.7726284000091255,776.4993797999341,779.3991635097191,2023-06-26 15:32:22.473311,2023-06-26 15:32:25.366405,FF032.jpg,0,10723,18-29,2023-06-26_15h20.45.096,Recall,2021.2.3,59.9055648458938,
,DD037.jpg,0,FF037.jpg,0,,,,,0,91,91,36,imgFunc,2,NA,1.9687333998735994,779.3914676997811,781.4780329100322,2023-06-26 15:32:25.373389,2023-06-26 15:32:27.451256,FF037.jpg,0,10723,18-29,2023-06-26_15h20.45.096,Recall,2021.2.3,59.9055648458938,
,SD016.jpg,0,MF016.jpg,0,,,,,0,92,92,65,imgFunc,9,NA,2.003565800143406,781.4605935998261,783.5640667099506,2023-06-26 15:32:27.458239,2023-06-26 15:32:29.552619,MF016.jpg,0,10723,18-29,2023-06-26_15h20.45.096,Recall,2021.2.3,59.9055648458938,
,L_SD504.jpg,1,L_MF504.jpg,1,,,,,0,93,93,93,imgFunc,2,NA,2.2843154000584036,783.5638810999226,785.9505097100046,2023-06-26 15:32:29.559625,2023-06-26 15:32:31.937718,L_MF504.jpg,1,10723,18-29,2023-06-26_15h20.45.096,Recall,2021.2.3,59.9055648458938,
,DD033.jpg,0,FF033.jpg,0,,,,,0,94,94,32,imgFunc,9,NA,4.011310199974105,785.948798700003,790.0532932099886,2023-06-26 15:32:31.944701,2023-06-26 15:32:36.040877,FF033.jpg,0,10723,18-29,2023-06-26_15h20.45.096,Recall,2021.2.3,59.9055648458938,
,DD005.jpg,0,FF005.jpg,0,,,,,0,95,95,4,imgFunc,0,NA,30.33429739996791,790.0579398998525,820.4972456097603,2023-06-26 15:32:36.047861,2023-06-26 15:33:06.479209,FF005.jpg,0,10723,18-29,2023-06-26_15h20.45.096,Recall,2021.2.3,59.9055648458938,
,SD029.jpg,0,MF029.jpg,0,,,,,0,96,96,78,imgFunc,9,NA,1.9669997999444604,820.545232999837,822.6597219198011,2023-06-26 15:33:06.497173,2023-06-26 15:33:08.597547,MF029.jpg,0,10723,18-29,2023-06-26_15h20.45.096,Recall,2021.2.3,59.9055648458938,
,DD003.jpg,0,FF003.jpg,0,,,,,0,97,97,2,imgFunc,2,NA,3.801644999999553,822.6065773998853,826.511345309671,2023-06-26 15:33:08.604530,2023-06-26 15:33:12.500361,FF003.jpg,0,10723,18-29,2023-06-26_15h20.45.096,Recall,2021.2.3,59.9055648458938,
,SD012.jpg,0,MF012.jpg,0,,,,,0,98,98,61,imgFunc,2,NA,5.327644499950111,826.5123503999785,831.9346377097536,2023-06-26 15:33:12.507344,2023-06-26 15:33:17.920996,MF012.jpg,0,10723,18-29,2023-06-26_15h20.45.096,Recall,2021.2.3,59.9055648458938,
,DD026.jpg,0,FF026.jpg,0,,,,,0,99,99,25,imgFunc,9,NA,1.4844285000581294,831.9638084999751,833.5796341099776,2023-06-26 15:33:17.929786,2023-06-26 15:33:19.538847,FF026.jpg,0,10723,18-29,2023-06-26_15h20.45.096,Recall,2021.2.3,59.9055648458938,
