onset	duration	trial_type	rt	resp	gender	image_left	image_right
0.637422700005118	3.00165190000553	decision	1.78264580003452	right	M	MF001.jpg	MF002.jpg
4.18737790000159	1.01659449998988	win	NaN	n/a	n/a	MF001.jpg	MF002.jpg
11.1707168000285	3.00127770000836	decision	1.28278949996457	left	M	MF003.jpg	MF004.jpg
14.7205909000477	1.00006019999273	loss	NaN	n/a	n/a	MF003.jpg	MF004.jpg
17.4707071000012	3.00223010004265	decision	2.78382589999819	left	M	MF005.jpg	MF006.jpg
21.020650600025	1.0003264999832	win	NaN	n/a	n/a	MF005.jpg	MF006.jpg
23.7707297000452	3.00126339995768	decision	1.78239209996536	right	F	FF001.jpg	FF002.jpg
27.3206827000249	1.01664559997153	win	NaN	n/a	n/a	FF001.jpg	FF002.jpg
32.1876558000222	3.00142220000271	decision	2.28233229997568	left	F	FF003.jpg	FF004.jpg
35.7372772000381	1.01641399995424	loss	NaN	n/a	n/a	FF003.jpg	FF004.jpg
42.7039372000145	3.00160269998014	decision	2.0331122999778	left	M	MF007.jpg	MF008.jpg
46.2539121000445	1.00001519999932	loss	NaN	n/a	n/a	MF007.jpg	MF008.jpg
51.1038835000363	3.00148159998935	decision	1.7826007999829	right	M	MF009.jpg	MF010.jpg
54.6538217000198	1.00009260000661	win	NaN	n/a	n/a	MF009.jpg	MF010.jpg
59.5038111000322	3.0011419999646	decision	2.78367289999733	left	F	FF005.jpg	FF006.jpg
63.053812600032	1.0171206999803	loss	NaN	n/a	n/a	FF005.jpg	FF006.jpg
65.8209760000464	3.00122199999169	decision	1.7820434999885	right	F	FF007.jpg	FF008.jpg
69.3711644000141	1.0159629000118	win	NaN	n/a	n/a	FF007.jpg	FF008.jpg
72.1372890000348	3.00141009996878	decision	1.78272129996913	left	F	FF009.jpg	FF010.jpg
75.6874914999935	1.01633920002496	win	NaN	n/a	n/a	FF009.jpg	FF010.jpg
78.453774900001	3.00115369999548	decision	2.78270260000136	left	F	FF011.jpg	FF012.jpg
82.0039613000117	1.01684679999016	loss	NaN	n/a	n/a	FF011.jpg	FF012.jpg
86.8706194999977	3.00134100002469	decision	2.03240020002704	right	M	MF011.jpg	MF012.jpg
90.4205057999934	1.01677120005479	loss	NaN	n/a	n/a	MF011.jpg	MF012.jpg
93.1875606999965	3.00209240004187	decision	2.03283790004207	right	M	MF013.jpg	MF014.jpg
96.7371344999992	1.00003620004281	win	NaN	n/a	n/a	MF013.jpg	MF014.jpg
103.687101999996	3.00208800000837	decision	2.53296490001958	left	M	MF015.jpg	MF016.jpg
107.237163600046	1.01664369995706	win	NaN	n/a	n/a	MF015.jpg	MF016.jpg
110.003806099994	3.00117240002146	decision	2.53251330001513	right	F	FF013.jpg	FF014.jpg
113.553772900021	1.01671110000461	win	NaN	n/a	n/a	FF013.jpg	FF014.jpg
120.52057480003	3.00056750001386	decision	2.80086339998525	left	M	MF017.jpg	MF018.jpg
124.070476500026	1.00029220001306	win	NaN	n/a	n/a	MF017.jpg	MF018.jpg
128.92044310004	3.00153509998927	decision	2.28287639998598	right	F	FF015.jpg	FF016.jpg
132.470353200042	1.00009069999214	win	NaN	n/a	n/a	FF015.jpg	FF016.jpg
137.320486100041	3.00117939995835	decision	2.03303429996595	left	M	MF019.jpg	MF020.jpg
140.870753900032	1.01655980001669	win	NaN	n/a	n/a	MF019.jpg	MF020.jpg
145.737011299992	3.00108180003008	decision	1.53273270005593	right	F	FF017.jpg	FF018.jpg
149.287090500002	1.00012390001211	win	NaN	n/a	n/a	FF017.jpg	FF018.jpg
162.537018500036	3.00083559995983	decision	2.03332889999729	right	M	MF021.jpg	MF022.jpg
166.087457999995	1.01618030003738	loss	NaN	n/a	n/a	MF021.jpg	MF022.jpg
173.053723699995	3.00123809999786	decision	1.53357060003327	right	M	MF023.jpg	MF024.jpg
176.603610399994	1.00030940002762	win	NaN	n/a	n/a	MF023.jpg	MF024.jpg
183.553680300014	3.00169649999589	decision	1.53340020001633	left	M	MF025.jpg	MF026.jpg
187.1039093	1.01638839999214	loss	NaN	n/a	n/a	MF025.jpg	MF026.jpg
191.970353500044	3.00163969997084	decision	1.28262889996404	right	M	MF027.jpg	MF028.jpg
195.520313000015	1.01673889998347	loss	NaN	n/a	n/a	MF027.jpg	MF028.jpg
198.287028499995	3.00107440003194	decision	1.28241550002713	left	F	FF019.jpg	FF020.jpg
201.836789200024	1.00006819999544	loss	NaN	n/a	n/a	FF019.jpg	FF020.jpg
204.586957900028	3.00190079997992	decision	1.03278409998165	right	F	FF021.jpg	FF022.jpg
208.136914600036	1.00004700000864	win	NaN	n/a	n/a	FF021.jpg	FF022.jpg
215.087093200011	3.00188669998897	decision	2.03283839998767	left	M	MF029.jpg	MF030.jpg
218.636828800023	1.01673789997585	loss	NaN	n/a	n/a	MF029.jpg	MF030.jpg
225.603569600033	3.00148549996084	decision	2.53293149999809	right	M	MF031.jpg	MF032.jpg
229.153565500048	1.01670039998135	win	NaN	n/a	n/a	MF031.jpg	MF032.jpg
234.020202999993	3.03438380005537	decision	3.03385360003449	left	F	FF023.jpg	FF024.jpg
237.603861500043	1.01620889996411	loss	NaN	n/a	n/a	FF023.jpg	FF024.jpg
240.370221299992	3.00183560000733	decision	1.28264810005203	right	F	FF025.jpg	FF026.jpg
243.920154699998	1.00001170003088	win	NaN	n/a	n/a	FF025.jpg	FF026.jpg
248.770250900008	3.00145580002572	decision	2.03281310002785	left	F	FF027.jpg	FF028.jpg
252.320396800002	1.01653130003251	loss	NaN	n/a	n/a	FF027.jpg	FF028.jpg
255.08680400002	3.00107639998896	decision	1.28304850001587	right	M	MF033.jpg	MF034.jpg
258.63678120001	1.01667149999412	loss	NaN	n/a	n/a	MF033.jpg	MF034.jpg
261.403576400015	3.00111449998803	decision	1.533414000005	left	M	MF035.jpg	MF036.jpg
264.953780100041	1.01630989997648	loss	NaN	n/a	n/a	MF035.jpg	MF036.jpg
267.719910699991	3.00200560002122	decision	1.03274470003089	right	M	MF037.jpg	MF038.jpg
271.270411100006	1.01644999999553	win	NaN	n/a	n/a	MF037.jpg	MF038.jpg
278.236756900034	3.00088309997227	decision	1.78318259998923	right	F	FF029.jpg	FF030.jpg
281.786974899995	1.01636760000838	loss	NaN	n/a	n/a	FF029.jpg	FF030.jpg
284.553617900005	3.00128259998746	decision	1.53289949998725	left	F	FF031.jpg	FF032.jpg
288.103433400043	1.01658229995519	loss	NaN	n/a	n/a	FF031.jpg	FF032.jpg
292.970040500048	3.00096099998336	decision	1.03320189996157	right	F	FF033.jpg	FF034.jpg
296.520058399998	1.0167339000036	win	NaN	n/a	n/a	FF033.jpg	FF034.jpg
303.486697899993	3.00127020000946	decision	2.03323630004888	right	M	MF039.jpg	MF040.jpg
307.036655000004	1.01663900003769	loss	NaN	n/a	n/a	MF039.jpg	MF040.jpg
314.003431599995	3.00160730001517	decision	1.28249480004888	left	F	FF035.jpg	FF036.jpg
317.553242499998	1.00009940000018	win	NaN	n/a	n/a	FF035.jpg	FF036.jpg
320.3036326	3.00105280004209	decision	1.03243140003178	right	F	FF037.jpg	FF038.jpg
323.853286300029	1.01665199996205	loss	NaN	n/a	n/a	FF037.jpg	FF038.jpg
326.61995600001	3.05033370002639	decision	3.0498219000292	right	F	FF039.jpg	FF040.jpg
330.220245100034	1.01637069997378	loss	NaN	n/a	n/a	FF039.jpg	FF040.jpg
