onset	duration	trial_type	rt	resp
0.00030880002304911613	0.6370706000016071	fixation_1	999	999
0.6374227000051178	3.001651900005527	face	1.7826458000345156	2
3.639113000012003	0.6370706000016071	fixation_2	999	999
4.187377900001593	1.0165944999898784	feedback win	999	999
5.2039744000067	5.316789000004064	ITI	999	999
10.538100200006738	0.6325764000066556	fixation_1	999	999
11.170716800028458	3.001277700008359	face	1.282789499964565	1
14.17203120002523	0.6325764000066556	fixation_2	999	999
14.720590900047682	1.0000601999927312	feedback loss	999	999
15.720653099997435	1.118378700048197	ITI	999	999
16.842099600005895	0.6285608999896795	fixation_1	999	999
17.470707100001164	3.0022301000426523	face	2.7838258999981917	1
20.47297380003147	0.6285608999896795	fixation_2	999	999
21.020650600024965	1.0003264999832027	feedback win	999	999
22.020979100023396	1.117664999968838	ITI	999	999
23.141698500025086	0.6289893999928609	fixation_1	999	999
23.770729700045194	3.001263399957679	face	1.7823920999653637	2
26.772033100016415	0.6289893999928609	fixation_2	999	999
27.320682700024918	1.0166455999715254	feedback win	999	999
28.337330400012434	3.21667430002708	ITI	999	999
31.55716319999192	0.6304344000527635	fixation_1	999	999
32.187655800022185	3.0014222000027075	face	2.2823322999756783	1
35.18911780003691	0.6304344000527635	fixation_2	999	999
35.73727720003808	1.0164139999542385	feedback loss	999	999
36.75369320000755	5.316334200033452	ITI	999	999
42.073202900006436	0.6306904000230134	fixation_1	999	999
42.70393720001448	3.0016026999801397	face	2.0331122999778017	1
45.70557869999902	0.6306904000230134	fixation_2	999	999
46.253912100044545	1.000015199999325	feedback loss	999	999
47.253929500002414	3.2167459999909624	ITI	999	999
50.47376520000398	0.6300712000229396	fixation_1	999	999
51.10388350003632	3.001481599989347	face	1.7826007999829017	2
54.10540410003159	0.6300712000229396	fixation_2	999	999
54.65382170001976	1.0000926000066102	feedback win	999	999
55.65391640004236	3.2164488999987952	ITI	999	999
58.87360049999552	0.6301644000341184	fixation_1	999	999
59.50381110003218	3.0011419999646023	face	2.7836728999973275	1
62.50499210000271	0.6301644000341184	fixation_2	999	999
63.05381260003196	1.0171206999802962	feedback loss	999	999
64.07093550002901	1.1170680999639444	ITI	999	999
65.19124670000747	0.6296664000255987	fixation_1	999	999
65.82097600004636	3.001221999991685	face	1.7820434999885038	2
68.82223829999566	0.6296664000255987	fixation_2	999	999
69.3711644000141	1.0159629000118002	feedback win	999	999
70.38712970004417	1.1177844999474473	ITI	999	999
71.50829470000463	0.6289426000439562	fixation_1	999	999
72.1372890000348	3.00141009996878	face	1.7827212999691255	1
75.1387362999958	0.6289426000439562	fixation_2	999	999
75.68749149999348	1.0163392000249587	feedback win	999	999
76.70383330003824	1.1179480999708176	ITI	999	999
77.82503520004684	0.6286867999588139	fixation_1	999	999
78.45377490000101	3.001153699995484	face	2.7827026000013575	1
81.45496900001308	0.6286867999588139	fixation_2	999	999
82.00396130001172	1.0168467999901623	feedback loss	999	999
83.02081020001788	3.216557700012345	ITI	999	999
86.24072350002825	0.6298438999801874	fixation_1	999	999
86.8706194999977	3.001341000024695	face	2.032400200027041	2
89.87200160004431	0.6298438999801874	fixation_2	999	999
90.4205057999934	1.0167712000547908	feedback loss	999	999
91.43727900000522	1.1176247000112198	ITI	999	999
92.55820379999932	0.6292886000010185	fixation_1	999	999
93.18756069999654	3.0020924000418745	face	2.032837900042068	2
96.18969359999755	0.6292886000010185	fixation_2	999	999
96.73713449999923	1.000036200042814	feedback win	999	999
97.73717279999983	5.315889000019524	ITI	999	999
103.05635260004783	0.6306978999637067	fixation_1	999	999
103.68710199999623	3.0020880000083707	face	2.5329649000195786	1
106.68922659999225	0.6306978999637067	fixation_2	999	999
107.23716360004619	1.0166436999570578	feedback win	999	999
108.25380940001924	1.1178690000087954	ITI	999	999
109.37512070004595	0.6286302999942563	fixation_1	999	999
110.00380609999411	3.00117240002146	face	2.5325133000151254	2
113.00501790002454	0.6286302999942563	fixation_2	999	999
113.5537729000207	1.0167111000046134	feedback win	999	999
114.57048610004131	5.316338300006464	ITI	999	999
119.89023540000198	0.6302474000258371	fixation_1	999	999
120.52057480002986	3.000567500013858	face	2.8008633999852464	1
123.52117890003137	0.6302474000258371	fixation_2	999	999
124.07047650002642	1.0002922000130638	feedback win	999	999
125.07077079999726	3.216314400022384	ITI	999	999
128.2904758999939	0.6299103000201285	fixation_1	999	999
128.92044310003985	3.001535099989269	face	2.2828763999859802	2
131.9220190999913	0.6299103000201285	fixation_2	999	999
132.47035320004215	1.0000906999921426	feedback win	999	999
133.47044599999208	3.2158624000148848	ITI	999	999
136.689909800014	0.6305212000152096	fixation_1	999	999
137.3204861000413	3.001179399958346	face	2.033034299965948	1
140.32170490000863	0.6305212000152096	fixation_2	999	999
140.87075390003156	1.0165598000166938	feedback win	999	999
141.8873159000068	3.215616900008172	ITI	999	999
145.10642339999322	0.6305289000156336	fixation_1	999	999
145.73701129999245	3.0010818000300787	face	1.5327327000559308	2
148.73813100002008	0.6305289000156336	fixation_2	999	999
149.2870905000018	1.0001239000121132	feedback win	999	999
150.2872165000299	11.616841099981684	ITI	999	999
161.90760410000803	0.6293537000310607	fixation_1	999	999
162.53701850003563	3.000835599959828	face	2.0333288999972865	2
165.53789340000367	0.6293537000310607	fixation_2	999	999
166.0874579999945	1.0161803000373766	feedback loss	999	999
167.10364050004864	5.316346099949442	ITI	999	999
172.42349960003048	0.6301620000158437	fixation_1	999	999
173.05372369999532	3.001238099997863	face	1.533570600033272	2
176.0549972000299	0.6301620000158437	fixation_2	999	999
176.60361039999407	1.0003094000276178	feedback win	999	999
177.60392200003844	5.315756399999373	ITI	999	999
182.9232470000279	0.630368800018914	fixation_1	999	999
183.5536803000141	3.0016964999958873	face	1.533400200016331	1
186.55541730002733	0.630368800018914	fixation_2	999	999
187.10390929999994	1.0163883999921381	feedback loss	999	999
188.12029980000807	3.2158124999841675	ITI	999	999
191.339795100037	0.6304964000009932	fixation_1	999	999
191.97035350004444	3.0016396999708377	face	1.2826288999640383	2
194.97203589999117	0.6304964000009932	fixation_2	999	999
195.52031300001545	1.0167388999834657	feedback loss	999	999
196.53705420001643	1.1171596000203863	ITI	999	999
197.6578606000403	0.6290884999907576	fixation_1	999	999
198.28702849999536	3.001074400031939	face	1.2824155000271276	1
201.2881417000317	0.6290884999907576	fixation_2	999	999
201.8367892000242	1.0000681999954395	feedback loss	999	999
202.83685950003564	1.1182747000129893	ITI	999	999
203.95880730001954	0.6280840000254102	fixation_1	999	999
204.5869579000282	3.0019007999799214	face	1.0327840999816544	2
207.58890130004147	0.6280840000254102	fixation_2	999	999
208.1369146000361	1.0000470000086352	feedback win	999	999
209.13696390000405	5.317159700032789	ITI	999	999
214.45776660001138	0.6292436000076123	fixation_1	999	999
215.0870932000107	3.0018866999889724	face	2.032838399987668	1
218.08901590004098	0.6292436000076123	fixation_2	999	999
218.63682880002307	1.0167378999758512	feedback loss	999	999
219.65356870001415	5.317406499991193	ITI	999	999
224.97483120003017	0.6286701000062749	fixation_1	999	999
225.60356960003264	3.001485499960836	face	2.532931499998085	2
228.60509760002606	0.6286701000062749	fixation_2	999	999
229.153565500048	1.016700399981346	feedback win	999	999
230.17026790004456	3.215756399964448	ITI	999	999
233.3897966000368	0.6303379999590106	fixation_1	999	999
234.02020299999276	3.034383800055366	face	3.0338536000344902	1
237.0546143000247	0.6303379999590106	fixation_2	999	999
237.60386150004342	1.0162088999641128	feedback loss	999	999
238.62007250002353	1.1180419999873266	ITI	999	999
239.74182340002153	0.6283250999986194	fixation_1	999	999
240.3702212999924	3.0018356000073254	face	1.282648100052029	2
243.37209520000033	0.6283250999986194	fixation_2	999	999
243.9201546999975	1.000011700030882	feedback win	999	999
244.92016840004362	3.2168096999521367	ITI	999	999
248.14078840002185	0.6293456999701448	fixation_1	999	999
248.77025090000825	3.001455800025724	face	2.0328131000278518	1
251.77174840000225	0.6293456999701448	fixation_2	999	999
252.32039680000162	1.0165313000325114	feedback loss	999	999
253.33693029999267	1.1170544000342488	ITI	999	999
254.45779720001156	0.6289359999937005	fixation_1	999	999
255.0868040000205	3.0010763999889605	face	1.283048500015866	2
258.0879276000196	0.6289359999937005	fixation_2	999	999
258.63678120000986	1.0166714999941178	feedback loss	999	999
259.65345480002	1.117533300013747	ITI	999	999
260.77483840001514	0.628660399990622	fixation_1	999	999
261.4035764000146	3.0011144999880344	face	1.5334140000049956	1
264.4047307000146	0.628660399990622	fixation_2	999	999
264.9537801000406	1.016309899976477	feedback loss	999	999
265.97009210003307	1.1178205999895	ITI	999	999
267.09174970001914	0.6280755000188947	fixation_1	999	999
267.7199106999906	3.0020056000212207	face	1.0327447000308894	2
270.7219544000109	0.6280755000188947	fixation_2	999	999
271.27041110000573	1.0164499999955297	feedback win	999	999
272.2868631000165	5.316212599980645	ITI	999	999
277.60697030002484	0.6297107000136748	fixation_1	999	999
278.2367569000344	3.0008830999722704	face	1.7831825999892317	2
281.2376797000179	0.6297107000136748	fixation_2	999	999
281.7869748999947	1.0163676000083797	feedback loss	999	999
282.80334460001905	1.1185420000110753	ITI	999	999
283.9257864000392	0.6277337999781594	fixation_1	999	999
284.5536179000046	3.001282599987462	face	1.532899499987252	1
287.55494150001323	0.6277337999781594	fixation_2	999	999
288.1034334000433	1.0165822999551892	feedback loss	999	999
289.12001780001447	3.217063300020527	ITI	999	999
292.34101570001803	0.6289473000215366	fixation_1	999	999
292.9700405000476	3.000960999983363	face	1.0332018999615684	2
295.97103990003234	0.6289473000215366	fixation_2	999	999
296.52005839999765	1.0167339000036009	feedback win	999	999
297.53679440001724	5.316182699985802	ITI	999	999
302.8568858000217	0.6297348000225611	fixation_1	999	999
303.4866978999926	3.0012702000094578	face	2.033236300048884	2
306.4880086000194	0.6297348000225611	fixation_2	999	999
307.0366550000035	1.016639000037685	feedback loss	999	999
308.053296099999	5.316670100030024	ITI	999	999
313.37401700002374	0.6293372000218369	fixation_1	999	999
314.00343159999466	3.0016073000151664	face	1.2824948000488803	1
317.0050780000165	0.6293372000218369	fixation_2	999	999
317.5532424999983	1.000099400000181	feedback win	999	999
318.5533440000145	1.1176502000307664	ITI	999	999
319.675009700004	0.6285260000149719	fixation_1	999	999
320.3036326000001	3.001052800042089	face	1.0324314000317827	2
323.3047224000329	0.6285260000149719	fixation_2	999	999
323.85328630002914	1.0166519999620505	feedback loss	999	999
324.8699404000072	1.1178845000104047	ITI	999	999
325.9918631000328	0.6280105999903753	fixation_1	999	999
326.61995600000955	3.0503337000263855	face	3.049821900029201	2
329.67031710001174	0.6280105999903753	fixation_2	999	999
330.22024510003394	1.016370699973777	feedback loss	999	999
331.2366179000237	5.316407000005711	ITI	999	999
