onset	duration	trial_type	rt	resp	gender	image_left	image_right
0.6261698000598699	3.001155599951744	decision	1.7831645000260323	left	M	MF001.jpg	MF002.jpg
4.17604329995811	1.0166061001364142	win	n/a	n/a	n/a	MF001.jpg	MF002.jpg
11.15923950006254	3.0013915998861194	decision	1.5327601998578757	right	M	MF003.jpg	MF004.jpg
14.709379599895328	1.0164094001520425	loss	n/a	n/a	n/a	MF003.jpg	MF004.jpg
17.476043599890545	3.0015587001107633	decision	2.0326795000582933	left	M	MF005.jpg	MF006.jpg
21.026028800057247	1.016540699871257	win	n/a	n/a	n/a	MF005.jpg	MF006.jpg
23.7926165999379	3.0016430001705885	decision	1.782937000039965	left	F	FF001.jpg	FF002.jpg
27.342585700098425	1.000016100006178	win	n/a	n/a	n/a	FF001.jpg	FF002.jpg
32.19246769999154	3.001147500006482	decision	2.0334832998923957	left	F	FF003.jpg	FF004.jpg
35.74248749995604	1.0168572999536991	loss	n/a	n/a	n/a	FF003.jpg	FF004.jpg
42.70947239990346	3.0013036001473665	decision	1.7823068001307547	right	M	MF007.jpg	MF008.jpg
46.25930349994451	1.0166901000775397	loss	n/a	n/a	n/a	MF007.jpg	MF008.jpg
51.12598320003599	3.0017935999203473	decision	1.7825910998508334	left	M	MF009.jpg	MF010.jpg
54.675964599940926	1.016576300142333	win	n/a	n/a	n/a	MF009.jpg	MF010.jpg
59.54260220006108	3.0011501000262797	decision	1.5333716999739408	left	F	FF005.jpg	FF006.jpg
63.09253349993378	1.0166015999857336	loss	n/a	n/a	n/a	FF005.jpg	FF006.jpg
65.85932720010169	3.0011143998708576	decision	1.533415799960494	right	F	FF007.jpg	FF008.jpg
69.40929430001415	1.0	win	n/a	n/a	n/a	FF007.jpg	FF008.jpg
72.15939170005731	3.001404299866408	decision	1.5329821999184787	right	F	FF009.jpg	FF010.jpg
75.70972130005248	1.0161154998932034	win	n/a	n/a	n/a	FF009.jpg	FF010.jpg
78.47601250000298	3.001872600056231	decision	2.282825700007379	right	F	FF011.jpg	FF012.jpg
82.02564230002463	1.0002436998765916	loss	n/a	n/a	n/a	FF011.jpg	FF012.jpg
86.87585479998961	3.001129599986598	decision	2.283373099984601	right	M	MF011.jpg	MF012.jpg
90.42605979996733	1.0164232000242919	loss	n/a	n/a	n/a	MF011.jpg	MF012.jpg
93.19256990007125	3.0010718998964876	decision	1.5331863998435438	left	M	MF013.jpg	MF014.jpg
96.74248540005647	1.0000298998784274	win	n/a	n/a	n/a	MF013.jpg	MF014.jpg
103.69248560001142	3.0015505999326706	decision	1.2831560999620706	left	M	MF015.jpg	MF016.jpg
107.24241820001043	1.0000958000309765	win	n/a	n/a	n/a	MF015.jpg	MF016.jpg
109.99245169991627	3.0010020001791418	decision	1.2830475000664592	right	F	FF013.jpg	FF014.jpg
113.54239300009795	1.0002915998920798	win	n/a	n/a	n/a	FF013.jpg	FF014.jpg
120.49261619988829	3.0012962000910193	decision	1.5332018001936376	right	M	MF017.jpg	MF018.jpg
124.04261370003223	1.016397099941969	win	n/a	n/a	n/a	MF017.jpg	MF018.jpg
128.90904160006903	3.0408962999936193	decision-missed	n/a	n/a	F	FF015.jpg	FF016.jpg
132.49246140010655	1.0165438998956233	win	n/a	n/a	n/a	FF015.jpg	FF016.jpg
137.3592199999839	3.0011136999819428	decision	1.2836786000989377	left	M	MF019.jpg	MF020.jpg
140.90916600008495	1.000032400013879	win	n/a	n/a	n/a	MF019.jpg	MF020.jpg
145.75897100009024	3.0008314999286085	decision	1.533373799873516	left	F	FF017.jpg	FF018.jpg
149.309298499953	1.0000188001431525	win	n/a	n/a	n/a	FF017.jpg	FF018.jpg
162.55913669988513	3.0014813002198935	decision	1.033599500078708	left	M	MF021.jpg	MF022.jpg
166.10940039996058	1.0161832000594586	loss	n/a	n/a	n/a	MF021.jpg	MF022.jpg
173.07569389999844	3.0386739999521524	decision-missed	n/a	n/a	M	MF023.jpg	MF024.jpg
176.65899799996987	1.0000638000201434	win	n/a	n/a	n/a	MF023.jpg	MF024.jpg
183.60906819999218	3.001830799970776	decision	1.032654199982062	left	M	MF025.jpg	MF026.jpg
187.1589361000806	1.0000056999269873	loss	n/a	n/a	n/a	MF025.jpg	MF026.jpg
192.00889230007306	3.0018782999832183	decision	1.0329009999986738	right	M	MF027.jpg	MF028.jpg
195.5590715999715	1.0167606000322849	loss	n/a	n/a	n/a	MF027.jpg	MF028.jpg
198.32597659993917	3.0018106000497937	decision	1.5328669000882655	right	F	FF019.jpg	FF020.jpg
201.87562360009179	1.0167066999711096	loss	n/a	n/a	n/a	FF019.jpg	FF020.jpg
204.64235129998997	3.0369031000882387	decision-missed	n/a	n/a	F	FF021.jpg	FF022.jpg
208.22556470008567	1.0000606998801231	win	n/a	n/a	n/a	FF021.jpg	FF022.jpg
215.17563729989342	3.001549100037664	decision	1.0329756001010537	left	M	MF029.jpg	MF030.jpg
218.72567369998433	1.0165224999655038	loss	n/a	n/a	n/a	MF029.jpg	MF030.jpg
225.69223639997654	3.0340569000691175	decision-missed	n/a	n/a	M	MF031.jpg	MF032.jpg
229.27572820009664	1.0164656999986619	win	n/a	n/a	n/a	MF031.jpg	MF032.jpg
234.1422701999545	3.035383699927479	decision-missed	n/a	n/a	F	FF023.jpg	FF024.jpg
237.72552770003676	1.0166378000285476	loss	n/a	n/a	n/a	FF023.jpg	FF024.jpg
240.49203220009804	3.0017169998027384	decision	0.7838225997984409	left	F	FF025.jpg	FF026.jpg
244.04217409994453	1.0000653001479805	win	n/a	n/a	n/a	FF025.jpg	FF026.jpg
248.8924555000849	3.0330250998958945	decision-missed	n/a	n/a	F	FF027.jpg	FF028.jpg
252.47547720000148	1.016657100059092	loss	n/a	n/a	n/a	FF027.jpg	FF028.jpg
255.24222879996523	3.037227800115943	decision-missed	n/a	n/a	M	MF033.jpg	MF034.jpg
258.8253572001122	1.0166547999251634	loss	n/a	n/a	n/a	MF033.jpg	MF034.jpg
261.59218559996225	3.0015945001505315	decision	1.0326521000824869	right	M	MF035.jpg	MF036.jpg
265.1421064999886	1.016433299984783	loss	n/a	n/a	n/a	MF035.jpg	MF036.jpg
267.90878639998846	3.0020556999370456	decision	1.0326674999669194	left	M	MF037.jpg	MF038.jpg
271.45884660002775	1.016897500026971	win	n/a	n/a	n/a	MF037.jpg	MF038.jpg
278.4255077999551	3.0010592001490295	decision	1.0335365999490023	right	F	FF029.jpg	FF030.jpg
281.9753407998942	1.0165981000754982	loss	n/a	n/a	n/a	FF029.jpg	FF030.jpg
284.742687900085	3.0388007999863476	decision-missed	n/a	n/a	F	FF031.jpg	FF032.jpg
288.3253583998885	1.0166924002114683	loss	n/a	n/a	n/a	FF031.jpg	FF032.jpg
293.19207129999995	3.0007384999189526	decision	1.5335011000279337	left	F	FF033.jpg	FF034.jpg
296.74175269994885	1.0001467999536544	win	n/a	n/a	n/a	FF033.jpg	FF034.jpg
303.69204979995266	3.035393600119278	decision-missed	n/a	n/a	M	MF039.jpg	MF040.jpg
307.2752940999344	1.0000144999939948	loss	n/a	n/a	n/a	MF039.jpg	MF040.jpg
314.2253006999381	3.0365907000377774	decision-missed	n/a	n/a	F	FF035.jpg	FF036.jpg
317.8084682999179	1.0000774001237005	win	n/a	n/a	n/a	FF035.jpg	FF036.jpg
320.55858430010267	3.0013575998600572	decision	1.533111299853772	left	F	FF037.jpg	FF038.jpg
324.1085103000514	1.0167801999486983	loss	n/a	n/a	n/a	FF037.jpg	FF038.jpg
326.8753349001054	3.0363668999634683	decision-missed	n/a	n/a	F	FF039.jpg	FF040.jpg
330.4585287999362	1.0000557999592274	loss	n/a	n/a	n/a	FF039.jpg	FF040.jpg
