onset	duration	trial_type	rt	resp
0.00042470009066164494	0.5977137999143451	fixation_1	999	999
0.5981819999869913	3.0014311999548227	face	1.532661500154063	1
3.5996539001353085	0.5977137999143451	fixation_2	999	999
4.148327599978074	1.0163887001108378	feedback win	999	999
5.164718399988487	5.3170666000805795	ITI	999	999
10.487114700023085	0.594317400129512	fixation_1	999	999
11.081475800136104	3.0011570998467505	face	1.5326185999438167	1
14.082671799929813	0.594317400129512	fixation_2	999	999
14.631421800004318	1.000021900050342	feedback loss	999	999
15.631446100072935	1.1179597999434918	ITI	999	999
16.752727499930188	0.595349800074473	fixation_1	999	999
17.34813220007345	3.0003694999031723	face	1.283627700060606	2
20.348543900065124	0.595349800074473	fixation_2	999	999
20.898149100132287	1.0166166999842972	feedback win	999	999
21.91476840013638	1.1168788999784738	ITI	999	999
23.035104700131342	0.5963264999445528	fixation_1	999	999
23.631476500071585	3.0008556998800486	face	1.7833707998506725	1
26.63237280002795	0.5963264999445528	fixation_2	999	999
27.181354600004852	1.0001147999428213	feedback win	999	999
28.181471799965948	3.216169800143689	ITI	999	999
31.400881299981847	0.5972231000196189	fixation_1	999	999
31.998149400111288	3.0012916999403387	face	1.5326633998192847	2
34.999484800035134	0.5972231000196189	fixation_2	999	999
35.54793440015055	1.000109599903226	feedback loss	999	999
36.548046299954876	5.317529299994931	ITI	999	999
41.86881419993006	0.5960321000311524	fixation_1	999	999
42.46491879993118	3.0010993001051247	face	2.0331455999985337	2
45.466057300101966	0.5960321000311524	fixation_2	999	999
46.01462749997154	1.0005459000822157	feedback loss	999	999
47.015175600070506	3.217250899877399	ITI	999	999
50.235725600039586	0.6123458999209106	fixation_1	999	999
50.84812130010687	3.0015324000269175	face	1.2827222999185324	1
53.849694000091404	0.6123458999209106	fixation_2	999	999
54.398015999933705	1.000088200205937	feedback win	999	999
55.39810630003922	3.2158745999913663	ITI	999	999
58.61734150000848	0.6140654999762774	fixation_1	999	999
59.23145850002766	3.0013441999908537	face	1.7831822000443935	2
62.232844199985266	0.6140654999762774	fixation_2	999	999
62.78132380009629	1.0169511998537928	feedback loss	999	999
63.79827710008249	1.1172654000110924	ITI	999	999
64.91892700013705	0.6122722998261452	fixation_1	999	999
65.53125050012022	3.03891359991394	face	n/a	n/a
68.57019799994305	0.6122722998261452	fixation_2	999	999
69.11466860002838	1.0167871001176536	feedback win	999	999
70.13145780004561	1.1172698999289423	ITI	999	999
71.25216159992851	0.5959618000779301	fixation_1	999	999
71.84817979997024	3.0011136000975966	face	1.2826270000077784	1
74.84933280013502	0.5959618000779301	fixation_2	999	999
75.39804990007542	1.0165402998682112	feedback win	999	999
76.4145925999619	1.1180551999714226	ITI	999	999
77.53613610006869	0.5952071999199688	fixation_1	999	999
78.1313937001396	3.0013169997837394	face	1.0324152999091893	2
81.13275310001336	0.5952071999199688	fixation_2	999	999
81.68133140006103	1.0166076000314206	feedback loss	999	999
82.6979412001092	3.216533500002697	ITI	999	999
85.91860380000435	0.6127303000539541	fixation_1	999	999
86.53138920012861	3.0010380998719484	face	2.532327399821952	2
89.53247710014693	0.6127303000539541	fixation_2	999	999
90.08132290001959	1.0166559999343008	feedback loss	999	999
91.09798109997064	1.1173558000009507	ITI	999	999
92.21880659996532	0.5957327999640256	fixation_1	999	999
92.81459189997986	3.0010008001700044	face	1.2824971000663936	1
95.81563300010748	0.5957327999640256	fixation_2	999	999
96.36458229995333	1.0165393999777734	feedback win	999	999
97.3811238000635	5.316575099946931	ITI	999	999
102.70125379995443	0.596752000041306	fixation_1	999	999
103.29806070006453	3.0019856998696923	face	1.2826723998878151	1
106.30008710012771	0.596752000041306	fixation_2	999	999
106.84796670009382	1.016528100008145	feedback win	999	999
107.86449710000306	1.1172432999592274	ITI	999	999
108.9852966000326	0.5962809999473393	fixation_1	999	999
109.58165109995753	3.001813900191337	face	0.7831960001494735	2
112.58350590011105	0.5962809999473393	fixation_2	999	999
113.13145059999079	1.0163070000708103	feedback win	999	999
114.14775969996117	5.316043100086972	ITI	999	999
119.46733180014417	0.5971366998273879	fixation_1	999	999
120.06452889996581	3.0011160001158714	face	2.5332957000937313	2
123.06568529992364	0.5971366998273879	fixation_2	999	999
123.61449640011415	1.0167115998920053	feedback win	999	999
124.6312102000229	3.2165387000422925	ITI	999	999
127.85126970009878	0.6132360999472439	fixation_1	999	999
128.46456889994442	3.001649900106713	face	1.0331453001126647	1
131.46626040013507	0.6132360999472439	fixation_2	999	999
132.01454879995435	1.016521300189197	feedback win	999	999
133.03107229992747	3.2176458002068102	ITI	999	999
136.2523881001398	0.6286867999006063	fixation_1	999	999
136.8811604999937	3.0011442000977695	face	1.2830666000954807	2
139.88234310015105	0.6286867999006063	fixation_2	999	999
140.4311263000127	1.0000926000066102	feedback win	999	999
141.43122110003605	3.2166122999042273	ITI	999	999
144.65155029995367	0.5962428001221269	fixation_1	999	999
145.2478549000807	3.002468300051987	face	1.532852599862963	2
148.25036470009945	0.5962428001221269	fixation_2	999	999
148.79777810000814	1.0166627999860793	feedback win	999	999
149.81444300012663	11.615981200011447	ITI	999	999
161.43417110014707	0.5968849000055343	fixation_1	999	999
162.031120599946	3.001139000058174	face	1.5325255000498146	1
165.0323020000942	0.5968849000055343	fixation_2	999	999
165.58120190002955	1.016434600111097	feedback loss	999	999
166.59763860004023	5.3167417999356985	ITI	999	999
171.91809380007908	0.5963325998745859	fixation_1	999	999
172.5144901999738	3.000911300070584	face	1.2833416000939906	2
175.5154426000081	0.5963325998745859	fixation_2	999	999
176.06438790005632	1.0167246998753399	feedback win	999	999
177.0811147999484	5.3156628999859095	ITI	999	999
182.4005950000137	0.5971492000389844	fixation_1	999	999
182.99781060009263	3.0384795998688787	face	n/a	n/a
186.03632299997844	0.5971492000389844	fixation_2	999	999
186.5811477000825	1.0164983998984098	feedback loss	999	999
187.5976484999992	3.2160476001445204	ITI	999	999
190.81732799997553	0.5970300000626594	fixation_1	999	999
191.41443110001273	3.0012918999418616	face	1.0333277999889106	1
194.41576300002635	0.5970300000626594	fixation_2	999	999
194.96427899994887	1.0167857999913394	feedback loss	999	999
195.98106699995697	1.1183814001269639	ITI	999	999
197.1031647999771	0.6278888001106679	fixation_1	999	999
197.73113830015063	3.0011190997902304	face	1.28361209994182	2
200.73229940002784	0.6278888001106679	fixation_2	999	999
201.28102540015243	1.000031199771911	feedback loss	999	999
202.28105870005675	1.1166666999924928	ITI	999	999
203.40164870000444	0.595980399986729	fixation_1	999	999
203.99769850005396	3.0364709000568837	face	n/a	n/a
207.0342023000121	0.595980399986729	fixation_2	999	999
207.58109510014765	1.0164482998661697	feedback win	999	999
208.59754560003057	5.3160687000490725	ITI	999	999
213.91744940006174	0.5969012000132352	fixation_1	999	999
214.51442130003124	3.0014593999367207	face	1.5323135999497026	1
217.51591930002905	0.5969012000132352	fixation_2	999	999
218.06431489996612	1.0000106000807136	feedback loss	999	999
219.0643277000636	5.316409900086001	ITI	999	999
224.38462010002695	0.5963626001030207	fixation_1	999	999
224.98105180007406	3.038006499875337	face	n/a	n/a
228.0190908999648	0.5963626001030207	fixation_2	999	999
228.56447570002638	1.0162986000068486	feedback win	999	999
229.58077659993432	3.2165367000270635	ITI	999	999
232.8010782999918	0.5964751001447439	fixation_1	999	999
233.39762450009584	3.0361766000278294	face	n/a	n/a
236.43383430014364	0.5964751001447439	fixation_2	999	999
236.9809646999929	1.0166281000711024	feedback loss	999	999
237.99759500008076	1.1169948999304324	ITI	999	999
239.11850140010938	0.596051599830389	fixation_1	999	999
239.71464630006813	3.036642299965024	face	n/a	n/a
242.75132200005464	0.596051599830389	fixation_2	999	999
243.29747879994102	1.0000962000340223	feedback win	999	999
244.29757730010897	3.216146199963987	ITI	999	999
247.51777560007758	0.596493300050497	fixation_1	999	999
248.11434450000525	3.001254600007087	face	2.532325299922377	2
251.1156405999791	0.596493300050497	fixation_2	999	999
251.66427980014123	1.0165108998771757	feedback loss	999	999
252.68079290003516	1.1168674998916686	ITI	999	999
253.8017188999802	0.5957180999685079	fixation_1	999	999
254.39751340006478	3.000603700056672	face	1.5331381999421865	1
257.398157000076	0.5957180999685079	fixation_2	999	999
257.94746110006236	1.016738799866289	feedback loss	999	999
258.9642020999454	1.1171360001899302	ITI	999	999
260.0853655000683	0.6122504998929799	fixation_1	999	999
260.6977053999435	3.000785400159657	face	1.782276300014928	1
263.69853090005927	0.6122504998929799	fixation_2	999	999
264.24747400009073	1.0165847998578101	feedback loss	999	999
265.2640609999653	1.1178019000217319	ITI	999	999
266.3859036001377	0.5950598998460919	fixation_1	999	999
266.98104170011356	3.037743999855593	face	n/a	n/a
270.0188190001063	0.5950598998460919	fixation_2	999	999
270.5642021999229	1.0165465001482517	feedback win	999	999
271.5807509000879	5.316063900012523	ITI	999	999
276.90094500011764	0.5964802999515086	fixation_1	999	999
277.4975024999585	3.0021528999786824	face	1.282833700068295	1
280.49969490012154	0.5964802999515086	fixation_2	999	999
281.0474322999362	1.0165995000861585	feedback loss	999	999
282.0640340000391	1.1180700999684632	ITI	999	999
283.186198099982	0.6111519001424313	fixation_1	999	999
283.79742810013704	3.0011049997992814	face	1.78228889987804	1
286.7985743000172	0.6111519001424313	fixation_2	999	999
287.3474443999585	1.0166981001384556	feedback loss	999	999
288.3641447001137	3.2164113000035286	ITI	999	999
291.5845882999711	0.5961083001457155	fixation_1	999	999
292.18077740003355	3.0018450999632478	face	1.2826066000852734	2
295.18266219994985	0.5961083001457155	fixation_2	999	999
295.7309127000626	1.0164691000245512	feedback win	999	999
296.74738389998674	5.317251899978146	ITI	999	999
302.0686725000851	0.595434800023213	fixation_1	999	999
302.6641886001453	3.0014156999532133	face	1.0329807999078184	2
305.6656446000561	0.595434800023213	fixation_2	999	999
306.21410290012136	1.0167376999743283	feedback loss	999	999
307.23084269999526	5.316081800032407	ITI	999	999
312.5512501001358	0.612802199786529	fixation_1	999	999
313.16418890003115	3.049697699956596	face	3.0491969001013786	2
316.2139147000853	0.612802199786529	fixation_2	999	999
316.7640657001175	1.016493999864906	feedback win	999	999
317.7805618001148	1.1170707999262959	ITI	999	999
318.90178419998847	0.5956133999861777	fixation_1	999	999
319.49747890001163	3.0012408001348376	face	1.532668000087142	1
322.4987586000934	0.5956133999861777	fixation_2	999	999
323.0473100000527	1.000101099954918	feedback loss	999	999
324.04741350002587	1.117231799988076	ITI	999	999
325.1691271001473	0.5949478999245912	fixation_1	999	999
325.76415820000693	3.000509199919179	face	1.2831556999590248	1
328.7647067999933	0.5949478999245912	fixation_2	999	999
329.31410289998166	1.0165653999429196	feedback loss	999	999
330.330670400057	5.316308999899775	ITI	999	999
