onset	duration	trial_type	rt	resp	gender	image_left	image_right
0.598181999986991	3.00143119995482	decision	1.532661500154063	left	S	SD001.jpg	SD002.jpg
4.14832759997807	1.01638870011084	win	n/a	n/a	n/a	SD001.jpg	SD002.jpg
11.0814758001361	3.00115709984675	decision	1.5326185999438167	left	S	SD003.jpg	SD004.jpg
14.6314218000043	1.00002190005034	loss	n/a	n/a	n/a	SD003.jpg	SD004.jpg
17.3481322000735	3.00036949990317	decision	1.283627700060606	right	S	SD005.jpg	SD006.jpg
20.8981491001323	1.0166166999843	win	n/a	n/a	n/a	SD005.jpg	SD006.jpg
23.6314765000716	3.00085569988005	decision	1.7833707998506725	left	D	DD001.jpg	DD002.jpg
27.1813546000049	1.00011479994282	win	n/a	n/a	n/a	DD001.jpg	DD002.jpg
31.9981494001113	3.00129169994034	decision	1.5326633998192847	right	D	DD003.jpg	DD004.jpg
35.5479344001506	1.00010959990323	loss	n/a	n/a	n/a	DD003.jpg	DD004.jpg
42.4649187999312	3.00109930010512	decision	2.0331455999985337	right	S	SD007.jpg	SD008.jpg
46.0146274999715	1.00054590008222	loss	n/a	n/a	n/a	SD007.jpg	SD008.jpg
50.8481213001069	3.00153240002692	decision	1.2827222999185324	left	S	SD009.jpg	SD010.jpg
54.3980159999337	1.00008820020594	win	n/a	n/a	n/a	SD009.jpg	SD010.jpg
59.2314585000277	3.00134419999085	decision	1.7831822000443935	right	D	DD005.jpg	DD006.jpg
62.7813238000963	1.01695119985379	loss	n/a	n/a	n/a	DD005.jpg	DD006.jpg
65.5312505001202	3.03891359991394	decision-missed	n/a	n/a	D	DD007.jpg	DD008.jpg
69.1146686000284	1.01678710011765	win	n/a	n/a	n/a	DD007.jpg	DD008.jpg
71.8481797999702	3.0011136000976	decision	1.2826270000077784	left	D	DD009.jpg	DD010.jpg
75.3980499000754	1.01654029986821	win	n/a	n/a	n/a	DD009.jpg	DD010.jpg
78.1313937001396	3.00131699978374	decision	1.0324152999091893	right	D	DD011.jpg	DD012.jpg
81.681331400061	1.01660760003142	loss	n/a	n/a	n/a	DD011.jpg	DD012.jpg
86.5313892001286	3.00103809987195	decision	2.532327399821952	right	S	SD011.jpg	SD012.jpg
90.0813229000196	1.0166559999343	loss	n/a	n/a	n/a	SD011.jpg	SD012.jpg
92.8145918999799	3.00100080017	decision	1.2824971000663936	left	S	SD013.jpg	SD014.jpg
96.3645822999533	1.01653939997777	win	n/a	n/a	n/a	SD013.jpg	SD014.jpg
103.298060700065	3.00198569986969	decision	1.2826723998878151	left	S	SD015.jpg	SD016.jpg
106.847966700094	1.01652810000814	win	n/a	n/a	n/a	SD015.jpg	SD016.jpg
109.581651099958	3.00181390019134	decision	0.7831960001494735	right	D	DD013.jpg	DD014.jpg
113.131450599991	1.01630700007081	win	n/a	n/a	n/a	DD013.jpg	DD014.jpg
120.064528899966	3.00111600011587	decision	2.5332957000937313	right	S	SD017.jpg	SD018.jpg
123.614496400114	1.01671159989201	win	n/a	n/a	n/a	SD017.jpg	SD018.jpg
128.464568899944	3.00164990010671	decision	1.0331453001126647	left	D	DD015.jpg	DD016.jpg
132.014548799954	1.0165213001892	win	n/a	n/a	n/a	DD015.jpg	DD016.jpg
136.881160499994	3.00114420009777	decision	1.2830666000954807	right	S	SD019.jpg	SD020.jpg
140.431126300013	1.00009260000661	win	n/a	n/a	n/a	SD019.jpg	SD020.jpg
145.247854900081	3.00246830005199	decision	1.532852599862963	right	D	DD017.jpg	DD018.jpg
148.797778100008	1.01666279998608	win	n/a	n/a	n/a	DD017.jpg	DD018.jpg
162.031120599946	3.00113900005817	decision	1.5325255000498146	left	S	SD021.jpg	SD022.jpg
165.58120190003	1.0164346001111	loss	n/a	n/a	n/a	SD021.jpg	SD022.jpg
172.514490199974	3.00091130007058	decision	1.2833416000939906	right	S	SD023.jpg	SD024.jpg
176.064387900056	1.01672469987534	win	n/a	n/a	n/a	SD023.jpg	SD024.jpg
182.997810600093	3.03847959986888	decision-missed	n/a	n/a	S	SD025.jpg	SD026.jpg
186.581147700083	1.01649839989841	loss	n/a	n/a	n/a	SD025.jpg	SD026.jpg
191.414431100013	3.00129189994186	decision	1.0333277999889106	left	S	SD027.jpg	SD028.jpg
194.964278999949	1.01678579999134	loss	n/a	n/a	n/a	SD027.jpg	SD028.jpg
197.731138300151	3.00111909979023	decision	1.28361209994182	right	D	DD019.jpg	DD020.jpg
201.281025400152	1.00003119977191	loss	n/a	n/a	n/a	DD019.jpg	DD020.jpg
203.997698500054	3.03647090005688	decision-missed	n/a	n/a	D	DD021.jpg	DD022.jpg
207.581095100148	1.01644829986617	win	n/a	n/a	n/a	DD021.jpg	DD022.jpg
214.514421300031	3.00145939993672	decision	1.5323135999497026	left	S	SD029.jpg	SD030.jpg
218.064314899966	1.00001060008071	loss	n/a	n/a	n/a	SD029.jpg	SD030.jpg
224.981051800074	3.03800649987534	decision-missed	n/a	n/a	S	SD031.jpg	SD032.jpg
228.564475700026	1.01629860000685	win	n/a	n/a	n/a	SD031.jpg	SD032.jpg
233.397624500096	3.03617660002783	decision-missed	n/a	n/a	D	DD023.jpg	DD024.jpg
236.980964699993	1.0166281000711	loss	n/a	n/a	n/a	DD023.jpg	DD024.jpg
239.714646300068	3.03664229996502	decision-missed	n/a	n/a	D	DD025.jpg	DD026.jpg
243.297478799941	1.00009620003402	win	n/a	n/a	n/a	DD025.jpg	DD026.jpg
248.114344500005	3.00125460000709	decision	2.532325299922377	right	D	DD027.jpg	DD028.jpg
251.664279800141	1.01651089987718	loss	n/a	n/a	n/a	DD027.jpg	DD028.jpg
254.397513400065	3.00060370005667	decision	1.5331381999421865	left	S	SD033.jpg	SD034.jpg
257.947461100062	1.01673879986629	loss	n/a	n/a	n/a	SD033.jpg	SD034.jpg
260.697705399944	3.00078540015966	decision	1.782276300014928	left	S	SD035.jpg	SD036.jpg
264.247474000091	1.01658479985781	loss	n/a	n/a	n/a	SD035.jpg	SD036.jpg
266.981041700114	3.03774399985559	decision-missed	n/a	n/a	S	SD037.jpg	SD038.jpg
270.564202199923	1.01654650014825	win	n/a	n/a	n/a	SD037.jpg	SD038.jpg
277.497502499959	3.00215289997868	decision	1.282833700068295	left	D	DD029.jpg	DD030.jpg
281.047432299936	1.01659950008616	loss	n/a	n/a	n/a	DD029.jpg	DD030.jpg
283.797428100137	3.00110499979928	decision	1.78228889987804	left	D	DD031.jpg	DD032.jpg
287.347444399958	1.01669810013846	loss	n/a	n/a	n/a	DD031.jpg	DD032.jpg
292.180777400034	3.00184509996325	decision	1.2826066000852734	right	D	DD033.jpg	DD034.jpg
295.730912700063	1.01646910002455	win	n/a	n/a	n/a	DD033.jpg	DD034.jpg
302.664188600145	3.00141569995321	decision	1.0329807999078184	right	S	SD039.jpg	SD040.jpg
306.214102900121	1.01673769997433	loss	n/a	n/a	n/a	SD039.jpg	SD040.jpg
313.164188900031	3.0496976999566	decision	3.0491969001013786	right	D	DD035.jpg	DD036.jpg
316.764065700117	1.01649399986491	win	n/a	n/a	n/a	DD035.jpg	DD036.jpg
319.497478900012	3.00124080013484	decision	1.532668000087142	left	D	DD037.jpg	DD038.jpg
323.047310000053	1.00010109995492	loss	n/a	n/a	n/a	DD037.jpg	DD038.jpg
325.764158200007	3.00050919991918	decision	1.2831556999590248	left	D	DD039.jpg	DD040.jpg
329.314102899982	1.01656539994292	loss	n/a	n/a	n/a	DD039.jpg	DD040.jpg
