onset	duration	trial_type	rt	resp	gender	image_left	image_right
0.636807099974249	3.00194960000226	decision	1.53295179997804	left	M	MF001.jpg	MF002.jpg
4.18679439998232	1.01641290000407	win	NaN	n/a	n/a	MF001.jpg	MF002.jpg
11.1700637000031	3.00076859997353	decision	2.03314979997231	right	M	MF003.jpg	MF004.jpg
14.719859899953	1.00030890002381	loss	NaN	n/a	n/a	MF003.jpg	MF004.jpg
17.4700360999559	3.00118479999946	decision	1.78251670004101	right	M	MF005.jpg	MF006.jpg
21.0201353000011	1.00004489999264	win	NaN	n/a	n/a	MF005.jpg	MF006.jpg
23.7699895999976	3.00129629997537	decision	1.78277629998047	left	F	FF001.jpg	FF002.jpg
27.3198807999725	1.00031849998049	win	NaN	n/a	n/a	FF001.jpg	FF002.jpg
32.170160699985	3.00161560002016	decision	1.78257430001395	right	F	FF003.jpg	FF004.jpg
35.7200972999563	1.01646720001008	loss	NaN	n/a	n/a	FF003.jpg	FF004.jpg
42.6867830999545	3.00167710002279	decision	2.03268580004806	right	M	MF007.jpg	MF008.jpg
46.2366000000038	1.00016709999181	loss	NaN	n/a	n/a	MF007.jpg	MF008.jpg
51.0866347999545	3.00119690003339	decision	1.78261080000084	right	M	MF009.jpg	MF010.jpg
54.6367725000018	1.01660479995189	win	NaN	n/a	n/a	MF009.jpg	MF010.jpg
59.503449199954	3.00095960003091	decision	1.78221270005452	right	F	FF005.jpg	FF006.jpg
63.0530661999946	1.00009899999714	loss	NaN	n/a	n/a	FF005.jpg	FF006.jpg
65.8032702999772	3.00122949999059	decision	2.03253879997646	right	F	FF007.jpg	FF008.jpg
69.35339319997	1.01642350002658	win	NaN	n/a	n/a	FF007.jpg	FF008.jpg
72.1200032999623	3.00077820004662	decision	1.78230230003828	left	F	FF009.jpg	FF010.jpg
75.6698558999924	1.01651789998868	win	NaN	n/a	n/a	FF009.jpg	FF010.jpg
78.4365164999617	3.00092540000333	decision	2.28224640002009	left	F	FF011.jpg	FF012.jpg
81.9867317999597	1.01633630000288	loss	NaN	n/a	n/a	FF011.jpg	FF012.jpg
86.8534078999655	3.00138810003409	decision	2.0321821999969	left	M	MF011.jpg	MF012.jpg
90.4029957999592	1.0003679000074	loss	NaN	n/a	n/a	MF011.jpg	MF012.jpg
93.1533932999591	3.00088810001034	decision	1.53337160003139	left	M	MF013.jpg	MF014.jpg
96.7033306999947	1.01642359996913	win	NaN	n/a	n/a	MF013.jpg	MF014.jpg
103.669828799961	3.000954200048	decision	1.28236960002687	right	M	MF015.jpg	MF016.jpg
107.219781699998	1.01686189998873	win	NaN	n/a	n/a	MF015.jpg	MF016.jpg
109.986446199997	3.00085929996567	decision	1.78331009997055	left	F	FF013.jpg	FF014.jpg
113.536422799982	1.00021149998065	win	NaN	n/a	n/a	FF013.jpg	FF014.jpg
120.486716399959	3.00105930003338	decision	1.78327310003806	right	M	MF017.jpg	MF018.jpg
124.036622899992	1.01667759998236	win	NaN	n/a	n/a	MF017.jpg	MF018.jpg
128.902992899995	3.00181529996917	decision	1.53342369996244	right	F	FF015.jpg	FF016.jpg
132.453268299985	1.01650680002058	win	NaN	n/a	n/a	FF015.jpg	FF016.jpg
137.319863699959	3.00093229999766	decision	1.78237100003753	left	M	MF019.jpg	MF020.jpg
140.869782699971	1.01681780000217	win	NaN	n/a	n/a	MF019.jpg	MF020.jpg
145.736669500009	3.00154029997066	decision	1.53190629999153	right	F	FF017.jpg	FF018.jpg
149.286258999957	1.00031730002956	win	NaN	n/a	n/a	FF017.jpg	FF018.jpg
162.536577099992	3.00099769997178	decision	1.53234709997196	left	M	MF021.jpg	MF022.jpg
166.086582399963	1.01645100000314	loss	NaN	n/a	n/a	MF021.jpg	MF022.jpg
173.053276899969	3.00052080000751	decision	1.53209079999942	right	M	MF023.jpg	MF024.jpg
176.603141199972	1.00034730002517	win	NaN	n/a	n/a	MF023.jpg	MF024.jpg
183.553186199977	3.00173900002846	decision	2.03222049999749	left	M	MF025.jpg	MF026.jpg
187.10283019999	1.00030959997093	loss	NaN	n/a	n/a	MF025.jpg	MF026.jpg
191.953163700004	3.00073829997564	decision	1.78401149995625	right	M	MF027.jpg	MF028.jpg
195.502850499994	1.00018059997819	loss	NaN	n/a	n/a	MF027.jpg	MF028.jpg
198.253191099968	3.00113540003076	decision	1.78227359999437	left	F	FF019.jpg	FF020.jpg
201.803105200001	1.01666570000816	loss	NaN	n/a	n/a	FF019.jpg	FF020.jpg
204.569864099962	3.00201440003002	decision	1.53292610001517	left	F	FF021.jpg	FF022.jpg
208.119810200005	1.01638159999857	win	NaN	n/a	n/a	FF021.jpg	FF022.jpg
215.086506299966	3.00104699999793	decision	2.03231720003532	right	M	MF029.jpg	MF030.jpg
218.63643459999	1.01652940001804	loss	NaN	n/a	n/a	MF029.jpg	MF030.jpg
225.602986599959	3.0022512000287	decision	1.5329651000211	right	M	MF031.jpg	MF032.jpg
229.152850399958	1.01658860000316	win	NaN	n/a	n/a	MF031.jpg	MF032.jpg
234.01981909998	3.00188320002053	decision	1.7819588999846	left	F	FF023.jpg	FF024.jpg
237.569732300006	1.01663209998515	loss	NaN	n/a	n/a	FF023.jpg	FF024.jpg
240.336113900004	3.00095729995519	decision	1.78357059997506	right	F	FF025.jpg	FF026.jpg
243.885913799983	1.00024700001813	win	NaN	n/a	n/a	FF025.jpg	FF026.jpg
248.736120899965	3.00190490001114	decision	2.03348039998673	left	F	FF027.jpg	FF028.jpg
252.286372500006	1.01644059998216	loss	NaN	n/a	n/a	FF027.jpg	FF028.jpg
255.052808499953	3.00197750004008	decision	1.78243459999794	right	M	MF033.jpg	MF034.jpg
258.602744399977	1.00054690003162	loss	NaN	n/a	n/a	MF033.jpg	MF034.jpg
261.352687400009	3.00109609996434	decision	1.78314399998635	left	M	MF035.jpg	MF036.jpg
264.902540399984	1.00023110001348	loss	NaN	n/a	n/a	MF035.jpg	MF036.jpg
267.6528636	3.00092649995349	decision	2.03243789996486	left	M	MF037.jpg	MF038.jpg
271.202822599967	1.01680670003407	win	NaN	n/a	n/a	MF037.jpg	MF038.jpg
278.1696199	3.00132759998087	decision	1.53217729995959	right	F	FF029.jpg	FF030.jpg
281.719621600001	1.01664149999851	loss	NaN	n/a	n/a	FF029.jpg	FF030.jpg
284.486324500002	3.00088299997151	decision	2.03219749999698	left	F	FF031.jpg	FF032.jpg
288.036231399979	1.0000176000176	loss	NaN	n/a	n/a	FF031.jpg	FF032.jpg
292.886870199989	3.00141369999619	decision	1.53241200000048	left	F	FF033.jpg	FF034.jpg
296.436231	1.01666049996857	win	NaN	n/a	n/a	FF033.jpg	FF034.jpg
303.402866799966	3.00135560001945	decision	1.53271430003224	left	M	MF039.jpg	MF040.jpg
306.952506300004	1.00011049996829	loss	NaN	n/a	n/a	MF039.jpg	MF040.jpg
313.902724299987	3.00148340000305	decision	1.28323609998915	left	F	FF035.jpg	FF036.jpg
317.452784599969	1.01642960001482	win	NaN	n/a	n/a	FF035.jpg	FF036.jpg
320.219570899964	3.00083060003817	decision	1.78225300001213	right	F	FF037.jpg	FF038.jpg
323.769475499983	1.01655010000104	loss	NaN	n/a	n/a	FF037.jpg	FF038.jpg
326.535825699975	3.00193879997823	decision	1.53376239998033	right	F	FF039.jpg	FF040.jpg
330.085908499954	1.00021460000426	loss	NaN	n/a	n/a	FF039.jpg	FF040.jpg
