onset	duration	trial_type	rt	resp	gender	image_left	image_right
0.590960799949244	3.00182090001181	decision	1.53288369998336	left	S	SD001.jpg	SD002.jpg
4.14065449987538	1.00004630000331	win	NaN	n/a	n/a	SD001.jpg	SD002.jpg
11.0577291999944	3.00109039992094	decision	2.28311939979903	right	S	SD003.jpg	SD004.jpg
14.6076588998549	1.01665899995714	loss	NaN	n/a	n/a	SD003.jpg	SD004.jpg
17.3408660998102	3.00164759997278	decision	2.78279200010002	left	S	SD005.jpg	SD006.jpg
20.8910042999778	1.01629599998705	win	NaN	n/a	n/a	SD005.jpg	SD006.jpg
23.6244433999527	3.00177780003287	decision	2.03229709994048	left	D	DD001.jpg	DD002.jpg
27.1739465999417	1.00003420002759	win	NaN	n/a	n/a	DD001.jpg	DD002.jpg
31.9908123000059	3.00166690000333	decision	1.28352969978005	left	D	DD003.jpg	DD004.jpg
35.5406088999007	1.00015660002828	loss	NaN	n/a	n/a	DD003.jpg	DD004.jpg
42.4581358998548	3.00126540008932	decision	1.28168980008923	right	S	SD007.jpg	SD008.jpg
46.0076521998271	1.01661320007406	loss	NaN	n/a	n/a	SD007.jpg	SD008.jpg
50.8576850998215	3.00212690001354	decision	1.2826598000247	left	S	SD009.jpg	SD010.jpg
54.407624399988	1.01669269986451	win	NaN	n/a	n/a	SD009.jpg	SD010.jpg
59.2576916997787	3.00109120015986	decision	1.28215189999901	left	D	DD005.jpg	DD006.jpg
62.8076239998918	1.0001612000633	loss	NaN	n/a	n/a	DD005.jpg	DD006.jpg
65.5243833998684	3.00233869999647	decision	1.28292119991966	left	D	DD007.jpg	DD008.jpg
69.0742277998943	1.01651090011001	win	NaN	n/a	n/a	DD007.jpg	DD008.jpg
71.8075504999142	3.00120810000226	decision	1.03228219994344	right	D	DD009.jpg	DD010.jpg
75.3575845998712	1.01624809997156	win	NaN	n/a	n/a	DD009.jpg	DD010.jpg
78.090833999915	3.0008882000111	decision	1.7824025999289	left	D	DD011.jpg	DD012.jpg
81.6407578999642	1.0168035000097	loss	NaN	n/a	n/a	DD011.jpg	DD012.jpg
86.4739211997949	3.00186890014447	decision	1.03271530009806	left	S	SD011.jpg	SD012.jpg
90.0241122997832	1.01645120000467	loss	NaN	n/a	n/a	SD011.jpg	SD012.jpg
92.7577165998518	3.00156160001643	decision	2.03186630015261	left	S	SD013.jpg	SD014.jpg
96.3078118998092	1.0162121001631	win	NaN	n/a	n/a	SD013.jpg	SD014.jpg
103.241063199937	3.00141749996692	decision	1.28272160002962	right	S	SD015.jpg	SD016.jpg
106.790818799986	1.01632409985177	win	NaN	n/a	n/a	SD015.jpg	SD016.jpg
109.52382449992	3.000970199937	decision	1.2830687998794	left	D	DD013.jpg	DD014.jpg
113.073843999999	1.00031579984352	win	NaN	n/a	n/a	DD013.jpg	DD014.jpg
119.990603399929	3.00171189988032	decision	1.78257939987816	left	S	SD017.jpg	SD018.jpg
123.540983099956	1.016333400039	win	NaN	n/a	n/a	SD017.jpg	SD018.jpg
128.390862799948	3.00162600004114	decision	1.28288910002448	right	D	DD015.jpg	DD016.jpg
131.940482899779	1.00030190008692	win	NaN	n/a	n/a	DD015.jpg	DD016.jpg
136.791127999779	3.00136150000617	decision	1.2826601001434	left	S	SD019.jpg	SD020.jpg
140.341026399983	1.01635469985195	win	NaN	n/a	n/a	SD019.jpg	SD020.jpg
145.174170199782	3.00052540004253	decision	1.03326080017723	left	D	DD017.jpg	DD018.jpg
148.72392629995	1.01649589999579	win	NaN	n/a	n/a	DD017.jpg	DD018.jpg
161.95721529983	3.00210859999061	decision	1.53265820001252	left	S	SD021.jpg	SD022.jpg
165.507347499952	1.00007469998673	loss	NaN	n/a	n/a	SD021.jpg	SD022.jpg
172.423925199779	3.00094470009208	decision	1.03345840005204	right	S	SD023.jpg	SD024.jpg
175.973886599997	1.01650989986956	win	NaN	n/a	n/a	SD023.jpg	SD024.jpg
182.907144799829	3.0013219001703	decision	1.282588200178	right	S	SD025.jpg	SD026.jpg
186.457003699848	1.01658820011653	loss	NaN	n/a	n/a	SD025.jpg	SD026.jpg
191.290272799786	3.00166410021484	decision	1.03261830005795	left	S	SD027.jpg	SD028.jpg
194.840295800008	1.00006619980559	loss	NaN	n/a	n/a	SD027.jpg	SD028.jpg
197.59046119987	3.00074990000576	decision	1.28315009991638	right	D	DD019.jpg	DD020.jpg
201.140351399779	1.01658260007389	loss	NaN	n/a	n/a	DD019.jpg	DD020.jpg
203.873943899991	3.00064529990777	decision	1.03270359989256	left	D	DD021.jpg	DD022.jpg
207.423793899827	1.01659170002677	win	NaN	n/a	n/a	DD021.jpg	DD022.jpg
214.357453899924	3.00112370005809	decision	1.53228490008041	right	S	SD029.jpg	SD030.jpg
217.907057899982	1.01653449982405	loss	NaN	n/a	n/a	SD029.jpg	SD030.jpg
224.840753199998	3.00207980000414	decision	1.03299749991857	left	S	SD031.jpg	SD032.jpg
228.390644799918	1.01666359999217	win	NaN	n/a	n/a	SD031.jpg	SD032.jpg
233.223835599842	3.0016114001628	decision	1.28295590006746	right	D	DD023.jpg	DD024.jpg
236.773736399831	1.00019070017152	loss	NaN	n/a	n/a	DD023.jpg	DD024.jpg
239.490965500008	3.00144149991684	decision	1.28181489999406	left	D	DD025.jpg	DD026.jpg
243.040191999869	1.0001175000798	win	NaN	n/a	n/a	DD025.jpg	DD026.jpg
247.857174600009	3.00128619978204	decision	1.2823298999574	right	D	DD027.jpg	DD028.jpg
251.407192899846	1.00004680012353	loss	NaN	n/a	n/a	DD027.jpg	DD028.jpg
254.123602299951	3.00091820000671	decision	1.03306719986722	left	S	SD033.jpg	SD034.jpg
257.673613799969	1.01693829987198	loss	NaN	n/a	n/a	SD033.jpg	SD034.jpg
260.407334099989	3.0013416998554	decision	0.782736099790782	right	S	SD035.jpg	SD036.jpg
263.956931799883	1.01652740011923	loss	NaN	n/a	n/a	SD035.jpg	SD036.jpg
266.690695900004	3.00080369994976	decision	1.2820589998737	left	S	SD037.jpg	SD038.jpg
270.240577999968	1.01630899985321	win	NaN	n/a	n/a	SD037.jpg	SD038.jpg
277.17348899995	3.00091299996711	decision	1.28230999992229	right	D	DD029.jpg	DD030.jpg
280.723782299785	0.99999860022217	loss	NaN	n/a	n/a	DD029.jpg	DD030.jpg
283.457237099996	3.00157089997083	decision	1.03224459988996	left	D	DD031.jpg	DD032.jpg
287.007162199821	1.01650859997608	loss	NaN	n/a	n/a	DD031.jpg	DD032.jpg
291.840526499785	3.001300400123	decision	1.03278120001778	left	D	DD033.jpg	DD034.jpg
295.39040129981	1.00003930018283	win	NaN	n/a	n/a	DD033.jpg	DD034.jpg
302.307094699936	3.00155769987032	decision	1.28284380002879	right	S	SD039.jpg	SD040.jpg
305.856692999834	1.00000590016134	loss	NaN	n/a	n/a	SD039.jpg	SD040.jpg
312.790558599867	3.00093819992617	decision	1.28228030004539	left	D	DD035.jpg	DD036.jpg
316.340466699796	1.00011740019545	win	NaN	n/a	n/a	DD035.jpg	DD036.jpg
319.056879199808	3.00205340003595	decision	1.03284820006229	right	D	DD037.jpg	DD038.jpg
322.606479099952	1.00017490005121	loss	NaN	n/a	n/a	DD037.jpg	DD038.jpg
325.323829700006	3.00119169987738	decision	1.53205519984476	left	D	DD039.jpg	DD040.jpg
328.873277599923	1.00026979995891	loss	NaN	n/a	n/a	DD039.jpg	DD040.jpg
