onset	duration	trial_type	response_time	Endowment	Endowment_pmod	Decision	Decision_pmod	Offer_pmod
4.573155	2	cue_social	n/a	32	8	n/a	n/a	n/a
4.573155	2	cue_social_high	n/a	32	7	n/a	n/a	n/a
13.857109	2	cue_social	n/a	32	8	n/a	n/a	n/a
13.857109	2	cue_social_high	n/a	32	7	n/a	n/a	n/a
20.610160	2	cue_nonsocial	n/a	16	-9	n/a	n/a	n/a
20.610160	2	cue_nonsocial_low	n/a	16	-8	n/a	n/a	n/a
27.516300	2	cue_social	n/a	16	-8	n/a	n/a	n/a
27.516300	2	cue_social_low	n/a	16	-9	n/a	n/a	n/a
34.364746	2	cue_social	n/a	32	8	n/a	n/a	n/a
34.364746	2	cue_social_high	n/a	32	7	n/a	n/a	n/a
41.926780	2	cue_nonsocial	n/a	32	7	n/a	n/a	n/a
41.926780	2	cue_nonsocial_high	n/a	32	8	n/a	n/a	n/a
52.898970	2	cue_social	n/a	32	8	n/a	n/a	n/a
52.898970	2	cue_social_high	n/a	32	7	n/a	n/a	n/a
59.626717	2	cue_nonsocial	n/a	16	-9	n/a	n/a	n/a
59.626717	2	cue_nonsocial_low	n/a	16	-8	n/a	n/a	n/a
68.876700	2	cue_nonsocial	n/a	32	7	n/a	n/a	n/a
68.876700	2	cue_nonsocial_high	n/a	32	8	n/a	n/a	n/a
75.779526	2	cue_social	n/a	32	8	n/a	n/a	n/a
75.779526	2	cue_social_high	n/a	32	7	n/a	n/a	n/a
84.959970	2	cue_nonsocial	n/a	16	-9	n/a	n/a	n/a
84.959970	2	cue_nonsocial_low	n/a	16	-8	n/a	n/a	n/a
91.793260	2	cue_nonsocial	n/a	16	-9	n/a	n/a	n/a
91.793260	2	cue_nonsocial_low	n/a	16	-8	n/a	n/a	n/a
98.692700	2	cue_social	n/a	32	8	n/a	n/a	n/a
98.692700	2	cue_social_high	n/a	32	7	n/a	n/a	n/a
107.876490	2	cue_nonsocial	n/a	32	7	n/a	n/a	n/a
107.876490	2	cue_nonsocial_high	n/a	32	8	n/a	n/a	n/a
115.526800	2	cue_nonsocial	n/a	32	7	n/a	n/a	n/a
115.526800	2	cue_nonsocial_high	n/a	32	8	n/a	n/a	n/a
122.434400	2	cue_social	n/a	32	8	n/a	n/a	n/a
122.434400	2	cue_social_high	n/a	32	7	n/a	n/a	n/a
130.071320	2	cue_social	n/a	16	-8	n/a	n/a	n/a
130.071320	2	cue_social_low	n/a	16	-9	n/a	n/a	n/a
137.742460	2	cue_social	n/a	32	8	n/a	n/a	n/a
137.742460	2	cue_social_high	n/a	32	7	n/a	n/a	n/a
144.476330	2	cue_nonsocial	n/a	32	7	n/a	n/a	n/a
144.476330	2	cue_nonsocial_high	n/a	32	8	n/a	n/a	n/a
151.309780	2	cue_nonsocial	n/a	32	7	n/a	n/a	n/a
151.309780	2	cue_nonsocial_high	n/a	32	8	n/a	n/a	n/a
158.143110	2	cue_nonsocial	n/a	32	7	n/a	n/a	n/a
158.143110	2	cue_nonsocial_high	n/a	32	8	n/a	n/a	n/a
169.096950	2	cue_social	n/a	16	-8	n/a	n/a	n/a
169.096950	2	cue_social_low	n/a	16	-9	n/a	n/a	n/a
176.742900	2	cue_social	n/a	16	-8	n/a	n/a	n/a
176.742900	2	cue_social_low	n/a	16	-9	n/a	n/a	n/a
183.562500	2	cue_social	n/a	32	8	n/a	n/a	n/a
183.562500	2	cue_social_high	n/a	32	7	n/a	n/a	n/a
191.142880	2	cue_nonsocial	n/a	16	-9	n/a	n/a	n/a
191.142880	2	cue_nonsocial_low	n/a	16	-8	n/a	n/a	n/a
198.041840	2	cue_social	n/a	16	-8	n/a	n/a	n/a
198.041840	2	cue_social_low	n/a	16	-9	n/a	n/a	n/a
205.626330	2	cue_nonsocial	n/a	32	7	n/a	n/a	n/a
205.626330	2	cue_nonsocial_high	n/a	32	8	n/a	n/a	n/a
212.544020	2	cue_social	n/a	16	-8	n/a	n/a	n/a
212.544020	2	cue_social_low	n/a	16	-9	n/a	n/a	n/a
219.292790	2	cue_nonsocial	n/a	16	-9	n/a	n/a	n/a
219.292790	2	cue_nonsocial_low	n/a	16	-8	n/a	n/a	n/a
231.776540	2	cue_nonsocial	n/a	16	-9	n/a	n/a	n/a
231.776540	2	cue_nonsocial_low	n/a	16	-8	n/a	n/a	n/a
241.026300	2	cue_nonsocial	n/a	32	7	n/a	n/a	n/a
241.026300	2	cue_nonsocial_high	n/a	32	8	n/a	n/a	n/a
248.676650	2	cue_nonsocial	n/a	16	-9	n/a	n/a	n/a
248.676650	2	cue_nonsocial_low	n/a	16	-8	n/a	n/a	n/a
255.509540	2	cue_nonsocial	n/a	32	7	n/a	n/a	n/a
255.509540	2	cue_nonsocial_high	n/a	32	8	n/a	n/a	n/a
262.342830	2	cue_nonsocial	n/a	32	7	n/a	n/a	n/a
262.342830	2	cue_nonsocial_high	n/a	32	8	n/a	n/a	n/a
270.056980	2	cue_social	n/a	32	8	n/a	n/a	n/a
270.056980	2	cue_social_high	n/a	32	7	n/a	n/a	n/a
276.826200	2	cue_nonsocial	n/a	16	-9	n/a	n/a	n/a
276.826200	2	cue_nonsocial_low	n/a	16	-8	n/a	n/a	n/a
283.762270	2	cue_social	n/a	16	-8	n/a	n/a	n/a
283.762270	2	cue_social_low	n/a	16	-9	n/a	n/a	n/a
292.985720	2	cue_social	n/a	16	-8	n/a	n/a	n/a
292.985720	2	cue_social_low	n/a	16	-9	n/a	n/a	n/a
299.742980	2	cue_nonsocial	n/a	16	-9	n/a	n/a	n/a
299.742980	2	cue_nonsocial_low	n/a	16	-8	n/a	n/a	n/a
310.711360	2	cue_social	n/a	16	-8	n/a	n/a	n/a
310.711360	2	cue_social_low	n/a	16	-9	n/a	n/a	n/a
317.442540	2	cue_nonsocial	n/a	32	7	n/a	n/a	n/a
317.442540	2	cue_nonsocial_high	n/a	32	8	n/a	n/a	n/a
326.751830	2	cue_social	n/a	32	8	n/a	n/a	n/a
326.751830	2	cue_social_high	n/a	32	7	n/a	n/a	n/a
334.342620	2	cue_nonsocial	n/a	32	7	n/a	n/a	n/a
334.342620	2	cue_nonsocial_high	n/a	32	8	n/a	n/a	n/a
342.042600	2	cue_social	n/a	32	8	n/a	n/a	n/a
342.042600	2	cue_social_high	n/a	32	7	n/a	n/a	n/a
348.879970	2	cue_social	n/a	16	-8	n/a	n/a	n/a
348.879970	2	cue_social_low	n/a	16	-9	n/a	n/a	n/a
355.659330	2	cue_nonsocial	n/a	32	7	n/a	n/a	n/a
355.659330	2	cue_nonsocial_high	n/a	32	8	n/a	n/a	n/a
363.356450	2	cue_social	n/a	16	-8	n/a	n/a	n/a
363.356450	2	cue_social_low	n/a	16	-9	n/a	n/a	n/a
370.197420	2	cue_social	n/a	16	-8	n/a	n/a	n/a
370.197420	2	cue_social_low	n/a	16	-9	n/a	n/a	n/a
6.517983	1.214925	dec_social_choice	1.214925	32.000000	n/a	16	2.682292e-01	2.682292e-01
6.517983	1.214925	dec_choice	1.214925	32.000000	n/a	16	2.682292e-01	2.682292e-01
6.517983	1.214925	dec_social_accept	1.214925	32.000000	n/a	16	2.576389e-01	2.576389e-01
6.517983	1.214925	dec_accept	1.214925	32.000000	n/a	16	2.455357e-01	2.455357e-01
6.517983	1.214925	dec_social_high	1.214925	32.000000	n/a	16	2.682292e-01	2.682292e-01
6.517983	1.214925	dec_social_accept_high	1.214925	32.000000	n/a	16	2.682292e-01	2.682292e-01
15.782986	1.100395	dec_social_choice	1.100395	32.000000	n/a	3	-1.380208e-01	-1.380208e-01
15.782986	1.100395	dec_choice	1.100395	32.000000	n/a	3	-1.380208e-01	-1.380208e-01
15.782986	1.100395	dec_social_accept	1.100395	32.000000	n/a	3	-1.486111e-01	-1.486111e-01
15.782986	1.100395	dec_accept	1.100395	32.000000	n/a	3	-1.607143e-01	-1.607143e-01
15.782986	1.100395	dec_social_low	1.100395	32.000000	n/a	3	-1.380208e-01	-1.380208e-01
15.782986	1.100395	dec_social_accept_low	1.100395	32.000000	n/a	3	-1.380208e-01	-1.380208e-01
22.617008	0.799829	dec_nonsocial_choice	0.799829	16.000000	n/a	8	2.682292e-01	2.682292e-01
22.617008	0.799829	dec_choice	0.799829	16.000000	n/a	8	2.682292e-01	2.682292e-01
22.617008	0.799829	dec_nonsocial_accept	0.799829	16.000000	n/a	8	2.576389e-01	2.576389e-01
22.617008	0.799829	dec_accept	0.799829	16.000000	n/a	8	2.682292e-01	2.682292e-01
22.617008	0.799829	dec_nonsocial_high	0.799829	16.000000	n/a	8	2.682292e-01	2.682292e-01
22.617008	0.799829	dec_nonsocial_accept_high	0.799829	16.000000	n/a	8	2.682292e-01	2.682292e-01
29.449043	1.051138	dec_social_choice	1.051138	16.000000	n/a	2	-1.067708e-01	-1.067708e-01
29.449043	1.051138	dec_choice	1.051138	16.000000	n/a	2	-1.067708e-01	-1.067708e-01
29.449043	1.051138	dec_social_accept	1.051138	16.000000	n/a	2	-1.173611e-01	-1.173611e-01
29.449043	1.051138	dec_accept	1.051138	16.000000	n/a	2	-1.294643e-01	-1.294643e-01
29.449043	1.051138	dec_social_low	1.051138	16.000000	n/a	2	-1.067708e-01	-1.067708e-01
29.449043	1.051138	dec_social_accept_low	1.051138	16.000000	n/a	2	-1.067708e-01	-1.067708e-01
36.284000	0.982976	dec_social_choice	0.982976	32.000000	n/a	16	2.682292e-01	2.682292e-01
36.284000	0.982976	dec_choice	0.982976	32.000000	n/a	16	2.682292e-01	2.682292e-01
36.284000	0.982976	dec_social_accept	0.982976	32.000000	n/a	16	2.576389e-01	2.576389e-01
36.284000	0.982976	dec_accept	0.982976	32.000000	n/a	16	2.455357e-01	2.455357e-01
36.284000	0.982976	dec_social_high	0.982976	32.000000	n/a	16	2.682292e-01	2.682292e-01
36.284000	0.982976	dec_social_accept_high	0.982976	32.000000	n/a	16	2.682292e-01	2.682292e-01
43.934647	0.948525	dec_nonsocial_choice	0.948525	32.000000	n/a	8	1.822917e-02	1.822917e-02
43.934647	0.948525	dec_choice	0.948525	32.000000	n/a	8	1.822917e-02	1.822917e-02
43.934647	0.948525	dec_nonsocial_accept	0.948525	32.000000	n/a	8	7.638889e-03	7.638889e-03
43.934647	0.948525	dec_accept	0.948525	32.000000	n/a	8	1.822917e-02	1.822917e-02
43.934647	0.948525	dec_nonsocial_high	0.948525	32.000000	n/a	8	1.822917e-02	1.822917e-02
43.934647	0.948525	dec_nonsocial_accept_high	0.948525	32.000000	n/a	8	1.822917e-02	1.822917e-02
54.801040	0.749001	dec_social_choice	0.749001	32.000000	n/a	16	2.682292e-01	2.682292e-01
54.801040	0.749001	dec_choice	0.749001	32.000000	n/a	16	2.682292e-01	2.682292e-01
54.801040	0.749001	dec_social_accept	0.749001	32.000000	n/a	16	2.576389e-01	2.576389e-01
54.801040	0.749001	dec_accept	0.749001	32.000000	n/a	16	2.455357e-01	2.455357e-01
54.801040	0.749001	dec_social_high	0.749001	32.000000	n/a	16	2.682292e-01	2.682292e-01
54.801040	0.749001	dec_social_accept_high	0.749001	32.000000	n/a	16	2.682292e-01	2.682292e-01
61.633995	1.049222	dec_nonsocial_choice	1.049222	16.000000	n/a	2	-1.067708e-01	-1.067708e-01
61.633995	1.049222	dec_choice	1.049222	16.000000	n/a	2	-1.067708e-01	-1.067708e-01
61.633995	1.049222	dec_nonsocial_accept	1.049222	16.000000	n/a	2	-1.173611e-01	-1.173611e-01
61.633995	1.049222	dec_accept	1.049222	16.000000	n/a	2	-1.067708e-01	-1.067708e-01
61.633995	1.049222	dec_nonsocial_low	1.049222	16.000000	n/a	2	-1.067708e-01	-1.067708e-01
61.633995	1.049222	dec_nonsocial_accept_low	1.049222	16.000000	n/a	2	-1.067708e-01	-1.067708e-01
70.883270	0.550212	dec_nonsocial_choice	0.550212	32.000000	n/a	2	-1.692708e-01	-1.692708e-01
70.883270	0.550212	dec_choice	0.550212	32.000000	n/a	2	-1.692708e-01	-1.692708e-01
70.883270	0.550212	dec_nonsocial_accept	0.550212	32.000000	n/a	2	-1.798611e-01	-1.798611e-01
70.883270	0.550212	dec_accept	0.550212	32.000000	n/a	2	-1.692708e-01	-1.692708e-01
70.883270	0.550212	dec_nonsocial_low	0.550212	32.000000	n/a	2	-1.692708e-01	-1.692708e-01
70.883270	0.550212	dec_nonsocial_accept_low	0.550212	32.000000	n/a	2	-1.692708e-01	-1.692708e-01
77.716080	1.017136	dec_social_choice	1.017136	32.000000	n/a	0	0	-2.317708e-01
77.716080	1.017136	dec_choice	1.017136	32.000000	n/a	0	0	-2.317708e-01
77.716080	1.017136	dec_social_reject	1.017136	32.000000	n/a	0	0	3.906250e-02
77.716080	1.017136	dec_reject	1.017136	32.000000	n/a	0	0	2.083333e-02
77.716080	1.017136	dec_social_low	1.017136	32.000000	n/a	0	-2.317708e-01	-2.317708e-01
77.716080	1.017136	dec_social_reject_low	1.017136	32.000000	n/a	3	-1.380208e-01	-2.317708e-01
86.967010	1.449846	dec_nonsocial_choice	1.449846	16.000000	n/a	2	-1.067708e-01	-1.067708e-01
86.967010	1.449846	dec_choice	1.449846	16.000000	n/a	2	-1.067708e-01	-1.067708e-01
86.967010	1.449846	dec_nonsocial_accept	1.449846	16.000000	n/a	2	-1.173611e-01	-1.173611e-01
86.967010	1.449846	dec_accept	1.449846	16.000000	n/a	2	-1.067708e-01	-1.067708e-01
86.967010	1.449846	dec_nonsocial_accept_low	1.449846	16.000000	n/a	2	-1.294643e-01	-1.294643e-01
93.799065	0.884100	dec_nonsocial_choice	0.884100	16.000000	n/a	8	2.682292e-01	2.682292e-01
93.799065	0.884100	dec_choice	0.884100	16.000000	n/a	8	2.682292e-01	2.682292e-01
93.799065	0.884100	dec_nonsocial_accept	0.884100	16.000000	n/a	8	2.576389e-01	2.576389e-01
93.799065	0.884100	dec_accept	0.884100	16.000000	n/a	8	2.682292e-01	2.682292e-01
93.799065	0.884100	dec_nonsocial_accept_high	0.884100	16.000000	n/a	8	2.455357e-01	2.455357e-01
100.633430	1.233130	dec_social_choice	1.233130	32.000000	n/a	2	-1.692708e-01	-1.692708e-01
100.633430	1.233130	dec_choice	1.233130	32.000000	n/a	2	-1.692708e-01	-1.692708e-01
100.633430	1.233130	dec_social_accept	1.233130	32.000000	n/a	2	-1.798611e-01	-1.798611e-01
100.633430	1.233130	dec_accept	1.233130	32.000000	n/a	2	-1.919643e-01	-1.919643e-01
100.633430	1.233130	dec_social_accept_low	1.233130	32.000000	n/a	2	-1.692708e-01	-1.692708e-01
109.883460	1.349910	dec_nonsocial_choice	1.349910	32.000000	n/a	2	-1.692708e-01	-1.692708e-01
109.883460	1.349910	dec_choice	1.349910	32.000000	n/a	2	-1.692708e-01	-1.692708e-01
109.883460	1.349910	dec_nonsocial_accept	1.349910	32.000000	n/a	2	-1.798611e-01	-1.798611e-01
109.883460	1.349910	dec_accept	1.349910	32.000000	n/a	2	-1.692708e-01	-1.692708e-01
109.883460	1.349910	dec_nonsocial_low	1.349910	32.000000	n/a	2	-1.692708e-01	-1.692708e-01
109.883460	1.349910	dec_nonsocial_accept_low	1.349910	32.000000	n/a	2	-1.692708e-01	-1.692708e-01
117.534020	0.882838	dec_nonsocial_choice	0.882838	32.000000	n/a	16	2.682292e-01	2.682292e-01
117.534020	0.882838	dec_choice	0.882838	32.000000	n/a	16	2.682292e-01	2.682292e-01
117.534020	0.882838	dec_nonsocial_accept	0.882838	32.000000	n/a	16	2.576389e-01	2.576389e-01
117.534020	0.882838	dec_accept	0.882838	32.000000	n/a	16	2.682292e-01	2.682292e-01
117.534020	0.882838	dec_nonsocial_high	0.882838	32.000000	n/a	16	2.682292e-01	2.682292e-01
117.534020	0.882838	dec_nonsocial_accept_high	0.882838	32.000000	n/a	16	2.682292e-01	2.682292e-01
124.366230	1.167618	dec_social_choice	1.167618	32.000000	n/a	8	1.822917e-02	1.822917e-02
124.366230	1.167618	dec_choice	1.167618	32.000000	n/a	8	1.822917e-02	1.822917e-02
124.366230	1.167618	dec_social_accept	1.167618	32.000000	n/a	8	7.638889e-03	7.638889e-03
124.366230	1.167618	dec_accept	1.167618	32.000000	n/a	8	-4.464286e-03	-4.464286e-03
124.366230	1.167618	dec_social_accept_high	1.167618	32.000000	n/a	8	1.822917e-02	1.822917e-02
132.016390	1.700440	dec_social_choice	1.700440	16.000000	n/a	4	1.822917e-02	1.822917e-02
132.016390	1.700440	dec_choice	1.700440	16.000000	n/a	4	1.822917e-02	1.822917e-02
132.016390	1.700440	dec_social_accept	1.700440	16.000000	n/a	4	7.638889e-03	7.638889e-03
132.016390	1.700440	dec_accept	1.700440	16.000000	n/a	4	-4.464286e-03	-4.464286e-03
132.016390	1.700440	dec_social_high	1.700440	16.000000	n/a	4	1.822917e-02	1.822917e-02
132.016390	1.700440	dec_social_accept_high	1.700440	16.000000	n/a	4	1.822917e-02	1.822917e-02
139.650010	0.965992	dec_social_choice	0.965992	32.000000	n/a	16	2.682292e-01	2.682292e-01
139.650010	0.965992	dec_choice	0.965992	32.000000	n/a	16	2.682292e-01	2.682292e-01
139.650010	0.965992	dec_social_accept	0.965992	32.000000	n/a	16	2.576389e-01	2.576389e-01
139.650010	0.965992	dec_accept	0.965992	32.000000	n/a	16	2.455357e-01	2.455357e-01
139.650010	0.965992	dec_social_high	0.965992	32.000000	n/a	16	2.682292e-01	2.682292e-01
139.650010	0.965992	dec_social_accept_high	0.965992	32.000000	n/a	16	2.682292e-01	2.682292e-01
146.484000	1.149095	dec_nonsocial_choice	1.149095	32.000000	n/a	2	-1.692708e-01	-1.692708e-01
146.484000	1.149095	dec_choice	1.149095	32.000000	n/a	2	-1.692708e-01	-1.692708e-01
146.484000	1.149095	dec_nonsocial_accept	1.149095	32.000000	n/a	2	-1.798611e-01	-1.798611e-01
146.484000	1.149095	dec_accept	1.149095	32.000000	n/a	2	-1.692708e-01	-1.692708e-01
146.484000	1.149095	dec_nonsocial_accept_low	1.149095	32.000000	n/a	2	-1.919643e-01	-1.919643e-01
153.317030	1.415593	dec_nonsocial_choice	1.415593	32.000000	n/a	8	1.822917e-02	1.822917e-02
153.317030	1.415593	dec_choice	1.415593	32.000000	n/a	8	1.822917e-02	1.822917e-02
153.317030	1.415593	dec_nonsocial_accept	1.415593	32.000000	n/a	8	7.638889e-03	7.638889e-03
153.317030	1.415593	dec_accept	1.415593	32.000000	n/a	8	1.822917e-02	1.822917e-02
153.317030	1.415593	dec_nonsocial_high	1.415593	32.000000	n/a	8	1.822917e-02	1.822917e-02
153.317030	1.415593	dec_nonsocial_accept_high	1.415593	32.000000	n/a	8	1.822917e-02	1.822917e-02
160.150010	1.300059	dec_nonsocial_choice	1.300059	32.000000	n/a	3	-1.380208e-01	-1.380208e-01
160.150010	1.300059	dec_choice	1.300059	32.000000	n/a	3	-1.380208e-01	-1.380208e-01
160.150010	1.300059	dec_nonsocial_accept	1.300059	32.000000	n/a	3	-1.486111e-01	-1.486111e-01
160.150010	1.300059	dec_accept	1.300059	32.000000	n/a	3	-1.380208e-01	-1.380208e-01
160.150010	1.300059	dec_nonsocial_accept_low	1.300059	32.000000	n/a	3	-1.607143e-01	-1.607143e-01
171.016100	1.033605	dec_social_choice	1.033605	16.000000	n/a	2	-1.067708e-01	-1.067708e-01
171.016100	1.033605	dec_choice	1.033605	16.000000	n/a	2	-1.067708e-01	-1.067708e-01
171.016100	1.033605	dec_social_accept	1.033605	16.000000	n/a	2	-1.173611e-01	-1.173611e-01
171.016100	1.033605	dec_accept	1.033605	16.000000	n/a	2	-1.294643e-01	-1.294643e-01
171.016100	1.033605	dec_social_low	1.033605	16.000000	n/a	2	-1.067708e-01	-1.067708e-01
171.016100	1.033605	dec_social_accept_low	1.033605	16.000000	n/a	2	-1.067708e-01	-1.067708e-01
178.666170	1.050194	dec_social_choice	1.050194	16.000000	n/a	8	2.682292e-01	2.682292e-01
178.666170	1.050194	dec_choice	1.050194	16.000000	n/a	8	2.682292e-01	2.682292e-01
178.666170	1.050194	dec_social_accept	1.050194	16.000000	n/a	8	2.576389e-01	2.576389e-01
178.666170	1.050194	dec_accept	1.050194	16.000000	n/a	8	2.455357e-01	2.455357e-01
178.666170	1.050194	dec_social_accept_high	1.050194	16.000000	n/a	8	2.682292e-01	2.682292e-01
185.499800	1.783432	dec_social_choice	1.783432	32.000000	n/a	2	-1.692708e-01	-1.692708e-01
185.499800	1.783432	dec_choice	1.783432	32.000000	n/a	2	-1.692708e-01	-1.692708e-01
185.499800	1.783432	dec_social_accept	1.783432	32.000000	n/a	2	-1.798611e-01	-1.798611e-01
185.499800	1.783432	dec_accept	1.783432	32.000000	n/a	2	-1.919643e-01	-1.919643e-01
185.499800	1.783432	dec_social_low	1.783432	32.000000	n/a	2	-1.692708e-01	-1.692708e-01
185.499800	1.783432	dec_social_accept_low	1.783432	32.000000	n/a	2	-1.692708e-01	-1.692708e-01
193.150020	1.099995	dec_nonsocial_choice	1.099995	16.000000	n/a	4	1.822917e-02	1.822917e-02
193.150020	1.099995	dec_choice	1.099995	16.000000	n/a	4	1.822917e-02	1.822917e-02
193.150020	1.099995	dec_nonsocial_accept	1.099995	16.000000	n/a	4	7.638889e-03	7.638889e-03
193.150020	1.099995	dec_accept	1.099995	16.000000	n/a	4	1.822917e-02	1.822917e-02
193.150020	1.099995	dec_nonsocial_accept_high	1.099995	16.000000	n/a	4	-4.464286e-03	-4.464286e-03
199.982650	1.334361	dec_social_choice	1.334361	16.000000	n/a	0	0	-2.317708e-01
199.982650	1.334361	dec_choice	1.334361	16.000000	n/a	0	0	-2.317708e-01
199.982650	1.334361	dec_social_reject	1.334361	16.000000	n/a	0	0	7.812500e-03
199.982650	1.334361	dec_reject	1.334361	16.000000	n/a	0	0	-1.041667e-02
199.982650	1.334361	dec_social_reject_low	1.334361	16.000000	n/a	1	-1.692708e-01	-2.317708e-01
207.634050	1.282447	dec_nonsocial_choice	1.282447	32.000000	n/a	16	2.682292e-01	2.682292e-01
207.634050	1.282447	dec_choice	1.282447	32.000000	n/a	16	2.682292e-01	2.682292e-01
207.634050	1.282447	dec_nonsocial_accept	1.282447	32.000000	n/a	16	2.576389e-01	2.576389e-01
207.634050	1.282447	dec_accept	1.282447	32.000000	n/a	16	2.682292e-01	2.682292e-01
207.634050	1.282447	dec_nonsocial_high	1.282447	32.000000	n/a	16	2.682292e-01	2.682292e-01
207.634050	1.282447	dec_nonsocial_accept_high	1.282447	32.000000	n/a	16	2.682292e-01	2.682292e-01
214.466020	0.917180	dec_social_choice	0.917180	16.000000	n/a	2	-1.067708e-01	-1.067708e-01
214.466020	0.917180	dec_choice	0.917180	16.000000	n/a	2	-1.067708e-01	-1.067708e-01
214.466020	0.917180	dec_social_accept	0.917180	16.000000	n/a	2	-1.173611e-01	-1.173611e-01
214.466020	0.917180	dec_accept	0.917180	16.000000	n/a	2	-1.294643e-01	-1.294643e-01
214.466020	0.917180	dec_social_accept_low	0.917180	16.000000	n/a	2	-1.067708e-01	-1.067708e-01
221.300030	0.966075	dec_nonsocial_choice	0.966075	16.000000	n/a	2	-1.067708e-01	-1.067708e-01
221.300030	0.966075	dec_choice	0.966075	16.000000	n/a	2	-1.067708e-01	-1.067708e-01
221.300030	0.966075	dec_nonsocial_accept	0.966075	16.000000	n/a	2	-1.173611e-01	-1.173611e-01
221.300030	0.966075	dec_accept	0.966075	16.000000	n/a	2	-1.067708e-01	-1.067708e-01
221.300030	0.966075	dec_nonsocial_low	0.966075	16.000000	n/a	2	-1.067708e-01	-1.067708e-01
221.300030	0.966075	dec_nonsocial_accept_low	0.966075	16.000000	n/a	2	-1.067708e-01	-1.067708e-01
233.783050	1.149990	dec_nonsocial_choice	1.149990	16.000000	n/a	1	-1.692708e-01	-1.692708e-01
233.783050	1.149990	dec_choice	1.149990	16.000000	n/a	1	-1.692708e-01	-1.692708e-01
233.783050	1.149990	dec_nonsocial_accept	1.149990	16.000000	n/a	1	-1.798611e-01	-1.798611e-01
233.783050	1.149990	dec_accept	1.149990	16.000000	n/a	1	-1.692708e-01	-1.692708e-01
233.783050	1.149990	dec_nonsocial_accept_low	1.149990	16.000000	n/a	1	-1.919643e-01	-1.919643e-01
243.032040	0.817333	dec_nonsocial_choice	0.817333	32.000000	n/a	2	-1.692708e-01	-1.692708e-01
243.032040	0.817333	dec_choice	0.817333	32.000000	n/a	2	-1.692708e-01	-1.692708e-01
243.032040	0.817333	dec_nonsocial_accept	0.817333	32.000000	n/a	2	-1.798611e-01	-1.798611e-01
243.032040	0.817333	dec_accept	0.817333	32.000000	n/a	2	-1.692708e-01	-1.692708e-01
243.032040	0.817333	dec_nonsocial_accept_low	0.817333	32.000000	n/a	2	-1.919643e-01	-1.919643e-01
250.683030	1.166291	dec_nonsocial_choice	1.166291	16.000000	n/a	2	-1.067708e-01	-1.067708e-01
250.683030	1.166291	dec_choice	1.166291	16.000000	n/a	2	-1.067708e-01	-1.067708e-01
250.683030	1.166291	dec_nonsocial_accept	1.166291	16.000000	n/a	2	-1.173611e-01	-1.173611e-01
250.683030	1.166291	dec_accept	1.166291	16.000000	n/a	2	-1.067708e-01	-1.067708e-01
250.683030	1.166291	dec_nonsocial_accept_low	1.166291	16.000000	n/a	2	-1.294643e-01	-1.294643e-01
257.516700	1.165503	dec_nonsocial_choice	1.165503	32.000000	n/a	3	-1.380208e-01	-1.380208e-01
257.516700	1.165503	dec_choice	1.165503	32.000000	n/a	3	-1.380208e-01	-1.380208e-01
257.516700	1.165503	dec_nonsocial_accept	1.165503	32.000000	n/a	3	-1.486111e-01	-1.486111e-01
257.516700	1.165503	dec_accept	1.165503	32.000000	n/a	3	-1.380208e-01	-1.380208e-01
257.516700	1.165503	dec_nonsocial_low	1.165503	32.000000	n/a	3	-1.380208e-01	-1.380208e-01
257.516700	1.165503	dec_nonsocial_accept_low	1.165503	32.000000	n/a	3	-1.380208e-01	-1.380208e-01
264.350040	0.999964	dec_nonsocial_choice	0.999964	32.000000	n/a	2	-1.692708e-01	-1.692708e-01
264.350040	0.999964	dec_choice	0.999964	32.000000	n/a	2	-1.692708e-01	-1.692708e-01
264.350040	0.999964	dec_nonsocial_accept	0.999964	32.000000	n/a	2	-1.798611e-01	-1.798611e-01
264.350040	0.999964	dec_accept	0.999964	32.000000	n/a	2	-1.692708e-01	-1.692708e-01
264.350040	0.999964	dec_nonsocial_accept_low	0.999964	32.000000	n/a	2	-1.919643e-01	-1.919643e-01
271.999900	1.233335	dec_social_choice	1.233335	32.000000	n/a	2	-1.692708e-01	-1.692708e-01
271.999900	1.233335	dec_choice	1.233335	32.000000	n/a	2	-1.692708e-01	-1.692708e-01
271.999900	1.233335	dec_social_accept	1.233335	32.000000	n/a	2	-1.798611e-01	-1.798611e-01
271.999900	1.233335	dec_accept	1.233335	32.000000	n/a	2	-1.919643e-01	-1.919643e-01
271.999900	1.233335	dec_social_low	1.233335	32.000000	n/a	2	-1.692708e-01	-1.692708e-01
271.999900	1.233335	dec_social_accept_low	1.233335	32.000000	n/a	2	-1.692708e-01	-1.692708e-01
278.832030	2.101421	dec_nonsocial_choice	2.101421	16.000000	n/a	4	1.822917e-02	1.822917e-02
278.832030	2.101421	dec_choice	2.101421	16.000000	n/a	4	1.822917e-02	1.822917e-02
278.832030	2.101421	dec_nonsocial_accept	2.101421	16.000000	n/a	4	7.638889e-03	7.638889e-03
278.832030	2.101421	dec_accept	2.101421	16.000000	n/a	4	1.822917e-02	1.822917e-02
278.832030	2.101421	dec_nonsocial_accept_high	2.101421	16.000000	n/a	4	-4.464286e-03	-4.464286e-03
285.665200	0.834565	dec_social_choice	0.834565	16.000000	n/a	4	1.822917e-02	1.822917e-02
285.665200	0.834565	dec_choice	0.834565	16.000000	n/a	4	1.822917e-02	1.822917e-02
285.665200	0.834565	dec_social_accept	0.834565	16.000000	n/a	4	7.638889e-03	7.638889e-03
285.665200	0.834565	dec_accept	0.834565	16.000000	n/a	4	-4.464286e-03	-4.464286e-03
285.665200	0.834565	dec_social_accept_high	0.834565	16.000000	n/a	4	1.822917e-02	1.822917e-02
294.915250	0.818107	dec_social_choice	0.818107	16.000000	n/a	4	1.822917e-02	1.822917e-02
294.915250	0.818107	dec_choice	0.818107	16.000000	n/a	4	1.822917e-02	1.822917e-02
294.915250	0.818107	dec_social_accept	0.818107	16.000000	n/a	4	7.638889e-03	7.638889e-03
294.915250	0.818107	dec_accept	0.818107	16.000000	n/a	4	-4.464286e-03	-4.464286e-03
294.915250	0.818107	dec_social_accept_high	0.818107	16.000000	n/a	4	1.822917e-02	1.822917e-02
301.750100	1.333151	dec_nonsocial_choice	1.333151	16.000000	n/a	4	1.822917e-02	1.822917e-02
301.750100	1.333151	dec_choice	1.333151	16.000000	n/a	4	1.822917e-02	1.822917e-02
301.750100	1.333151	dec_nonsocial_accept	1.333151	16.000000	n/a	4	7.638889e-03	7.638889e-03
301.750100	1.333151	dec_accept	1.333151	16.000000	n/a	4	1.822917e-02	1.822917e-02
301.750100	1.333151	dec_nonsocial_high	1.333151	16.000000	n/a	4	1.822917e-02	1.822917e-02
301.750100	1.333151	dec_nonsocial_accept_high	1.333151	16.000000	n/a	4	1.822917e-02	1.822917e-02
312.616030	1.216722	dec_social_choice	1.216722	16.000000	n/a	0	0	-2.317708e-01
312.616030	1.216722	dec_choice	1.216722	16.000000	n/a	0	0	-2.317708e-01
312.616030	1.216722	dec_social_reject	1.216722	16.000000	n/a	0	0	7.812500e-03
312.616030	1.216722	dec_reject	1.216722	16.000000	n/a	0	0	-1.041667e-02
312.616030	1.216722	dec_social_low	1.216722	16.000000	n/a	0	-2.317708e-01	-2.317708e-01
312.616030	1.216722	dec_social_reject_low	1.216722	16.000000	n/a	1	-1.692708e-01	-2.317708e-01
319.449430	1.100208	dec_nonsocial_choice	1.100208	32.000000	n/a	8	1.822917e-02	1.822917e-02
319.449430	1.100208	dec_choice	1.100208	32.000000	n/a	8	1.822917e-02	1.822917e-02
319.449430	1.100208	dec_nonsocial_accept	1.100208	32.000000	n/a	8	7.638889e-03	7.638889e-03
319.449430	1.100208	dec_accept	1.100208	32.000000	n/a	8	1.822917e-02	1.822917e-02
319.449430	1.100208	dec_nonsocial_accept_high	1.100208	32.000000	n/a	8	-4.464286e-03	-4.464286e-03
328.699040	1.434063	dec_social_choice	1.434063	32.000000	n/a	8	1.822917e-02	1.822917e-02
328.699040	1.434063	dec_choice	1.434063	32.000000	n/a	8	1.822917e-02	1.822917e-02
328.699040	1.434063	dec_social_accept	1.434063	32.000000	n/a	8	7.638889e-03	7.638889e-03
328.699040	1.434063	dec_accept	1.434063	32.000000	n/a	8	-4.464286e-03	-4.464286e-03
328.699040	1.434063	dec_social_accept_high	1.434063	32.000000	n/a	8	1.822917e-02	1.822917e-02
336.349980	1.133259	dec_nonsocial_choice	1.133259	32.000000	n/a	16	2.682292e-01	2.682292e-01
336.349980	1.133259	dec_choice	1.133259	32.000000	n/a	16	2.682292e-01	2.682292e-01
336.349980	1.133259	dec_nonsocial_accept	1.133259	32.000000	n/a	16	2.576389e-01	2.576389e-01
336.349980	1.133259	dec_accept	1.133259	32.000000	n/a	16	2.682292e-01	2.682292e-01
336.349980	1.133259	dec_nonsocial_accept_high	1.133259	32.000000	n/a	16	2.455357e-01	2.455357e-01
343.999180	0.933507	dec_social_choice	0.933507	32.000000	n/a	2	-1.692708e-01	-1.692708e-01
343.999180	0.933507	dec_choice	0.933507	32.000000	n/a	2	-1.692708e-01	-1.692708e-01
343.999180	0.933507	dec_social_accept	0.933507	32.000000	n/a	2	-1.798611e-01	-1.798611e-01
343.999180	0.933507	dec_accept	0.933507	32.000000	n/a	2	-1.919643e-01	-1.919643e-01
343.999180	0.933507	dec_social_accept_low	0.933507	32.000000	n/a	2	-1.692708e-01	-1.692708e-01
350.833040	0.965809	dec_social_choice	0.965809	16.000000	n/a	4	1.822917e-02	1.822917e-02
350.833040	0.965809	dec_choice	0.965809	16.000000	n/a	4	1.822917e-02	1.822917e-02
350.833040	0.965809	dec_social_accept	0.965809	16.000000	n/a	4	7.638889e-03	7.638889e-03
350.833040	0.965809	dec_accept	0.965809	16.000000	n/a	4	-4.464286e-03	-4.464286e-03
350.833040	0.965809	dec_social_high	0.965809	16.000000	n/a	4	1.822917e-02	1.822917e-02
350.833040	0.965809	dec_social_accept_high	0.965809	16.000000	n/a	4	1.822917e-02	1.822917e-02
357.666530	1.949378	dec_nonsocial_choice	1.949378	32.000000	n/a	16	2.682292e-01	2.682292e-01
357.666530	1.949378	dec_choice	1.949378	32.000000	n/a	16	2.682292e-01	2.682292e-01
357.666530	1.949378	dec_nonsocial_accept	1.949378	32.000000	n/a	16	2.576389e-01	2.576389e-01
357.666530	1.949378	dec_accept	1.949378	32.000000	n/a	16	2.682292e-01	2.682292e-01
357.666530	1.949378	dec_nonsocial_high	1.949378	32.000000	n/a	16	2.682292e-01	2.682292e-01
357.666530	1.949378	dec_nonsocial_accept_high	1.949378	32.000000	n/a	16	2.682292e-01	2.682292e-01
365.316040	0.950658	dec_social_choice	0.950658	16.000000	n/a	2	-1.067708e-01	-1.067708e-01
365.316040	0.950658	dec_choice	0.950658	16.000000	n/a	2	-1.067708e-01	-1.067708e-01
365.316040	0.950658	dec_social_accept	0.950658	16.000000	n/a	2	-1.173611e-01	-1.173611e-01
365.316040	0.950658	dec_accept	0.950658	16.000000	n/a	2	-1.294643e-01	-1.294643e-01
365.316040	0.950658	dec_social_accept_low	0.950658	16.000000	n/a	2	-1.067708e-01	-1.067708e-01
372.149140	0.900060	dec_social_choice	0.900060	16.000000	n/a	8	2.682292e-01	2.682292e-01
372.149140	0.900060	dec_choice	0.900060	16.000000	n/a	8	2.682292e-01	2.682292e-01
372.149140	0.900060	dec_social_accept	0.900060	16.000000	n/a	8	2.576389e-01	2.576389e-01
372.149140	0.900060	dec_accept	0.900060	16.000000	n/a	8	2.455357e-01	2.455357e-01
372.149140	0.900060	dec_social_accept_high	0.900060	16.000000	n/a	8	2.682292e-01	2.682292e-01
