onset	duration	trial_type	response_time	Endowment	Endowment_pmod	Decision	Decision_pmod	Offer_pmod
4.504438	2	cue_nonsocial	n/a	32	6	n/a	n/a	n/a
4.504438	2	cue_nonsocial_high	n/a	32	9	n/a	n/a	n/a
11.337666	2	cue_nonsocial	n/a	32	6	n/a	n/a	n/a
11.337666	2	cue_nonsocial_high	n/a	32	9	n/a	n/a	n/a
18.987938	2	cue_nonsocial	n/a	16	-10	n/a	n/a	n/a
18.987938	2	cue_nonsocial_low	n/a	16	-7	n/a	n/a	n/a
25.862764	2	cue_social	n/a	16	-7	n/a	n/a	n/a
25.862764	2	cue_social_low	n/a	16	-10	n/a	n/a	n/a
32.706787	2	cue_social	n/a	16	-7	n/a	n/a	n/a
32.706787	2	cue_social_low	n/a	16	-10	n/a	n/a	n/a
41.920845	2	cue_nonsocial	n/a	32	6	n/a	n/a	n/a
41.920845	2	cue_nonsocial_high	n/a	32	9	n/a	n/a	n/a
49.570824	2	cue_nonsocial	n/a	32	6	n/a	n/a	n/a
49.570824	2	cue_nonsocial_high	n/a	32	9	n/a	n/a	n/a
56.404670	2	cue_nonsocial	n/a	16	-10	n/a	n/a	n/a
56.404670	2	cue_nonsocial_low	n/a	16	-7	n/a	n/a	n/a
65.724850	2	cue_social	n/a	16	-7	n/a	n/a	n/a
65.724850	2	cue_social_low	n/a	16	-10	n/a	n/a	n/a
73.355340	2	cue_social	n/a	32	9	n/a	n/a	n/a
73.355340	2	cue_social_high	n/a	32	6	n/a	n/a	n/a
82.656370	2	cue_social	n/a	16	-7	n/a	n/a	n/a
82.656370	2	cue_social_low	n/a	16	-10	n/a	n/a	n/a
89.387950	2	cue_nonsocial	n/a	32	6	n/a	n/a	n/a
89.387950	2	cue_nonsocial_high	n/a	32	9	n/a	n/a	n/a
96.220890	2	cue_nonsocial	n/a	32	6	n/a	n/a	n/a
96.220890	2	cue_nonsocial_high	n/a	32	9	n/a	n/a	n/a
105.487810	2	cue_nonsocial	n/a	32	6	n/a	n/a	n/a
105.487810	2	cue_nonsocial_high	n/a	32	9	n/a	n/a	n/a
112.321020	2	cue_nonsocial	n/a	32	6	n/a	n/a	n/a
112.321020	2	cue_nonsocial_high	n/a	32	9	n/a	n/a	n/a
121.655130	2	cue_social	n/a	16	-7	n/a	n/a	n/a
121.655130	2	cue_social_low	n/a	16	-10	n/a	n/a	n/a
128.420790	2	cue_nonsocial	n/a	16	-10	n/a	n/a	n/a
128.420790	2	cue_nonsocial_low	n/a	16	-7	n/a	n/a	n/a
139.346310	2	cue_social	n/a	16	-7	n/a	n/a	n/a
139.346310	2	cue_social_low	n/a	16	-10	n/a	n/a	n/a
146.214040	2	cue_social	n/a	32	9	n/a	n/a	n/a
146.214040	2	cue_social_high	n/a	32	6	n/a	n/a	n/a
152.954070	2	cue_nonsocial	n/a	32	6	n/a	n/a	n/a
152.954070	2	cue_nonsocial_high	n/a	32	9	n/a	n/a	n/a
160.691620	2	cue_social	n/a	16	-7	n/a	n/a	n/a
160.691620	2	cue_social_low	n/a	16	-10	n/a	n/a	n/a
168.254210	2	cue_nonsocial	n/a	16	-10	n/a	n/a	n/a
168.254210	2	cue_nonsocial_low	n/a	16	-7	n/a	n/a	n/a
175.146210	2	cue_social	n/a	32	9	n/a	n/a	n/a
175.146210	2	cue_social_high	n/a	32	6	n/a	n/a	n/a
182.010090	2	cue_social	n/a	32	9	n/a	n/a	n/a
182.010090	2	cue_social_high	n/a	32	6	n/a	n/a	n/a
188.773790	2	cue_social	n/a	32	9	n/a	n/a	n/a
188.773790	2	cue_social_high	n/a	32	6	n/a	n/a	n/a
199.620680	2	cue_nonsocial	n/a	32	6	n/a	n/a	n/a
199.620680	2	cue_nonsocial_high	n/a	32	9	n/a	n/a	n/a
207.320630	2	cue_social	n/a	32	9	n/a	n/a	n/a
207.320630	2	cue_social_high	n/a	32	6	n/a	n/a	n/a
214.920600	2	cue_nonsocial	n/a	32	6	n/a	n/a	n/a
214.920600	2	cue_nonsocial_high	n/a	32	9	n/a	n/a	n/a
221.813350	2	cue_social	n/a	16	-7	n/a	n/a	n/a
221.813350	2	cue_social_low	n/a	16	-10	n/a	n/a	n/a
228.661700	2	cue_social	n/a	16	-7	n/a	n/a	n/a
228.661700	2	cue_social_low	n/a	16	-10	n/a	n/a	n/a
235.420850	2	cue_nonsocial	n/a	16	-10	n/a	n/a	n/a
235.420850	2	cue_nonsocial_low	n/a	16	-7	n/a	n/a	n/a
242.333420	2	cue_social	n/a	32	9	n/a	n/a	n/a
242.333420	2	cue_social_high	n/a	32	6	n/a	n/a	n/a
249.961200	2	cue_social	n/a	32	9	n/a	n/a	n/a
249.961200	2	cue_social_high	n/a	32	6	n/a	n/a	n/a
256.805020	2	cue_social	n/a	32	9	n/a	n/a	n/a
256.805020	2	cue_social_high	n/a	32	6	n/a	n/a	n/a
263.570400	2	cue_nonsocial	n/a	32	6	n/a	n/a	n/a
263.570400	2	cue_nonsocial_high	n/a	32	9	n/a	n/a	n/a
272.893680	2	cue_social	n/a	16	-7	n/a	n/a	n/a
272.893680	2	cue_social_low	n/a	16	-10	n/a	n/a	n/a
279.653780	2	cue_nonsocial	n/a	16	-10	n/a	n/a	n/a
279.653780	2	cue_nonsocial_low	n/a	16	-7	n/a	n/a	n/a
286.560180	2	cue_social	n/a	32	9	n/a	n/a	n/a
286.560180	2	cue_social_high	n/a	32	6	n/a	n/a	n/a
294.192600	2	cue_social	n/a	32	9	n/a	n/a	n/a
294.192600	2	cue_social_high	n/a	32	6	n/a	n/a	n/a
306.620100	2	cue_nonsocial	n/a	16	-10	n/a	n/a	n/a
306.620100	2	cue_nonsocial_low	n/a	16	-7	n/a	n/a	n/a
313.453770	2	cue_nonsocial	n/a	16	-10	n/a	n/a	n/a
313.453770	2	cue_nonsocial_low	n/a	16	-7	n/a	n/a	n/a
320.342250	2	cue_social	n/a	16	-7	n/a	n/a	n/a
320.342250	2	cue_social_low	n/a	16	-10	n/a	n/a	n/a
327.936860	2	cue_nonsocial	n/a	16	-10	n/a	n/a	n/a
327.936860	2	cue_nonsocial_low	n/a	16	-7	n/a	n/a	n/a
334.770360	2	cue_nonsocial	n/a	32	6	n/a	n/a	n/a
334.770360	2	cue_nonsocial_high	n/a	32	9	n/a	n/a	n/a
344.036800	2	cue_nonsocial	n/a	32	6	n/a	n/a	n/a
344.036800	2	cue_nonsocial_high	n/a	32	9	n/a	n/a	n/a
354.903320	2	cue_nonsocial	n/a	32	6	n/a	n/a	n/a
354.903320	2	cue_nonsocial_high	n/a	32	9	n/a	n/a	n/a
362.604280	2	cue_social	n/a	16	-7	n/a	n/a	n/a
362.604280	2	cue_social_low	n/a	16	-10	n/a	n/a	n/a
370.264770	2	cue_social	n/a	16	-7	n/a	n/a	n/a
370.264770	2	cue_social_low	n/a	16	-10	n/a	n/a	n/a
6.511169	1.050115	dec_nonsocial_choice	1.050115	32.000000	n/a	16	2.682292e-01	2.682292e-01
6.511169	1.050115	dec_choice	1.050115	32.000000	n/a	16	2.682292e-01	2.682292e-01
6.511169	1.050115	dec_nonsocial_accept	1.050115	32.000000	n/a	16	2.608696e-01	2.608696e-01
6.511169	1.050115	dec_accept	1.050115	32.000000	n/a	16	2.682292e-01	2.682292e-01
6.511169	1.050115	dec_nonsocial_high	1.050115	32.000000	n/a	16	2.682292e-01	2.682292e-01
6.511169	1.050115	dec_nonsocial_accept_high	1.050115	32.000000	n/a	16	2.682292e-01	2.682292e-01
13.344344	0.966301	dec_nonsocial_choice	0.966301	32.000000	n/a	8	1.822917e-02	1.822917e-02
13.344344	0.966301	dec_choice	0.966301	32.000000	n/a	8	1.822917e-02	1.822917e-02
13.344344	0.966301	dec_nonsocial_accept	0.966301	32.000000	n/a	8	1.086957e-02	1.086957e-02
13.344344	0.966301	dec_accept	0.966301	32.000000	n/a	8	1.822917e-02	1.822917e-02
13.344344	0.966301	dec_nonsocial_accept_high	0.966301	32.000000	n/a	8	2.840909e-03	2.840909e-03
20.995140	1.282678	dec_nonsocial_choice	1.282678	16.000000	n/a	2	-1.067708e-01	-1.067708e-01
20.995140	1.282678	dec_choice	1.282678	16.000000	n/a	2	-1.067708e-01	-1.067708e-01
20.995140	1.282678	dec_nonsocial_accept	1.282678	16.000000	n/a	2	-1.141304e-01	-1.141304e-01
20.995140	1.282678	dec_accept	1.282678	16.000000	n/a	2	-1.067708e-01	-1.067708e-01
20.995140	1.282678	dec_nonsocial_low	1.282678	16.000000	n/a	2	-1.067708e-01	-1.067708e-01
20.995140	1.282678	dec_nonsocial_accept_low	1.282678	16.000000	n/a	2	-1.067708e-01	-1.067708e-01
27.828050	0.933176	dec_social_choice	0.933176	16.000000	n/a	8	2.682292e-01	2.682292e-01
27.828050	0.933176	dec_choice	0.933176	16.000000	n/a	8	2.682292e-01	2.682292e-01
27.828050	0.933176	dec_social_accept	0.933176	16.000000	n/a	8	2.608696e-01	2.608696e-01
27.828050	0.933176	dec_accept	0.933176	16.000000	n/a	8	2.528409e-01	2.528409e-01
27.828050	0.933176	dec_social_accept_high	0.933176	16.000000	n/a	8	2.682292e-01	2.682292e-01
34.662025	0.982687	dec_social_choice	0.982687	16.000000	n/a	8	2.682292e-01	2.682292e-01
34.662025	0.982687	dec_choice	0.982687	16.000000	n/a	8	2.682292e-01	2.682292e-01
34.662025	0.982687	dec_social_accept	0.982687	16.000000	n/a	8	2.608696e-01	2.608696e-01
34.662025	0.982687	dec_accept	0.982687	16.000000	n/a	8	2.528409e-01	2.528409e-01
34.662025	0.982687	dec_social_high	0.982687	16.000000	n/a	8	2.682292e-01	2.682292e-01
34.662025	0.982687	dec_social_accept_high	0.982687	16.000000	n/a	8	2.682292e-01	2.682292e-01
43.927902	1.415890	dec_nonsocial_choice	1.415890	32.000000	n/a	8	1.822917e-02	1.822917e-02
43.927902	1.415890	dec_choice	1.415890	32.000000	n/a	8	1.822917e-02	1.822917e-02
43.927902	1.415890	dec_nonsocial_accept	1.415890	32.000000	n/a	8	1.086957e-02	1.086957e-02
43.927902	1.415890	dec_accept	1.415890	32.000000	n/a	8	1.822917e-02	1.822917e-02
43.927902	1.415890	dec_nonsocial_high	1.415890	32.000000	n/a	8	1.822917e-02	1.822917e-02
43.927902	1.415890	dec_nonsocial_accept_high	1.415890	32.000000	n/a	8	1.822917e-02	1.822917e-02
51.578033	1.250086	dec_nonsocial_choice	1.250086	32.000000	n/a	16	2.682292e-01	2.682292e-01
51.578033	1.250086	dec_choice	1.250086	32.000000	n/a	16	2.682292e-01	2.682292e-01
51.578033	1.250086	dec_nonsocial_accept	1.250086	32.000000	n/a	16	2.608696e-01	2.608696e-01
51.578033	1.250086	dec_accept	1.250086	32.000000	n/a	16	2.682292e-01	2.682292e-01
51.578033	1.250086	dec_nonsocial_high	1.250086	32.000000	n/a	16	2.682292e-01	2.682292e-01
51.578033	1.250086	dec_nonsocial_accept_high	1.250086	32.000000	n/a	16	2.682292e-01	2.682292e-01
58.410583	1.300357	dec_nonsocial_choice	1.300357	16.000000	n/a	2	-1.067708e-01	-1.067708e-01
58.410583	1.300357	dec_choice	1.300357	16.000000	n/a	2	-1.067708e-01	-1.067708e-01
58.410583	1.300357	dec_nonsocial_accept	1.300357	16.000000	n/a	2	-1.141304e-01	-1.141304e-01
58.410583	1.300357	dec_accept	1.300357	16.000000	n/a	2	-1.067708e-01	-1.067708e-01
58.410583	1.300357	dec_nonsocial_low	1.300357	16.000000	n/a	2	-1.067708e-01	-1.067708e-01
58.410583	1.300357	dec_nonsocial_accept_low	1.300357	16.000000	n/a	2	-1.067708e-01	-1.067708e-01
67.661840	0.949419	dec_social_choice	0.949419	16.000000	n/a	2	-1.067708e-01	-1.067708e-01
67.661840	0.949419	dec_choice	0.949419	16.000000	n/a	2	-1.067708e-01	-1.067708e-01
67.661840	0.949419	dec_social_accept	0.949419	16.000000	n/a	2	-1.141304e-01	-1.141304e-01
67.661840	0.949419	dec_accept	0.949419	16.000000	n/a	2	-1.221591e-01	-1.221591e-01
67.661840	0.949419	dec_social_low	0.949419	16.000000	n/a	2	-1.067708e-01	-1.067708e-01
67.661840	0.949419	dec_social_accept_low	0.949419	16.000000	n/a	2	-1.067708e-01	-1.067708e-01
75.310150	0.950539	dec_social_choice	0.950539	32.000000	n/a	8	1.822917e-02	1.822917e-02
75.310150	0.950539	dec_choice	0.950539	32.000000	n/a	8	1.822917e-02	1.822917e-02
75.310150	0.950539	dec_social_accept	0.950539	32.000000	n/a	8	1.086957e-02	1.086957e-02
75.310150	0.950539	dec_accept	0.950539	32.000000	n/a	8	2.840909e-03	2.840909e-03
75.310150	0.950539	dec_social_accept_high	0.950539	32.000000	n/a	8	1.822917e-02	1.822917e-02
84.560050	1.467175	dec_social_choice	1.467175	16.000000	n/a	2	-1.067708e-01	-1.067708e-01
84.560050	1.467175	dec_choice	1.467175	16.000000	n/a	2	-1.067708e-01	-1.067708e-01
84.560050	1.467175	dec_social_accept	1.467175	16.000000	n/a	2	-1.141304e-01	-1.141304e-01
84.560050	1.467175	dec_accept	1.467175	16.000000	n/a	2	-1.221591e-01	-1.221591e-01
84.560050	1.467175	dec_social_accept_low	1.467175	16.000000	n/a	2	-1.067708e-01	-1.067708e-01
91.395360	1.132504	dec_nonsocial_choice	1.132504	32.000000	n/a	8	1.822917e-02	1.822917e-02
91.395360	1.132504	dec_choice	1.132504	32.000000	n/a	8	1.822917e-02	1.822917e-02
91.395360	1.132504	dec_nonsocial_accept	1.132504	32.000000	n/a	8	1.086957e-02	1.086957e-02
91.395360	1.132504	dec_accept	1.132504	32.000000	n/a	8	1.822917e-02	1.822917e-02
91.395360	1.132504	dec_nonsocial_accept_high	1.132504	32.000000	n/a	8	2.840909e-03	2.840909e-03
98.228060	1.115847	dec_nonsocial_choice	1.115847	32.000000	n/a	3	-1.380208e-01	-1.380208e-01
98.228060	1.115847	dec_choice	1.115847	32.000000	n/a	3	-1.380208e-01	-1.380208e-01
98.228060	1.115847	dec_nonsocial_accept	1.115847	32.000000	n/a	3	-1.453804e-01	-1.453804e-01
98.228060	1.115847	dec_accept	1.115847	32.000000	n/a	3	-1.380208e-01	-1.380208e-01
98.228060	1.115847	dec_nonsocial_low	1.115847	32.000000	n/a	3	-1.380208e-01	-1.380208e-01
98.228060	1.115847	dec_nonsocial_accept_low	1.115847	32.000000	n/a	3	-1.380208e-01	-1.380208e-01
107.495056	1.049333	dec_nonsocial_choice	1.049333	32.000000	n/a	8	1.822917e-02	1.822917e-02
107.495056	1.049333	dec_choice	1.049333	32.000000	n/a	8	1.822917e-02	1.822917e-02
107.495056	1.049333	dec_nonsocial_accept	1.049333	32.000000	n/a	8	1.086957e-02	1.086957e-02
107.495056	1.049333	dec_accept	1.049333	32.000000	n/a	8	1.822917e-02	1.822917e-02
107.495056	1.049333	dec_nonsocial_accept_high	1.049333	32.000000	n/a	8	2.840909e-03	2.840909e-03
114.328030	1.082818	dec_nonsocial_choice	1.082818	32.000000	n/a	2	-1.692708e-01	-1.692708e-01
114.328030	1.082818	dec_choice	1.082818	32.000000	n/a	2	-1.692708e-01	-1.692708e-01
114.328030	1.082818	dec_nonsocial_accept	1.082818	32.000000	n/a	2	-1.766304e-01	-1.766304e-01
114.328030	1.082818	dec_accept	1.082818	32.000000	n/a	2	-1.692708e-01	-1.692708e-01
114.328030	1.082818	dec_nonsocial_accept_low	1.082818	32.000000	n/a	2	-1.846591e-01	-1.846591e-01
123.595060	0.932781	dec_social_choice	0.932781	16.000000	n/a	8	2.682292e-01	2.682292e-01
123.595060	0.932781	dec_choice	0.932781	16.000000	n/a	8	2.682292e-01	2.682292e-01
123.595060	0.932781	dec_social_accept	0.932781	16.000000	n/a	8	2.608696e-01	2.608696e-01
123.595060	0.932781	dec_accept	0.932781	16.000000	n/a	8	2.528409e-01	2.528409e-01
123.595060	0.932781	dec_social_accept_high	0.932781	16.000000	n/a	8	2.682292e-01	2.682292e-01
130.427780	0.933667	dec_nonsocial_choice	0.933667	16.000000	n/a	8	2.682292e-01	2.682292e-01
130.427780	0.933667	dec_choice	0.933667	16.000000	n/a	8	2.682292e-01	2.682292e-01
130.427780	0.933667	dec_nonsocial_accept	0.933667	16.000000	n/a	8	2.608696e-01	2.608696e-01
130.427780	0.933667	dec_accept	0.933667	16.000000	n/a	8	2.682292e-01	2.682292e-01
130.427780	0.933667	dec_nonsocial_accept_high	0.933667	16.000000	n/a	8	2.528409e-01	2.528409e-01
141.293960	1.083460	dec_social_choice	1.083460	16.000000	n/a	2	-1.067708e-01	-1.067708e-01
141.293960	1.083460	dec_choice	1.083460	16.000000	n/a	2	-1.067708e-01	-1.067708e-01
141.293960	1.083460	dec_social_accept	1.083460	16.000000	n/a	2	-1.141304e-01	-1.141304e-01
141.293960	1.083460	dec_accept	1.083460	16.000000	n/a	2	-1.221591e-01	-1.221591e-01
141.293960	1.083460	dec_social_low	1.083460	16.000000	n/a	2	-1.067708e-01	-1.067708e-01
141.293960	1.083460	dec_social_accept_low	1.083460	16.000000	n/a	2	-1.067708e-01	-1.067708e-01
148.128050	0.983087	dec_social_choice	0.983087	32.000000	n/a	8	1.822917e-02	1.822917e-02
148.128050	0.983087	dec_choice	0.983087	32.000000	n/a	8	1.822917e-02	1.822917e-02
148.128050	0.983087	dec_social_accept	0.983087	32.000000	n/a	8	1.086957e-02	1.086957e-02
148.128050	0.983087	dec_accept	0.983087	32.000000	n/a	8	2.840909e-03	2.840909e-03
148.128050	0.983087	dec_social_high	0.983087	32.000000	n/a	8	1.822917e-02	1.822917e-02
148.128050	0.983087	dec_social_accept_high	0.983087	32.000000	n/a	8	1.822917e-02	1.822917e-02
154.961060	1.250905	dec_nonsocial_choice	1.250905	32.000000	n/a	8	1.822917e-02	1.822917e-02
154.961060	1.250905	dec_choice	1.250905	32.000000	n/a	8	1.822917e-02	1.822917e-02
154.961060	1.250905	dec_nonsocial_accept	1.250905	32.000000	n/a	8	1.086957e-02	1.086957e-02
154.961060	1.250905	dec_accept	1.250905	32.000000	n/a	8	1.822917e-02	1.822917e-02
154.961060	1.250905	dec_nonsocial_accept_high	1.250905	32.000000	n/a	8	2.840909e-03	2.840909e-03
162.610050	1.151114	dec_social_choice	1.151114	16.000000	n/a	0	0	-2.317708e-01
162.610050	1.151114	dec_choice	1.151114	16.000000	n/a	0	0	-2.317708e-01
162.610050	1.151114	dec_social_reject	1.151114	16.000000	n/a	0	0	2.083333e-02
162.610050	1.151114	dec_reject	1.151114	16.000000	n/a	0	0	0
162.610050	1.151114	dec_social_reject_low	1.151114	16.000000	n/a	1	-1.692708e-01	-2.317708e-01
170.262040	0.898639	dec_nonsocial_choice	0.898639	16.000000	n/a	2	-1.067708e-01	-1.067708e-01
170.262040	0.898639	dec_choice	0.898639	16.000000	n/a	2	-1.067708e-01	-1.067708e-01
170.262040	0.898639	dec_nonsocial_accept	0.898639	16.000000	n/a	2	-1.141304e-01	-1.141304e-01
170.262040	0.898639	dec_accept	0.898639	16.000000	n/a	2	-1.067708e-01	-1.067708e-01
170.262040	0.898639	dec_nonsocial_low	0.898639	16.000000	n/a	2	-1.067708e-01	-1.067708e-01
170.262040	0.898639	dec_nonsocial_accept_low	0.898639	16.000000	n/a	2	-1.067708e-01	-1.067708e-01
177.095050	0.899269	dec_social_choice	0.899269	32.000000	n/a	2	-1.692708e-01	-1.692708e-01
177.095050	0.899269	dec_choice	0.899269	32.000000	n/a	2	-1.692708e-01	-1.692708e-01
177.095050	0.899269	dec_social_accept	0.899269	32.000000	n/a	2	-1.766304e-01	-1.766304e-01
177.095050	0.899269	dec_accept	0.899269	32.000000	n/a	2	-1.846591e-01	-1.846591e-01
177.095050	0.899269	dec_social_accept_low	0.899269	32.000000	n/a	2	-1.692708e-01	-1.692708e-01
183.927830	0.915944	dec_social_choice	0.915944	32.000000	n/a	2	-1.692708e-01	-1.692708e-01
183.927830	0.915944	dec_choice	0.915944	32.000000	n/a	2	-1.692708e-01	-1.692708e-01
183.927830	0.915944	dec_social_accept	0.915944	32.000000	n/a	2	-1.766304e-01	-1.766304e-01
183.927830	0.915944	dec_accept	0.915944	32.000000	n/a	2	-1.846591e-01	-1.846591e-01
183.927830	0.915944	dec_social_accept_low	0.915944	32.000000	n/a	2	-1.692708e-01	-1.692708e-01
190.761280	1.032882	dec_social_choice	1.032882	32.000000	n/a	16	2.682292e-01	2.682292e-01
190.761280	1.032882	dec_choice	1.032882	32.000000	n/a	16	2.682292e-01	2.682292e-01
190.761280	1.032882	dec_social_accept	1.032882	32.000000	n/a	16	2.608696e-01	2.608696e-01
190.761280	1.032882	dec_accept	1.032882	32.000000	n/a	16	2.528409e-01	2.528409e-01
190.761280	1.032882	dec_social_high	1.032882	32.000000	n/a	16	2.682292e-01	2.682292e-01
190.761280	1.032882	dec_social_accept_high	1.032882	32.000000	n/a	16	2.682292e-01	2.682292e-01
201.628050	0.950544	dec_nonsocial_choice	0.950544	32.000000	n/a	16	2.682292e-01	2.682292e-01
201.628050	0.950544	dec_choice	0.950544	32.000000	n/a	16	2.682292e-01	2.682292e-01
201.628050	0.950544	dec_nonsocial_accept	0.950544	32.000000	n/a	16	2.608696e-01	2.608696e-01
201.628050	0.950544	dec_accept	0.950544	32.000000	n/a	16	2.682292e-01	2.682292e-01
201.628050	0.950544	dec_nonsocial_high	0.950544	32.000000	n/a	16	2.682292e-01	2.682292e-01
201.628050	0.950544	dec_nonsocial_accept_high	0.950544	32.000000	n/a	16	2.682292e-01	2.682292e-01
209.278000	1.533146	dec_social_choice	1.533146	32.000000	n/a	3	-1.380208e-01	-1.380208e-01
209.278000	1.533146	dec_choice	1.533146	32.000000	n/a	3	-1.380208e-01	-1.380208e-01
209.278000	1.533146	dec_social_accept	1.533146	32.000000	n/a	3	-1.453804e-01	-1.453804e-01
209.278000	1.533146	dec_accept	1.533146	32.000000	n/a	3	-1.534091e-01	-1.534091e-01
209.278000	1.533146	dec_social_low	1.533146	32.000000	n/a	3	-1.380208e-01	-1.380208e-01
209.278000	1.533146	dec_social_accept_low	1.533146	32.000000	n/a	3	-1.380208e-01	-1.380208e-01
216.927690	1.149578	dec_nonsocial_choice	1.149578	32.000000	n/a	2	-1.692708e-01	-1.692708e-01
216.927690	1.149578	dec_choice	1.149578	32.000000	n/a	2	-1.692708e-01	-1.692708e-01
216.927690	1.149578	dec_nonsocial_accept	1.149578	32.000000	n/a	2	-1.766304e-01	-1.766304e-01
216.927690	1.149578	dec_accept	1.149578	32.000000	n/a	2	-1.692708e-01	-1.692708e-01
216.927690	1.149578	dec_nonsocial_low	1.149578	32.000000	n/a	2	-1.692708e-01	-1.692708e-01
216.927690	1.149578	dec_nonsocial_accept_low	1.149578	32.000000	n/a	2	-1.692708e-01	-1.692708e-01
223.761080	1.315773	dec_social_choice	1.315773	16.000000	n/a	2	-1.067708e-01	-1.067708e-01
223.761080	1.315773	dec_choice	1.315773	16.000000	n/a	2	-1.067708e-01	-1.067708e-01
223.761080	1.315773	dec_social_accept	1.315773	16.000000	n/a	2	-1.141304e-01	-1.141304e-01
223.761080	1.315773	dec_accept	1.315773	16.000000	n/a	2	-1.221591e-01	-1.221591e-01
223.761080	1.315773	dec_social_accept_low	1.315773	16.000000	n/a	2	-1.067708e-01	-1.067708e-01
230.594040	1.100234	dec_social_choice	1.100234	16.000000	n/a	8	2.682292e-01	2.682292e-01
230.594040	1.100234	dec_choice	1.100234	16.000000	n/a	8	2.682292e-01	2.682292e-01
230.594040	1.100234	dec_social_accept	1.100234	16.000000	n/a	8	2.608696e-01	2.608696e-01
230.594040	1.100234	dec_accept	1.100234	16.000000	n/a	8	2.528409e-01	2.528409e-01
230.594040	1.100234	dec_social_high	1.100234	16.000000	n/a	8	2.682292e-01	2.682292e-01
230.594040	1.100234	dec_social_accept_high	1.100234	16.000000	n/a	8	2.682292e-01	2.682292e-01
237.428270	0.932001	dec_nonsocial_choice	0.932001	16.000000	n/a	4	1.822917e-02	1.822917e-02
237.428270	0.932001	dec_choice	0.932001	16.000000	n/a	4	1.822917e-02	1.822917e-02
237.428270	0.932001	dec_nonsocial_accept	0.932001	16.000000	n/a	4	1.086957e-02	1.086957e-02
237.428270	0.932001	dec_accept	0.932001	16.000000	n/a	4	1.822917e-02	1.822917e-02
237.428270	0.932001	dec_nonsocial_accept_high	0.932001	16.000000	n/a	4	2.840909e-03	2.840909e-03
244.260420	1.283310	dec_social_choice	1.283310	32.000000	n/a	8	1.822917e-02	1.822917e-02
244.260420	1.283310	dec_choice	1.283310	32.000000	n/a	8	1.822917e-02	1.822917e-02
244.260420	1.283310	dec_social_accept	1.283310	32.000000	n/a	8	1.086957e-02	1.086957e-02
244.260420	1.283310	dec_accept	1.283310	32.000000	n/a	8	2.840909e-03	2.840909e-03
244.260420	1.283310	dec_social_accept_high	1.283310	32.000000	n/a	8	1.822917e-02	1.822917e-02
251.910280	1.817080	dec_social_choice	1.817080	32.000000	n/a	2	-1.692708e-01	-1.692708e-01
251.910280	1.817080	dec_choice	1.817080	32.000000	n/a	2	-1.692708e-01	-1.692708e-01
251.910280	1.817080	dec_social_accept	1.817080	32.000000	n/a	2	-1.766304e-01	-1.766304e-01
251.910280	1.817080	dec_accept	1.817080	32.000000	n/a	2	-1.846591e-01	-1.846591e-01
251.910280	1.817080	dec_social_low	1.817080	32.000000	n/a	2	-1.692708e-01	-1.692708e-01
251.910280	1.817080	dec_social_accept_low	1.817080	32.000000	n/a	2	-1.692708e-01	-1.692708e-01
258.745060	1.265369	dec_social_choice	1.265369	32.000000	n/a	8	1.822917e-02	1.822917e-02
258.745060	1.265369	dec_choice	1.265369	32.000000	n/a	8	1.822917e-02	1.822917e-02
258.745060	1.265369	dec_social_accept	1.265369	32.000000	n/a	8	1.086957e-02	1.086957e-02
258.745060	1.265369	dec_accept	1.265369	32.000000	n/a	8	2.840909e-03	2.840909e-03
258.745060	1.265369	dec_social_accept_high	1.265369	32.000000	n/a	8	1.822917e-02	1.822917e-02
265.577180	1.100170	dec_nonsocial_choice	1.100170	32.000000	n/a	2	-1.692708e-01	-1.692708e-01
265.577180	1.100170	dec_choice	1.100170	32.000000	n/a	2	-1.692708e-01	-1.692708e-01
265.577180	1.100170	dec_nonsocial_accept	1.100170	32.000000	n/a	2	-1.766304e-01	-1.766304e-01
265.577180	1.100170	dec_accept	1.100170	32.000000	n/a	2	-1.692708e-01	-1.692708e-01
265.577180	1.100170	dec_nonsocial_low	1.100170	32.000000	n/a	2	-1.692708e-01	-1.692708e-01
265.577180	1.100170	dec_nonsocial_accept_low	1.100170	32.000000	n/a	2	-1.692708e-01	-1.692708e-01
274.826700	1.167580	dec_social_choice	1.167580	16.000000	n/a	4	1.822917e-02	1.822917e-02
274.826700	1.167580	dec_choice	1.167580	16.000000	n/a	4	1.822917e-02	1.822917e-02
274.826700	1.167580	dec_social_accept	1.167580	16.000000	n/a	4	1.086957e-02	1.086957e-02
274.826700	1.167580	dec_accept	1.167580	16.000000	n/a	4	2.840909e-03	2.840909e-03
274.826700	1.167580	dec_social_high	1.167580	16.000000	n/a	4	1.822917e-02	1.822917e-02
274.826700	1.167580	dec_social_accept_high	1.167580	16.000000	n/a	4	1.822917e-02	1.822917e-02
281.661160	1.915452	dec_nonsocial_choice	1.915452	16.000000	n/a	8	2.682292e-01	2.682292e-01
281.661160	1.915452	dec_choice	1.915452	16.000000	n/a	8	2.682292e-01	2.682292e-01
281.661160	1.915452	dec_nonsocial_accept	1.915452	16.000000	n/a	8	2.608696e-01	2.608696e-01
281.661160	1.915452	dec_accept	1.915452	16.000000	n/a	8	2.682292e-01	2.682292e-01
281.661160	1.915452	dec_nonsocial_high	1.915452	16.000000	n/a	8	2.682292e-01	2.682292e-01
281.661160	1.915452	dec_nonsocial_accept_high	1.915452	16.000000	n/a	8	2.682292e-01	2.682292e-01
288.493870	1.866414	dec_social_choice	1.866414	32.000000	n/a	2	-1.692708e-01	-1.692708e-01
288.493870	1.866414	dec_choice	1.866414	32.000000	n/a	2	-1.692708e-01	-1.692708e-01
288.493870	1.866414	dec_social_accept	1.866414	32.000000	n/a	2	-1.766304e-01	-1.766304e-01
288.493870	1.866414	dec_accept	1.866414	32.000000	n/a	2	-1.846591e-01	-1.846591e-01
288.493870	1.866414	dec_social_accept_low	1.866414	32.000000	n/a	2	-1.692708e-01	-1.692708e-01
296.144040	1.333762	dec_social_choice	1.333762	32.000000	n/a	3	-1.380208e-01	-1.380208e-01
296.144040	1.333762	dec_choice	1.333762	32.000000	n/a	3	-1.380208e-01	-1.380208e-01
296.144040	1.333762	dec_social_accept	1.333762	32.000000	n/a	3	-1.453804e-01	-1.453804e-01
296.144040	1.333762	dec_accept	1.333762	32.000000	n/a	3	-1.534091e-01	-1.534091e-01
296.144040	1.333762	dec_social_accept_low	1.333762	32.000000	n/a	3	-1.380208e-01	-1.380208e-01
308.627200	1.133657	dec_nonsocial_choice	1.133657	16.000000	n/a	8	2.682292e-01	2.682292e-01
308.627200	1.133657	dec_choice	1.133657	16.000000	n/a	8	2.682292e-01	2.682292e-01
308.627200	1.133657	dec_nonsocial_accept	1.133657	16.000000	n/a	8	2.608696e-01	2.608696e-01
308.627200	1.133657	dec_accept	1.133657	16.000000	n/a	8	2.682292e-01	2.682292e-01
308.627200	1.133657	dec_nonsocial_high	1.133657	16.000000	n/a	8	2.682292e-01	2.682292e-01
308.627200	1.133657	dec_nonsocial_accept_high	1.133657	16.000000	n/a	8	2.682292e-01	2.682292e-01
315.461700	1.365040	dec_nonsocial_choice	1.365040	16.000000	n/a	2	-1.067708e-01	-1.067708e-01
315.461700	1.365040	dec_choice	1.365040	16.000000	n/a	2	-1.067708e-01	-1.067708e-01
315.461700	1.365040	dec_nonsocial_accept	1.365040	16.000000	n/a	2	-1.141304e-01	-1.141304e-01
315.461700	1.365040	dec_accept	1.365040	16.000000	n/a	2	-1.067708e-01	-1.067708e-01
315.461700	1.365040	dec_nonsocial_low	1.365040	16.000000	n/a	2	-1.067708e-01	-1.067708e-01
315.461700	1.365040	dec_nonsocial_accept_low	1.365040	16.000000	n/a	2	-1.067708e-01	-1.067708e-01
322.293730	0.916304	dec_social_choice	0.916304	16.000000	n/a	8	2.682292e-01	2.682292e-01
322.293730	0.916304	dec_choice	0.916304	16.000000	n/a	8	2.682292e-01	2.682292e-01
322.293730	0.916304	dec_social_accept	0.916304	16.000000	n/a	8	2.608696e-01	2.608696e-01
322.293730	0.916304	dec_accept	0.916304	16.000000	n/a	8	2.528409e-01	2.528409e-01
322.293730	0.916304	dec_social_high	0.916304	16.000000	n/a	8	2.682292e-01	2.682292e-01
322.293730	0.916304	dec_social_accept_high	0.916304	16.000000	n/a	8	2.682292e-01	2.682292e-01
329.944060	1.266219	dec_nonsocial_choice	1.266219	16.000000	n/a	1	-1.692708e-01	-1.692708e-01
329.944060	1.266219	dec_choice	1.266219	16.000000	n/a	1	-1.692708e-01	-1.692708e-01
329.944060	1.266219	dec_nonsocial_accept	1.266219	16.000000	n/a	1	-1.766304e-01	-1.766304e-01
329.944060	1.266219	dec_accept	1.266219	16.000000	n/a	1	-1.692708e-01	-1.692708e-01
329.944060	1.266219	dec_nonsocial_accept_low	1.266219	16.000000	n/a	1	-1.846591e-01	-1.846591e-01
336.777100	1.366072	dec_nonsocial_choice	1.366072	32.000000	n/a	2	-1.692708e-01	-1.692708e-01
336.777100	1.366072	dec_choice	1.366072	32.000000	n/a	2	-1.692708e-01	-1.692708e-01
336.777100	1.366072	dec_nonsocial_accept	1.366072	32.000000	n/a	2	-1.766304e-01	-1.766304e-01
336.777100	1.366072	dec_accept	1.366072	32.000000	n/a	2	-1.692708e-01	-1.692708e-01
336.777100	1.366072	dec_nonsocial_accept_low	1.366072	32.000000	n/a	2	-1.846591e-01	-1.846591e-01
346.044100	0.899979	dec_nonsocial_choice	0.899979	32.000000	n/a	3	-1.380208e-01	-1.380208e-01
346.044100	0.899979	dec_choice	0.899979	32.000000	n/a	3	-1.380208e-01	-1.380208e-01
346.044100	0.899979	dec_nonsocial_accept	0.899979	32.000000	n/a	3	-1.453804e-01	-1.453804e-01
346.044100	0.899979	dec_accept	0.899979	32.000000	n/a	3	-1.380208e-01	-1.380208e-01
346.044100	0.899979	dec_nonsocial_accept_low	0.899979	32.000000	n/a	3	-1.534091e-01	-1.534091e-01
356.910100	1.383973	dec_nonsocial_choice	1.383973	32.000000	n/a	2	-1.692708e-01	-1.692708e-01
356.910100	1.383973	dec_choice	1.383973	32.000000	n/a	2	-1.692708e-01	-1.692708e-01
356.910100	1.383973	dec_nonsocial_accept	1.383973	32.000000	n/a	2	-1.766304e-01	-1.766304e-01
356.910100	1.383973	dec_accept	1.383973	32.000000	n/a	2	-1.692708e-01	-1.692708e-01
356.910100	1.383973	dec_nonsocial_accept_low	1.383973	32.000000	n/a	2	-1.846591e-01	-1.846591e-01
364.561220	1.199255	dec_social_choice	1.199255	16.000000	n/a	4	1.822917e-02	1.822917e-02
364.561220	1.199255	dec_choice	1.199255	16.000000	n/a	4	1.822917e-02	1.822917e-02
364.561220	1.199255	dec_social_accept	1.199255	16.000000	n/a	4	1.086957e-02	1.086957e-02
364.561220	1.199255	dec_accept	1.199255	16.000000	n/a	4	2.840909e-03	2.840909e-03
364.561220	1.199255	dec_social_high	1.199255	16.000000	n/a	4	1.822917e-02	1.822917e-02
364.561220	1.199255	dec_social_accept_high	1.199255	16.000000	n/a	4	1.822917e-02	1.822917e-02
372.211100	1.165721	dec_social_choice	1.165721	16.000000	n/a	0	0	-2.317708e-01
372.211100	1.165721	dec_choice	1.165721	16.000000	n/a	0	0	-2.317708e-01
372.211100	1.165721	dec_social_reject	1.165721	16.000000	n/a	0	0	2.083333e-02
372.211100	1.165721	dec_reject	1.165721	16.000000	n/a	0	0	0
372.211100	1.165721	dec_social_low	1.165721	16.000000	n/a	0	-2.317708e-01	-2.317708e-01
372.211100	1.165721	dec_social_reject_low	1.165721	16.000000	n/a	1	-1.692708e-01	-2.317708e-01
