onset	duration	trial_type	response_time	Endowment	Decision	Offer
4.508342	2	cue_nonsocial	n/a	16	n/a	n/a
4.508342	2	cue_nonsocial_low	n/a	16	n/a	n/a
6.514849	2.133401	dec_nonsocial_low	2.133401	16	n/a	4
6.514849	2.133401	dec_nonsocial_low_accept	2.133401	16	accept	4
12.158163	2	cue_nonsocial	n/a	32	n/a	n/a
12.158163	2	cue_nonsocial_high	n/a	32	n/a	n/a
14.165246	1.982891	dec_nonsocial_high	1.982891	32	n/a	2
14.165246	1.982891	dec_nonsocial_high_reject	1.982891	32	reject	2
19.045837	2	cue_social	n/a	16	n/a	n/a
19.045837	2	cue_social_low	n/a	16	n/a	n/a
20.997065	2.851103	dec_social_low	2.851103	16	n/a	2
20.997065	2.851103	dec_social_low_reject	2.851103	16	reject	2
26.713032	2	cue_social	n/a	32	n/a	n/a
26.713032	2	cue_social_high	n/a	32	n/a	n/a
28.631987	1.932996	dec_social_high	1.932996	32	n/a	8
28.631987	1.932996	dec_social_high_accept	1.932996	32	accept	8
34.348236	2	cue_social	n/a	16	n/a	n/a
34.348236	2	cue_social_low	n/a	16	n/a	n/a
36.280990	1.432608	dec_social_low	1.432608	16	n/a	8
36.280990	1.432608	dec_social_low_accept	1.432608	16	accept	8
41.202057	2	cue_social	n/a	16	n/a	n/a
41.202057	2	cue_social_low	n/a	16	n/a	n/a
43.114445	2.183364	dec_social_low	2.183364	16	n/a	2
43.114445	2.183364	dec_social_low_reject	2.183364	16	reject	2
50.369972	2	cue_social	n/a	16	n/a	n/a
50.369972	2	cue_social_low	n/a	16	n/a	n/a
52.365234	1.849319	dec_social_low	1.849319	16	n/a	4
52.365234	1.849319	dec_social_low_accept	1.849319	16	accept	4
58.008263	2	cue_nonsocial	n/a	16	n/a	n/a
58.008263	2	cue_nonsocial_low	n/a	16	n/a	n/a
60.014385	1.616435	dec_nonsocial_low	1.616435	16	n/a	4
60.014385	1.616435	dec_nonsocial_low_accept	1.616435	16	accept	4
64.841270	2	cue_nonsocial	n/a	16	n/a	n/a
64.841270	2	cue_nonsocial_low	n/a	16	n/a	n/a
66.848260	2.049870	dec_nonsocial_low	2.049870	16	n/a	2
66.848260	2.049870	dec_nonsocial_low_reject	2.049870	16	reject	2
71.675020	2	cue_nonsocial	n/a	32	n/a	n/a
71.675020	2	cue_nonsocial_high	n/a	32	n/a	n/a
73.681200	1.649911	dec_nonsocial_high	1.649911	32	n/a	3
73.681200	1.649911	dec_nonsocial_high_reject	1.649911	32	reject	3
78.583755	2	cue_social	n/a	32	n/a	n/a
78.583755	2	cue_social_high	n/a	32	n/a	n/a
80.514260	1.500536	dec_social_high	1.500536	32	n/a	16
80.514260	1.500536	dec_social_high_reject	1.500536	32	reject	16
85.427950	2	cue_social	n/a	32	n/a	n/a
85.427950	2	cue_social_high	n/a	32	n/a	n/a
87.347115	1.833508	dec_social_high	1.833508	32	n/a	3
87.347115	1.833508	dec_social_high_reject	1.833508	32	reject	3
93.081690	2	cue_social	n/a	32	n/a	n/a
93.081690	2	cue_social_high	n/a	32	n/a	n/a
94.997140	1.634282	dec_social_high	1.634282	32	n/a	2
94.997140	1.634282	dec_social_high_reject	1.634282	32	reject	2
100.641400	2	cue_nonsocial	n/a	32	n/a	n/a
100.641400	2	cue_nonsocial_high	n/a	32	n/a	n/a
102.648770	1.449019	dec_nonsocial_high	1.449019	32	n/a	16
102.648770	1.449019	dec_nonsocial_high_accept	1.449019	32	accept	16
109.891464	2	cue_nonsocial	n/a	16	n/a	n/a
109.891464	2	cue_nonsocial_low	n/a	16	n/a	n/a
111.898186	2.183091	dec_nonsocial_low	2.183091	16	n/a	2
111.898186	2.183091	dec_nonsocial_low_reject	2.183091	16	reject	2
117.644930	2	cue_social	n/a	16	n/a	n/a
117.644930	2	cue_social_low	n/a	16	n/a	n/a
119.549030	1.932348	dec_social_low	1.932348	16	n/a	4
119.549030	1.932348	dec_social_low_accept	1.932348	16	accept	4
124.374740	2	cue_nonsocial	n/a	32	n/a	n/a
124.374740	2	cue_nonsocial_high	n/a	32	n/a	n/a
126.380660	1.583758	dec_nonsocial_high	1.583758	32	n/a	8
126.380660	1.583758	dec_nonsocial_high_accept	1.583758	32	accept	8
135.241620	2	cue_nonsocial	n/a	32	n/a	n/a
135.241620	2	cue_nonsocial_high	n/a	32	n/a	n/a
137.247480	1.550411	dec_nonsocial_high	1.550411	32	n/a	2
137.247480	1.550411	dec_nonsocial_high_reject	1.550411	32	reject	2
142.157470	2	cue_social	n/a	32	n/a	n/a
142.157470	2	cue_social_high	n/a	32	n/a	n/a
144.080370	1.400923	dec_social_high	1.400923	32	n/a	2
144.080370	1.400923	dec_social_high_reject	1.400923	32	reject	2
153.028490	2	cue_social	n/a	32	n/a	n/a
153.028490	2	cue_social_high	n/a	32	n/a	n/a
154.947250	1.750843	dec_social_high	1.750843	32	n/a	2
154.947250	1.750843	dec_social_high_reject	1.750843	32	reject	2
159.833250	2	cue_social	n/a	32	n/a	n/a
159.833250	2	cue_social_high	n/a	32	n/a	n/a
161.781540	1.315980	dec_social_high	1.315980	32	n/a	16
161.781540	1.315980	dec_social_high_accept	1.315980	32	accept	16
169.107700	2	cue_social	n/a	16	n/a	n/a
169.107700	2	cue_social_low	n/a	16	n/a	n/a
171.048050	1.199747	dec_social_low	1.199747	16	n/a	8
171.048050	1.199747	dec_social_low_accept	1.199747	16	accept	8
175.874450	2	cue_nonsocial	n/a	32	n/a	n/a
175.874450	2	cue_nonsocial_high	n/a	32	n/a	n/a
177.882250	1.348947	dec_nonsocial_high	1.348947	32	n/a	2
177.882250	1.348947	dec_nonsocial_high_reject	1.348947	32	reject	2
186.741670	2	cue_nonsocial	n/a	32	n/a	n/a
186.741670	2	cue_nonsocial_high	n/a	32	n/a	n/a
188.748050	1.433234	dec_nonsocial_high	1.433234	32	n/a	16
188.748050	1.433234	dec_nonsocial_high_accept	1.433234	32	accept	16
194.486510	2	cue_social	n/a	16	n/a	n/a
194.486510	2	cue_social_low	n/a	16	n/a	n/a
196.398270	1.332998	dec_social_low	1.332998	16	n/a	1
196.398270	1.332998	dec_social_low_reject	1.332998	16	reject	1
201.224930	2	cue_nonsocial	n/a	16	n/a	n/a
201.224930	2	cue_nonsocial_low	n/a	16	n/a	n/a
203.231300	1.465747	dec_nonsocial_low	1.465747	16	n/a	8
203.231300	1.465747	dec_nonsocial_low_accept	1.465747	16	accept	8
208.177780	2	cue_social	n/a	32	n/a	n/a
208.177780	2	cue_social_high	n/a	32	n/a	n/a
210.065260	1.149194	dec_social_high	1.149194	32	n/a	16
210.065260	1.149194	dec_social_high_accept	1.149194	32	accept	16
214.891140	2	cue_nonsocial	n/a	16	n/a	n/a
214.891140	2	cue_nonsocial_low	n/a	16	n/a	n/a
216.898420	1.448784	dec_nonsocial_low	1.448784	16	n/a	1
216.898420	1.448784	dec_nonsocial_low_reject	1.448784	16	reject	1
221.724290	2	cue_nonsocial	n/a	16	n/a	n/a
221.724290	2	cue_nonsocial_low	n/a	16	n/a	n/a
223.730930	1.383462	dec_nonsocial_low	1.383462	16	n/a	4
223.730930	1.383462	dec_nonsocial_low_accept	1.383462	16	accept	4
230.974810	2	cue_nonsocial	n/a	32	n/a	n/a
230.974810	2	cue_nonsocial_high	n/a	32	n/a	n/a
232.981310	1.250125	dec_nonsocial_high	1.250125	32	n/a	16
232.981310	1.250125	dec_nonsocial_high_accept	1.250125	32	accept	16
237.807940	2	cue_nonsocial	n/a	32	n/a	n/a
237.807940	2	cue_nonsocial_high	n/a	32	n/a	n/a
239.814800	1.232833	dec_nonsocial_high	1.232833	32	n/a	16
239.814800	1.232833	dec_nonsocial_high_accept	1.232833	32	accept	16
245.457820	2	cue_nonsocial	n/a	32	n/a	n/a
245.457820	2	cue_nonsocial_high	n/a	32	n/a	n/a
247.464310	1.383440	dec_nonsocial_high	1.383440	32	n/a	3
247.464310	1.383440	dec_nonsocial_high_reject	1.383440	32	reject	3
254.724560	2	cue_nonsocial	n/a	32	n/a	n/a
254.724560	2	cue_nonsocial_high	n/a	32	n/a	n/a
256.730070	1.234610	dec_nonsocial_high	1.234610	32	n/a	2
256.730070	1.234610	dec_nonsocial_high_reject	1.234610	32	reject	2
261.557740	2	cue_nonsocial	n/a	32	n/a	n/a
261.557740	2	cue_nonsocial_high	n/a	32	n/a	n/a
263.564100	1.416184	dec_nonsocial_high	1.416184	32	n/a	2
263.564100	1.416184	dec_nonsocial_high_reject	1.416184	32	reject	2
268.465400	2	cue_social	n/a	16	n/a	n/a
268.465400	2	cue_social_low	n/a	16	n/a	n/a
270.396480	1.418010	dec_social_low	1.418010	16	n/a	4
270.396480	1.418010	dec_social_low_accept	1.418010	16	accept	4
275.224330	2	cue_nonsocial	n/a	32	n/a	n/a
275.224330	2	cue_nonsocial_high	n/a	32	n/a	n/a
277.230400	1.600667	dec_nonsocial_high	1.600667	32	n/a	3
277.230400	1.600667	dec_nonsocial_high_reject	1.600667	32	reject	3
282.133820	2	cue_social	n/a	16	n/a	n/a
282.133820	2	cue_social_low	n/a	16	n/a	n/a
284.063350	1.400753	dec_social_low	1.400753	16	n/a	4
284.063350	1.400753	dec_social_low_accept	1.400753	16	accept	4
291.372400	2	cue_social	n/a	32	n/a	n/a
291.372400	2	cue_social_high	n/a	32	n/a	n/a
293.330470	1.300672	dec_social_high	1.300672	32	n/a	8
293.330470	1.300672	dec_social_high_accept	1.300672	32	accept	8
299.031280	2	cue_social	n/a	32	n/a	n/a
299.031280	2	cue_social_high	n/a	32	n/a	n/a
300.964320	1.282584	dec_social_high	1.282584	32	n/a	3
300.964320	1.282584	dec_social_high_reject	1.282584	32	reject	3
305.880700	2	cue_social	n/a	16	n/a	n/a
305.880700	2	cue_social_low	n/a	16	n/a	n/a
307.797400	2.316556	dec_social_low	2.316556	16	n/a	2
307.797400	2.316556	dec_social_low_reject	2.316556	16	reject	2
312.624450	2	cue_nonsocial	n/a	32	n/a	n/a
312.624450	2	cue_nonsocial_high	n/a	32	n/a	n/a
314.631740	1.465282	dec_nonsocial_high	1.465282	32	n/a	8
314.631740	1.465282	dec_nonsocial_high_accept	1.465282	32	accept	8
325.107700	2	cue_nonsocial	n/a	16	n/a	n/a
325.107700	2	cue_nonsocial_low	n/a	16	n/a	n/a
327.114380	1.299675	dec_nonsocial_low	1.299675	16	n/a	4
327.114380	1.299675	dec_nonsocial_low_accept	1.299675	16	accept	4
332.012600	2	cue_social	n/a	16	n/a	n/a
332.012600	2	cue_social_low	n/a	16	n/a	n/a
333.947000	1.267387	dec_social_low	1.267387	16	n/a	1
333.947000	1.267387	dec_social_low_reject	1.267387	16	reject	1
339.663400	2	cue_social	n/a	32	n/a	n/a
339.663400	2	cue_social_high	n/a	32	n/a	n/a
341.580900	1.333448	dec_social_high	1.333448	32	n/a	16
341.580900	1.333448	dec_social_high_accept	1.333448	32	accept	16
346.407620	2	cue_nonsocial	n/a	32	n/a	n/a
346.407620	2	cue_nonsocial_high	n/a	32	n/a	n/a
348.414370	1.265895	dec_nonsocial_high	1.265895	32	n/a	16
348.414370	1.265895	dec_nonsocial_high_accept	1.265895	32	accept	16
354.123380	2	cue_social	n/a	32	n/a	n/a
354.123380	2	cue_social_high	n/a	32	n/a	n/a
356.064400	1.599836	dec_social_high	1.599836	32	n/a	3
356.064400	1.599836	dec_social_high_reject	1.599836	32	reject	3
360.960570	2	cue_social	n/a	32	n/a	n/a
360.960570	2	cue_social_high	n/a	32	n/a	n/a
362.898380	1.599247	dec_social_high	1.599247	32	n/a	2
362.898380	1.599247	dec_social_high_reject	1.599247	32	reject	2
368.541020	2	cue_nonsocial	n/a	16	n/a	n/a
368.541020	2	cue_nonsocial_low	n/a	16	n/a	n/a
370.547360	1.999943	dec_nonsocial_low	1.999943	16	n/a	2
370.547360	1.999943	dec_nonsocial_low_reject	1.999943	16	reject	2
