onset	duration	trial_type	response_time	Endowment	Endowment_pmod	Decision	Decision_pmod	Offer_pmod
4.508342	2	cue_nonsocial	n/a	16	-10	n/a	n/a	n/a
4.508342	2	cue_nonsocial_low	n/a	16	-9	n/a	n/a	n/a
12.158163	2	cue_nonsocial	n/a	32	6	n/a	n/a	n/a
12.158163	2	cue_nonsocial_high	n/a	32	7	n/a	n/a	n/a
19.045837	2	cue_social	n/a	16	-9	n/a	n/a	n/a
19.045837	2	cue_social_low	n/a	16	-10	n/a	n/a	n/a
26.713032	2	cue_social	n/a	32	7	n/a	n/a	n/a
26.713032	2	cue_social_high	n/a	32	6	n/a	n/a	n/a
34.348236	2	cue_social	n/a	16	-9	n/a	n/a	n/a
34.348236	2	cue_social_low	n/a	16	-10	n/a	n/a	n/a
41.202057	2	cue_social	n/a	16	-9	n/a	n/a	n/a
41.202057	2	cue_social_low	n/a	16	-10	n/a	n/a	n/a
50.369972	2	cue_social	n/a	16	-9	n/a	n/a	n/a
50.369972	2	cue_social_low	n/a	16	-10	n/a	n/a	n/a
58.008263	2	cue_nonsocial	n/a	16	-10	n/a	n/a	n/a
58.008263	2	cue_nonsocial_low	n/a	16	-9	n/a	n/a	n/a
64.841270	2	cue_nonsocial	n/a	16	-10	n/a	n/a	n/a
64.841270	2	cue_nonsocial_low	n/a	16	-9	n/a	n/a	n/a
71.675020	2	cue_nonsocial	n/a	32	6	n/a	n/a	n/a
71.675020	2	cue_nonsocial_high	n/a	32	7	n/a	n/a	n/a
78.583755	2	cue_social	n/a	32	7	n/a	n/a	n/a
78.583755	2	cue_social_high	n/a	32	6	n/a	n/a	n/a
85.427950	2	cue_social	n/a	32	7	n/a	n/a	n/a
85.427950	2	cue_social_high	n/a	32	6	n/a	n/a	n/a
93.081690	2	cue_social	n/a	32	7	n/a	n/a	n/a
93.081690	2	cue_social_high	n/a	32	6	n/a	n/a	n/a
100.641400	2	cue_nonsocial	n/a	32	6	n/a	n/a	n/a
100.641400	2	cue_nonsocial_high	n/a	32	7	n/a	n/a	n/a
109.891464	2	cue_nonsocial	n/a	16	-10	n/a	n/a	n/a
109.891464	2	cue_nonsocial_low	n/a	16	-9	n/a	n/a	n/a
117.644930	2	cue_social	n/a	16	-9	n/a	n/a	n/a
117.644930	2	cue_social_low	n/a	16	-10	n/a	n/a	n/a
124.374740	2	cue_nonsocial	n/a	32	6	n/a	n/a	n/a
124.374740	2	cue_nonsocial_high	n/a	32	7	n/a	n/a	n/a
135.241620	2	cue_nonsocial	n/a	32	6	n/a	n/a	n/a
135.241620	2	cue_nonsocial_high	n/a	32	7	n/a	n/a	n/a
142.157470	2	cue_social	n/a	32	7	n/a	n/a	n/a
142.157470	2	cue_social_high	n/a	32	6	n/a	n/a	n/a
153.028490	2	cue_social	n/a	32	7	n/a	n/a	n/a
153.028490	2	cue_social_high	n/a	32	6	n/a	n/a	n/a
159.833250	2	cue_social	n/a	32	7	n/a	n/a	n/a
159.833250	2	cue_social_high	n/a	32	6	n/a	n/a	n/a
169.107700	2	cue_social	n/a	16	-9	n/a	n/a	n/a
169.107700	2	cue_social_low	n/a	16	-10	n/a	n/a	n/a
175.874450	2	cue_nonsocial	n/a	32	6	n/a	n/a	n/a
175.874450	2	cue_nonsocial_high	n/a	32	7	n/a	n/a	n/a
186.741670	2	cue_nonsocial	n/a	32	6	n/a	n/a	n/a
186.741670	2	cue_nonsocial_high	n/a	32	7	n/a	n/a	n/a
194.486510	2	cue_social	n/a	16	-9	n/a	n/a	n/a
194.486510	2	cue_social_low	n/a	16	-10	n/a	n/a	n/a
201.224930	2	cue_nonsocial	n/a	16	-10	n/a	n/a	n/a
201.224930	2	cue_nonsocial_low	n/a	16	-9	n/a	n/a	n/a
208.177780	2	cue_social	n/a	32	7	n/a	n/a	n/a
208.177780	2	cue_social_high	n/a	32	6	n/a	n/a	n/a
214.891140	2	cue_nonsocial	n/a	16	-10	n/a	n/a	n/a
214.891140	2	cue_nonsocial_low	n/a	16	-9	n/a	n/a	n/a
221.724290	2	cue_nonsocial	n/a	16	-10	n/a	n/a	n/a
221.724290	2	cue_nonsocial_low	n/a	16	-9	n/a	n/a	n/a
230.974810	2	cue_nonsocial	n/a	32	6	n/a	n/a	n/a
230.974810	2	cue_nonsocial_high	n/a	32	7	n/a	n/a	n/a
237.807940	2	cue_nonsocial	n/a	32	6	n/a	n/a	n/a
237.807940	2	cue_nonsocial_high	n/a	32	7	n/a	n/a	n/a
245.457820	2	cue_nonsocial	n/a	32	6	n/a	n/a	n/a
245.457820	2	cue_nonsocial_high	n/a	32	7	n/a	n/a	n/a
254.724560	2	cue_nonsocial	n/a	32	6	n/a	n/a	n/a
254.724560	2	cue_nonsocial_high	n/a	32	7	n/a	n/a	n/a
261.557740	2	cue_nonsocial	n/a	32	6	n/a	n/a	n/a
261.557740	2	cue_nonsocial_high	n/a	32	7	n/a	n/a	n/a
268.465400	2	cue_social	n/a	16	-9	n/a	n/a	n/a
268.465400	2	cue_social_low	n/a	16	-10	n/a	n/a	n/a
275.224330	2	cue_nonsocial	n/a	32	6	n/a	n/a	n/a
275.224330	2	cue_nonsocial_high	n/a	32	7	n/a	n/a	n/a
282.133820	2	cue_social	n/a	16	-9	n/a	n/a	n/a
282.133820	2	cue_social_low	n/a	16	-10	n/a	n/a	n/a
291.372400	2	cue_social	n/a	32	7	n/a	n/a	n/a
291.372400	2	cue_social_high	n/a	32	6	n/a	n/a	n/a
299.031280	2	cue_social	n/a	32	7	n/a	n/a	n/a
299.031280	2	cue_social_high	n/a	32	6	n/a	n/a	n/a
305.880700	2	cue_social	n/a	16	-9	n/a	n/a	n/a
305.880700	2	cue_social_low	n/a	16	-10	n/a	n/a	n/a
312.624450	2	cue_nonsocial	n/a	32	6	n/a	n/a	n/a
312.624450	2	cue_nonsocial_high	n/a	32	7	n/a	n/a	n/a
325.107700	2	cue_nonsocial	n/a	16	-10	n/a	n/a	n/a
325.107700	2	cue_nonsocial_low	n/a	16	-9	n/a	n/a	n/a
332.012600	2	cue_social	n/a	16	-9	n/a	n/a	n/a
332.012600	2	cue_social_low	n/a	16	-10	n/a	n/a	n/a
339.663400	2	cue_social	n/a	32	7	n/a	n/a	n/a
339.663400	2	cue_social_high	n/a	32	6	n/a	n/a	n/a
346.407620	2	cue_nonsocial	n/a	32	6	n/a	n/a	n/a
346.407620	2	cue_nonsocial_high	n/a	32	7	n/a	n/a	n/a
354.123380	2	cue_social	n/a	32	7	n/a	n/a	n/a
354.123380	2	cue_social_high	n/a	32	6	n/a	n/a	n/a
360.960570	2	cue_social	n/a	32	7	n/a	n/a	n/a
360.960570	2	cue_social_high	n/a	32	6	n/a	n/a	n/a
368.541020	2	cue_nonsocial	n/a	16	-10	n/a	n/a	n/a
368.541020	2	cue_nonsocial_low	n/a	16	-9	n/a	n/a	n/a
6.514849	2.133401	dec_nonsocial_choice	2.133401	16.000000	n/a	4	1.953125e-02	1.953125e-02
6.514849	2.133401	dec_choice	2.133401	16.000000	n/a	4	1.953125e-02	1.953125e-02
6.514849	2.133401	dec_nonsocial_accept	2.133401	16.000000	n/a	4	-1.195652e-01	-1.195652e-01
6.514849	2.133401	dec_accept	2.133401	16.000000	n/a	4	-1.250000e-01	-1.250000e-01
6.514849	2.133401	dec_nonsocial_high	2.133401	16.000000	n/a	4	1.953125e-02	1.953125e-02
6.514849	2.133401	dec_nonsocial_accept_high	2.133401	16.000000	n/a	4	-1.250000e-01	-1.250000e-01
14.165246	1.982891	dec_nonsocial_choice	1.982891	32.000000	n/a	0	0	-2.304688e-01
14.165246	1.982891	dec_choice	1.982891	32.000000	n/a	0	0	-2.304688e-01
14.165246	1.982891	dec_nonsocial_reject	1.982891	32.000000	n/a	0	0	-4.000000e-02
14.165246	1.982891	dec_reject	1.982891	32.000000	n/a	0	0	-2.343750e-02
14.165246	1.982891	dec_nonsocial_low	1.982891	32.000000	n/a	0	-2.304688e-01	-2.304688e-01
14.165246	1.982891	dec_nonsocial_reject_low	1.982891	32.000000	n/a	2	-2.343750e-02	-8.593750e-02
20.997065	2.851103	dec_social_choice	2.851103	16.000000	n/a	0	0	-2.304688e-01
20.997065	2.851103	dec_choice	2.851103	16.000000	n/a	0	0	-2.304688e-01
20.997065	2.851103	dec_social_reject	2.851103	16.000000	n/a	0	0	2.250000e-02
20.997065	2.851103	dec_reject	2.851103	16.000000	n/a	0	0	7.211538e-03
20.997065	2.851103	dec_social_reject_low	2.851103	16.000000	n/a	2	-1.054688e-01	-2.304688e-01
28.631987	1.932996	dec_social_choice	1.932996	32.000000	n/a	8	1.953125e-02	1.953125e-02
28.631987	1.932996	dec_choice	1.932996	32.000000	n/a	8	1.953125e-02	1.953125e-02
28.631987	1.932996	dec_social_accept	1.932996	32.000000	n/a	8	-1.195652e-01	-1.195652e-01
28.631987	1.932996	dec_accept	1.932996	32.000000	n/a	8	-1.136364e-01	-1.136364e-01
28.631987	1.932996	dec_social_accept_high	1.932996	32.000000	n/a	8	1.953125e-02	1.953125e-02
36.280990	1.432608	dec_social_choice	1.432608	16.000000	n/a	8	2.695312e-01	2.695312e-01
36.280990	1.432608	dec_choice	1.432608	16.000000	n/a	8	2.695312e-01	2.695312e-01
36.280990	1.432608	dec_social_accept	1.432608	16.000000	n/a	8	1.304348e-01	1.304348e-01
36.280990	1.432608	dec_accept	1.432608	16.000000	n/a	8	1.363636e-01	1.363636e-01
36.280990	1.432608	dec_social_high	1.432608	16.000000	n/a	8	2.695312e-01	2.695312e-01
36.280990	1.432608	dec_social_accept_high	1.432608	16.000000	n/a	8	2.695312e-01	2.695312e-01
43.114445	2.183364	dec_social_choice	2.183364	16.000000	n/a	0	0	-2.304688e-01
43.114445	2.183364	dec_choice	2.183364	16.000000	n/a	0	0	-2.304688e-01
43.114445	2.183364	dec_social_reject	2.183364	16.000000	n/a	0	0	2.250000e-02
43.114445	2.183364	dec_reject	2.183364	16.000000	n/a	0	0	7.211538e-03
43.114445	2.183364	dec_social_low	2.183364	16.000000	n/a	0	-2.304688e-01	-2.304688e-01
43.114445	2.183364	dec_social_reject_low	2.183364	16.000000	n/a	2	-1.054688e-01	-2.304688e-01
52.365234	1.849319	dec_social_choice	1.849319	16.000000	n/a	4	1.953125e-02	1.953125e-02
52.365234	1.849319	dec_choice	1.849319	16.000000	n/a	4	1.953125e-02	1.953125e-02
52.365234	1.849319	dec_social_accept	1.849319	16.000000	n/a	4	-1.195652e-01	-1.195652e-01
52.365234	1.849319	dec_accept	1.849319	16.000000	n/a	4	-1.136364e-01	-1.136364e-01
52.365234	1.849319	dec_social_accept_high	1.849319	16.000000	n/a	4	1.953125e-02	1.953125e-02
60.014385	1.616435	dec_nonsocial_choice	1.616435	16.000000	n/a	4	1.953125e-02	1.953125e-02
60.014385	1.616435	dec_choice	1.616435	16.000000	n/a	4	1.953125e-02	1.953125e-02
60.014385	1.616435	dec_nonsocial_accept	1.616435	16.000000	n/a	4	-1.195652e-01	-1.195652e-01
60.014385	1.616435	dec_accept	1.616435	16.000000	n/a	4	-1.250000e-01	-1.250000e-01
60.014385	1.616435	dec_nonsocial_high	1.616435	16.000000	n/a	4	1.953125e-02	1.953125e-02
60.014385	1.616435	dec_nonsocial_accept_high	1.616435	16.000000	n/a	4	-1.250000e-01	-1.250000e-01
66.848260	2.049870	dec_nonsocial_choice	2.049870	16.000000	n/a	0	0	-2.304688e-01
66.848260	2.049870	dec_choice	2.049870	16.000000	n/a	0	0	-2.304688e-01
66.848260	2.049870	dec_nonsocial_reject	2.049870	16.000000	n/a	0	0	2.250000e-02
66.848260	2.049870	dec_reject	2.049870	16.000000	n/a	0	0	3.906250e-02
66.848260	2.049870	dec_nonsocial_low	2.049870	16.000000	n/a	0	-2.304688e-01	-2.304688e-01
66.848260	2.049870	dec_nonsocial_reject_low	2.049870	16.000000	n/a	2	3.906250e-02	-8.593750e-02
73.681200	1.649911	dec_nonsocial_choice	1.649911	32.000000	n/a	0	0	-2.304688e-01
73.681200	1.649911	dec_choice	1.649911	32.000000	n/a	0	0	-2.304688e-01
73.681200	1.649911	dec_nonsocial_reject	1.649911	32.000000	n/a	0	0	-8.750000e-03
73.681200	1.649911	dec_reject	1.649911	32.000000	n/a	0	0	7.812500e-03
73.681200	1.649911	dec_nonsocial_reject_low	1.649911	32.000000	n/a	3	-2.403846e-02	-1.177885e-01
80.514260	1.500536	dec_social_choice	1.500536	32.000000	n/a	0	0	-2.304688e-01
80.514260	1.500536	dec_choice	1.500536	32.000000	n/a	0	0	-2.304688e-01
80.514260	1.500536	dec_social_reject	1.500536	32.000000	n/a	0	0	3.975000e-01
80.514260	1.500536	dec_reject	1.500536	32.000000	n/a	0	0	3.822115e-01
80.514260	1.500536	dec_social_low	1.500536	32.000000	n/a	0	-2.304688e-01	-2.304688e-01
80.514260	1.500536	dec_social_reject_low	1.500536	32.000000	n/a	16	2.695312e-01	-2.304688e-01
87.347115	1.833508	dec_social_choice	1.833508	32.000000	n/a	0	0	-2.304688e-01
87.347115	1.833508	dec_choice	1.833508	32.000000	n/a	0	0	-2.304688e-01
87.347115	1.833508	dec_social_reject	1.833508	32.000000	n/a	0	0	-8.750000e-03
87.347115	1.833508	dec_reject	1.833508	32.000000	n/a	0	0	-2.403846e-02
87.347115	1.833508	dec_social_reject_low	1.833508	32.000000	n/a	3	-1.367188e-01	-2.304688e-01
94.997140	1.634282	dec_social_choice	1.634282	32.000000	n/a	0	0	-2.304688e-01
94.997140	1.634282	dec_choice	1.634282	32.000000	n/a	0	0	-2.304688e-01
94.997140	1.634282	dec_social_reject	1.634282	32.000000	n/a	0	0	-4.000000e-02
94.997140	1.634282	dec_reject	1.634282	32.000000	n/a	0	0	-5.528846e-02
94.997140	1.634282	dec_social_low	1.634282	32.000000	n/a	0	-2.304688e-01	-2.304688e-01
94.997140	1.634282	dec_social_reject_low	1.634282	32.000000	n/a	2	-1.679688e-01	-2.304688e-01
102.648770	1.449019	dec_nonsocial_choice	1.449019	32.000000	n/a	16	2.695312e-01	2.695312e-01
102.648770	1.449019	dec_choice	1.449019	32.000000	n/a	16	2.695312e-01	2.695312e-01
102.648770	1.449019	dec_nonsocial_accept	1.449019	32.000000	n/a	16	1.304348e-01	1.304348e-01
102.648770	1.449019	dec_accept	1.449019	32.000000	n/a	16	1.250000e-01	1.250000e-01
102.648770	1.449019	dec_nonsocial_accept_high	1.449019	32.000000	n/a	16	1.363636e-01	1.363636e-01
111.898186	2.183091	dec_nonsocial_choice	2.183091	16.000000	n/a	0	0	-2.304688e-01
111.898186	2.183091	dec_choice	2.183091	16.000000	n/a	0	0	-2.304688e-01
111.898186	2.183091	dec_nonsocial_reject	2.183091	16.000000	n/a	0	0	2.250000e-02
111.898186	2.183091	dec_reject	2.183091	16.000000	n/a	0	0	3.906250e-02
111.898186	2.183091	dec_nonsocial_reject_low	2.183091	16.000000	n/a	2	7.211538e-03	-1.177885e-01
119.549030	1.932348	dec_social_choice	1.932348	16.000000	n/a	4	1.953125e-02	1.953125e-02
119.549030	1.932348	dec_choice	1.932348	16.000000	n/a	4	1.953125e-02	1.953125e-02
119.549030	1.932348	dec_social_accept	1.932348	16.000000	n/a	4	-1.195652e-01	-1.195652e-01
119.549030	1.932348	dec_accept	1.932348	16.000000	n/a	4	-1.136364e-01	-1.136364e-01
119.549030	1.932348	dec_social_high	1.932348	16.000000	n/a	4	1.953125e-02	1.953125e-02
119.549030	1.932348	dec_social_accept_high	1.932348	16.000000	n/a	4	1.953125e-02	1.953125e-02
126.380660	1.583758	dec_nonsocial_choice	1.583758	32.000000	n/a	8	1.953125e-02	1.953125e-02
126.380660	1.583758	dec_choice	1.583758	32.000000	n/a	8	1.953125e-02	1.953125e-02
126.380660	1.583758	dec_nonsocial_accept	1.583758	32.000000	n/a	8	-1.195652e-01	-1.195652e-01
126.380660	1.583758	dec_accept	1.583758	32.000000	n/a	8	-1.250000e-01	-1.250000e-01
126.380660	1.583758	dec_nonsocial_high	1.583758	32.000000	n/a	8	1.953125e-02	1.953125e-02
126.380660	1.583758	dec_nonsocial_accept_high	1.583758	32.000000	n/a	8	-1.250000e-01	-1.250000e-01
137.247480	1.550411	dec_nonsocial_choice	1.550411	32.000000	n/a	0	0	-2.304688e-01
137.247480	1.550411	dec_choice	1.550411	32.000000	n/a	0	0	-2.304688e-01
137.247480	1.550411	dec_nonsocial_reject	1.550411	32.000000	n/a	0	0	-4.000000e-02
137.247480	1.550411	dec_reject	1.550411	32.000000	n/a	0	0	-2.343750e-02
137.247480	1.550411	dec_nonsocial_low	1.550411	32.000000	n/a	0	-2.304688e-01	-2.304688e-01
137.247480	1.550411	dec_nonsocial_reject_low	1.550411	32.000000	n/a	2	-2.343750e-02	-8.593750e-02
144.080370	1.400923	dec_social_choice	1.400923	32.000000	n/a	0	0	-2.304688e-01
144.080370	1.400923	dec_choice	1.400923	32.000000	n/a	0	0	-2.304688e-01
144.080370	1.400923	dec_social_reject	1.400923	32.000000	n/a	0	0	-4.000000e-02
144.080370	1.400923	dec_reject	1.400923	32.000000	n/a	0	0	-5.528846e-02
144.080370	1.400923	dec_social_reject_low	1.400923	32.000000	n/a	2	-1.679688e-01	-2.304688e-01
154.947250	1.750843	dec_social_choice	1.750843	32.000000	n/a	0	0	-2.304688e-01
154.947250	1.750843	dec_choice	1.750843	32.000000	n/a	0	0	-2.304688e-01
154.947250	1.750843	dec_social_reject	1.750843	32.000000	n/a	0	0	-4.000000e-02
154.947250	1.750843	dec_reject	1.750843	32.000000	n/a	0	0	-5.528846e-02
154.947250	1.750843	dec_social_low	1.750843	32.000000	n/a	0	-2.304688e-01	-2.304688e-01
154.947250	1.750843	dec_social_reject_low	1.750843	32.000000	n/a	2	-1.679688e-01	-2.304688e-01
161.781540	1.315980	dec_social_choice	1.315980	32.000000	n/a	16	2.695312e-01	2.695312e-01
161.781540	1.315980	dec_choice	1.315980	32.000000	n/a	16	2.695312e-01	2.695312e-01
161.781540	1.315980	dec_social_accept	1.315980	32.000000	n/a	16	1.304348e-01	1.304348e-01
161.781540	1.315980	dec_accept	1.315980	32.000000	n/a	16	1.363636e-01	1.363636e-01
161.781540	1.315980	dec_social_high	1.315980	32.000000	n/a	16	2.695312e-01	2.695312e-01
161.781540	1.315980	dec_social_accept_high	1.315980	32.000000	n/a	16	2.695312e-01	2.695312e-01
171.048050	1.199747	dec_social_choice	1.199747	16.000000	n/a	8	2.695312e-01	2.695312e-01
171.048050	1.199747	dec_choice	1.199747	16.000000	n/a	8	2.695312e-01	2.695312e-01
171.048050	1.199747	dec_social_accept	1.199747	16.000000	n/a	8	1.304348e-01	1.304348e-01
171.048050	1.199747	dec_accept	1.199747	16.000000	n/a	8	1.363636e-01	1.363636e-01
171.048050	1.199747	dec_social_high	1.199747	16.000000	n/a	8	2.695312e-01	2.695312e-01
171.048050	1.199747	dec_social_accept_high	1.199747	16.000000	n/a	8	2.695312e-01	2.695312e-01
177.882250	1.348947	dec_nonsocial_choice	1.348947	32.000000	n/a	0	0	-2.304688e-01
177.882250	1.348947	dec_choice	1.348947	32.000000	n/a	0	0	-2.304688e-01
177.882250	1.348947	dec_nonsocial_reject	1.348947	32.000000	n/a	0	0	-4.000000e-02
177.882250	1.348947	dec_reject	1.348947	32.000000	n/a	0	0	-2.343750e-02
177.882250	1.348947	dec_nonsocial_low	1.348947	32.000000	n/a	0	-2.304688e-01	-2.304688e-01
177.882250	1.348947	dec_nonsocial_reject_low	1.348947	32.000000	n/a	2	-2.343750e-02	-8.593750e-02
188.748050	1.433234	dec_nonsocial_choice	1.433234	32.000000	n/a	16	2.695312e-01	2.695312e-01
188.748050	1.433234	dec_choice	1.433234	32.000000	n/a	16	2.695312e-01	2.695312e-01
188.748050	1.433234	dec_nonsocial_accept	1.433234	32.000000	n/a	16	1.304348e-01	1.304348e-01
188.748050	1.433234	dec_accept	1.433234	32.000000	n/a	16	1.250000e-01	1.250000e-01
188.748050	1.433234	dec_nonsocial_accept_high	1.433234	32.000000	n/a	16	1.363636e-01	1.363636e-01
196.398270	1.332998	dec_social_choice	1.332998	16.000000	n/a	0	0	-2.304688e-01
196.398270	1.332998	dec_choice	1.332998	16.000000	n/a	0	0	-2.304688e-01
196.398270	1.332998	dec_social_reject	1.332998	16.000000	n/a	0	0	-4.000000e-02
196.398270	1.332998	dec_reject	1.332998	16.000000	n/a	0	0	-5.528846e-02
196.398270	1.332998	dec_social_reject_low	1.332998	16.000000	n/a	1	-1.679688e-01	-2.304688e-01
203.231300	1.465747	dec_nonsocial_choice	1.465747	16.000000	n/a	8	2.695312e-01	2.695312e-01
203.231300	1.465747	dec_choice	1.465747	16.000000	n/a	8	2.695312e-01	2.695312e-01
203.231300	1.465747	dec_nonsocial_accept	1.465747	16.000000	n/a	8	1.304348e-01	1.304348e-01
203.231300	1.465747	dec_accept	1.465747	16.000000	n/a	8	1.250000e-01	1.250000e-01
203.231300	1.465747	dec_nonsocial_accept_high	1.465747	16.000000	n/a	8	1.363636e-01	1.363636e-01
210.065260	1.149194	dec_social_choice	1.149194	32.000000	n/a	16	2.695312e-01	2.695312e-01
210.065260	1.149194	dec_choice	1.149194	32.000000	n/a	16	2.695312e-01	2.695312e-01
210.065260	1.149194	dec_social_accept	1.149194	32.000000	n/a	16	1.304348e-01	1.304348e-01
210.065260	1.149194	dec_accept	1.149194	32.000000	n/a	16	1.363636e-01	1.363636e-01
210.065260	1.149194	dec_social_accept_high	1.149194	32.000000	n/a	16	2.695312e-01	2.695312e-01
216.898420	1.448784	dec_nonsocial_choice	1.448784	16.000000	n/a	0	0	-2.304688e-01
216.898420	1.448784	dec_choice	1.448784	16.000000	n/a	0	0	-2.304688e-01
216.898420	1.448784	dec_nonsocial_reject	1.448784	16.000000	n/a	0	0	-4.000000e-02
216.898420	1.448784	dec_reject	1.448784	16.000000	n/a	0	0	-2.343750e-02
216.898420	1.448784	dec_nonsocial_reject_low	1.448784	16.000000	n/a	1	-5.528846e-02	-1.177885e-01
223.730930	1.383462	dec_nonsocial_choice	1.383462	16.000000	n/a	4	1.953125e-02	1.953125e-02
223.730930	1.383462	dec_choice	1.383462	16.000000	n/a	4	1.953125e-02	1.953125e-02
223.730930	1.383462	dec_nonsocial_accept	1.383462	16.000000	n/a	4	-1.195652e-01	-1.195652e-01
223.730930	1.383462	dec_accept	1.383462	16.000000	n/a	4	-1.250000e-01	-1.250000e-01
223.730930	1.383462	dec_nonsocial_high	1.383462	16.000000	n/a	4	1.953125e-02	1.953125e-02
223.730930	1.383462	dec_nonsocial_accept_high	1.383462	16.000000	n/a	4	-1.250000e-01	-1.250000e-01
232.981310	1.250125	dec_nonsocial_choice	1.250125	32.000000	n/a	16	2.695312e-01	2.695312e-01
232.981310	1.250125	dec_choice	1.250125	32.000000	n/a	16	2.695312e-01	2.695312e-01
232.981310	1.250125	dec_nonsocial_accept	1.250125	32.000000	n/a	16	1.304348e-01	1.304348e-01
232.981310	1.250125	dec_accept	1.250125	32.000000	n/a	16	1.250000e-01	1.250000e-01
232.981310	1.250125	dec_nonsocial_accept_high	1.250125	32.000000	n/a	16	1.363636e-01	1.363636e-01
239.814800	1.232833	dec_nonsocial_choice	1.232833	32.000000	n/a	16	2.695312e-01	2.695312e-01
239.814800	1.232833	dec_choice	1.232833	32.000000	n/a	16	2.695312e-01	2.695312e-01
239.814800	1.232833	dec_nonsocial_accept	1.232833	32.000000	n/a	16	1.304348e-01	1.304348e-01
239.814800	1.232833	dec_accept	1.232833	32.000000	n/a	16	1.250000e-01	1.250000e-01
239.814800	1.232833	dec_nonsocial_accept_high	1.232833	32.000000	n/a	16	1.363636e-01	1.363636e-01
247.464310	1.383440	dec_nonsocial_choice	1.383440	32.000000	n/a	0	0	-2.304688e-01
247.464310	1.383440	dec_choice	1.383440	32.000000	n/a	0	0	-2.304688e-01
247.464310	1.383440	dec_nonsocial_reject	1.383440	32.000000	n/a	0	0	-8.750000e-03
247.464310	1.383440	dec_reject	1.383440	32.000000	n/a	0	0	7.812500e-03
247.464310	1.383440	dec_nonsocial_low	1.383440	32.000000	n/a	0	-2.304688e-01	-2.304688e-01
247.464310	1.383440	dec_nonsocial_reject_low	1.383440	32.000000	n/a	3	7.812500e-03	-8.593750e-02
256.730070	1.234610	dec_nonsocial_choice	1.234610	32.000000	n/a	0	0	-2.304688e-01
256.730070	1.234610	dec_choice	1.234610	32.000000	n/a	0	0	-2.304688e-01
256.730070	1.234610	dec_nonsocial_reject	1.234610	32.000000	n/a	0	0	-4.000000e-02
256.730070	1.234610	dec_reject	1.234610	32.000000	n/a	0	0	-2.343750e-02
256.730070	1.234610	dec_nonsocial_low	1.234610	32.000000	n/a	0	-2.304688e-01	-2.304688e-01
256.730070	1.234610	dec_nonsocial_reject_low	1.234610	32.000000	n/a	2	-2.343750e-02	-8.593750e-02
263.564100	1.416184	dec_nonsocial_choice	1.416184	32.000000	n/a	0	0	-2.304688e-01
263.564100	1.416184	dec_choice	1.416184	32.000000	n/a	0	0	-2.304688e-01
263.564100	1.416184	dec_nonsocial_reject	1.416184	32.000000	n/a	0	0	-4.000000e-02
263.564100	1.416184	dec_reject	1.416184	32.000000	n/a	0	0	-2.343750e-02
263.564100	1.416184	dec_nonsocial_reject_low	1.416184	32.000000	n/a	2	-5.528846e-02	-1.177885e-01
270.396480	1.418010	dec_social_choice	1.418010	16.000000	n/a	4	1.953125e-02	1.953125e-02
270.396480	1.418010	dec_choice	1.418010	16.000000	n/a	4	1.953125e-02	1.953125e-02
270.396480	1.418010	dec_social_accept	1.418010	16.000000	n/a	4	-1.195652e-01	-1.195652e-01
270.396480	1.418010	dec_accept	1.418010	16.000000	n/a	4	-1.136364e-01	-1.136364e-01
270.396480	1.418010	dec_social_high	1.418010	16.000000	n/a	4	1.953125e-02	1.953125e-02
270.396480	1.418010	dec_social_accept_high	1.418010	16.000000	n/a	4	1.953125e-02	1.953125e-02
277.230400	1.600667	dec_nonsocial_choice	1.600667	32.000000	n/a	0	0	-2.304688e-01
277.230400	1.600667	dec_choice	1.600667	32.000000	n/a	0	0	-2.304688e-01
277.230400	1.600667	dec_nonsocial_reject	1.600667	32.000000	n/a	0	0	-8.750000e-03
277.230400	1.600667	dec_reject	1.600667	32.000000	n/a	0	0	7.812500e-03
277.230400	1.600667	dec_nonsocial_low	1.600667	32.000000	n/a	0	-2.304688e-01	-2.304688e-01
277.230400	1.600667	dec_nonsocial_reject_low	1.600667	32.000000	n/a	3	7.812500e-03	-8.593750e-02
284.063350	1.400753	dec_social_choice	1.400753	16.000000	n/a	4	1.953125e-02	1.953125e-02
284.063350	1.400753	dec_choice	1.400753	16.000000	n/a	4	1.953125e-02	1.953125e-02
284.063350	1.400753	dec_social_accept	1.400753	16.000000	n/a	4	-1.195652e-01	-1.195652e-01
284.063350	1.400753	dec_accept	1.400753	16.000000	n/a	4	-1.136364e-01	-1.136364e-01
284.063350	1.400753	dec_social_high	1.400753	16.000000	n/a	4	1.953125e-02	1.953125e-02
284.063350	1.400753	dec_social_accept_high	1.400753	16.000000	n/a	4	1.953125e-02	1.953125e-02
293.330470	1.300672	dec_social_choice	1.300672	32.000000	n/a	8	1.953125e-02	1.953125e-02
293.330470	1.300672	dec_choice	1.300672	32.000000	n/a	8	1.953125e-02	1.953125e-02
293.330470	1.300672	dec_social_accept	1.300672	32.000000	n/a	8	-1.195652e-01	-1.195652e-01
293.330470	1.300672	dec_accept	1.300672	32.000000	n/a	8	-1.136364e-01	-1.136364e-01
293.330470	1.300672	dec_social_high	1.300672	32.000000	n/a	8	1.953125e-02	1.953125e-02
293.330470	1.300672	dec_social_accept_high	1.300672	32.000000	n/a	8	1.953125e-02	1.953125e-02
300.964320	1.282584	dec_social_choice	1.282584	32.000000	n/a	0	0	-2.304688e-01
300.964320	1.282584	dec_choice	1.282584	32.000000	n/a	0	0	-2.304688e-01
300.964320	1.282584	dec_social_reject	1.282584	32.000000	n/a	0	0	-8.750000e-03
300.964320	1.282584	dec_reject	1.282584	32.000000	n/a	0	0	-2.403846e-02
300.964320	1.282584	dec_social_low	1.282584	32.000000	n/a	0	-2.304688e-01	-2.304688e-01
300.964320	1.282584	dec_social_reject_low	1.282584	32.000000	n/a	3	-1.367188e-01	-2.304688e-01
307.797400	2.316556	dec_social_choice	2.316556	16.000000	n/a	0	0	-2.304688e-01
307.797400	2.316556	dec_choice	2.316556	16.000000	n/a	0	0	-2.304688e-01
307.797400	2.316556	dec_social_reject	2.316556	16.000000	n/a	0	0	2.250000e-02
307.797400	2.316556	dec_reject	2.316556	16.000000	n/a	0	0	7.211538e-03
307.797400	2.316556	dec_social_reject_low	2.316556	16.000000	n/a	2	-1.054688e-01	-2.304688e-01
314.631740	1.465282	dec_nonsocial_choice	1.465282	32.000000	n/a	8	1.953125e-02	1.953125e-02
314.631740	1.465282	dec_choice	1.465282	32.000000	n/a	8	1.953125e-02	1.953125e-02
314.631740	1.465282	dec_nonsocial_accept	1.465282	32.000000	n/a	8	-1.195652e-01	-1.195652e-01
314.631740	1.465282	dec_accept	1.465282	32.000000	n/a	8	-1.250000e-01	-1.250000e-01
314.631740	1.465282	dec_nonsocial_accept_high	1.465282	32.000000	n/a	8	-1.136364e-01	-1.136364e-01
327.114380	1.299675	dec_nonsocial_choice	1.299675	16.000000	n/a	4	1.953125e-02	1.953125e-02
327.114380	1.299675	dec_choice	1.299675	16.000000	n/a	4	1.953125e-02	1.953125e-02
327.114380	1.299675	dec_nonsocial_accept	1.299675	16.000000	n/a	4	-1.195652e-01	-1.195652e-01
327.114380	1.299675	dec_accept	1.299675	16.000000	n/a	4	-1.250000e-01	-1.250000e-01
327.114380	1.299675	dec_nonsocial_high	1.299675	16.000000	n/a	4	1.953125e-02	1.953125e-02
327.114380	1.299675	dec_nonsocial_accept_high	1.299675	16.000000	n/a	4	-1.250000e-01	-1.250000e-01
333.947000	1.267387	dec_social_choice	1.267387	16.000000	n/a	0	0	-2.304688e-01
333.947000	1.267387	dec_choice	1.267387	16.000000	n/a	0	0	-2.304688e-01
333.947000	1.267387	dec_social_reject	1.267387	16.000000	n/a	0	0	-4.000000e-02
333.947000	1.267387	dec_reject	1.267387	16.000000	n/a	0	0	-5.528846e-02
333.947000	1.267387	dec_social_low	1.267387	16.000000	n/a	0	-2.304688e-01	-2.304688e-01
333.947000	1.267387	dec_social_reject_low	1.267387	16.000000	n/a	1	-1.679688e-01	-2.304688e-01
341.580900	1.333448	dec_social_choice	1.333448	32.000000	n/a	16	2.695312e-01	2.695312e-01
341.580900	1.333448	dec_choice	1.333448	32.000000	n/a	16	2.695312e-01	2.695312e-01
341.580900	1.333448	dec_social_accept	1.333448	32.000000	n/a	16	1.304348e-01	1.304348e-01
341.580900	1.333448	dec_accept	1.333448	32.000000	n/a	16	1.363636e-01	1.363636e-01
341.580900	1.333448	dec_social_accept_high	1.333448	32.000000	n/a	16	2.695312e-01	2.695312e-01
348.414370	1.265895	dec_nonsocial_choice	1.265895	32.000000	n/a	16	2.695312e-01	2.695312e-01
348.414370	1.265895	dec_choice	1.265895	32.000000	n/a	16	2.695312e-01	2.695312e-01
348.414370	1.265895	dec_nonsocial_accept	1.265895	32.000000	n/a	16	1.304348e-01	1.304348e-01
348.414370	1.265895	dec_accept	1.265895	32.000000	n/a	16	1.250000e-01	1.250000e-01
348.414370	1.265895	dec_nonsocial_accept_high	1.265895	32.000000	n/a	16	1.363636e-01	1.363636e-01
356.064400	1.599836	dec_social_choice	1.599836	32.000000	n/a	0	0	-2.304688e-01
356.064400	1.599836	dec_choice	1.599836	32.000000	n/a	0	0	-2.304688e-01
356.064400	1.599836	dec_social_reject	1.599836	32.000000	n/a	0	0	-8.750000e-03
356.064400	1.599836	dec_reject	1.599836	32.000000	n/a	0	0	-2.403846e-02
356.064400	1.599836	dec_social_reject_low	1.599836	32.000000	n/a	3	-1.367188e-01	-2.304688e-01
362.898380	1.599247	dec_social_choice	1.599247	32.000000	n/a	0	0	-2.304688e-01
362.898380	1.599247	dec_choice	1.599247	32.000000	n/a	0	0	-2.304688e-01
362.898380	1.599247	dec_social_reject	1.599247	32.000000	n/a	0	0	-4.000000e-02
362.898380	1.599247	dec_reject	1.599247	32.000000	n/a	0	0	-5.528846e-02
362.898380	1.599247	dec_social_reject_low	1.599247	32.000000	n/a	2	-1.679688e-01	-2.304688e-01
370.547360	1.999943	dec_nonsocial_choice	1.999943	16.000000	n/a	0	0	-2.304688e-01
370.547360	1.999943	dec_choice	1.999943	16.000000	n/a	0	0	-2.304688e-01
370.547360	1.999943	dec_nonsocial_reject	1.999943	16.000000	n/a	0	0	2.250000e-02
370.547360	1.999943	dec_reject	1.999943	16.000000	n/a	0	0	3.906250e-02
370.547360	1.999943	dec_nonsocial_reject_low	1.999943	16.000000	n/a	2	7.211538e-03	-1.177885e-01
