onset	duration	trial_type	response_time	Endowment	Endowment_pmod	Decision	Decision_pmod	Offer_pmod
4.578720	2	cue_social	n/a	16	-8	n/a	n/a	n/a
4.578720	2	cue_social_low	n/a	16	-11	n/a	n/a	n/a
11.394138	2	cue_social	n/a	16	-8	n/a	n/a	n/a
11.394138	2	cue_social_low	n/a	16	-11	n/a	n/a	n/a
18.182425	2	cue_nonsocial	n/a	16	-11	n/a	n/a	n/a
18.182425	2	cue_nonsocial_low	n/a	16	-8	n/a	n/a	n/a
25.091225	2	cue_social	n/a	16	-8	n/a	n/a	n/a
25.091225	2	cue_social_low	n/a	16	-11	n/a	n/a	n/a
32.774560	2	cue_social	n/a	16	-8	n/a	n/a	n/a
32.774560	2	cue_social_low	n/a	16	-11	n/a	n/a	n/a
43.591293	2	cue_social	n/a	32	8	n/a	n/a	n/a
43.591293	2	cue_social_high	n/a	32	5	n/a	n/a	n/a
50.348820	2	cue_nonsocial	n/a	32	5	n/a	n/a	n/a
50.348820	2	cue_nonsocial_high	n/a	32	8	n/a	n/a	n/a
57.998800	2	cue_nonsocial	n/a	32	5	n/a	n/a	n/a
57.998800	2	cue_nonsocial_high	n/a	32	8	n/a	n/a	n/a
68.882300	2	cue_nonsocial	n/a	32	5	n/a	n/a	n/a
68.882300	2	cue_nonsocial_high	n/a	32	8	n/a	n/a	n/a
75.699190	2	cue_nonsocial	n/a	16	-11	n/a	n/a	n/a
75.699190	2	cue_nonsocial_low	n/a	16	-8	n/a	n/a	n/a
82.532260	2	cue_nonsocial	n/a	32	5	n/a	n/a	n/a
82.532260	2	cue_nonsocial_high	n/a	32	8	n/a	n/a	n/a
91.782240	2	cue_nonsocial	n/a	32	5	n/a	n/a	n/a
91.782240	2	cue_nonsocial_high	n/a	32	8	n/a	n/a	n/a
99.432410	2	cue_nonsocial	n/a	32	5	n/a	n/a	n/a
99.432410	2	cue_nonsocial_high	n/a	32	8	n/a	n/a	n/a
108.795296	2	cue_social	n/a	32	8	n/a	n/a	n/a
108.795296	2	cue_social_high	n/a	32	5	n/a	n/a	n/a
119.565660	2	cue_nonsocial	n/a	32	5	n/a	n/a	n/a
119.565660	2	cue_nonsocial_high	n/a	32	8	n/a	n/a	n/a
126.398900	2	cue_nonsocial	n/a	16	-11	n/a	n/a	n/a
126.398900	2	cue_nonsocial_low	n/a	16	-8	n/a	n/a	n/a
133.231690	2	cue_nonsocial	n/a	32	5	n/a	n/a	n/a
133.231690	2	cue_nonsocial_high	n/a	32	8	n/a	n/a	n/a
140.065400	2	cue_nonsocial	n/a	16	-11	n/a	n/a	n/a
140.065400	2	cue_nonsocial_low	n/a	16	-8	n/a	n/a	n/a
147.793270	2	cue_social	n/a	16	-8	n/a	n/a	n/a
147.793270	2	cue_social_low	n/a	16	-11	n/a	n/a	n/a
154.621060	2	cue_social	n/a	32	8	n/a	n/a	n/a
154.621060	2	cue_social_high	n/a	32	5	n/a	n/a	n/a
163.876360	2	cue_social	n/a	32	8	n/a	n/a	n/a
163.876360	2	cue_social_high	n/a	32	5	n/a	n/a	n/a
170.765950	2	cue_social	n/a	32	8	n/a	n/a	n/a
170.765950	2	cue_social_high	n/a	32	5	n/a	n/a	n/a
183.131960	2	cue_nonsocial	n/a	32	5	n/a	n/a	n/a
183.131960	2	cue_nonsocial_high	n/a	32	8	n/a	n/a	n/a
190.032000	2	cue_social	n/a	16	-8	n/a	n/a	n/a
190.032000	2	cue_social_low	n/a	16	-11	n/a	n/a	n/a
196.864900	2	cue_social	n/a	32	8	n/a	n/a	n/a
196.864900	2	cue_social_high	n/a	32	5	n/a	n/a	n/a
203.632160	2	cue_nonsocial	n/a	32	5	n/a	n/a	n/a
203.632160	2	cue_nonsocial_high	n/a	32	8	n/a	n/a	n/a
210.465410	2	cue_nonsocial	n/a	32	5	n/a	n/a	n/a
210.465410	2	cue_nonsocial_high	n/a	32	8	n/a	n/a	n/a
218.158940	2	cue_social	n/a	32	8	n/a	n/a	n/a
218.158940	2	cue_social_high	n/a	32	5	n/a	n/a	n/a
225.014070	2	cue_social	n/a	16	-8	n/a	n/a	n/a
225.014070	2	cue_social_low	n/a	16	-11	n/a	n/a	n/a
231.857510	2	cue_social	n/a	32	8	n/a	n/a	n/a
231.857510	2	cue_social_high	n/a	32	5	n/a	n/a	n/a
239.489360	2	cue_social	n/a	32	8	n/a	n/a	n/a
239.489360	2	cue_social_high	n/a	32	5	n/a	n/a	n/a
247.149000	2	cue_social	n/a	32	8	n/a	n/a	n/a
247.149000	2	cue_social_high	n/a	32	5	n/a	n/a	n/a
254.749760	2	cue_social	n/a	16	-8	n/a	n/a	n/a
254.749760	2	cue_social_low	n/a	16	-11	n/a	n/a	n/a
262.443570	2	cue_social	n/a	16	-8	n/a	n/a	n/a
262.443570	2	cue_social_low	n/a	16	-11	n/a	n/a	n/a
270.031830	2	cue_nonsocial	n/a	16	-11	n/a	n/a	n/a
270.031830	2	cue_nonsocial_low	n/a	16	-8	n/a	n/a	n/a
276.926330	2	cue_social	n/a	16	-8	n/a	n/a	n/a
276.926330	2	cue_social_low	n/a	16	-11	n/a	n/a	n/a
283.698460	2	cue_nonsocial	n/a	32	5	n/a	n/a	n/a
283.698460	2	cue_nonsocial_high	n/a	32	8	n/a	n/a	n/a
290.531650	2	cue_nonsocial	n/a	32	5	n/a	n/a	n/a
290.531650	2	cue_nonsocial_high	n/a	32	8	n/a	n/a	n/a
297.425900	2	cue_social	n/a	16	-8	n/a	n/a	n/a
297.425900	2	cue_social_low	n/a	16	-11	n/a	n/a	n/a
306.615500	2	cue_nonsocial	n/a	32	5	n/a	n/a	n/a
306.615500	2	cue_nonsocial_high	n/a	32	8	n/a	n/a	n/a
314.359100	2	cue_social	n/a	32	8	n/a	n/a	n/a
314.359100	2	cue_social_high	n/a	32	5	n/a	n/a	n/a
321.931700	2	cue_nonsocial	n/a	16	-11	n/a	n/a	n/a
321.931700	2	cue_nonsocial_low	n/a	16	-8	n/a	n/a	n/a
328.765200	2	cue_nonsocial	n/a	32	5	n/a	n/a	n/a
328.765200	2	cue_nonsocial_high	n/a	32	8	n/a	n/a	n/a
335.598540	2	cue_nonsocial	n/a	16	-11	n/a	n/a	n/a
335.598540	2	cue_nonsocial_low	n/a	16	-8	n/a	n/a	n/a
344.893070	2	cue_social	n/a	16	-8	n/a	n/a	n/a
344.893070	2	cue_social_low	n/a	16	-11	n/a	n/a	n/a
354.131770	2	cue_nonsocial	n/a	16	-11	n/a	n/a	n/a
354.131770	2	cue_nonsocial_low	n/a	16	-8	n/a	n/a	n/a
361.020870	2	cue_social	n/a	32	8	n/a	n/a	n/a
361.020870	2	cue_social_high	n/a	32	5	n/a	n/a	n/a
370.231480	2	cue_nonsocial	n/a	32	5	n/a	n/a	n/a
370.231480	2	cue_nonsocial_high	n/a	32	8	n/a	n/a	n/a
6.522066	1.050099	dec_social_choice	1.050099	16.000000	n/a	4	2.018229e-02	2.018229e-02
6.522066	1.050099	dec_choice	1.050099	16.000000	n/a	4	2.083333e-02	2.083333e-02
6.522066	1.050099	dec_social_accept	1.050099	16.000000	n/a	4	-1.250000e-01	-1.250000e-01
6.522066	1.050099	dec_accept	1.050099	16.000000	n/a	4	-1.250000e-01	-1.250000e-01
6.522066	1.050099	dec_social_high	1.050099	16.000000	n/a	4	2.083333e-02	2.083333e-02
6.522066	1.050099	dec_social_accept_high	1.050099	16.000000	n/a	4	2.083333e-02	2.083333e-02
13.356022	0.949578	dec_social_choice	0.949578	16.000000	n/a	0	0	-2.298177e-01
13.356022	0.949578	dec_choice	0.949578	16.000000	n/a	0	0	-2.291667e-01
13.356022	0.949578	dec_social_reject	0.949578	16.000000	n/a	0	0	-2.213542e-02
13.356022	0.949578	dec_reject	0.949578	16.000000	n/a	0	0	-2.083333e-02
13.356022	0.949578	dec_social_reject_low	0.949578	16.000000	n/a	1	-1.666667e-01	-2.291667e-01
20.188469	1.117057	dec_nonsocial_choice	1.117057	16.000000	n/a	0	0	-2.298177e-01
20.188469	1.117057	dec_choice	1.117057	16.000000	n/a	0	0	-2.304688e-01
20.188469	1.117057	dec_nonsocial_reject	1.117057	16.000000	n/a	0	0	4.036458e-02
20.188469	1.117057	dec_reject	1.117057	16.000000	n/a	0	0	3.906250e-02
20.188469	1.117057	dec_nonsocial_reject_low	1.117057	16.000000	n/a	2	4.166667e-02	-8.333333e-02
27.020960	0.934044	dec_social_choice	0.934044	16.000000	n/a	0	0	-2.298177e-01
27.020960	0.934044	dec_choice	0.934044	16.000000	n/a	0	0	-2.291667e-01
27.020960	0.934044	dec_social_reject	0.934044	16.000000	n/a	0	0	-2.213542e-02
27.020960	0.934044	dec_reject	0.934044	16.000000	n/a	0	0	-2.083333e-02
27.020960	0.934044	dec_social_reject_low	0.934044	16.000000	n/a	1	-1.666667e-01	-2.291667e-01
34.656050	1.266222	dec_social_choice	1.266222	16.000000	n/a	8	2.701823e-01	2.701823e-01
34.656050	1.266222	dec_choice	1.266222	16.000000	n/a	8	2.708333e-01	2.708333e-01
34.656050	1.266222	dec_social_accept	1.266222	16.000000	n/a	8	1.250000e-01	1.250000e-01
34.656050	1.266222	dec_accept	1.266222	16.000000	n/a	8	1.250000e-01	1.250000e-01
34.656050	1.266222	dec_social_high	1.266222	16.000000	n/a	8	2.708333e-01	2.708333e-01
34.656050	1.266222	dec_social_accept_high	1.266222	16.000000	n/a	8	2.708333e-01	2.708333e-01
45.521130	1.083656	dec_social_choice	1.083656	32.000000	n/a	0	0	-2.298177e-01
45.521130	1.083656	dec_choice	1.083656	32.000000	n/a	0	0	-2.291667e-01
45.521130	1.083656	dec_social_reject	1.083656	32.000000	n/a	0	0	9.114583e-03
45.521130	1.083656	dec_reject	1.083656	32.000000	n/a	0	0	1.041667e-02
45.521130	1.083656	dec_social_reject_low	1.083656	32.000000	n/a	3	-1.354167e-01	-2.291667e-01
52.356064	0.949594	dec_nonsocial_choice	0.949594	32.000000	n/a	16	2.701823e-01	2.701823e-01
52.356064	0.949594	dec_choice	0.949594	32.000000	n/a	16	2.695312e-01	2.695312e-01
52.356064	0.949594	dec_nonsocial_accept	0.949594	32.000000	n/a	16	1.250000e-01	1.250000e-01
52.356064	0.949594	dec_accept	0.949594	32.000000	n/a	16	1.250000e-01	1.250000e-01
52.356064	0.949594	dec_nonsocial_high	0.949594	32.000000	n/a	16	2.695312e-01	2.695312e-01
52.356064	0.949594	dec_nonsocial_accept_high	0.949594	32.000000	n/a	16	1.250000e-01	1.250000e-01
60.005340	1.415803	dec_nonsocial_choice	1.415803	32.000000	n/a	8	2.018229e-02	2.018229e-02
60.005340	1.415803	dec_choice	1.415803	32.000000	n/a	8	1.953125e-02	1.953125e-02
60.005340	1.415803	dec_nonsocial_accept	1.415803	32.000000	n/a	8	-1.250000e-01	-1.250000e-01
60.005340	1.415803	dec_accept	1.415803	32.000000	n/a	8	-1.250000e-01	-1.250000e-01
60.005340	1.415803	dec_nonsocial_accept_high	1.415803	32.000000	n/a	8	-1.250000e-01	-1.250000e-01
70.872090	0.982785	dec_nonsocial_choice	0.982785	32.000000	n/a	16	2.701823e-01	2.701823e-01
70.872090	0.982785	dec_choice	0.982785	32.000000	n/a	16	2.695312e-01	2.695312e-01
70.872090	0.982785	dec_nonsocial_accept	0.982785	32.000000	n/a	16	1.250000e-01	1.250000e-01
70.872090	0.982785	dec_accept	0.982785	32.000000	n/a	16	1.250000e-01	1.250000e-01
70.872090	0.982785	dec_nonsocial_high	0.982785	32.000000	n/a	16	2.695312e-01	2.695312e-01
70.872090	0.982785	dec_nonsocial_accept_high	0.982785	32.000000	n/a	16	1.250000e-01	1.250000e-01
77.705060	1.084065	dec_nonsocial_choice	1.084065	16.000000	n/a	4	2.018229e-02	2.018229e-02
77.705060	1.084065	dec_choice	1.084065	16.000000	n/a	4	1.953125e-02	1.953125e-02
77.705060	1.084065	dec_nonsocial_accept	1.084065	16.000000	n/a	4	-1.250000e-01	-1.250000e-01
77.705060	1.084065	dec_accept	1.084065	16.000000	n/a	4	-1.250000e-01	-1.250000e-01
77.705060	1.084065	dec_nonsocial_high	1.084065	16.000000	n/a	4	1.953125e-02	1.953125e-02
77.705060	1.084065	dec_nonsocial_accept_high	1.084065	16.000000	n/a	4	-1.250000e-01	-1.250000e-01
84.538950	1.083233	dec_nonsocial_choice	1.083233	32.000000	n/a	0	0	-2.298177e-01
84.538950	1.083233	dec_choice	1.083233	32.000000	n/a	0	0	-2.304688e-01
84.538950	1.083233	dec_nonsocial_reject	1.083233	32.000000	n/a	0	0	-2.213542e-02
84.538950	1.083233	dec_reject	1.083233	32.000000	n/a	0	0	-2.343750e-02
84.538950	1.083233	dec_nonsocial_reject_low	1.083233	32.000000	n/a	2	-2.083333e-02	-8.333333e-02
93.788970	0.932767	dec_nonsocial_choice	0.932767	32.000000	n/a	8	2.018229e-02	2.018229e-02
93.788970	0.932767	dec_choice	0.932767	32.000000	n/a	8	1.953125e-02	1.953125e-02
93.788970	0.932767	dec_nonsocial_accept	0.932767	32.000000	n/a	8	-1.250000e-01	-1.250000e-01
93.788970	0.932767	dec_accept	0.932767	32.000000	n/a	8	-1.250000e-01	-1.250000e-01
93.788970	0.932767	dec_nonsocial_high	0.932767	32.000000	n/a	8	1.953125e-02	1.953125e-02
93.788970	0.932767	dec_nonsocial_accept_high	0.932767	32.000000	n/a	8	-1.250000e-01	-1.250000e-01
101.439130	0.982990	dec_nonsocial_choice	0.982990	32.000000	n/a	8	2.018229e-02	2.018229e-02
101.439130	0.982990	dec_choice	0.982990	32.000000	n/a	8	1.953125e-02	1.953125e-02
101.439130	0.982990	dec_nonsocial_accept	0.982990	32.000000	n/a	8	-1.250000e-01	-1.250000e-01
101.439130	0.982990	dec_accept	0.982990	32.000000	n/a	8	-1.250000e-01	-1.250000e-01
101.439130	0.982990	dec_nonsocial_high	0.982990	32.000000	n/a	8	1.953125e-02	1.953125e-02
101.439130	0.982990	dec_nonsocial_accept_high	0.982990	32.000000	n/a	8	-1.250000e-01	-1.250000e-01
110.705120	1.216372	dec_social_choice	1.216372	32.000000	n/a	0	0	-2.298177e-01
110.705120	1.216372	dec_choice	1.216372	32.000000	n/a	0	0	-2.291667e-01
110.705120	1.216372	dec_social_reject	1.216372	32.000000	n/a	0	0	-2.213542e-02
110.705120	1.216372	dec_reject	1.216372	32.000000	n/a	0	0	-2.083333e-02
110.705120	1.216372	dec_social_reject_low	1.216372	32.000000	n/a	2	-1.666667e-01	-2.291667e-01
121.572150	1.066215	dec_nonsocial_choice	1.066215	32.000000	n/a	0	0	-2.298177e-01
121.572150	1.066215	dec_choice	1.066215	32.000000	n/a	0	0	-2.304688e-01
121.572150	1.066215	dec_nonsocial_reject	1.066215	32.000000	n/a	0	0	-2.213542e-02
121.572150	1.066215	dec_reject	1.066215	32.000000	n/a	0	0	-2.343750e-02
121.572150	1.066215	dec_nonsocial_low	1.066215	32.000000	n/a	0	-2.304688e-01	-2.304688e-01
121.572150	1.066215	dec_nonsocial_reject_low	1.066215	32.000000	n/a	2	-2.343750e-02	-8.593750e-02
128.406140	1.048890	dec_nonsocial_choice	1.048890	16.000000	n/a	0	0	-2.298177e-01
128.406140	1.048890	dec_choice	1.048890	16.000000	n/a	0	0	-2.304688e-01
128.406140	1.048890	dec_nonsocial_reject	1.048890	16.000000	n/a	0	0	-2.213542e-02
128.406140	1.048890	dec_reject	1.048890	16.000000	n/a	0	0	-2.343750e-02
128.406140	1.048890	dec_nonsocial_low	1.048890	16.000000	n/a	0	-2.304688e-01	-2.304688e-01
128.406140	1.048890	dec_nonsocial_reject_low	1.048890	16.000000	n/a	1	-2.343750e-02	-8.593750e-02
135.238460	0.816148	dec_nonsocial_choice	0.816148	32.000000	n/a	16	2.701823e-01	2.701823e-01
135.238460	0.816148	dec_choice	0.816148	32.000000	n/a	16	2.695312e-01	2.695312e-01
135.238460	0.816148	dec_nonsocial_accept	0.816148	32.000000	n/a	16	1.250000e-01	1.250000e-01
135.238460	0.816148	dec_accept	0.816148	32.000000	n/a	16	1.250000e-01	1.250000e-01
135.238460	0.816148	dec_nonsocial_accept_high	0.816148	32.000000	n/a	16	1.250000e-01	1.250000e-01
142.071230	1.000672	dec_nonsocial_choice	1.000672	16.000000	n/a	8	2.701823e-01	2.701823e-01
142.071230	1.000672	dec_choice	1.000672	16.000000	n/a	8	2.695312e-01	2.695312e-01
142.071230	1.000672	dec_nonsocial_accept	1.000672	16.000000	n/a	8	1.250000e-01	1.250000e-01
142.071230	1.000672	dec_accept	1.000672	16.000000	n/a	8	1.250000e-01	1.250000e-01
142.071230	1.000672	dec_nonsocial_high	1.000672	16.000000	n/a	8	2.695312e-01	2.695312e-01
142.071230	1.000672	dec_nonsocial_accept_high	1.000672	16.000000	n/a	8	1.250000e-01	1.250000e-01
149.721540	1.083068	dec_social_choice	1.083068	16.000000	n/a	8	2.701823e-01	2.701823e-01
149.721540	1.083068	dec_choice	1.083068	16.000000	n/a	8	2.708333e-01	2.708333e-01
149.721540	1.083068	dec_social_accept	1.083068	16.000000	n/a	8	1.250000e-01	1.250000e-01
149.721540	1.083068	dec_accept	1.083068	16.000000	n/a	8	1.250000e-01	1.250000e-01
149.721540	1.083068	dec_social_accept_high	1.083068	16.000000	n/a	8	2.708333e-01	2.708333e-01
156.554340	1.533855	dec_social_choice	1.533855	32.000000	n/a	8	2.018229e-02	2.018229e-02
156.554340	1.533855	dec_choice	1.533855	32.000000	n/a	8	2.083333e-02	2.083333e-02
156.554340	1.533855	dec_social_accept	1.533855	32.000000	n/a	8	-1.250000e-01	-1.250000e-01
156.554340	1.533855	dec_accept	1.533855	32.000000	n/a	8	-1.250000e-01	-1.250000e-01
156.554340	1.533855	dec_social_high	1.533855	32.000000	n/a	8	2.083333e-02	2.083333e-02
156.554340	1.533855	dec_social_accept_high	1.533855	32.000000	n/a	8	2.083333e-02	2.083333e-02
165.822170	1.016149	dec_social_choice	1.016149	32.000000	n/a	8	2.018229e-02	2.018229e-02
165.822170	1.016149	dec_choice	1.016149	32.000000	n/a	8	2.083333e-02	2.083333e-02
165.822170	1.016149	dec_social_accept	1.016149	32.000000	n/a	8	-1.250000e-01	-1.250000e-01
165.822170	1.016149	dec_accept	1.016149	32.000000	n/a	8	-1.250000e-01	-1.250000e-01
165.822170	1.016149	dec_social_high	1.016149	32.000000	n/a	8	2.083333e-02	2.083333e-02
165.822170	1.016149	dec_social_accept_high	1.016149	32.000000	n/a	8	2.083333e-02	2.083333e-02
172.656170	1.315842	dec_social_choice	1.315842	32.000000	n/a	0	0	-2.298177e-01
172.656170	1.315842	dec_choice	1.315842	32.000000	n/a	0	0	-2.291667e-01
172.656170	1.315842	dec_social_reject	1.315842	32.000000	n/a	0	0	-2.213542e-02
172.656170	1.315842	dec_reject	1.315842	32.000000	n/a	0	0	-2.083333e-02
172.656170	1.315842	dec_social_low	1.315842	32.000000	n/a	0	-2.291667e-01	-2.291667e-01
172.656170	1.315842	dec_social_reject_low	1.315842	32.000000	n/a	2	-1.666667e-01	-2.291667e-01
185.138340	1.549789	dec_nonsocial_choice	1.549789	32.000000	n/a	0	0	-2.298177e-01
185.138340	1.549789	dec_choice	1.549789	32.000000	n/a	0	0	-2.304688e-01
185.138340	1.549789	dec_nonsocial_reject	1.549789	32.000000	n/a	0	0	9.114583e-03
185.138340	1.549789	dec_reject	1.549789	32.000000	n/a	0	0	7.812500e-03
185.138340	1.549789	dec_nonsocial_reject_low	1.549789	32.000000	n/a	3	1.041667e-02	-8.333333e-02
191.972200	1.049909	dec_social_choice	1.049909	16.000000	n/a	8	2.701823e-01	2.701823e-01
191.972200	1.049909	dec_choice	1.049909	16.000000	n/a	8	2.708333e-01	2.708333e-01
191.972200	1.049909	dec_social_accept	1.049909	16.000000	n/a	8	1.250000e-01	1.250000e-01
191.972200	1.049909	dec_accept	1.049909	16.000000	n/a	8	1.250000e-01	1.250000e-01
191.972200	1.049909	dec_social_accept_high	1.049909	16.000000	n/a	8	2.708333e-01	2.708333e-01
198.805200	1.133233	dec_social_choice	1.133233	32.000000	n/a	0	0	-2.298177e-01
198.805200	1.133233	dec_choice	1.133233	32.000000	n/a	0	0	-2.291667e-01
198.805200	1.133233	dec_social_reject	1.133233	32.000000	n/a	0	0	9.114583e-03
198.805200	1.133233	dec_reject	1.133233	32.000000	n/a	0	0	1.041667e-02
198.805200	1.133233	dec_social_reject_low	1.133233	32.000000	n/a	3	-1.354167e-01	-2.291667e-01
205.638700	1.149697	dec_nonsocial_choice	1.149697	32.000000	n/a	0	0	-2.298177e-01
205.638700	1.149697	dec_choice	1.149697	32.000000	n/a	0	0	-2.304688e-01
205.638700	1.149697	dec_nonsocial_reject	1.149697	32.000000	n/a	0	0	-2.213542e-02
205.638700	1.149697	dec_reject	1.149697	32.000000	n/a	0	0	-2.343750e-02
205.638700	1.149697	dec_nonsocial_reject_low	1.149697	32.000000	n/a	2	-2.083333e-02	-8.333333e-02
212.472090	1.049864	dec_nonsocial_choice	1.049864	32.000000	n/a	16	2.701823e-01	2.701823e-01
212.472090	1.049864	dec_choice	1.049864	32.000000	n/a	16	2.695312e-01	2.695312e-01
212.472090	1.049864	dec_nonsocial_accept	1.049864	32.000000	n/a	16	1.250000e-01	1.250000e-01
212.472090	1.049864	dec_accept	1.049864	32.000000	n/a	16	1.250000e-01	1.250000e-01
212.472090	1.049864	dec_nonsocial_high	1.049864	32.000000	n/a	16	2.695312e-01	2.695312e-01
212.472090	1.049864	dec_nonsocial_accept_high	1.049864	32.000000	n/a	16	1.250000e-01	1.250000e-01
220.121230	1.950749	dec_social_choice	1.950749	32.000000	n/a	0	0	-2.298177e-01
220.121230	1.950749	dec_choice	1.950749	32.000000	n/a	0	0	-2.291667e-01
220.121230	1.950749	dec_social_reject	1.950749	32.000000	n/a	0	0	9.114583e-03
220.121230	1.950749	dec_reject	1.950749	32.000000	n/a	0	0	1.041667e-02
220.121230	1.950749	dec_social_low	1.950749	32.000000	n/a	0	-2.291667e-01	-2.291667e-01
220.121230	1.950749	dec_social_reject_low	1.950749	32.000000	n/a	3	-1.354167e-01	-2.291667e-01
226.955980	0.915509	dec_social_choice	0.915509	16.000000	n/a	8	2.701823e-01	2.701823e-01
226.955980	0.915509	dec_choice	0.915509	16.000000	n/a	8	2.708333e-01	2.708333e-01
226.955980	0.915509	dec_social_accept	0.915509	16.000000	n/a	8	1.250000e-01	1.250000e-01
226.955980	0.915509	dec_accept	0.915509	16.000000	n/a	8	1.250000e-01	1.250000e-01
226.955980	0.915509	dec_social_accept_high	0.915509	16.000000	n/a	8	2.708333e-01	2.708333e-01
233.788270	1.016578	dec_social_choice	1.016578	32.000000	n/a	8	2.018229e-02	2.018229e-02
233.788270	1.016578	dec_choice	1.016578	32.000000	n/a	8	2.083333e-02	2.083333e-02
233.788270	1.016578	dec_social_accept	1.016578	32.000000	n/a	8	-1.250000e-01	-1.250000e-01
233.788270	1.016578	dec_accept	1.016578	32.000000	n/a	8	-1.250000e-01	-1.250000e-01
233.788270	1.016578	dec_social_high	1.016578	32.000000	n/a	8	2.083333e-02	2.083333e-02
233.788270	1.016578	dec_social_accept_high	1.016578	32.000000	n/a	8	2.083333e-02	2.083333e-02
241.438520	0.983063	dec_social_choice	0.983063	32.000000	n/a	8	2.018229e-02	2.018229e-02
241.438520	0.983063	dec_choice	0.983063	32.000000	n/a	8	2.083333e-02	2.083333e-02
241.438520	0.983063	dec_social_accept	0.983063	32.000000	n/a	8	-1.250000e-01	-1.250000e-01
241.438520	0.983063	dec_accept	0.983063	32.000000	n/a	8	-1.250000e-01	-1.250000e-01
241.438520	0.983063	dec_social_high	0.983063	32.000000	n/a	8	2.083333e-02	2.083333e-02
241.438520	0.983063	dec_social_accept_high	0.983063	32.000000	n/a	8	2.083333e-02	2.083333e-02
249.088290	1.000101	dec_social_choice	1.000101	32.000000	n/a	0	0	-2.298177e-01
249.088290	1.000101	dec_choice	1.000101	32.000000	n/a	0	0	-2.291667e-01
249.088290	1.000101	dec_social_reject	1.000101	32.000000	n/a	0	0	9.114583e-03
249.088290	1.000101	dec_reject	1.000101	32.000000	n/a	0	0	1.041667e-02
249.088290	1.000101	dec_social_reject_low	1.000101	32.000000	n/a	3	-1.354167e-01	-2.291667e-01
256.738280	0.966431	dec_social_choice	0.966431	16.000000	n/a	0	0	-2.298177e-01
256.738280	0.966431	dec_choice	0.966431	16.000000	n/a	0	0	-2.291667e-01
256.738280	0.966431	dec_social_reject	0.966431	16.000000	n/a	0	0	4.036458e-02
256.738280	0.966431	dec_reject	0.966431	16.000000	n/a	0	0	4.166667e-02
256.738280	0.966431	dec_social_reject_low	0.966431	16.000000	n/a	2	-1.041667e-01	-2.291667e-01
264.388300	1.399797	dec_social_choice	1.399797	16.000000	n/a	0	0	-2.298177e-01
264.388300	1.399797	dec_choice	1.399797	16.000000	n/a	0	0	-2.291667e-01
264.388300	1.399797	dec_social_reject	1.399797	16.000000	n/a	0	0	4.036458e-02
264.388300	1.399797	dec_reject	1.399797	16.000000	n/a	0	0	4.166667e-02
264.388300	1.399797	dec_social_reject_low	1.399797	16.000000	n/a	2	-1.041667e-01	-2.291667e-01
272.038360	1.416170	dec_nonsocial_choice	1.416170	16.000000	n/a	0	0	-2.298177e-01
272.038360	1.416170	dec_choice	1.416170	16.000000	n/a	0	0	-2.304688e-01
272.038360	1.416170	dec_nonsocial_reject	1.416170	16.000000	n/a	0	0	4.036458e-02
272.038360	1.416170	dec_reject	1.416170	16.000000	n/a	0	0	3.906250e-02
272.038360	1.416170	dec_nonsocial_low	1.416170	16.000000	n/a	0	-2.304688e-01	-2.304688e-01
272.038360	1.416170	dec_nonsocial_reject_low	1.416170	16.000000	n/a	2	3.906250e-02	-8.593750e-02
278.871280	1.483631	dec_social_choice	1.483631	16.000000	n/a	8	2.701823e-01	2.701823e-01
278.871280	1.483631	dec_choice	1.483631	16.000000	n/a	8	2.708333e-01	2.708333e-01
278.871280	1.483631	dec_social_accept	1.483631	16.000000	n/a	8	1.250000e-01	1.250000e-01
278.871280	1.483631	dec_accept	1.483631	16.000000	n/a	8	1.250000e-01	1.250000e-01
278.871280	1.483631	dec_social_high	1.483631	16.000000	n/a	8	2.708333e-01	2.708333e-01
278.871280	1.483631	dec_social_accept_high	1.483631	16.000000	n/a	8	2.708333e-01	2.708333e-01
285.705100	1.566358	dec_nonsocial_choice	1.566358	32.000000	n/a	0	0	-2.298177e-01
285.705100	1.566358	dec_choice	1.566358	32.000000	n/a	0	0	-2.304688e-01
285.705100	1.566358	dec_nonsocial_reject	1.566358	32.000000	n/a	0	0	-2.213542e-02
285.705100	1.566358	dec_reject	1.566358	32.000000	n/a	0	0	-2.343750e-02
285.705100	1.566358	dec_nonsocial_low	1.566358	32.000000	n/a	0	-2.304688e-01	-2.304688e-01
285.705100	1.566358	dec_nonsocial_reject_low	1.566358	32.000000	n/a	2	-2.343750e-02	-8.593750e-02
292.538270	1.333633	dec_nonsocial_choice	1.333633	32.000000	n/a	8	2.018229e-02	2.018229e-02
292.538270	1.333633	dec_choice	1.333633	32.000000	n/a	8	1.953125e-02	1.953125e-02
292.538270	1.333633	dec_nonsocial_accept	1.333633	32.000000	n/a	8	-1.250000e-01	-1.250000e-01
292.538270	1.333633	dec_accept	1.333633	32.000000	n/a	8	-1.250000e-01	-1.250000e-01
292.538270	1.333633	dec_nonsocial_high	1.333633	32.000000	n/a	8	1.953125e-02	1.953125e-02
292.538270	1.333633	dec_nonsocial_accept_high	1.333633	32.000000	n/a	8	-1.250000e-01	-1.250000e-01
299.372200	0.999509	dec_social_choice	0.999509	16.000000	n/a	8	2.701823e-01	2.701823e-01
299.372200	0.999509	dec_choice	0.999509	16.000000	n/a	8	2.708333e-01	2.708333e-01
299.372200	0.999509	dec_social_accept	0.999509	16.000000	n/a	8	1.250000e-01	1.250000e-01
299.372200	0.999509	dec_accept	0.999509	16.000000	n/a	8	1.250000e-01	1.250000e-01
299.372200	0.999509	dec_social_high	0.999509	16.000000	n/a	8	2.708333e-01	2.708333e-01
299.372200	0.999509	dec_social_accept_high	0.999509	16.000000	n/a	8	2.708333e-01	2.708333e-01
308.638300	1.016239	dec_nonsocial_choice	1.016239	32.000000	n/a	0	0	-2.298177e-01
308.638300	1.016239	dec_choice	1.016239	32.000000	n/a	0	0	-2.304688e-01
308.638300	1.016239	dec_nonsocial_reject	1.016239	32.000000	n/a	0	0	9.114583e-03
308.638300	1.016239	dec_reject	1.016239	32.000000	n/a	0	0	7.812500e-03
308.638300	1.016239	dec_nonsocial_reject_low	1.016239	32.000000	n/a	3	1.041667e-02	-8.333333e-02
316.287320	0.984029	dec_social_choice	0.984029	32.000000	n/a	0	0	-2.298177e-01
316.287320	0.984029	dec_choice	0.984029	32.000000	n/a	0	0	-2.291667e-01
316.287320	0.984029	dec_social_reject	0.984029	32.000000	n/a	0	0	-2.213542e-02
316.287320	0.984029	dec_reject	0.984029	32.000000	n/a	0	0	-2.083333e-02
316.287320	0.984029	dec_social_reject_low	0.984029	32.000000	n/a	2	-1.666667e-01	-2.291667e-01
323.938570	1.633266	dec_nonsocial_choice	1.633266	16.000000	n/a	0	0	-2.298177e-01
323.938570	1.633266	dec_choice	1.633266	16.000000	n/a	0	0	-2.304688e-01
323.938570	1.633266	dec_nonsocial_reject	1.633266	16.000000	n/a	0	0	4.036458e-02
323.938570	1.633266	dec_reject	1.633266	16.000000	n/a	0	0	3.906250e-02
323.938570	1.633266	dec_nonsocial_reject_low	1.633266	16.000000	n/a	2	4.166667e-02	-8.333333e-02
330.772300	2.065731	dec_nonsocial_choice	2.065731	32.000000	n/a	0	0	-2.298177e-01
330.772300	2.065731	dec_choice	2.065731	32.000000	n/a	0	0	-2.304688e-01
330.772300	2.065731	dec_nonsocial_reject	2.065731	32.000000	n/a	0	0	-2.213542e-02
330.772300	2.065731	dec_reject	2.065731	32.000000	n/a	0	0	-2.343750e-02
330.772300	2.065731	dec_nonsocial_low	2.065731	32.000000	n/a	0	-2.304688e-01	-2.304688e-01
330.772300	2.065731	dec_nonsocial_reject_low	2.065731	32.000000	n/a	2	-2.343750e-02	-8.593750e-02
337.605350	1.165873	dec_nonsocial_choice	1.165873	16.000000	n/a	4	2.018229e-02	2.018229e-02
337.605350	1.165873	dec_choice	1.165873	16.000000	n/a	4	1.953125e-02	1.953125e-02
337.605350	1.165873	dec_nonsocial_accept	1.165873	16.000000	n/a	4	-1.250000e-01	-1.250000e-01
337.605350	1.165873	dec_accept	1.165873	16.000000	n/a	4	-1.250000e-01	-1.250000e-01
337.605350	1.165873	dec_nonsocial_accept_high	1.165873	16.000000	n/a	4	-1.250000e-01	-1.250000e-01
346.871370	1.583296	dec_social_choice	1.583296	16.000000	n/a	0	0	-2.298177e-01
346.871370	1.583296	dec_choice	1.583296	16.000000	n/a	0	0	-2.291667e-01
346.871370	1.583296	dec_social_reject	1.583296	16.000000	n/a	0	0	-2.213542e-02
346.871370	1.583296	dec_reject	1.583296	16.000000	n/a	0	0	-2.083333e-02
346.871370	1.583296	dec_social_reject_low	1.583296	16.000000	n/a	1	-1.666667e-01	-2.291667e-01
356.138370	2.583180	dec_nonsocial_choice	2.583180	16.000000	n/a	8	2.701823e-01	2.701823e-01
356.138370	2.583180	dec_choice	2.583180	16.000000	n/a	8	2.695312e-01	2.695312e-01
356.138370	2.583180	dec_nonsocial_accept	2.583180	16.000000	n/a	8	1.250000e-01	1.250000e-01
356.138370	2.583180	dec_accept	2.583180	16.000000	n/a	8	1.250000e-01	1.250000e-01
356.138370	2.583180	dec_nonsocial_high	2.583180	16.000000	n/a	8	2.695312e-01	2.695312e-01
356.138370	2.583180	dec_nonsocial_accept_high	2.583180	16.000000	n/a	8	1.250000e-01	1.250000e-01
362.971340	1.366674	dec_social_choice	1.366674	32.000000	n/a	8	2.018229e-02	2.018229e-02
362.971340	1.366674	dec_choice	1.366674	32.000000	n/a	8	2.083333e-02	2.083333e-02
362.971340	1.366674	dec_social_accept	1.366674	32.000000	n/a	8	-1.250000e-01	-1.250000e-01
362.971340	1.366674	dec_accept	1.366674	32.000000	n/a	8	-1.250000e-01	-1.250000e-01
362.971340	1.366674	dec_social_accept_high	1.366674	32.000000	n/a	8	2.083333e-02	2.083333e-02
372.238860	1.232456	dec_nonsocial_choice	1.232456	32.000000	n/a	0	0	-2.298177e-01
372.238860	1.232456	dec_choice	1.232456	32.000000	n/a	0	0	-2.304688e-01
372.238860	1.232456	dec_nonsocial_reject	1.232456	32.000000	n/a	0	0	9.114583e-03
372.238860	1.232456	dec_reject	1.232456	32.000000	n/a	0	0	7.812500e-03
372.238860	1.232456	dec_nonsocial_low	1.232456	32.000000	n/a	0	-2.304688e-01	-2.304688e-01
372.238860	1.232456	dec_nonsocial_reject_low	1.232456	32.000000	n/a	3	7.812500e-03	-8.593750e-02
