onset	duration	trial_type	response_time	Endowment	Endowment_pmod	Decision	Decision_pmod	Offer_pmod
4.579298	2	cue_social	n/a	16	-8	n/a	n/a	n/a
4.579298	2	cue_social_low	n/a	16	-10	n/a	n/a	n/a
11.346878	2	cue_nonsocial	n/a	16	-10	n/a	n/a	n/a
11.346878	2	cue_nonsocial_low	n/a	16	-8	n/a	n/a	n/a
18.180286	2	cue_nonsocial	n/a	32	6	n/a	n/a	n/a
18.180286	2	cue_nonsocial_high	n/a	32	8	n/a	n/a	n/a
25.830270	2	cue_nonsocial	n/a	32	6	n/a	n/a	n/a
25.830270	2	cue_nonsocial_high	n/a	32	8	n/a	n/a	n/a
36.696808	2	cue_nonsocial	n/a	16	-10	n/a	n/a	n/a
36.696808	2	cue_nonsocial_low	n/a	16	-8	n/a	n/a	n/a
43.618050	2	cue_social	n/a	32	8	n/a	n/a	n/a
43.618050	2	cue_social_high	n/a	32	6	n/a	n/a	n/a
50.363610	2	cue_nonsocial	n/a	32	6	n/a	n/a	n/a
50.363610	2	cue_nonsocial_high	n/a	32	8	n/a	n/a	n/a
57.219177	2	cue_social	n/a	16	-8	n/a	n/a	n/a
57.219177	2	cue_social_low	n/a	16	-10	n/a	n/a	n/a
66.446770	2	cue_nonsocial	n/a	32	6	n/a	n/a	n/a
66.446770	2	cue_nonsocial_high	n/a	32	8	n/a	n/a	n/a
74.130560	2	cue_social	n/a	32	8	n/a	n/a	n/a
74.130560	2	cue_social_high	n/a	32	6	n/a	n/a	n/a
81.730110	2	cue_nonsocial	n/a	16	-10	n/a	n/a	n/a
81.730110	2	cue_nonsocial_low	n/a	16	-8	n/a	n/a	n/a
88.563644	2	cue_nonsocial	n/a	32	6	n/a	n/a	n/a
88.563644	2	cue_nonsocial_high	n/a	32	8	n/a	n/a	n/a
97.878000	2	cue_social	n/a	32	8	n/a	n/a	n/a
97.878000	2	cue_social_high	n/a	32	6	n/a	n/a	n/a
104.718210	2	cue_social	n/a	32	8	n/a	n/a	n/a
104.718210	2	cue_social_high	n/a	32	6	n/a	n/a	n/a
113.960266	2	cue_social	n/a	32	8	n/a	n/a	n/a
113.960266	2	cue_social_high	n/a	32	6	n/a	n/a	n/a
120.803120	2	cue_social	n/a	32	8	n/a	n/a	n/a
120.803120	2	cue_social_high	n/a	32	6	n/a	n/a	n/a
128.379970	2	cue_nonsocial	n/a	16	-10	n/a	n/a	n/a
128.379970	2	cue_nonsocial_low	n/a	16	-8	n/a	n/a	n/a
135.264110	2	cue_social	n/a	32	8	n/a	n/a	n/a
135.264110	2	cue_social_high	n/a	32	6	n/a	n/a	n/a
144.537140	2	cue_social	n/a	32	8	n/a	n/a	n/a
144.537140	2	cue_social_high	n/a	32	6	n/a	n/a	n/a
152.130190	2	cue_nonsocial	n/a	32	6	n/a	n/a	n/a
152.130190	2	cue_nonsocial_high	n/a	32	8	n/a	n/a	n/a
158.963760	2	cue_nonsocial	n/a	32	6	n/a	n/a	n/a
158.963760	2	cue_nonsocial_high	n/a	32	8	n/a	n/a	n/a
169.903820	2	cue_social	n/a	16	-8	n/a	n/a	n/a
169.903820	2	cue_social_low	n/a	16	-10	n/a	n/a	n/a
176.679860	2	cue_nonsocial	n/a	16	-10	n/a	n/a	n/a
176.679860	2	cue_nonsocial_low	n/a	16	-8	n/a	n/a	n/a
183.613270	2	cue_social	n/a	16	-8	n/a	n/a	n/a
183.613270	2	cue_social_low	n/a	16	-10	n/a	n/a	n/a
191.214080	2	cue_social	n/a	16	-8	n/a	n/a	n/a
191.214080	2	cue_social_low	n/a	16	-10	n/a	n/a	n/a
197.997040	2	cue_nonsocial	n/a	32	6	n/a	n/a	n/a
197.997040	2	cue_nonsocial_high	n/a	32	8	n/a	n/a	n/a
205.679840	2	cue_social	n/a	16	-8	n/a	n/a	n/a
205.679840	2	cue_social_low	n/a	16	-10	n/a	n/a	n/a
212.519170	2	cue_social	n/a	16	-8	n/a	n/a	n/a
212.519170	2	cue_social_low	n/a	16	-10	n/a	n/a	n/a
219.313220	2	cue_nonsocial	n/a	32	6	n/a	n/a	n/a
219.313220	2	cue_nonsocial_high	n/a	32	8	n/a	n/a	n/a
226.994460	2	cue_social	n/a	32	8	n/a	n/a	n/a
226.994460	2	cue_social_high	n/a	32	6	n/a	n/a	n/a
239.490450	2	cue_social	n/a	16	-8	n/a	n/a	n/a
239.490450	2	cue_social_low	n/a	16	-10	n/a	n/a	n/a
250.313020	2	cue_nonsocial	n/a	32	6	n/a	n/a	n/a
250.313020	2	cue_nonsocial_high	n/a	32	8	n/a	n/a	n/a
257.963560	2	cue_nonsocial	n/a	32	6	n/a	n/a	n/a
257.963560	2	cue_nonsocial_high	n/a	32	8	n/a	n/a	n/a
267.261440	2	cue_social	n/a	16	-8	n/a	n/a	n/a
267.261440	2	cue_social_low	n/a	16	-10	n/a	n/a	n/a
274.147950	2	cue_social	n/a	32	8	n/a	n/a	n/a
274.147950	2	cue_social_high	n/a	32	6	n/a	n/a	n/a
281.744870	2	cue_social	n/a	32	8	n/a	n/a	n/a
281.744870	2	cue_social_high	n/a	32	6	n/a	n/a	n/a
288.529850	2	cue_nonsocial	n/a	32	6	n/a	n/a	n/a
288.529850	2	cue_nonsocial_high	n/a	32	8	n/a	n/a	n/a
295.362880	2	cue_nonsocial	n/a	16	-10	n/a	n/a	n/a
295.362880	2	cue_nonsocial_low	n/a	16	-8	n/a	n/a	n/a
303.013180	2	cue_nonsocial	n/a	32	6	n/a	n/a	n/a
303.013180	2	cue_nonsocial_high	n/a	32	8	n/a	n/a	n/a
312.262880	2	cue_nonsocial	n/a	32	6	n/a	n/a	n/a
312.262880	2	cue_nonsocial_high	n/a	32	8	n/a	n/a	n/a
319.096400	2	cue_nonsocial	n/a	16	-10	n/a	n/a	n/a
319.096400	2	cue_nonsocial_low	n/a	16	-8	n/a	n/a	n/a
326.746340	2	cue_nonsocial	n/a	32	6	n/a	n/a	n/a
326.746340	2	cue_nonsocial_high	n/a	32	8	n/a	n/a	n/a
333.628570	2	cue_social	n/a	16	-8	n/a	n/a	n/a
333.628570	2	cue_social_low	n/a	16	-10	n/a	n/a	n/a
340.467380	2	cue_social	n/a	16	-8	n/a	n/a	n/a
340.467380	2	cue_social_low	n/a	16	-10	n/a	n/a	n/a
347.245880	2	cue_nonsocial	n/a	16	-10	n/a	n/a	n/a
347.245880	2	cue_nonsocial_low	n/a	16	-8	n/a	n/a	n/a
354.924200	2	cue_social	n/a	32	8	n/a	n/a	n/a
354.924200	2	cue_social_high	n/a	32	6	n/a	n/a	n/a
361.808560	2	cue_social	n/a	16	-8	n/a	n/a	n/a
361.808560	2	cue_social_low	n/a	16	-10	n/a	n/a	n/a
370.979680	2	cue_nonsocial	n/a	16	-10	n/a	n/a	n/a
370.979680	2	cue_nonsocial_low	n/a	16	-8	n/a	n/a	n/a
6.522095	1.465007	dec_social_choice	1.465007	16.000000	n/a	4	2.018229e-02	2.018229e-02
6.522095	1.465007	dec_choice	1.465007	16.000000	n/a	4	2.083333e-02	2.083333e-02
6.522095	1.465007	dec_social_accept	1.465007	16.000000	n/a	4	2.018229e-02	2.018229e-02
6.522095	1.465007	dec_accept	1.465007	16.000000	n/a	4	2.083333e-02	2.083333e-02
6.522095	1.465007	dec_social_high	1.465007	16.000000	n/a	4	2.083333e-02	2.083333e-02
6.522095	1.465007	dec_social_accept_high	1.465007	16.000000	n/a	4	2.083333e-02	2.083333e-02
13.354096	1.783119	dec_nonsocial_choice	1.783119	16.000000	n/a	8	2.701823e-01	2.701823e-01
13.354096	1.783119	dec_choice	1.783119	16.000000	n/a	8	2.695312e-01	2.695312e-01
13.354096	1.783119	dec_nonsocial_accept	1.783119	16.000000	n/a	8	2.701823e-01	2.701823e-01
13.354096	1.783119	dec_accept	1.783119	16.000000	n/a	8	2.695312e-01	2.695312e-01
13.354096	1.783119	dec_nonsocial_high	1.783119	16.000000	n/a	8	2.695312e-01	2.695312e-01
13.354096	1.783119	dec_nonsocial_accept_high	1.783119	16.000000	n/a	8	2.695312e-01	2.695312e-01
20.187452	1.899562	dec_nonsocial_choice	1.899562	32.000000	n/a	3	-1.360677e-01	-1.360677e-01
20.187452	1.899562	dec_choice	1.899562	32.000000	n/a	3	-1.367188e-01	-1.367188e-01
20.187452	1.899562	dec_nonsocial_accept	1.899562	32.000000	n/a	3	-1.360677e-01	-1.360677e-01
20.187452	1.899562	dec_accept	1.899562	32.000000	n/a	3	-1.367188e-01	-1.367188e-01
20.187452	1.899562	dec_nonsocial_accept_low	1.899562	32.000000	n/a	3	-1.354167e-01	-1.354167e-01
27.837244	1.234088	dec_nonsocial_choice	1.234088	32.000000	n/a	3	-1.360677e-01	-1.360677e-01
27.837244	1.234088	dec_choice	1.234088	32.000000	n/a	3	-1.367188e-01	-1.367188e-01
27.837244	1.234088	dec_nonsocial_accept	1.234088	32.000000	n/a	3	-1.360677e-01	-1.360677e-01
27.837244	1.234088	dec_accept	1.234088	32.000000	n/a	3	-1.367188e-01	-1.367188e-01
27.837244	1.234088	dec_nonsocial_accept_low	1.234088	32.000000	n/a	3	-1.354167e-01	-1.354167e-01
38.704067	1.383346	dec_nonsocial_choice	1.383346	16.000000	n/a	2	-1.048177e-01	-1.048177e-01
38.704067	1.383346	dec_choice	1.383346	16.000000	n/a	2	-1.054688e-01	-1.054688e-01
38.704067	1.383346	dec_nonsocial_accept	1.383346	16.000000	n/a	2	-1.048177e-01	-1.048177e-01
38.704067	1.383346	dec_accept	1.383346	16.000000	n/a	2	-1.054688e-01	-1.054688e-01
38.704067	1.383346	dec_nonsocial_low	1.383346	16.000000	n/a	2	-1.054688e-01	-1.054688e-01
38.704067	1.383346	dec_nonsocial_accept_low	1.383346	16.000000	n/a	2	-1.054688e-01	-1.054688e-01
45.537056	1.967400	dec_social_choice	1.967400	32.000000	n/a	8	2.018229e-02	2.018229e-02
45.537056	1.967400	dec_choice	1.967400	32.000000	n/a	8	2.083333e-02	2.083333e-02
45.537056	1.967400	dec_social_accept	1.967400	32.000000	n/a	8	2.018229e-02	2.018229e-02
45.537056	1.967400	dec_accept	1.967400	32.000000	n/a	8	2.083333e-02	2.083333e-02
45.537056	1.967400	dec_social_high	1.967400	32.000000	n/a	8	2.083333e-02	2.083333e-02
45.537056	1.967400	dec_social_accept_high	1.967400	32.000000	n/a	8	2.083333e-02	2.083333e-02
52.371030	1.283134	dec_nonsocial_choice	1.283134	32.000000	n/a	16	2.701823e-01	2.701823e-01
52.371030	1.283134	dec_choice	1.283134	32.000000	n/a	16	2.695312e-01	2.695312e-01
52.371030	1.283134	dec_nonsocial_accept	1.283134	32.000000	n/a	16	2.701823e-01	2.701823e-01
52.371030	1.283134	dec_accept	1.283134	32.000000	n/a	16	2.695312e-01	2.695312e-01
52.371030	1.283134	dec_nonsocial_high	1.283134	32.000000	n/a	16	2.695312e-01	2.695312e-01
52.371030	1.283134	dec_nonsocial_accept_high	1.283134	32.000000	n/a	16	2.695312e-01	2.695312e-01
59.203136	1.267734	dec_social_choice	1.267734	16.000000	n/a	4	2.018229e-02	2.018229e-02
59.203136	1.267734	dec_choice	1.267734	16.000000	n/a	4	2.083333e-02	2.083333e-02
59.203136	1.267734	dec_social_accept	1.267734	16.000000	n/a	4	2.018229e-02	2.018229e-02
59.203136	1.267734	dec_accept	1.267734	16.000000	n/a	4	2.083333e-02	2.083333e-02
59.203136	1.267734	dec_social_high	1.267734	16.000000	n/a	4	2.083333e-02	2.083333e-02
59.203136	1.267734	dec_social_accept_high	1.267734	16.000000	n/a	4	2.083333e-02	2.083333e-02
68.455070	1.182083	dec_nonsocial_choice	1.182083	32.000000	n/a	2	-1.673177e-01	-1.673177e-01
68.455070	1.182083	dec_choice	1.182083	32.000000	n/a	2	-1.679688e-01	-1.679688e-01
68.455070	1.182083	dec_nonsocial_accept	1.182083	32.000000	n/a	2	-1.673177e-01	-1.673177e-01
68.455070	1.182083	dec_accept	1.182083	32.000000	n/a	2	-1.679688e-01	-1.679688e-01
68.455070	1.182083	dec_nonsocial_low	1.182083	32.000000	n/a	2	-1.679688e-01	-1.679688e-01
68.455070	1.182083	dec_nonsocial_accept_low	1.182083	32.000000	n/a	2	-1.679688e-01	-1.679688e-01
76.103035	1.018327	dec_social_choice	1.018327	32.000000	n/a	2	-1.673177e-01	-1.673177e-01
76.103035	1.018327	dec_choice	1.018327	32.000000	n/a	2	-1.666667e-01	-1.666667e-01
76.103035	1.018327	dec_social_accept	1.018327	32.000000	n/a	2	-1.673177e-01	-1.673177e-01
76.103035	1.018327	dec_accept	1.018327	32.000000	n/a	2	-1.666667e-01	-1.666667e-01
76.103035	1.018327	dec_social_low	1.018327	32.000000	n/a	2	-1.666667e-01	-1.666667e-01
76.103035	1.018327	dec_social_accept_low	1.018327	32.000000	n/a	2	-1.666667e-01	-1.666667e-01
83.737070	0.850158	dec_nonsocial_choice	0.850158	16.000000	n/a	2	-1.048177e-01	-1.048177e-01
83.737070	0.850158	dec_choice	0.850158	16.000000	n/a	2	-1.054688e-01	-1.054688e-01
83.737070	0.850158	dec_nonsocial_accept	0.850158	16.000000	n/a	2	-1.048177e-01	-1.048177e-01
83.737070	0.850158	dec_accept	0.850158	16.000000	n/a	2	-1.054688e-01	-1.054688e-01
83.737070	0.850158	dec_nonsocial_low	0.850158	16.000000	n/a	2	-1.054688e-01	-1.054688e-01
83.737070	0.850158	dec_nonsocial_accept_low	0.850158	16.000000	n/a	2	-1.054688e-01	-1.054688e-01
90.570770	0.965906	dec_nonsocial_choice	0.965906	32.000000	n/a	3	-1.360677e-01	-1.360677e-01
90.570770	0.965906	dec_choice	0.965906	32.000000	n/a	3	-1.367188e-01	-1.367188e-01
90.570770	0.965906	dec_nonsocial_accept	0.965906	32.000000	n/a	3	-1.360677e-01	-1.360677e-01
90.570770	0.965906	dec_accept	0.965906	32.000000	n/a	3	-1.367188e-01	-1.367188e-01
90.570770	0.965906	dec_nonsocial_low	0.965906	32.000000	n/a	3	-1.367188e-01	-1.367188e-01
90.570770	0.965906	dec_nonsocial_accept_low	0.965906	32.000000	n/a	3	-1.367188e-01	-1.367188e-01
99.837070	1.083774	dec_social_choice	1.083774	32.000000	n/a	2	-1.673177e-01	-1.673177e-01
99.837070	1.083774	dec_choice	1.083774	32.000000	n/a	2	-1.666667e-01	-1.666667e-01
99.837070	1.083774	dec_social_accept	1.083774	32.000000	n/a	2	-1.673177e-01	-1.673177e-01
99.837070	1.083774	dec_accept	1.083774	32.000000	n/a	2	-1.666667e-01	-1.666667e-01
99.837070	1.083774	dec_social_low	1.083774	32.000000	n/a	2	-1.666667e-01	-1.666667e-01
99.837070	1.083774	dec_social_accept_low	1.083774	32.000000	n/a	2	-1.666667e-01	-1.666667e-01
106.670044	1.150664	dec_social_choice	1.150664	32.000000	n/a	3	-1.360677e-01	-1.360677e-01
106.670044	1.150664	dec_choice	1.150664	32.000000	n/a	3	-1.354167e-01	-1.354167e-01
106.670044	1.150664	dec_social_accept	1.150664	32.000000	n/a	3	-1.360677e-01	-1.360677e-01
106.670044	1.150664	dec_accept	1.150664	32.000000	n/a	3	-1.354167e-01	-1.354167e-01
106.670044	1.150664	dec_social_low	1.150664	32.000000	n/a	3	-1.354167e-01	-1.354167e-01
106.670044	1.150664	dec_social_accept_low	1.150664	32.000000	n/a	3	-1.354167e-01	-1.354167e-01
115.921040	1.615703	dec_social_choice	1.615703	32.000000	n/a	3	-1.360677e-01	-1.360677e-01
115.921040	1.615703	dec_choice	1.615703	32.000000	n/a	3	-1.354167e-01	-1.354167e-01
115.921040	1.615703	dec_social_accept	1.615703	32.000000	n/a	3	-1.360677e-01	-1.360677e-01
115.921040	1.615703	dec_accept	1.615703	32.000000	n/a	3	-1.354167e-01	-1.354167e-01
115.921040	1.615703	dec_social_low	1.615703	32.000000	n/a	3	-1.354167e-01	-1.354167e-01
115.921040	1.615703	dec_social_accept_low	1.615703	32.000000	n/a	3	-1.354167e-01	-1.354167e-01
122.754040	1.200267	dec_social_choice	1.200267	32.000000	n/a	16	2.701823e-01	2.701823e-01
122.754040	1.200267	dec_choice	1.200267	32.000000	n/a	16	2.708333e-01	2.708333e-01
122.754040	1.200267	dec_social_accept	1.200267	32.000000	n/a	16	2.701823e-01	2.701823e-01
122.754040	1.200267	dec_accept	1.200267	32.000000	n/a	16	2.708333e-01	2.708333e-01
122.754040	1.200267	dec_social_high	1.200267	32.000000	n/a	16	2.708333e-01	2.708333e-01
122.754040	1.200267	dec_social_accept_high	1.200267	32.000000	n/a	16	2.708333e-01	2.708333e-01
130.387070	1.083360	dec_nonsocial_choice	1.083360	16.000000	n/a	4	2.018229e-02	2.018229e-02
130.387070	1.083360	dec_choice	1.083360	16.000000	n/a	4	1.953125e-02	1.953125e-02
130.387070	1.083360	dec_nonsocial_accept	1.083360	16.000000	n/a	4	2.018229e-02	2.018229e-02
130.387070	1.083360	dec_accept	1.083360	16.000000	n/a	4	1.953125e-02	1.953125e-02
130.387070	1.083360	dec_nonsocial_high	1.083360	16.000000	n/a	4	1.953125e-02	1.953125e-02
130.387070	1.083360	dec_nonsocial_accept_high	1.083360	16.000000	n/a	4	1.953125e-02	1.953125e-02
137.220250	0.933573	dec_social_choice	0.933573	32.000000	n/a	3	-1.360677e-01	-1.360677e-01
137.220250	0.933573	dec_choice	0.933573	32.000000	n/a	3	-1.354167e-01	-1.354167e-01
137.220250	0.933573	dec_social_accept	0.933573	32.000000	n/a	3	-1.360677e-01	-1.360677e-01
137.220250	0.933573	dec_accept	0.933573	32.000000	n/a	3	-1.354167e-01	-1.354167e-01
137.220250	0.933573	dec_social_low	0.933573	32.000000	n/a	3	-1.354167e-01	-1.354167e-01
137.220250	0.933573	dec_social_accept_low	0.933573	32.000000	n/a	3	-1.354167e-01	-1.354167e-01
146.488070	0.782562	dec_social_choice	0.782562	32.000000	n/a	2	-1.673177e-01	-1.673177e-01
146.488070	0.782562	dec_choice	0.782562	32.000000	n/a	2	-1.666667e-01	-1.666667e-01
146.488070	0.782562	dec_social_accept	0.782562	32.000000	n/a	2	-1.673177e-01	-1.673177e-01
146.488070	0.782562	dec_accept	0.782562	32.000000	n/a	2	-1.666667e-01	-1.666667e-01
146.488070	0.782562	dec_social_low	0.782562	32.000000	n/a	2	-1.666667e-01	-1.666667e-01
146.488070	0.782562	dec_social_accept_low	0.782562	32.000000	n/a	2	-1.666667e-01	-1.666667e-01
154.138080	1.165347	dec_nonsocial_choice	1.165347	32.000000	n/a	16	2.701823e-01	2.701823e-01
154.138080	1.165347	dec_choice	1.165347	32.000000	n/a	16	2.695312e-01	2.695312e-01
154.138080	1.165347	dec_nonsocial_accept	1.165347	32.000000	n/a	16	2.701823e-01	2.701823e-01
154.138080	1.165347	dec_accept	1.165347	32.000000	n/a	16	2.695312e-01	2.695312e-01
154.138080	1.165347	dec_nonsocial_high	1.165347	32.000000	n/a	16	2.695312e-01	2.695312e-01
154.138080	1.165347	dec_nonsocial_accept_high	1.165347	32.000000	n/a	16	2.695312e-01	2.695312e-01
160.971050	1.232824	dec_nonsocial_choice	1.232824	32.000000	n/a	2	-1.673177e-01	-1.673177e-01
160.971050	1.232824	dec_choice	1.232824	32.000000	n/a	2	-1.679688e-01	-1.679688e-01
160.971050	1.232824	dec_nonsocial_accept	1.232824	32.000000	n/a	2	-1.673177e-01	-1.673177e-01
160.971050	1.232824	dec_accept	1.232824	32.000000	n/a	2	-1.679688e-01	-1.679688e-01
160.971050	1.232824	dec_nonsocial_low	1.232824	32.000000	n/a	2	-1.679688e-01	-1.679688e-01
160.971050	1.232824	dec_nonsocial_accept_low	1.232824	32.000000	n/a	2	-1.679688e-01	-1.679688e-01
171.853070	1.666821	dec_social_choice	1.666821	16.000000	n/a	8	2.701823e-01	2.701823e-01
171.853070	1.666821	dec_choice	1.666821	16.000000	n/a	8	2.708333e-01	2.708333e-01
171.853070	1.666821	dec_social_accept	1.666821	16.000000	n/a	8	2.701823e-01	2.701823e-01
171.853070	1.666821	dec_accept	1.666821	16.000000	n/a	8	2.708333e-01	2.708333e-01
171.853070	1.666821	dec_social_accept_high	1.666821	16.000000	n/a	8	2.708333e-01	2.708333e-01
178.687070	1.183464	dec_nonsocial_choice	1.183464	16.000000	n/a	2	-1.048177e-01	-1.048177e-01
178.687070	1.183464	dec_choice	1.183464	16.000000	n/a	2	-1.054688e-01	-1.054688e-01
178.687070	1.183464	dec_nonsocial_accept	1.183464	16.000000	n/a	2	-1.048177e-01	-1.048177e-01
178.687070	1.183464	dec_accept	1.183464	16.000000	n/a	2	-1.054688e-01	-1.054688e-01
178.687070	1.183464	dec_nonsocial_accept_low	1.183464	16.000000	n/a	2	-1.041667e-01	-1.041667e-01
185.520220	1.116524	dec_social_choice	1.116524	16.000000	n/a	2	-1.048177e-01	-1.048177e-01
185.520220	1.116524	dec_choice	1.116524	16.000000	n/a	2	-1.041667e-01	-1.041667e-01
185.520220	1.116524	dec_social_accept	1.116524	16.000000	n/a	2	-1.048177e-01	-1.048177e-01
185.520220	1.116524	dec_accept	1.116524	16.000000	n/a	2	-1.041667e-01	-1.041667e-01
185.520220	1.116524	dec_social_low	1.116524	16.000000	n/a	2	-1.041667e-01	-1.041667e-01
185.520220	1.116524	dec_social_accept_low	1.116524	16.000000	n/a	2	-1.041667e-01	-1.041667e-01
193.169140	1.084633	dec_social_choice	1.084633	16.000000	n/a	8	2.701823e-01	2.701823e-01
193.169140	1.084633	dec_choice	1.084633	16.000000	n/a	8	2.708333e-01	2.708333e-01
193.169140	1.084633	dec_social_accept	1.084633	16.000000	n/a	8	2.701823e-01	2.701823e-01
193.169140	1.084633	dec_accept	1.084633	16.000000	n/a	8	2.708333e-01	2.708333e-01
193.169140	1.084633	dec_social_accept_high	1.084633	16.000000	n/a	8	2.708333e-01	2.708333e-01
200.003080	1.034120	dec_nonsocial_choice	1.034120	32.000000	n/a	2	-1.673177e-01	-1.673177e-01
200.003080	1.034120	dec_choice	1.034120	32.000000	n/a	2	-1.679688e-01	-1.679688e-01
200.003080	1.034120	dec_nonsocial_accept	1.034120	32.000000	n/a	2	-1.673177e-01	-1.673177e-01
200.003080	1.034120	dec_accept	1.034120	32.000000	n/a	2	-1.679688e-01	-1.679688e-01
200.003080	1.034120	dec_nonsocial_accept_low	1.034120	32.000000	n/a	2	-1.666667e-01	-1.666667e-01
207.653060	1.201108	dec_social_choice	1.201108	16.000000	n/a	1	-1.673177e-01	-1.673177e-01
207.653060	1.201108	dec_choice	1.201108	16.000000	n/a	1	-1.666667e-01	-1.666667e-01
207.653060	1.201108	dec_social_accept	1.201108	16.000000	n/a	1	-1.673177e-01	-1.673177e-01
207.653060	1.201108	dec_accept	1.201108	16.000000	n/a	1	-1.666667e-01	-1.666667e-01
207.653060	1.201108	dec_social_accept_low	1.201108	16.000000	n/a	1	-1.666667e-01	-1.666667e-01
214.487460	1.299681	dec_social_choice	1.299681	16.000000	n/a	2	-1.048177e-01	-1.048177e-01
214.487460	1.299681	dec_choice	1.299681	16.000000	n/a	2	-1.041667e-01	-1.041667e-01
214.487460	1.299681	dec_social_accept	1.299681	16.000000	n/a	2	-1.048177e-01	-1.048177e-01
214.487460	1.299681	dec_accept	1.299681	16.000000	n/a	2	-1.041667e-01	-1.041667e-01
214.487460	1.299681	dec_social_accept_low	1.299681	16.000000	n/a	2	-1.041667e-01	-1.041667e-01
221.320100	0.966529	dec_nonsocial_choice	0.966529	32.000000	n/a	2	-1.673177e-01	-1.673177e-01
221.320100	0.966529	dec_choice	0.966529	32.000000	n/a	2	-1.679688e-01	-1.679688e-01
221.320100	0.966529	dec_nonsocial_accept	0.966529	32.000000	n/a	2	-1.673177e-01	-1.673177e-01
221.320100	0.966529	dec_accept	0.966529	32.000000	n/a	2	-1.679688e-01	-1.679688e-01
221.320100	0.966529	dec_nonsocial_accept_low	0.966529	32.000000	n/a	2	-1.666667e-01	-1.666667e-01
228.969090	1.184220	dec_social_choice	1.184220	32.000000	n/a	3	-1.360677e-01	-1.360677e-01
228.969090	1.184220	dec_choice	1.184220	32.000000	n/a	3	-1.354167e-01	-1.354167e-01
228.969090	1.184220	dec_social_accept	1.184220	32.000000	n/a	3	-1.360677e-01	-1.360677e-01
228.969090	1.184220	dec_accept	1.184220	32.000000	n/a	3	-1.354167e-01	-1.354167e-01
228.969090	1.184220	dec_social_low	1.184220	32.000000	n/a	3	-1.354167e-01	-1.354167e-01
228.969090	1.184220	dec_social_accept_low	1.184220	32.000000	n/a	3	-1.354167e-01	-1.354167e-01
241.454070	1.132870	dec_social_choice	1.132870	16.000000	n/a	4	2.018229e-02	2.018229e-02
241.454070	1.132870	dec_choice	1.132870	16.000000	n/a	4	2.083333e-02	2.083333e-02
241.454070	1.132870	dec_social_accept	1.132870	16.000000	n/a	4	2.018229e-02	2.018229e-02
241.454070	1.132870	dec_accept	1.132870	16.000000	n/a	4	2.083333e-02	2.083333e-02
241.454070	1.132870	dec_social_accept_high	1.132870	16.000000	n/a	4	2.083333e-02	2.083333e-02
252.320160	1.183329	dec_nonsocial_choice	1.183329	32.000000	n/a	8	2.018229e-02	2.018229e-02
252.320160	1.183329	dec_choice	1.183329	32.000000	n/a	8	1.953125e-02	1.953125e-02
252.320160	1.183329	dec_nonsocial_accept	1.183329	32.000000	n/a	8	2.018229e-02	2.018229e-02
252.320160	1.183329	dec_accept	1.183329	32.000000	n/a	8	1.953125e-02	1.953125e-02
252.320160	1.183329	dec_nonsocial_high	1.183329	32.000000	n/a	8	1.953125e-02	1.953125e-02
252.320160	1.183329	dec_nonsocial_accept_high	1.183329	32.000000	n/a	8	1.953125e-02	1.953125e-02
259.970060	1.199948	dec_nonsocial_choice	1.199948	32.000000	n/a	8	2.018229e-02	2.018229e-02
259.970060	1.199948	dec_choice	1.199948	32.000000	n/a	8	1.953125e-02	1.953125e-02
259.970060	1.199948	dec_nonsocial_accept	1.199948	32.000000	n/a	8	2.018229e-02	2.018229e-02
259.970060	1.199948	dec_accept	1.199948	32.000000	n/a	8	1.953125e-02	1.953125e-02
259.970060	1.199948	dec_nonsocial_accept_high	1.199948	32.000000	n/a	8	2.083333e-02	2.083333e-02
269.220280	0.999959	dec_social_choice	0.999959	16.000000	n/a	8	2.701823e-01	2.701823e-01
269.220280	0.999959	dec_choice	0.999959	16.000000	n/a	8	2.708333e-01	2.708333e-01
269.220280	0.999959	dec_social_accept	0.999959	16.000000	n/a	8	2.701823e-01	2.701823e-01
269.220280	0.999959	dec_accept	0.999959	16.000000	n/a	8	2.708333e-01	2.708333e-01
269.220280	0.999959	dec_social_accept_high	0.999959	16.000000	n/a	8	2.708333e-01	2.708333e-01
276.054080	1.015327	dec_social_choice	1.015327	32.000000	n/a	2	-1.673177e-01	-1.673177e-01
276.054080	1.015327	dec_choice	1.015327	32.000000	n/a	2	-1.666667e-01	-1.666667e-01
276.054080	1.015327	dec_social_accept	1.015327	32.000000	n/a	2	-1.673177e-01	-1.673177e-01
276.054080	1.015327	dec_accept	1.015327	32.000000	n/a	2	-1.666667e-01	-1.666667e-01
276.054080	1.015327	dec_social_low	1.015327	32.000000	n/a	2	-1.666667e-01	-1.666667e-01
276.054080	1.015327	dec_social_accept_low	1.015327	32.000000	n/a	2	-1.666667e-01	-1.666667e-01
283.704100	1.232905	dec_social_choice	1.232905	32.000000	n/a	8	2.018229e-02	2.018229e-02
283.704100	1.232905	dec_choice	1.232905	32.000000	n/a	8	2.083333e-02	2.083333e-02
283.704100	1.232905	dec_social_accept	1.232905	32.000000	n/a	8	2.018229e-02	2.018229e-02
283.704100	1.232905	dec_accept	1.232905	32.000000	n/a	8	2.083333e-02	2.083333e-02
283.704100	1.232905	dec_social_high	1.232905	32.000000	n/a	8	2.083333e-02	2.083333e-02
283.704100	1.232905	dec_social_accept_high	1.232905	32.000000	n/a	8	2.083333e-02	2.083333e-02
290.537080	1.099704	dec_nonsocial_choice	1.099704	32.000000	n/a	8	2.018229e-02	2.018229e-02
290.537080	1.099704	dec_choice	1.099704	32.000000	n/a	8	1.953125e-02	1.953125e-02
290.537080	1.099704	dec_nonsocial_accept	1.099704	32.000000	n/a	8	2.018229e-02	2.018229e-02
290.537080	1.099704	dec_accept	1.099704	32.000000	n/a	8	1.953125e-02	1.953125e-02
290.537080	1.099704	dec_nonsocial_accept_high	1.099704	32.000000	n/a	8	2.083333e-02	2.083333e-02
297.371060	0.982393	dec_nonsocial_choice	0.982393	16.000000	n/a	8	2.701823e-01	2.701823e-01
297.371060	0.982393	dec_choice	0.982393	16.000000	n/a	8	2.695312e-01	2.695312e-01
297.371060	0.982393	dec_nonsocial_accept	0.982393	16.000000	n/a	8	2.701823e-01	2.701823e-01
297.371060	0.982393	dec_accept	0.982393	16.000000	n/a	8	2.695312e-01	2.695312e-01
297.371060	0.982393	dec_nonsocial_accept_high	0.982393	16.000000	n/a	8	2.708333e-01	2.708333e-01
305.019100	1.100863	dec_nonsocial_choice	1.100863	32.000000	n/a	8	2.018229e-02	2.018229e-02
305.019100	1.100863	dec_choice	1.100863	32.000000	n/a	8	1.953125e-02	1.953125e-02
305.019100	1.100863	dec_nonsocial_accept	1.100863	32.000000	n/a	8	2.018229e-02	2.018229e-02
305.019100	1.100863	dec_accept	1.100863	32.000000	n/a	8	1.953125e-02	1.953125e-02
305.019100	1.100863	dec_nonsocial_high	1.100863	32.000000	n/a	8	1.953125e-02	1.953125e-02
305.019100	1.100863	dec_nonsocial_accept_high	1.100863	32.000000	n/a	8	1.953125e-02	1.953125e-02
314.270080	1.015803	dec_nonsocial_choice	1.015803	32.000000	n/a	2	-1.673177e-01	-1.673177e-01
314.270080	1.015803	dec_choice	1.015803	32.000000	n/a	2	-1.679688e-01	-1.679688e-01
314.270080	1.015803	dec_nonsocial_accept	1.015803	32.000000	n/a	2	-1.673177e-01	-1.673177e-01
314.270080	1.015803	dec_accept	1.015803	32.000000	n/a	2	-1.679688e-01	-1.679688e-01
314.270080	1.015803	dec_nonsocial_low	1.015803	32.000000	n/a	2	-1.679688e-01	-1.679688e-01
314.270080	1.015803	dec_nonsocial_accept_low	1.015803	32.000000	n/a	2	-1.679688e-01	-1.679688e-01
321.104100	1.032810	dec_nonsocial_choice	1.032810	16.000000	n/a	1	-1.673177e-01	-1.673177e-01
321.104100	1.032810	dec_choice	1.032810	16.000000	n/a	1	-1.679688e-01	-1.679688e-01
321.104100	1.032810	dec_nonsocial_accept	1.032810	16.000000	n/a	1	-1.673177e-01	-1.673177e-01
321.104100	1.032810	dec_accept	1.032810	16.000000	n/a	1	-1.679688e-01	-1.679688e-01
321.104100	1.032810	dec_nonsocial_low	1.032810	16.000000	n/a	1	-1.679688e-01	-1.679688e-01
321.104100	1.032810	dec_nonsocial_accept_low	1.032810	16.000000	n/a	1	-1.679688e-01	-1.679688e-01
328.753170	1.066632	dec_nonsocial_choice	1.066632	32.000000	n/a	16	2.701823e-01	2.701823e-01
328.753170	1.066632	dec_choice	1.066632	32.000000	n/a	16	2.695312e-01	2.695312e-01
328.753170	1.066632	dec_nonsocial_accept	1.066632	32.000000	n/a	16	2.701823e-01	2.701823e-01
328.753170	1.066632	dec_accept	1.066632	32.000000	n/a	16	2.695312e-01	2.695312e-01
328.753170	1.066632	dec_nonsocial_high	1.066632	32.000000	n/a	16	2.695312e-01	2.695312e-01
328.753170	1.066632	dec_nonsocial_accept_high	1.066632	32.000000	n/a	16	2.695312e-01	2.695312e-01
335.586880	1.033473	dec_social_choice	1.033473	16.000000	n/a	8	2.701823e-01	2.701823e-01
335.586880	1.033473	dec_choice	1.033473	16.000000	n/a	8	2.708333e-01	2.708333e-01
335.586880	1.033473	dec_social_accept	1.033473	16.000000	n/a	8	2.701823e-01	2.701823e-01
335.586880	1.033473	dec_accept	1.033473	16.000000	n/a	8	2.708333e-01	2.708333e-01
335.586880	1.033473	dec_social_high	1.033473	16.000000	n/a	8	2.708333e-01	2.708333e-01
335.586880	1.033473	dec_social_accept_high	1.033473	16.000000	n/a	8	2.708333e-01	2.708333e-01
342.420070	1.333023	dec_social_choice	1.333023	16.000000	n/a	8	2.701823e-01	2.701823e-01
342.420070	1.333023	dec_choice	1.333023	16.000000	n/a	8	2.708333e-01	2.708333e-01
342.420070	1.333023	dec_social_accept	1.333023	16.000000	n/a	8	2.701823e-01	2.701823e-01
342.420070	1.333023	dec_accept	1.333023	16.000000	n/a	8	2.708333e-01	2.708333e-01
342.420070	1.333023	dec_social_accept_high	1.333023	16.000000	n/a	8	2.708333e-01	2.708333e-01
349.254100	0.932654	dec_nonsocial_choice	0.932654	16.000000	n/a	4	2.018229e-02	2.018229e-02
349.254100	0.932654	dec_choice	0.932654	16.000000	n/a	4	1.953125e-02	1.953125e-02
349.254100	0.932654	dec_nonsocial_accept	0.932654	16.000000	n/a	4	2.018229e-02	2.018229e-02
349.254100	0.932654	dec_accept	0.932654	16.000000	n/a	4	1.953125e-02	1.953125e-02
349.254100	0.932654	dec_nonsocial_accept_high	0.932654	16.000000	n/a	4	2.083333e-02	2.083333e-02
356.902200	0.983930	dec_social_choice	0.983930	32.000000	n/a	2	-1.673177e-01	-1.673177e-01
356.902200	0.983930	dec_choice	0.983930	32.000000	n/a	2	-1.666667e-01	-1.666667e-01
356.902200	0.983930	dec_social_accept	0.983930	32.000000	n/a	2	-1.673177e-01	-1.673177e-01
356.902200	0.983930	dec_accept	0.983930	32.000000	n/a	2	-1.666667e-01	-1.666667e-01
356.902200	0.983930	dec_social_accept_low	0.983930	32.000000	n/a	2	-1.666667e-01	-1.666667e-01
363.737060	0.816450	dec_social_choice	0.816450	16.000000	n/a	4	2.018229e-02	2.018229e-02
363.737060	0.816450	dec_choice	0.816450	16.000000	n/a	4	2.083333e-02	2.083333e-02
363.737060	0.816450	dec_social_accept	0.816450	16.000000	n/a	4	2.018229e-02	2.018229e-02
363.737060	0.816450	dec_accept	0.816450	16.000000	n/a	4	2.083333e-02	2.083333e-02
363.737060	0.816450	dec_social_accept_high	0.816450	16.000000	n/a	4	2.083333e-02	2.083333e-02
372.986100	0.884245	dec_nonsocial_choice	0.884245	16.000000	n/a	8	2.701823e-01	2.701823e-01
372.986100	0.884245	dec_choice	0.884245	16.000000	n/a	8	2.695312e-01	2.695312e-01
372.986100	0.884245	dec_nonsocial_accept	0.884245	16.000000	n/a	8	2.701823e-01	2.701823e-01
372.986100	0.884245	dec_accept	0.884245	16.000000	n/a	8	2.695312e-01	2.695312e-01
372.986100	0.884245	dec_nonsocial_accept_high	0.884245	16.000000	n/a	8	2.708333e-01	2.708333e-01
