TrialNumber,Trialn,TrialType,Partner,Feedback,ITI,ISI,ran,order,studyStart,InitFixOnset,decision_onset,resp,resp_onset,rt,ISI_onset,isi_for_trial,ISI_offset,outcome_val,outcome_onset,outcome_offset,trialDuration,ITIonset,ITIoffset,final_fix_offset
1,1,3,1,3,2.422500e+00,2.422500e+00,1.0,0.0,2.49999e-06,0.0096515,4.0171056,2.0,5.8834443,1.8663384,5.9838142,3.2561617,9.242095,7.0,9.242235,9.85106,5.833954,9.851221,12.27592,--
2,2,5,2,2,2.422500e+00,2.422500e+00,1.0,1.0,--,--,12.291161,1.0,13.633929,1.3427691,13.734227,3.7797308,17.515465,5.0,17.515574,18.122995,5.8318353,18.123129,20.547554,--
3,3,4,2,1,2.422500e+00,8.075000e-01,1.0,2.0,--,--,20.558908,2.0,21.600645,1.0417356,21.700998,2.4657643,24.16852,2.0,24.168627,24.775131,4.2162213,24.77526,27.200308,--
4,4,9,3,3,2.422500e+00,8.075000e-01,1.0,3.0,--,--,27.21015,1.0,28.250109,1.0399575,28.350456,2.4675424,30.819828,3.0,30.819937,31.425922,4.215772,31.426056,33.85043,--
5,5,9,3,3,2.422500e+00,8.075000e-01,1.0,4.0,--,--,33.852467,1.0,34.58363,0.7311642,34.683983,2.7763357,37.462616,4.0,37.462723,38.06721,4.2147455,38.06734,40.491714,--
6,6,8,3,2,8.075000e-01,2.422500e+00,1.0,5.0,--,--,40.493877,1.0,41.117203,0.6233244,41.21749,4.4991755,45.719822,5.0,45.719933,46.325993,5.8321147,46.326126,47.13557,--
7,7,6,2,3,8.075000e-01,2.422500e+00,1.0,6.0,--,--,47.1478,2.0,48.699932,1.552133,48.800243,3.570367,52.372852,7.0,52.372963,52.978558,5.8307557,52.97869,53.78808,--
8,8,4,2,1,4.037500e+00,2.422500e+00,1.0,7.0,--,--,53.798958,1.0,55.150093,1.351136,55.25045,3.771364,59.02383,9.0,59.02394,59.62992,5.830963,59.630054,63.66943,--
9,9,3,1,3,8.075000e-01,8.075000e-01,1.0,8.0,--,--,63.673477,1.0,64.51658,0.8431012,64.616875,2.664399,67.28388,1.0,67.28399,67.88958,4.216102,67.88971,68.6996,--
10,10,2,1,2,2.422500e+00,2.422500e+00,1.0,9.0,--,--,68.7014,2.0,69.63354,0.9321399,69.73384,4.19036,73.9258,5.0,73.9259,74.530975,5.829574,74.531105,76.955475,--
11,11,6,2,3,4.037500e+00,2.422500e+00,1.0,10.0,--,--,76.96738,2.0,77.89984,0.9324651,78.00019,4.190035,82.19282,9.0,82.192924,82.79979,5.8324194,82.79993,86.83932,--
12,12,3,1,3,5.652500e+00,2.422500e+00,1.0,11.0,--,--,86.842285,1.0,87.78306,0.9407751,87.883354,4.181725,92.066444,3.0,92.06655,92.671196,5.82891,92.671326,98.3257,--
13,13,3,1,3,2.422500e+00,1.615000e+00,1.0,12.0,--,--,98.32769,2.0,99.46642,1.1387303,99.56675,3.1762698,102.74501,8.0,102.745125,103.35076,5.0230675,103.35089,105.775055,--
14,14,9,3,3,4.037500e+00,2.422500e+00,1.0,13.0,--,--,105.7781,1.0,106.516464,0.7383617,106.616776,4.384138,111.00365,1.0,111.00376,111.60954,5.8314385,111.60967,115.649124,--
15,15,1,1,1,2.422500e+00,1.615000e+00,1.0,14.0,--,--,115.65218,2.0,116.48339,0.8312041,116.58374,3.483796,120.06909,4.0,120.06921,120.67463,5.022443,120.67476,123.09968,--
16,16,5,2,2,4.037500e+00,2.422500e+00,1.0,15.0,--,--,123.11186,1.0,123.84972,0.7378526,123.95001,4.3846474,128.3367,5.0,128.33682,128.94249,5.830629,128.94263,132.98277,--
17,17,7,3,1,8.075000e-01,1.615000e+00,1.0,16.0,--,--,132.98602,2.0,133.61678,0.6307461,133.71712,3.684254,137.4037,3.0,137.40381,138.00954,5.0235076,138.00967,138.81877,--
18,18,3,1,3,5.652500e+00,8.075000e-01,1.0,17.0,--,--,138.82196,1.0,140.06664,1.2446637,140.16699,2.2628362,142.43161,2.0,142.43172,143.03683,4.214865,143.03697,148.69215,--
19,19,4,2,1,8.075000e-01,1.615000e+00,1.0,18.0,--,--,148.70409,2.0,150.04965,1.3455598,150.15,2.9694402,153.1216,2.0,153.12172,153.72784,5.02375,153.72797,154.53763,--
20,20,1,1,1,8.075000e-01,8.075000e-01,1.0,19.0,--,--,154.54079,2.0,155.99963,1.4588572,156.1,2.0486429,158.15074,1.0,158.15085,158.75587,4.2150846,158.756,159.56575,--
21,21,3,1,3,7.267500e+00,1.615000e+00,1.0,20.0,--,--,159.56757,1.0,160.8163,1.2487329,160.9166,3.066267,163.98518,1.0,163.98529,164.59068,5.023109,164.5908,171.86017,--
22,22,4,2,1,8.075000e-01,2.422500e+00,1.0,21.0,--,--,171.87228,2.0,173.13281,1.2605277,173.23311,3.8619723,177.09647,2.0,177.09657,177.70189,5.8296003,177.70201,178.51167,--
23,23,1,1,1,2.422500e+00,8.075000e-01,1.0,22.0,--,--,178.51463,1.0,180.38272,1.8680786,180.48305,1.6394213,182.12553,8.0,182.12564,182.72977,4.2151294,182.7299,185.15422,--
24,24,9,3,3,7.267500e+00,8.075000e-01,1.0,23.0,--,--,185.15784,1.0,186.39957,1.2417237,186.49988,2.2657764,188.76866,4.0,188.76877,189.37485,4.217006,189.37498,196.6446,--
25,25,9,3,3,8.075000e-01,8.075000e-01,1.0,24.0,--,--,196.64668,1.0,197.16669,0.5199964,197.267,2.9875035,200.25685,3.0,200.25696,200.86081,4.2141247,200.86095,201.67076,--
26,26,4,2,1,8.075000e-01,8.075000e-01,1.0,25.0,--,--,201.68279,2.0,202.61671,0.9339246,202.71701,2.5735755,205.29202,1.0,205.29214,205.89975,4.216961,205.89987,206.70963,--
27,27,7,3,1,4.037500e+00,1.615000e+00,1.0,26.0,--,--,206.71288,1.0,207.64946,0.9365964,207.74977,3.3784037,211.13072,7.0,211.13084,211.73445,5.021582,211.73459,215.77396,--
28,28,1,1,1,8.882500e+00,1.615000e+00,1.0,27.0,--,--,215.77695,1.0,217.4327,1.6557463,217.533,2.6592536,220.19496,7.0,220.19507,220.79955,5.0225987,220.79968,229.68494,--
29,29,6,2,3,8.075000e-01,1.615000e+00,1.0,28.0,--,--,229.69742,1.0,231.04967,1.352251,231.15001,2.962749,234.11465,2.0,234.11476,234.7201,5.022683,234.72023,235.5305,--
30,30,7,3,1,2.422500e+00,8.075000e-01,1.0,29.0,--,--,235.53362,1.0,236.88252,1.3489089,236.98283,2.158591,239.14453,7.0,239.14465,239.75089,4.2172666,239.75102,242.17595,--
31,31,7,3,1,5.652500e+00,1.615000e+00,1.0,30.0,--,--,242.17801,2.0,243.11595,0.9379481,243.21628,3.3770518,246.59561,4.0,246.59572,247.19942,5.0214067,247.19954,252.8545,--
32,32,1,1,1,8.075000e-01,2.422500e+00,1.0,31.0,--,--,252.85747,1.0,253.69957,0.8421072,253.79993,4.2803926,258.08212,6.0,258.0822,258.68765,5.8302045,258.6878,259.49707,--
33,33,4,2,1,8.075000e-01,2.422500e+00,1.0,32.0,--,--,259.50906,2.0,260.34958,0.8404895,260.4499,4.2820106,264.73447,3.0,264.73456,265.33966,5.8305936,265.3398,266.14993,--
34,34,3,1,3,8.075000e-01,8.075000e-01,1.0,33.0,--,--,266.15317,2.0,267.39926,1.246093,267.49957,2.261407,269.7633,8.0,269.7634,270.36826,4.215089,270.3684,271.17767,--
35,35,6,2,3,8.075000e-01,2.422500e+00,1.0,34.0,--,--,271.1898,2.0,272.53308,1.3433055,272.63345,3.7791946,276.41537,9.0,276.4155,277.02005,5.830284,277.0202,277.82953,--
36,36,7,3,1,4.037500e+00,1.615000e+00,1.0,35.0,--,--,277.83258,1.0,278.98264,1.1500618,279.08298,3.1649382,282.2496,7.0,282.24973,282.85516,5.0226054,282.85532,286.89465,--
37,37,6,2,3,2.422500e+00,1.615000e+00,1.0,36.0,--,--,286.9064,1.0,288.14944,1.2430403,288.24982,3.0719597,291.32297,1.0,291.3231,291.92865,5.022235,291.92877,294.35345,--
38,38,9,3,3,8.075000e-01,8.075000e-01,1.0,37.0,--,--,294.3568,1.0,295.08246,0.7256405,295.1828,2.7818594,297.9665,3.0,297.9666,298.57065,4.213855,298.5708,299.38077,--
39,39,4,2,1,8.075000e-01,8.075000e-01,1.0,38.0,--,--,299.39276,2.0,300.6332,1.2404413,300.73352,2.2670586,303.00302,4.0,303.0031,303.60962,4.2168493,303.60974,304.4191,--
40,40,7,3,1,8.075000e-01,1.615000e+00,1.0,39.0,--,--,304.4223,1.0,306.28244,1.8601493,306.38275,2.4548507,308.83942,9.0,308.8395,309.4446,5.022304,309.44473,310.25494,--
41,41,9,3,3,8.075000e-01,2.422500e+00,1.0,40.0,--,--,310.25702,1.0,311.71573,1.4587209,311.81604,3.663779,315.48218,2.0,315.4823,316.08664,5.8296323,316.0868,316.89645,--
42,42,7,3,1,4.037500e+00,1.615000e+00,1.0,41.0,--,--,316.89856,1.0,318.34897,1.4504135,318.44928,2.8645866,321.31528,9.0,321.3154,321.9215,5.022963,321.92166,325.961,--
43,43,4,2,1,2.422500e+00,1.615000e+00,1.0,42.0,--,--,325.97345,1.0,327.2162,1.2427229,327.31653,3.072277,330.39142,9.0,330.39154,330.9966,5.023142,330.99673,333.42093,--
44,44,8,3,2,8.075000e-01,1.615000e+00,1.0,43.0,--,--,333.4241,2.0,335.0824,1.6583008,335.1827,2.6566994,337.8413,5.0,337.84143,338.44565,5.021548,338.44577,339.25623,--
45,45,1,1,1,5.652500e+00,1.615000e+00,1.0,44.0,--,--,339.2592,1.0,340.61554,1.3563509,340.71582,2.9586492,343.67654,8.0,343.67667,344.2813,5.0221105,344.28143,349.9362,--
46,46,9,3,3,8.075000e-01,8.075000e-01,1.0,45.0,--,--,349.93954,1.0,350.56622,0.6266729,350.6665,2.8808272,353.54898,4.0,353.5491,354.15457,4.2150345,354.1547,354.9641,--
47,47,6,2,3,8.075000e-01,1.615000e+00,1.0,46.0,--,--,354.97577,2.0,355.91547,0.9396978,356.01578,3.3753023,359.39334,9.0,359.39346,359.9997,5.0239167,359.99982,360.80942,--
48,48,7,3,1,8.075000e-01,8.075000e-01,1.0,47.0,--,--,360.81247,2.0,362.06567,1.2532269,362.16605,2.2542732,364.42224,4.0,364.42233,365.02765,4.2151914,365.02777,365.8374,--
49,49,6,2,3,8.075000e-01,1.615000e+00,1.0,48.0,--,--,365.84933,2.0,367.7154,1.8660607,367.8157,2.4489393,370.2659,6.0,370.26602,370.8705,5.021174,370.87067,371.68045,--
50,50,1,1,1,8.075000e-01,2.422500e+00,1.0,49.0,--,--,371.68378,2.0,373.9654,2.2816153,374.06567,2.8408847,376.9083,4.0,376.90842,377.51562,5.831849,377.51578,378.32513,--
51,51,3,1,3,8.075000e-01,2.422500e+00,1.0,50.0,--,--,378.3269,2.0,379.6822,1.355277,379.7825,3.7672231,383.55203,9.0,383.55215,384.15674,5.8298373,384.1569,384.9664,--
52,52,6,2,3,8.075000e-01,8.075000e-01,1.0,51.0,--,--,384.97842,1.0,386.01544,1.0370269,386.11575,2.470473,388.58795,2.0,388.58807,389.1916,4.2131944,389.19174,390.0013,--
53,53,2,1,2,2.422500e+00,8.075000e-01,1.0,52.0,--,--,390.00427,1.0,391.0488,1.0445344,391.14908,2.4629655,393.61438,5.0,393.61447,394.2202,4.215959,394.22034,396.64462,--
54,54,1,1,1,8.075000e-01,2.422500e+00,1.0,53.0,--,--,396.64636,1.0,398.1988,1.5524167,398.29907,3.5700834,401.871,9.0,401.87112,402.47754,5.831179,402.4777,403.2879,412.00122
