instrText,stimDoor,stimDoorLure,stimFace,stimFaceLure,Instructions.thisRepN,Instructions.thisTrialN,Instructions.thisN,Instructions.thisIndex,Trials.thisRepN,Trials.thisTrialN,Trials.thisN,Trials.thisIndex,Func,Keys,Text,RespTime,Onset,Offset,SystemTime_Start,SystemTime_Stop,Stim,Lure,Participant*,Age,date,expName,psychopyVersion,frameRate,
"In the earlier Feedback Games, you chose which doors contained a prize, and which peers liked you. 

You then saw positive or negative feedback (green check mark or red X) from the door or peer you selected.

You will now see a series of doors and peers, some of which you saw during the earlier Feedback Games, and some that you have never seen before.

Please press the spacebar to continue.",,,,,0,0,0,0,,,,,instrFunc,space,"In the earlier Feedback Games, you chose which doors contained a prize, and which peers liked you. 

You then saw positive or negative feedback (green check mark or red X) from the door or peer you selected.

You will now see a series of doors and peers, some of which you saw during the earlier Feedback Games, and some that you have never seen before.

Please press the spacebar to continue.",19.59366219997173,24.986792400013655,44.64772591012297,2023-08-30 14:06:20.967092,2023-08-30 14:06:40.620756,,,10642,30-49,2023-08-30_14h06.17.570,Recall,2021.2.3,59.88938430851679,
"For doors/peers that you remember selecting and getting feedback from, your job is to RECALL what feedback you received. 

Press '1' if you recall positive feedback. 

Press '2' if you recall negative feedback

Press the spacebar to continue.",,,,,0,1,1,1,,,,,instrFunc,space,"For doors/peers that you remember selecting and getting feedback from, your job is to RECALL what feedback you received. 

Press '1' if you recall positive feedback. 

Press '2' if you recall negative feedback

Press the spacebar to continue.",11.160692700010259,44.61144720000448,55.815955470025074,2023-08-30 14:06:40.621756,2023-08-30 14:06:51.810681,,,10642,30-49,2023-08-30_14h06.17.570,Recall,2021.2.3,59.88938430851679,
"For doors/peers that you don't remember getting feedback from, your job is to PREDICT what feedback you WOULD HAVE received.

Press '9' if you predict positive feedback.

Press '0' if you predict negative feedback. 

Please press the spacebar to continue.",,,,,0,2,2,2,,,,,instrFunc,space,"For doors/peers that you don't remember getting feedback from, your job is to PREDICT what feedback you WOULD HAVE received.

Press '9' if you predict positive feedback.

Press '0' if you predict negative feedback. 

Please press the spacebar to continue.",18.03494799998589,55.80131289997371,73.89567147003254,2023-08-30 14:06:51.811681,2023-08-30 14:07:09.891057,,,10642,30-49,2023-08-30_14h06.17.570,Recall,2021.2.3,59.88938430851679,
"This task is self-paced, and the prompts will always stay on the screen so that you know which buttons to press.

On the next screen we will show you what those prompts look like, so that you know exactly what to expect. 

You will start with either doors or peers, and then switch halfway through. 

Please press the spacebar to continue.",,,,,0,3,3,3,,,,,instrFunc,space,"This task is self-paced, and the prompts will always stay on the screen so that you know which buttons to press.

On the next screen we will show you what those prompts look like, so that you know exactly what to expect. 

You will start with either doors or peers, and then switch halfway through. 

Please press the spacebar to continue.",11.709444599982817,73.8788751999964,85.6357434699894,2023-08-30 14:07:09.892059,2023-08-30 14:07:21.633449,,,10642,30-49,2023-08-30_14h06.17.570,Recall,2021.2.3,59.88938430851679,
,,,,,,,,,,,,,imgtextFunc,space,"Here is what the screen will look like while you make your ratings.
The green circles remind you to press 1 or 9 for positive feedback.
The red circles remind you to press 2 or 0 for negative feedback.









Please let the experimenter know if you have any questions.

Whenever you're ready, press the spacebar to start the task.",15.77678770001512,85.77960989996791,101.75100387004204,2023-08-30 14:07:21.645465,2023-08-30 14:07:37.612603,,,10642,30-49,2023-08-30_14h06.17.570,Recall,2021.2.3,59.88938430851679,
,DD021.jpg,0,FF021.jpg,0,,,,,0,0,0,20,imgFunc,2,NA,10.50179740000749,101.75849039998138,112.39958238002146,2023-08-30 14:07:37.670327,2023-08-30 14:07:48.303183,DD021.jpg,0,10642,30-49,2023-08-30_14h06.17.570,Recall,2021.2.3,59.88938430851679,
,DD026.jpg,0,FF026.jpg,0,,,,,0,1,1,25,imgFunc,1,NA,4.113397300010547,112.40293410001323,116.66885437001474,2023-08-30 14:07:48.313159,2023-08-30 14:07:52.572849,DD026.jpg,0,10642,30-49,2023-08-30_14h06.17.570,Recall,2021.2.3,59.88938430851679,
,DD012.jpg,0,FF012.jpg,0,,,,,0,2,2,11,imgFunc,1,NA,1.062612000037916,116.62981830001809,117.79777276999084,2023-08-30 14:07:52.580852,2023-08-30 14:07:53.740463,DD012.jpg,0,10642,30-49,2023-08-30_14h06.17.570,Recall,2021.2.3,59.88938430851679,
,DD027.jpg,0,FF027.jpg,0,,,,,0,3,3,26,imgFunc,1,NA,1.4455118000041693,117.78285000001779,119.31921397004044,2023-08-30 14:07:53.747446,2023-08-30 14:07:55.274905,DD027.jpg,0,10642,30-49,2023-08-30_14h06.17.570,Recall,2021.2.3,59.88938430851679,
,DD007.jpg,0,FF007.jpg,0,,,,,0,4,4,6,imgFunc,1,NA,1.3238395000225864,119.32060370000545,120.74044437002158,2023-08-30 14:07:55.281889,2023-08-30 14:07:56.692719,DD007.jpg,0,10642,30-49,2023-08-30_14h06.17.570,Recall,2021.2.3,59.88938430851679,
,SD008.jpg,0,MF008.jpg,0,,,,,0,5,5,57,imgFunc,9,NA,4.834359099972062,120.74611389997881,125.68365766998613,2023-08-30 14:07:56.700732,2023-08-30 14:08:01.629544,SD008.jpg,0,10642,30-49,2023-08-30_14h06.17.570,Recall,2021.2.3,59.88938430851679,
,L_DD507.jpg,1,L_FF507.jpg,1,,,,,0,6,6,46,imgFunc,0,NA,1.5969647000310943,125.69535900000483,127.41129297000589,2023-08-30 14:08:01.638381,2023-08-30 14:08:03.347524,L_DD507.jpg,1,10642,30-49,2023-08-30_14h06.17.570,Recall,2021.2.3,59.88938430851679,
,SD018.jpg,0,MF018.jpg,0,,,,,0,7,7,67,imgFunc,9,NA,1.2574606999987736,127.40293639997253,128.76158926991047,2023-08-30 14:08:03.360493,2023-08-30 14:08:04.715310,SD018.jpg,0,10642,30-49,2023-08-30_14h06.17.570,Recall,2021.2.3,59.88938430851679,
,SD025.jpg,0,MF025.jpg,0,,,,,0,8,8,74,imgFunc,2,NA,4.483955600007903,128.76017809996847,133.32973116997164,2023-08-30 14:08:04.723319,2023-08-30 14:08:09.284824,SD025.jpg,0,10642,30-49,2023-08-30_14h06.17.570,Recall,2021.2.3,59.88938430851679,
,DD010.jpg,0,FF010.jpg,0,,,,,0,9,9,9,imgFunc,2,NA,1.22858549997909,133.3356003999943,134.66945697000483,2023-08-30 14:08:09.293799,2023-08-30 14:08:10.619717,DD010.jpg,0,10642,30-49,2023-08-30_14h06.17.570,Recall,2021.2.3,59.88938430851679,
,L_DD502.jpg,1,L_FF502.jpg,1,,,,,0,10,10,41,imgFunc,2,NA,2.1408233999973163,134.66352309996728,136.9002256699605,2023-08-30 14:08:10.626700,2023-08-30 14:08:12.854944,L_DD502.jpg,1,10642,30-49,2023-08-30_14h06.17.570,Recall,2021.2.3,59.88938430851679,
,DD019.jpg,0,FF019.jpg,0,,,,,0,11,11,18,imgFunc,1,NA,0.8898507000412792,136.90651289996458,137.89197366993176,2023-08-30 14:08:12.861927,2023-08-30 14:08:13.838431,DD019.jpg,0,10642,30-49,2023-08-30_14h06.17.570,Recall,2021.2.3,59.88938430851679,
,SD005.jpg,0,MF005.jpg,0,,,,,0,12,12,54,imgFunc,2,NA,1.1494410000159405,137.89478599996073,139.13214306998998,2023-08-30 14:08:13.853421,2023-08-30 14:08:15.089693,SD005.jpg,0,10642,30-49,2023-08-30_14h06.17.570,Recall,2021.2.3,59.88938430851679,
,L_SD507.jpg,1,L_MF507.jpg,1,,,,,0,13,13,96,imgFunc,1,NA,0.9481795000028796,139.1360356999794,140.18713007000042,2023-08-30 14:08:15.097695,2023-08-30 14:08:16.140211,L_SD507.jpg,1,10642,30-49,2023-08-30_14h06.17.570,Recall,2021.2.3,59.88938430851679,
,DD040.jpg,0,FF040.jpg,0,,,,,0,14,14,39,imgFunc,1,NA,0.9623781000263989,140.194038000016,141.26224216999253,2023-08-30 14:08:16.148192,2023-08-30 14:08:17.207395,DD040.jpg,0,10642,30-49,2023-08-30_14h06.17.570,Recall,2021.2.3,59.88938430851679,
,DD018.jpg,0,FF018.jpg,0,,,,,0,15,15,17,imgFunc,1,NA,1.1090115999686532,141.27118280000286,142.49049306998495,2023-08-30 14:08:17.214401,2023-08-30 14:08:18.425409,DD018.jpg,0,10642,30-49,2023-08-30_14h06.17.570,Recall,2021.2.3,59.88938430851679,
,SD021.jpg,0,MF021.jpg,0,,,,,0,16,16,70,imgFunc,2,NA,1.1162458999897353,142.4722577999928,143.69156507001026,2023-08-30 14:08:18.432392,2023-08-30 14:08:19.642756,SD021.jpg,0,10642,30-49,2023-08-30_14h06.17.570,Recall,2021.2.3,59.88938430851679,
,SD038.jpg,0,MF038.jpg,0,,,,,0,17,17,87,imgFunc,0,NA,5.3642034999793395,143.69625999999698,149.1549792700098,2023-08-30 14:08:19.656721,2023-08-30 14:08:25.113627,SD038.jpg,0,10642,30-49,2023-08-30_14h06.17.570,Recall,2021.2.3,59.88938430851679,
,DD023.jpg,0,FF023.jpg,0,,,,,0,18,18,22,imgFunc,1,NA,1.4576166000333615,149.16282789997058,150.71235886990326,2023-08-30 14:08:25.122605,2023-08-30 14:08:26.664908,DD023.jpg,0,10642,30-49,2023-08-30_14h06.17.570,Recall,2021.2.3,59.88938430851679,
,SD033.jpg,0,MF033.jpg,0,,,,,0,19,19,82,imgFunc,9,NA,2.6390126000042073,150.71731360000558,153.45402166998247,2023-08-30 14:08:26.671891,2023-08-30 14:08:29.400046,SD033.jpg,0,10642,30-49,2023-08-30_14h06.17.570,Recall,2021.2.3,59.88938430851679,
,L_DD510.jpg,1,L_FF510.jpg,1,,,,,0,20,20,49,imgFunc,0,NA,5.39028920000419,153.45397109998157,158.9425537699717,2023-08-30 14:08:29.407029,2023-08-30 14:08:34.887467,L_DD510.jpg,1,10642,30-49,2023-08-30_14h06.17.570,Recall,2021.2.3,59.88938430851679,
,L_DD501.jpg,1,L_FF501.jpg,1,,,,,0,21,21,40,imgFunc,0,NA,1.5287232999689877,158.97173889999976,160.63757377001457,2023-08-30 14:08:34.896445,2023-08-30 14:08:36.555146,L_DD501.jpg,1,10642,30-49,2023-08-30_14h06.17.570,Recall,2021.2.3,59.88938430851679,
,SD010.jpg,0,MF010.jpg,0,,,,,0,22,22,59,imgFunc,9,NA,2.0184931000112556,160.60157170001185,162.72114147001412,2023-08-30 14:08:36.562129,2023-08-30 14:08:38.672731,SD010.jpg,0,10642,30-49,2023-08-30_14h06.17.570,Recall,2021.2.3,59.88938430851679,
,SD035.jpg,0,MF035.jpg,0,,,,,0,23,23,84,imgFunc,1,NA,1.6098491000011563,162.71420839999337,164.41671706998022,2023-08-30 14:08:38.680708,2023-08-30 14:08:40.374250,SD035.jpg,0,10642,30-49,2023-08-30_14h06.17.570,Recall,2021.2.3,59.88938430851679,
,DD017.jpg,0,FF017.jpg,0,,,,,0,24,24,16,imgFunc,1,NA,1.357207999972161,164.41526949999388,165.86764636996668,2023-08-30 14:08:40.382204,2023-08-30 14:08:41.825514,DD017.jpg,0,10642,30-49,2023-08-30_14h06.17.570,Recall,2021.2.3,59.88938430851679,
,SD020.jpg,0,MF020.jpg,0,,,,,0,25,25,69,imgFunc,1,NA,1.2869235999532975,165.88519000000088,167.28738456999417,2023-08-30 14:08:41.832497,2023-08-30 14:08:43.226597,SD020.jpg,0,10642,30-49,2023-08-30_14h06.17.570,Recall,2021.2.3,59.88938430851679,
,DD024.jpg,0,FF024.jpg,0,,,,,0,26,26,23,imgFunc,9,NA,4.5806397999986075,167.28769179998199,171.96322746999795,2023-08-30 14:08:43.240559,2023-08-30 14:08:47.913537,DD024.jpg,0,10642,30-49,2023-08-30_14h06.17.570,Recall,2021.2.3,59.88938430851679,
,SD016.jpg,0,MF016.jpg,0,,,,,0,27,27,65,imgFunc,0,NA,1.362084100022912,171.96230839996133,173.43063156993594,2023-08-30 14:08:47.921518,2023-08-30 14:08:49.381251,SD016.jpg,0,10642,30-49,2023-08-30_14h06.17.570,Recall,2021.2.3,59.88938430851679,
,SD007.jpg,0,MF007.jpg,0,,,,,0,28,28,56,imgFunc,1,NA,1.5119658999610692,173.42841059999773,175.03099556994857,2023-08-30 14:08:49.388234,2023-08-30 14:08:50.982696,SD007.jpg,0,10642,30-49,2023-08-30_14h06.17.570,Recall,2021.2.3,59.88938430851679,
,DD002.jpg,0,FF002.jpg,0,,,,,0,29,29,1,imgFunc,1,NA,0.8908741000341251,175.0335529000149,176.01929497002857,2023-08-30 14:08:50.989679,2023-08-30 14:08:51.966815,DD002.jpg,0,10642,30-49,2023-08-30_14h06.17.570,Recall,2021.2.3,59.88938430851679,
,SD024.jpg,0,MF024.jpg,0,,,,,0,30,30,73,imgFunc,1,NA,1.2047024000203237,176.01572129997658,177.31803596997634,2023-08-30 14:08:51.973798,2023-08-30 14:08:53.267305,SD024.jpg,0,10642,30-49,2023-08-30_14h06.17.570,Recall,2021.2.3,59.88938430851679,
,L_DD508.jpg,1,L_FF508.jpg,1,,,,,0,31,31,47,imgFunc,1,NA,1.343022999993991,177.3253247999819,178.76420536998194,2023-08-30 14:08:53.281069,2023-08-30 14:08:54.718457,L_DD508.jpg,1,10642,30-49,2023-08-30_14h06.17.570,Recall,2021.2.3,59.88938430851679,
,DD013.jpg,0,FF013.jpg,0,,,,,0,32,32,12,imgFunc,2,NA,1.2553065999527462,178.76508209999884,180.11765507003292,2023-08-30 14:08:54.725441,2023-08-30 14:08:56.069423,DD013.jpg,0,10642,30-49,2023-08-30_14h06.17.570,Recall,2021.2.3,59.88938430851679,
,SD027.jpg,0,MF027.jpg,0,,,,,0,33,33,76,imgFunc,9,NA,3.309993900009431,180.11847019998822,183.52267706999555,2023-08-30 14:08:56.076406,2023-08-30 14:08:59.472092,SD027.jpg,0,10642,30-49,2023-08-30_14h06.17.570,Recall,2021.2.3,59.88938430851679,
,SD013.jpg,0,MF013.jpg,0,,,,,0,34,34,62,imgFunc,0,NA,1.5559944999986328,183.5284224000061,185.1947255700361,2023-08-30 14:08:59.481071,2023-08-30 14:09:01.139972,SD013.jpg,0,10642,30-49,2023-08-30_14h06.17.570,Recall,2021.2.3,59.88938430851679,
,SD031.jpg,0,MF031.jpg,0,,,,,0,35,35,80,imgFunc,0,NA,0.9144753000000492,185.18572169996332,186.20476546994178,2023-08-30 14:09:01.146955,2023-08-30 14:09:02.157219,SD031.jpg,0,10642,30-49,2023-08-30_14h06.17.570,Recall,2021.2.3,59.88938430851679,
,L_DD505.jpg,1,L_FF505.jpg,1,,,,,0,36,36,44,imgFunc,9,NA,2.4645785000175238,186.2118953000172,188.76827916997718,2023-08-30 14:09:02.171184,2023-08-30 14:09:04.725646,L_DD505.jpg,1,10642,30-49,2023-08-30_14h06.17.570,Recall,2021.2.3,59.88938430851679,
,L_SD506.jpg,1,L_MF506.jpg,1,,,,,0,37,37,95,imgFunc,0,NA,0.937870700028725,188.77062039996963,189.80618996999692,2023-08-30 14:09:04.733489,2023-08-30 14:09:05.759909,L_SD506.jpg,1,10642,30-49,2023-08-30_14h06.17.570,Recall,2021.2.3,59.88938430851679,
,SD022.jpg,0,MF022.jpg,0,,,,,0,38,38,71,imgFunc,2,NA,1.7689457000233233,189.8115311000147,191.680513469968,2023-08-30 14:09:05.766914,2023-08-30 14:09:07.627716,SD022.jpg,0,10642,30-49,2023-08-30_14h06.17.570,Recall,2021.2.3,59.88938430851679,
,SD034.jpg,0,MF034.jpg,0,,,,,0,39,39,83,imgFunc,1,NA,0.9230294000008143,191.68137339997338,192.71719966997625,2023-08-30 14:09:07.634699,2023-08-30 14:09:08.662198,SD034.jpg,0,10642,30-49,2023-08-30_14h06.17.570,Recall,2021.2.3,59.88938430851679,
,DD030.jpg,0,FF030.jpg,0,,,,,0,40,40,29,imgFunc,1,NA,1.5846901999902911,192.71550079999724,194.4014928699471,2023-08-30 14:09:08.669179,2023-08-30 14:09:10.346211,DD030.jpg,0,10642,30-49,2023-08-30_14h06.17.570,Recall,2021.2.3,59.88938430851679,
,DD035.jpg,0,FF035.jpg,0,,,,,0,41,41,34,imgFunc,1,NA,1.089783199946396,194.38665800000308,195.57250706997002,2023-08-30 14:09:10.353164,2023-08-30 14:09:11.530581,DD035.jpg,0,10642,30-49,2023-08-30_14h06.17.570,Recall,2021.2.3,59.88938430851679,
,L_DD506.jpg,1,L_FF506.jpg,1,,,,,0,42,42,45,imgFunc,0,NA,2.8143265999970026,195.57389499997953,198.4775581699214,2023-08-30 14:09:11.537564,2023-08-30 14:09:14.432739,L_DD506.jpg,1,10642,30-49,2023-08-30_14h06.17.570,Recall,2021.2.3,59.88938430851679,
,L_SD501.jpg,1,L_MF501.jpg,1,,,,,0,43,43,90,imgFunc,0,NA,2.1808634999906644,198.47158959996887,200.74174986995058,2023-08-30 14:09:14.439722,2023-08-30 14:09:16.701096,L_SD501.jpg,1,10642,30-49,2023-08-30_14h06.17.570,Recall,2021.2.3,59.88938430851679,
,DD039.jpg,0,FF039.jpg,0,,,,,0,44,44,38,imgFunc,9,NA,2.1158504000050016,200.75252450001426,202.97200097003952,2023-08-30 14:09:16.708079,2023-08-30 14:09:18.919523,DD039.jpg,0,10642,30-49,2023-08-30_14h06.17.570,Recall,2021.2.3,59.88938430851679,
,L_SD510.jpg,1,L_MF510.jpg,1,,,,,0,45,45,99,imgFunc,0,NA,1.6058468000264838,202.9822599000181,204.6903090699925,2023-08-30 14:09:18.932490,2023-08-30 14:09:20.636406,L_SD510.jpg,1,10642,30-49,2023-08-30_14h06.17.570,Recall,2021.2.3,59.88938430851679,
,SD026.jpg,0,MF026.jpg,0,,,,,0,46,46,75,imgFunc,0,NA,2.5200772999669425,204.67630859999917,207.28017157001887,2023-08-30 14:09:20.644350,2023-08-30 14:09:23.239368,SD026.jpg,0,10642,30-49,2023-08-30_14h06.17.570,Recall,2021.2.3,59.88938430851679,
,SD037.jpg,0,MF037.jpg,0,,,,,0,47,47,86,imgFunc,0,NA,0.9040885000140406,207.28441179997753,208.28606816998217,2023-08-30 14:09:23.247370,2023-08-30 14:09:24.240159,SD037.jpg,0,10642,30-49,2023-08-30_14h06.17.570,Recall,2021.2.3,59.88938430851679,
,L_DD509.jpg,1,L_FF509.jpg,1,,,,,0,48,48,48,imgFunc,1,NA,1.2579441999550909,208.2825795999961,209.63549886993133,2023-08-30 14:09:24.247142,2023-08-30 14:09:25.591150,L_DD509.jpg,1,10642,30-49,2023-08-30_14h06.17.570,Recall,2021.2.3,59.88938430851679,
,DD014.jpg,0,FF014.jpg,0,,,,,0,49,49,13,imgFunc,2,NA,1.8389571000006981,209.64526740001747,211.59795137000037,2023-08-30 14:09:25.598133,2023-08-30 14:09:27.542500,DD014.jpg,0,10642,30-49,2023-08-30_14h06.17.570,Recall,2021.2.3,59.88938430851679,
,DD020.jpg,0,FF020.jpg,0,,,,,0,50,50,19,imgFunc,1,NA,3.034309700015001,211.60172949999105,214.74209946993506,2023-08-30 14:09:27.556464,2023-08-30 14:09:30.694608,DD020.jpg,0,10642,30-49,2023-08-30_14h06.17.570,Recall,2021.2.3,59.88938430851679,
,DD028.jpg,0,FF028.jpg,0,,,,,0,51,51,27,imgFunc,1,NA,0.9176814999664202,214.75070380000398,215.759594669973,2023-08-30 14:09:30.706576,2023-08-30 14:09:31.712180,DD028.jpg,0,10642,30-49,2023-08-30_14h06.17.570,Recall,2021.2.3,59.88938430851679,
,SD011.jpg,0,MF011.jpg,0,,,,,0,52,52,60,imgFunc,2,NA,0.8824892999837175,215.7619678999763,216.7467476699967,2023-08-30 14:09:31.720162,2023-08-30 14:09:32.696472,SD011.jpg,0,10642,30-49,2023-08-30_14h06.17.570,Recall,2021.2.3,59.88938430851679,
,SD012.jpg,0,MF012.jpg,0,,,,,0,53,53,61,imgFunc,1,NA,1.1497308000107296,216.74271849996876,217.9955538699287,2023-08-30 14:09:32.703455,2023-08-30 14:09:33.947188,SD012.jpg,0,10642,30-49,2023-08-30_14h06.17.570,Recall,2021.2.3,59.88938430851679,
,L_SD508.jpg,1,L_MF508.jpg,1,,,,,0,54,54,97,imgFunc,2,NA,2.1368340000044554,218.0034578999621,220.2549629699788,2023-08-30 14:09:33.955168,2023-08-30 14:09:36.198846,L_SD508.jpg,1,10642,30-49,2023-08-30_14h06.17.570,Recall,2021.2.3,59.88938430851679,
,DD025.jpg,0,FF025.jpg,0,,,,,0,55,55,24,imgFunc,2,NA,1.180520499998238,220.23994479997782,221.50851336994674,2023-08-30 14:09:36.206853,2023-08-30 14:09:37.466673,DD025.jpg,0,10642,30-49,2023-08-30_14h06.17.570,Recall,2021.2.3,59.88938430851679,
,L_SD509.jpg,1,L_MF509.jpg,1,,,,,0,56,56,98,imgFunc,1,NA,0.6975174999679439,221.52265499997884,222.3242379699368,2023-08-30 14:09:37.473656,2023-08-30 14:09:38.266587,L_SD509.jpg,1,10642,30-49,2023-08-30_14h06.17.570,Recall,2021.2.3,59.88938430851679,
,SD039.jpg,0,MF039.jpg,0,,,,,0,57,57,88,imgFunc,0,NA,2.9660361999995075,222.3104249999742,225.36444856994785,2023-08-30 14:09:38.273569,2023-08-30 14:09:41.319389,SD039.jpg,0,10642,30-49,2023-08-30_14h06.17.570,Recall,2021.2.3,59.88938430851679,
,SD017.jpg,0,MF017.jpg,0,,,,,0,58,58,66,imgFunc,0,NA,1.3879208999569528,225.3606073000119,226.8457456699689,2023-08-30 14:09:41.327398,2023-08-30 14:09:42.803634,SD017.jpg,0,10642,30-49,2023-08-30_14h06.17.570,Recall,2021.2.3,59.88938430851679,
,L_SD505.jpg,1,L_MF505.jpg,1,,,,,0,59,59,94,imgFunc,9,NA,1.876873099943623,226.84757250000257,228.8071460700594,2023-08-30 14:09:42.816601,2023-08-30 14:09:44.772251,L_SD505.jpg,1,10642,30-49,2023-08-30_14h06.17.570,Recall,2021.2.3,59.88938430851679,
,SD004.jpg,0,MF004.jpg,0,,,,,0,60,60,53,imgFunc,0,NA,0.8372105999733321,228.8071559999953,229.72610186995007,2023-08-30 14:09:44.779234,2023-08-30 14:09:45.689395,SD004.jpg,0,10642,30-49,2023-08-30_14h06.17.570,Recall,2021.2.3,59.88938430851679,
,DD005.jpg,0,FF005.jpg,0,,,,,0,61,61,4,imgFunc,1,NA,1.6858150000334717,229.73459760000696,231.520789770002,2023-08-30 14:09:45.696402,2023-08-30 14:09:47.473697,DD005.jpg,0,10642,30-49,2023-08-30_14h06.17.570,Recall,2021.2.3,59.88938430851679,
,DD036.jpg,0,FF036.jpg,0,,,,,0,62,62,35,imgFunc,1,NA,1.3386022000340745,231.51354049996007,232.94915326999035,2023-08-30 14:09:47.480680,2023-08-30 14:09:48.907862,DD036.jpg,0,10642,30-49,2023-08-30_14h06.17.570,Recall,2021.2.3,59.88938430851679,
,DD034.jpg,0,FF034.jpg,0,,,,,0,63,63,33,imgFunc,1,NA,1.1123500999528915,232.9640781999915,234.18287256994518,2023-08-30 14:09:48.914867,2023-08-30 14:09:50.125663,DD034.jpg,0,10642,30-49,2023-08-30_14h06.17.570,Recall,2021.2.3,59.88938430851679,
,DD004.jpg,0,FF004.jpg,0,,,,,0,64,64,3,imgFunc,1,NA,0.8052296999958344,234.17541650001658,235.06269797001733,2023-08-30 14:09:50.140626,2023-08-30 14:09:51.026568,DD004.jpg,0,10642,30-49,2023-08-30_14h06.17.570,Recall,2021.2.3,59.88938430851679,
,SD029.jpg,0,MF029.jpg,0,,,,,0,65,65,78,imgFunc,0,NA,2.7779902999754995,235.06649409997044,237.9363272699411,2023-08-30 14:09:51.033551,2023-08-30 14:09:53.895161,SD029.jpg,0,10642,30-49,2023-08-30_14h06.17.570,Recall,2021.2.3,59.88938430851679,
,L_SD503.jpg,1,L_MF503.jpg,1,,,,,0,66,66,92,imgFunc,9,NA,2.8566207999829203,237.93976029998157,240.8934097699821,2023-08-30 14:09:53.902144,2023-08-30 14:09:56.847437,L_SD503.jpg,1,10642,30-49,2023-08-30_14h06.17.570,Recall,2021.2.3,59.88938430851679,
,SD036.jpg,0,MF036.jpg,0,,,,,0,67,67,85,imgFunc,1,NA,2.125514600018505,240.8870353999664,243.1068840699736,2023-08-30 14:09:56.854420,2023-08-30 14:09:59.065686,SD036.jpg,0,10642,30-49,2023-08-30_14h06.17.570,Recall,2021.2.3,59.88938430851679,
,DD016.jpg,0,FF016.jpg,0,,,,,0,68,68,15,imgFunc,1,NA,1.110410499968566,243.1179664999945,244.3368206699961,2023-08-30 14:09:59.072669,2023-08-30 14:10:00.283087,DD016.jpg,0,10642,30-49,2023-08-30_14h06.17.570,Recall,2021.2.3,59.88938430851679,
,DD011.jpg,0,FF011.jpg,0,,,,,0,69,69,10,imgFunc,1,NA,0.8948138999985531,244.3336966999923,245.3225055699586,2023-08-30 14:10:00.297052,2023-08-30 14:10:01.283771,DD011.jpg,0,10642,30-49,2023-08-30_14h06.17.570,Recall,2021.2.3,59.88938430851679,
,DD003.jpg,0,FF003.jpg,0,,,,,0,70,70,2,imgFunc,0,NA,1.8799543000059202,245.32427079998888,247.29435856995406,2023-08-30 14:10:01.290754,2023-08-30 14:10:03.252098,DD003.jpg,0,10642,30-49,2023-08-30_14h06.17.570,Recall,2021.2.3,59.88938430851679,
,DD022.jpg,0,FF022.jpg,0,,,,,0,71,71,21,imgFunc,9,NA,1.7891229999950156,247.29532540001674,249.17901286995038,2023-08-30 14:10:03.261076,2023-08-30 14:10:05.136468,DD022.jpg,0,10642,30-49,2023-08-30_14h06.17.570,Recall,2021.2.3,59.88938430851679,
,SD009.jpg,0,MF009.jpg,0,,,,,0,72,72,58,imgFunc,1,NA,1.4277521999902092,249.1767710999702,250.69574836996617,2023-08-30 14:10:05.144471,2023-08-30 14:10:06.654245,SD009.jpg,0,10642,30-49,2023-08-30_14h06.17.570,Recall,2021.2.3,59.88938430851679,
,SD019.jpg,0,MF019.jpg,0,,,,,0,73,73,68,imgFunc,2,NA,1.4018093000049703,250.7063934999751,252.20820016996004,2023-08-30 14:10:06.662248,2023-08-30 14:10:08.155063,SD019.jpg,0,10642,30-49,2023-08-30_14h06.17.570,Recall,2021.2.3,59.88938430851679,
,SD023.jpg,0,MF023.jpg,0,,,,,0,74,74,72,imgFunc,2,NA,0.8676024999585934,252.2005550999893,253.16955286997836,2023-08-30 14:10:08.162044,2023-08-30 14:10:09.122923,SD023.jpg,0,10642,30-49,2023-08-30_14h06.17.570,Recall,2021.2.3,59.88938430851679,
,SD028.jpg,0,MF028.jpg,0,,,,,0,75,75,77,imgFunc,0,NA,3.861039499985054,253.15947549999692,257.1138706700294,2023-08-30 14:10:09.129899,2023-08-30 14:10:13.075849,SD028.jpg,0,10642,30-49,2023-08-30_14h06.17.570,Recall,2021.2.3,59.88938430851679,
,SD003.jpg,0,MF003.jpg,0,,,,,0,76,76,52,imgFunc,9,NA,1.4991789999767207,257.1130729999859,258.6981161699514,2023-08-30 14:10:13.083852,2023-08-30 14:10:14.660519,SD003.jpg,0,10642,30-49,2023-08-30_14h06.17.570,Recall,2021.2.3,59.88938430851679,
,DD031.jpg,0,FF031.jpg,0,,,,,0,77,77,30,imgFunc,1,NA,1.2234717000392266,258.70895030000247,260.0281249700347,2023-08-30 14:10:14.667503,2023-08-30 14:10:15.978015,DD031.jpg,0,10642,30-49,2023-08-30_14h06.17.570,Recall,2021.2.3,59.88938430851679,
,L_DD503.jpg,1,L_FF503.jpg,1,,,,,0,78,78,42,imgFunc,1,NA,1.0390929999994114,260.02959200000623,261.170518369996,2023-08-30 14:10:15.991017,2023-08-30 14:10:17.128633,L_DD503.jpg,1,10642,30-49,2023-08-30_14h06.17.570,Recall,2021.2.3,59.88938430851679,
,SD006.jpg,0,MF006.jpg,0,,,,,0,79,79,55,imgFunc,1,NA,1.0177068000193685,261.17073229997186,262.2885150699876,2023-08-30 14:10:17.136614,2023-08-30 14:10:18.246232,SD006.jpg,0,10642,30-49,2023-08-30_14h06.17.570,Recall,2021.2.3,59.88938430851679,
,SD030.jpg,0,MF030.jpg,0,,,,,0,80,80,79,imgFunc,2,NA,2.0933344999793917,262.28698059997987,264.4736831699847,2023-08-30 14:10:18.253216,2023-08-30 14:10:20.431160,SD030.jpg,0,10642,30-49,2023-08-30_14h06.17.570,Recall,2021.2.3,59.88938430851679,
,DD038.jpg,0,FF038.jpg,0,,,,,0,81,81,37,imgFunc,1,NA,1.2326351000228897,264.4676060999627,265.7864758699434,2023-08-30 14:10:20.438144,2023-08-30 14:10:21.748113,DD038.jpg,0,10642,30-49,2023-08-30_14h06.17.570,Recall,2021.2.3,59.88938430851679,
,L_DD504.jpg,1,L_FF504.jpg,1,,,,,0,82,82,43,imgFunc,1,NA,0.8674406000063755,265.79299729998456,266.7629842699971,2023-08-30 14:10:21.756059,2023-08-30 14:10:22.717024,L_DD504.jpg,1,10642,30-49,2023-08-30_14h06.17.570,Recall,2021.2.3,59.88938430851679,
,SD002.jpg,0,MF002.jpg,0,,,,,0,83,83,51,imgFunc,0,NA,1.7670628000050783,266.7734206999885,268.6286895700032,2023-08-30 14:10:22.730989,2023-08-30 14:10:24.584322,SD002.jpg,0,10642,30-49,2023-08-30_14h06.17.570,Recall,2021.2.3,59.88938430851679,
,DD015.jpg,0,FF015.jpg,0,,,,,0,84,84,14,imgFunc,0,NA,1.1964968999964185,268.62383379996754,269.9095563699375,2023-08-30 14:10:24.591332,2023-08-30 14:10:25.868702,DD015.jpg,0,10642,30-49,2023-08-30_14h06.17.570,Recall,2021.2.3,59.88938430851679,
,DD032.jpg,0,FF032.jpg,0,,,,,0,85,85,31,imgFunc,1,NA,1.1892779000336304,269.911175599962,271.1966864699498,2023-08-30 14:10:25.875685,2023-08-30 14:10:27.152751,DD032.jpg,0,10642,30-49,2023-08-30_14h06.17.570,Recall,2021.2.3,59.88938430851679,
,DD029.jpg,0,FF029.jpg,0,,,,,0,86,86,28,imgFunc,2,NA,1.2489239000133239,271.19547719997354,272.54781156993704,2023-08-30 14:10:27.159734,2023-08-30 14:10:28.503668,DD029.jpg,0,10642,30-49,2023-08-30_14h06.17.570,Recall,2021.2.3,59.88938430851679,
,DD001.jpg,0,FF001.jpg,0,,,,,0,87,87,0,imgFunc,1,NA,0.792743000027258,272.54768000001786,273.4329214700265,2023-08-30 14:10:28.511672,2023-08-30 14:10:29.387923,DD001.jpg,0,10642,30-49,2023-08-30_14h06.17.570,Recall,2021.2.3,59.88938430851679,
,DD037.jpg,0,FF037.jpg,0,,,,,0,88,88,36,imgFunc,2,NA,0.8491293999832124,273.45135619997745,274.4029652699828,2023-08-30 14:10:29.403860,2023-08-30 14:10:30.355091,DD037.jpg,0,10642,30-49,2023-08-30_14h06.17.570,Recall,2021.2.3,59.88938430851679,
,SD032.jpg,0,MF032.jpg,0,,,,,0,89,89,81,imgFunc,9,NA,3.299523700028658,274.3929339000024,277.78041586995823,2023-08-30 14:10:30.362074,2023-08-30 14:10:33.741008,SD032.jpg,0,10642,30-49,2023-08-30_14h06.17.570,Recall,2021.2.3,59.88938430851679,
,L_SD504.jpg,1,L_MF504.jpg,1,,,,,0,90,90,93,imgFunc,0,NA,1.2762729999958538,277.78408810001565,279.15314757003216,2023-08-30 14:10:33.747992,2023-08-30 14:10:35.108412,L_SD504.jpg,1,10642,30-49,2023-08-30_14h06.17.570,Recall,2021.2.3,59.88938430851679,
,SD040.jpg,0,MF040.jpg,0,,,,,0,91,91,89,imgFunc,0,NA,1.519933499977924,279.14850129996194,280.7680589699885,2023-08-30 14:10:35.115395,2023-08-30 14:10:36.726417,SD040.jpg,0,10642,30-49,2023-08-30_14h06.17.570,Recall,2021.2.3,59.88938430851679,
,DD009.jpg,0,FF009.jpg,0,,,,,0,92,92,8,imgFunc,1,NA,1.337912100018002,280.77844269998604,282.2133013699786,2023-08-30 14:10:36.734397,2023-08-30 14:10:38.160333,DD009.jpg,0,10642,30-49,2023-08-30_14h06.17.570,Recall,2021.2.3,59.88938430851679,
,DD033.jpg,0,FF033.jpg,0,,,,,0,93,93,32,imgFunc,2,NA,1.896386899985373,282.19578329997603,284.17968647001544,2023-08-30 14:10:38.169307,2023-08-30 14:10:40.145066,DD033.jpg,0,10642,30-49,2023-08-30_14h06.17.570,Recall,2021.2.3,59.88938430851679,
,DD008.jpg,0,FF008.jpg,0,,,,,0,94,94,7,imgFunc,9,NA,1.8637478999444284,284.1808192000026,286.13390586996684,2023-08-30 14:10:40.152017,2023-08-30 14:10:42.096878,DD008.jpg,0,10642,30-49,2023-08-30_14h06.17.570,Recall,2021.2.3,59.88938430851679,
,SD015.jpg,0,MF015.jpg,0,,,,,0,95,95,64,imgFunc,9,NA,0.9255034000379965,286.1349468000117,287.1539922700031,2023-08-30 14:10:42.103861,2023-08-30 14:10:43.114404,SD015.jpg,0,10642,30-49,2023-08-30_14h06.17.570,Recall,2021.2.3,59.88938430851679,
,DD006.jpg,0,FF006.jpg,0,,,,,0,96,96,5,imgFunc,0,NA,1.7085782999638468,287.15991059999214,288.9627672699862,2023-08-30 14:10:43.121388,2023-08-30 14:10:44.915938,DD006.jpg,0,10642,30-49,2023-08-30_14h06.17.570,Recall,2021.2.3,59.88938430851679,
,SD014.jpg,0,MF014.jpg,0,,,,,0,97,97,63,imgFunc,9,NA,1.272325699974317,288.972167800006,290.34693906997563,2023-08-30 14:10:44.928905,2023-08-30 14:10:46.300150,SD014.jpg,0,10642,30-49,2023-08-30_14h06.17.570,Recall,2021.2.3,59.88938430851679,
,SD001.jpg,0,MF001.jpg,0,,,,,0,98,98,50,imgFunc,1,NA,1.18277010001475,290.3416151999845,291.6273348699906,2023-08-30 14:10:46.307133,2023-08-30 14:10:47.584390,SD001.jpg,0,10642,30-49,2023-08-30_14h06.17.570,Recall,2021.2.3,59.88938430851679,
,L_SD502.jpg,1,L_MF502.jpg,1,,,,,0,99,99,91,imgFunc,9,NA,2.5579195999889635,291.62263050000183,294.2758494699956,2023-08-30 14:10:47.591373,2023-08-30 14:10:50.236301,L_SD502.jpg,1,10642,30-49,2023-08-30_14h06.17.570,Recall,2021.2.3,59.88938430851679,
,,,,,,,,,,,,,instrFunc,space,"Great work! 

 Now you will switch to the other image type.

 Press the spacebar whenever you are ready to start.",2.712955499999225,294.2112899000058,296.96026006998727,2023-08-30 14:10:50.237302,2023-08-30 14:10:52.970433,,,10642,30-49,2023-08-30_14h06.17.570,Recall,2021.2.3,59.88938430851679,
,SD023.jpg,0,MF023.jpg,0,,,,,0,0,0,72,imgFunc,2,NA,15.550579999980982,297.05364629998803,312.70566683996003,2023-08-30 14:10:53.000355,2023-08-30 14:11:08.649460,MF023.jpg,0,10642,30-49,2023-08-30_14h06.17.570,Recall,2021.2.3,59.88938430851679,
,DD003.jpg,0,FF003.jpg,0,,,,,0,1,1,2,imgFunc,1,NA,2.349477600015234,312.7029068999691,315.15300816996023,2023-08-30 14:11:08.658409,2023-08-30 14:11:11.101428,FF003.jpg,0,10642,30-49,2023-08-30_14h06.17.570,Recall,2021.2.3,59.88938430851679,
,L_SD510.jpg,1,L_MF510.jpg,1,,,,,0,2,2,99,imgFunc,9,NA,3.610537899949122,315.14609120000387,318.8502873700345,2023-08-30 14:11:11.108411,2023-08-30 14:11:14.804432,L_MF510.jpg,1,10642,30-49,2023-08-30_14h06.17.570,Recall,2021.2.3,59.88938430851679,
,DD021.jpg,0,FF021.jpg,0,,,,,0,3,3,20,imgFunc,9,NA,2.606948399974499,318.8532635999727,321.548079769942,2023-08-30 14:11:14.816402,2023-08-30 14:11:17.506651,FF021.jpg,0,10642,30-49,2023-08-30_14h06.17.570,Recall,2021.2.3,59.88938430851679,
,SD034.jpg,0,MF034.jpg,0,,,,,0,4,4,83,imgFunc,1,NA,4.937885699968319,321.5465838999953,326.5844418699853,2023-08-30 14:11:17.513656,2023-08-30 14:11:22.543379,MF034.jpg,0,10642,30-49,2023-08-30_14h06.17.570,Recall,2021.2.3,59.88938430851679,
,DD016.jpg,0,FF016.jpg,0,,,,,0,5,5,15,imgFunc,2,NA,1.5687863000202924,326.5877974999603,328.25381566997385,2023-08-30 14:11:22.552357,2023-08-30 14:11:24.211137,FF016.jpg,0,10642,30-49,2023-08-30_14h06.17.570,Recall,2021.2.3,59.88938430851679,
,L_SD508.jpg,1,L_MF508.jpg,1,,,,,0,6,6,97,imgFunc,1,NA,2.428364999999758,328.2559987999848,330.77627776999725,2023-08-30 14:11:24.218120,2023-08-30 14:11:26.729723,L_MF508.jpg,1,10642,30-49,2023-08-30_14h06.17.570,Recall,2021.2.3,59.88938430851679,
,DD009.jpg,0,FF009.jpg,0,,,,,0,7,7,8,imgFunc,1,NA,1.069386899995152,330.79109149996657,331.9738467700081,2023-08-30 14:11:26.738701,2023-08-30 14:11:27.913799,FF009.jpg,0,10642,30-49,2023-08-30_14h06.17.570,Recall,2021.2.3,59.88938430851679,
,DD015.jpg,0,FF015.jpg,0,,,,,0,8,8,14,imgFunc,1,NA,0.8756177999894135,331.9609108999721,332.92946397000924,2023-08-30 14:11:27.920804,2023-08-30 14:11:28.880637,FF015.jpg,0,10642,30-49,2023-08-30_14h06.17.570,Recall,2021.2.3,59.88938430851679,
,DD023.jpg,0,FF023.jpg,0,,,,,0,9,9,22,imgFunc,2,NA,4.5466543000075035,332.92980410001474,337.5845450700144,2023-08-30 14:11:28.888640,2023-08-30 14:11:33.534525,FF023.jpg,0,10642,30-49,2023-08-30_14h06.17.570,Recall,2021.2.3,59.88938430851679,
,L_SD502.jpg,1,L_MF502.jpg,1,,,,,0,10,10,91,imgFunc,1,NA,1.424750000005588,337.58750630001305,339.119702970027,2023-08-30 14:11:33.543503,2023-08-30 14:11:35.068715,L_MF502.jpg,1,10642,30-49,2023-08-30_14h06.17.570,Recall,2021.2.3,59.88938430851679,
,SD013.jpg,0,MF013.jpg,0,,,,,0,11,11,62,imgFunc,1,NA,1.2527340999804437,339.1197863999987,340.47168267000234,2023-08-30 14:11:35.076694,2023-08-30 14:11:36.420279,MF013.jpg,0,10642,30-49,2023-08-30_14h06.17.570,Recall,2021.2.3,59.88938430851679,
,DD020.jpg,0,FF020.jpg,0,,,,,0,12,12,19,imgFunc,1,NA,1.023730200016871,340.46871439996175,341.5761197699467,2023-08-30 14:11:36.433246,2023-08-30 14:11:37.537597,FF020.jpg,0,10642,30-49,2023-08-30_14h06.17.570,Recall,2021.2.3,59.88938430851679,
,SD005.jpg,0,MF005.jpg,0,,,,,0,13,13,54,imgFunc,2,NA,1.9170009999652393,341.58321609999985,343.60226906999014,2023-08-30 14:11:37.544580,2023-08-30 14:11:39.555489,MF005.jpg,0,10642,30-49,2023-08-30_14h06.17.570,Recall,2021.2.3,59.88938430851679,
,DD036.jpg,0,FF036.jpg,0,,,,,0,14,14,35,imgFunc,2,NA,0.7923910000245087,343.59586289996514,344.47961366997333,2023-08-30 14:11:39.563496,2023-08-30 14:11:40.438732,FF036.jpg,0,10642,30-49,2023-08-30_14h06.17.570,Recall,2021.2.3,59.88938430851679,
,SD039.jpg,0,MF039.jpg,0,,,,,0,15,15,88,imgFunc,1,NA,1.054565400001593,344.48571769997943,345.63771346997237,2023-08-30 14:11:40.446709,2023-08-30 14:11:41.589762,MF039.jpg,0,10642,30-49,2023-08-30_14h06.17.570,Recall,2021.2.3,59.88938430851679,
,L_DD504.jpg,1,L_FF504.jpg,1,,,,,0,16,16,43,imgFunc,2,NA,1.581877299991902,345.6387299000053,347.3248746700119,2023-08-30 14:11:41.597741,2023-08-30 14:11:43.275084,L_FF504.jpg,1,10642,30-49,2023-08-30_14h06.17.570,Recall,2021.2.3,59.88938430851679,
,DD005.jpg,0,FF005.jpg,0,,,,,0,17,17,4,imgFunc,2,NA,1.8762786000152119,347.3361921000178,349.30535427003633,2023-08-30 14:11:43.291073,2023-08-30 14:11:45.259999,FF005.jpg,0,10642,30-49,2023-08-30_14h06.17.570,Recall,2021.2.3,59.88938430851679,
,SD040.jpg,0,MF040.jpg,0,,,,,0,18,18,89,imgFunc,1,NA,1.2895311000174843,349.3068239999702,350.69264086999465,2023-08-30 14:11:45.266982,2023-08-30 14:11:46.644352,MF040.jpg,0,10642,30-49,2023-08-30_14h06.17.570,Recall,2021.2.3,59.88938430851679,
,SD037.jpg,0,MF037.jpg,0,,,,,0,19,19,86,imgFunc,2,NA,2.0284071000060067,350.6880244999775,352.80772306997096,2023-08-30 14:11:46.651335,2023-08-30 14:11:48.762510,MF037.jpg,0,10642,30-49,2023-08-30_14h06.17.570,Recall,2021.2.3,59.88938430851679,
,DD037.jpg,0,FF037.jpg,0,,,,,0,20,20,36,imgFunc,1,NA,2.1303249999764375,352.80239219998475,355.022874569986,2023-08-30 14:11:48.769493,2023-08-30 14:11:50.981047,FF037.jpg,0,10642,30-49,2023-08-30_14h06.17.570,Recall,2021.2.3,59.88938430851679,
,SD019.jpg,0,MF019.jpg,0,,,,,0,21,21,68,imgFunc,1,NA,1.1689048000262119,355.03560810000636,356.3217076699948,2023-08-30 14:11:50.988031,2023-08-30 14:11:52.265191,MF019.jpg,0,10642,30-49,2023-08-30_14h06.17.570,Recall,2021.2.3,59.88938430851679,
,SD006.jpg,0,MF006.jpg,0,,,,,0,22,22,55,imgFunc,2,NA,0.8483096999698319,356.31623739999486,357.26906676997896,2023-08-30 14:11:52.272174,2023-08-30 14:11:53.215703,MF006.jpg,0,10642,30-49,2023-08-30_14h06.17.570,Recall,2021.2.3,59.88938430851679,
,SD003.jpg,0,MF003.jpg,0,,,,,0,23,23,52,imgFunc,2,NA,2.3671663000131957,357.26140139997005,359.73125286994036,2023-08-30 14:11:53.222686,2023-08-30 14:11:55.684347,MF003.jpg,0,10642,30-49,2023-08-30_14h06.17.570,Recall,2021.2.3,59.88938430851679,
,DD025.jpg,0,FF025.jpg,0,,,,,0,24,24,24,imgFunc,2,NA,0.9830622999579646,359.72543170000426,360.81178566999733,2023-08-30 14:11:55.691330,2023-08-30 14:11:56.768477,FF025.jpg,0,10642,30-49,2023-08-30_14h06.17.570,Recall,2021.2.3,59.88938430851679,
,DD024.jpg,0,FF024.jpg,0,,,,,0,25,25,23,imgFunc,1,NA,1.7334258999908343,360.8230508000124,362.65965586999664,2023-08-30 14:11:56.775460,2023-08-30 14:11:58.603092,FF024.jpg,0,10642,30-49,2023-08-30_14h06.17.570,Recall,2021.2.3,59.88938430851679,
,DD004.jpg,0,FF004.jpg,0,,,,,0,26,26,3,imgFunc,1,NA,0.8072197000146843,362.661367099965,363.5683480699663,2023-08-30 14:11:58.616058,2023-08-30 14:11:59.520512,FF004.jpg,0,10642,30-49,2023-08-30_14h06.17.570,Recall,2021.2.3,59.88938430851679,
,SD002.jpg,0,MF002.jpg,0,,,,,0,27,27,51,imgFunc,1,NA,1.0720485000056215,363.56456219998654,364.7336436699843,2023-08-30 14:11:59.527495,2023-08-30 14:12:00.687716,MF002.jpg,0,10642,30-49,2023-08-30_14h06.17.570,Recall,2021.2.3,59.88938430851679,
,DD006.jpg,0,FF006.jpg,0,,,,,0,28,28,5,imgFunc,2,NA,1.1447078000055626,364.73177469999064,365.9676188699668,2023-08-30 14:12:00.695550,2023-08-30 14:12:01.922314,FF006.jpg,0,10642,30-49,2023-08-30_14h06.17.570,Recall,2021.2.3,59.88938430851679,
,DD018.jpg,0,FF018.jpg,0,,,,,0,29,29,17,imgFunc,2,NA,1.686482299992349,365.96609379997244,367.75202946999343,2023-08-30 14:12:01.929297,2023-08-30 14:12:03.706696,FF018.jpg,0,10642,30-49,2023-08-30_14h06.17.570,Recall,2021.2.3,59.88938430851679,
,SD010.jpg,0,MF010.jpg,0,,,,,0,30,30,59,imgFunc,1,NA,1.1041645999648608,367.75619869999355,368.9576134700328,2023-08-30 14:12:03.714678,2023-08-30 14:12:04.907658,MF010.jpg,0,10642,30-49,2023-08-30_14h06.17.570,Recall,2021.2.3,59.88938430851679,
,SD038.jpg,0,MF038.jpg,0,,,,,0,31,31,87,imgFunc,1,NA,1.051913000002969,368.96853589999955,370.1220430699759,2023-08-30 14:12:04.922620,2023-08-30 14:12:06.075096,MF038.jpg,0,10642,30-49,2023-08-30_14h06.17.570,Recall,2021.2.3,59.88938430851679,
,L_DD507.jpg,1,L_FF507.jpg,1,,,,,0,32,32,46,imgFunc,2,NA,1.3328841000329703,370.11969650001265,371.55565116996877,2023-08-30 14:12:06.082080,2023-08-30 14:12:07.509533,L_FF507.jpg,1,10642,30-49,2023-08-30_14h06.17.570,Recall,2021.2.3,59.88938430851679,
,DD012.jpg,0,FF012.jpg,0,,,,,0,33,33,11,imgFunc,1,NA,1.4513451000093482,371.5528742999886,373.10540817002766,2023-08-30 14:12:07.516516,2023-08-30 14:12:09.060008,FF012.jpg,0,10642,30-49,2023-08-30_14h06.17.570,Recall,2021.2.3,59.88938430851679,
,L_SD505.jpg,1,L_MF505.jpg,1,,,,,0,34,34,94,imgFunc,2,NA,1.5220827999874018,373.1060699999798,374.725957669958,2023-08-30 14:12:09.066959,2023-08-30 14:12:10.678593,L_MF505.jpg,1,10642,30-49,2023-08-30_14h06.17.570,Recall,2021.2.3,59.88938430851679,
,DD028.jpg,0,FF028.jpg,0,,,,,0,35,35,27,imgFunc,1,NA,1.0747001999989152,374.73766119999345,375.923584169941,2023-08-30 14:12:10.685577,2023-08-30 14:12:11.862792,FF028.jpg,0,10642,30-49,2023-08-30_14h06.17.570,Recall,2021.2.3,59.88938430851679,
,SD008.jpg,0,MF008.jpg,0,,,,,0,36,36,57,imgFunc,2,NA,1.615596399991773,375.9089212999679,377.62761846993817,2023-08-30 14:12:11.870773,2023-08-30 14:12:13.580604,MF008.jpg,0,10642,30-49,2023-08-30_14h06.17.570,Recall,2021.2.3,59.88938430851679,
,SD015.jpg,0,MF015.jpg,0,,,,,0,37,37,64,imgFunc,1,NA,0.8127628000220284,377.6234732000157,378.5419566700002,2023-08-30 14:12:13.588584,2023-08-30 14:12:14.497902,MF015.jpg,0,10642,30-49,2023-08-30_14h06.17.570,Recall,2021.2.3,59.88938430851679,
,L_SD506.jpg,1,L_MF506.jpg,1,,,,,0,38,38,95,imgFunc,1,NA,0.9912168000009842,378.5412818999612,379.6272973699961,2023-08-30 14:12:14.504771,2023-08-30 14:12:15.582263,L_MF506.jpg,1,10642,30-49,2023-08-30_14h06.17.570,Recall,2021.2.3,59.88938430851679,
,SD032.jpg,0,MF032.jpg,0,,,,,0,39,39,81,imgFunc,2,NA,0.8392959000193514,379.6372729999712,380.58838166994974,2023-08-30 14:12:15.590244,2023-08-30 14:12:16.532702,MF032.jpg,0,10642,30-49,2023-08-30_14h06.17.570,Recall,2021.2.3,59.88938430851679,
,L_DD509.jpg,1,L_FF509.jpg,1,,,,,0,40,40,48,imgFunc,1,NA,0.8503724000183865,380.5861493999837,381.5257089699735,2023-08-30 14:12:16.546511,2023-08-30 14:12:17.483526,L_FF509.jpg,1,10642,30-49,2023-08-30_14h06.17.570,Recall,2021.2.3,59.88938430851679,
,SD011.jpg,0,MF011.jpg,0,,,,,0,41,41,60,imgFunc,1,NA,1.0287924999720417,381.52761009999085,382.6637195699732,2023-08-30 14:12:17.490509,2023-08-30 14:12:18.617607,MF011.jpg,0,10642,30-49,2023-08-30_14h06.17.570,Recall,2021.2.3,59.88938430851679,
,L_DD503.jpg,1,L_FF503.jpg,1,,,,,0,42,42,42,imgFunc,2,NA,1.2635596999898553,382.6608602000051,384.030349669978,2023-08-30 14:12:18.624590,2023-08-30 14:12:19.985234,L_FF503.jpg,1,10642,30-49,2023-08-30_14h06.17.570,Recall,2021.2.3,59.88938430851679,
,SD031.jpg,0,MF031.jpg,0,,,,,0,43,43,80,imgFunc,1,NA,0.9749912000261247,384.0292432999704,385.0974721699604,2023-08-30 14:12:19.993055,2023-08-30 14:12:21.052219,MF031.jpg,0,10642,30-49,2023-08-30_14h06.17.570,Recall,2021.2.3,59.88938430851679,
,SD017.jpg,0,MF017.jpg,0,,,,,0,44,44,66,imgFunc,2,NA,0.9165175000089221,385.1196857999894,386.1512134699733,2023-08-30 14:12:21.062189,2023-08-30 14:12:22.086655,MF017.jpg,0,10642,30-49,2023-08-30_14h06.17.570,Recall,2021.2.3,59.88938430851679,
,DD014.jpg,0,FF014.jpg,0,,,,,0,45,45,13,imgFunc,0,NA,1.9893268999876454,386.1429778999882,388.2313772699563,2023-08-30 14:12:22.100625,2023-08-30 14:12:24.188078,FF014.jpg,0,10642,30-49,2023-08-30_14h06.17.570,Recall,2021.2.3,59.88938430851679,
,L_DD502.jpg,1,L_FF502.jpg,1,,,,,0,46,46,41,imgFunc,9,NA,1.341002999979537,388.2715097999899,389.7545538699487,2023-08-30 14:12:24.197081,2023-08-30 14:12:25.672849,L_FF502.jpg,1,10642,30-49,2023-08-30_14h06.17.570,Recall,2021.2.3,59.88938430851679,
,L_DD506.jpg,1,L_FF506.jpg,1,,,,,0,47,47,45,imgFunc,1,NA,2.5534985999693163,389.72273759997915,392.37625506991753,2023-08-30 14:12:25.679855,2023-08-30 14:12:28.324469,L_FF506.jpg,1,10642,30-49,2023-08-30_14h06.17.570,Recall,2021.2.3,59.88938430851679,
,L_DD510.jpg,1,L_FF510.jpg,1,,,,,0,48,48,49,imgFunc,0,NA,2.0422645999933593,392.3859314000001,394.532594469958,2023-08-30 14:12:28.335439,2023-08-30 14:12:30.476293,L_FF510.jpg,1,10642,30-49,2023-08-30_14h06.17.570,Recall,2021.2.3,59.88938430851679,
,SD025.jpg,0,MF025.jpg,0,,,,,0,49,49,74,imgFunc,0,NA,0.9458378999843262,394.538512500003,395.60520307003753,2023-08-30 14:12:30.484274,2023-08-30 14:12:31.542863,MF025.jpg,0,10642,30-49,2023-08-30_14h06.17.570,Recall,2021.2.3,59.88938430851679,
,L_SD504.jpg,1,L_MF504.jpg,1,,,,,0,50,50,93,imgFunc,0,NA,1.875150699983351,395.5853866999969,397.5531047700206,2023-08-30 14:12:31.551838,2023-08-30 14:12:33.511699,L_MF504.jpg,1,10642,30-49,2023-08-30_14h06.17.570,Recall,2021.2.3,59.88938430851679,
,DD030.jpg,0,FF030.jpg,0,,,,,0,51,51,29,imgFunc,2,NA,1.504410800000187,397.55620659998385,399.15949127002386,2023-08-30 14:12:33.518682,2023-08-30 14:12:35.113035,FF030.jpg,0,10642,30-49,2023-08-30_14h06.17.570,Recall,2021.2.3,59.88938430851679,
,DD007.jpg,0,FF007.jpg,0,,,,,0,52,52,6,imgFunc,1,NA,2.0883994000032544,399.15622810000787,401.342634969973,2023-08-30 14:12:35.120041,2023-08-30 14:12:37.297953,FF007.jpg,0,10642,30-49,2023-08-30_14h06.17.570,Recall,2021.2.3,59.88938430851679,
,DD017.jpg,0,FF017.jpg,0,,,,,0,53,53,16,imgFunc,2,NA,1.6082958999904804,401.33999579999363,403.04246186994715,2023-08-30 14:12:37.304936,2023-08-30 14:12:38.999222,FF017.jpg,0,10642,30-49,2023-08-30_14h06.17.570,Recall,2021.2.3,59.88938430851679,
,DD039.jpg,0,FF039.jpg,0,,,,,0,54,54,38,imgFunc,1,NA,1.4794721000362188,403.0529768000124,404.62744027003646,2023-08-30 14:12:39.012188,2023-08-30 14:12:40.583567,FF039.jpg,0,10642,30-49,2023-08-30_14h06.17.570,Recall,2021.2.3,59.88938430851679,
,DD032.jpg,0,FF032.jpg,0,,,,,0,55,55,31,imgFunc,1,NA,1.6224958999664523,404.6221175999963,406.3421544699813,2023-08-30 14:12:40.590550,2023-08-30 14:12:42.301670,FF032.jpg,0,10642,30-49,2023-08-30_14h06.17.570,Recall,2021.2.3,59.88938430851679,
,SD026.jpg,0,MF026.jpg,0,,,,,0,56,56,75,imgFunc,9,NA,1.4384337000083178,406.3422050999943,407.87843296997016,2023-08-30 14:12:42.308653,2023-08-30 14:12:43.836042,MF026.jpg,0,10642,30-49,2023-08-30_14h06.17.570,Recall,2021.2.3,59.88938430851679,
,DD019.jpg,0,FF019.jpg,0,,,,,0,57,57,18,imgFunc,0,NA,1.2270916000124998,407.88149539998267,409.2164327700157,2023-08-30 14:12:43.844023,2023-08-30 14:12:45.170375,FF019.jpg,0,10642,30-49,2023-08-30_14h06.17.570,Recall,2021.2.3,59.88938430851679,
,SD021.jpg,0,MF021.jpg,0,,,,,0,58,58,70,imgFunc,9,NA,1.5111019000178203,409.22150739998324,410.84078496991424,2023-08-30 14:12:45.177359,2023-08-30 14:12:46.788366,MF021.jpg,0,10642,30-49,2023-08-30_14h06.17.570,Recall,2021.2.3,59.88938430851679,
,SD009.jpg,0,MF009.jpg,0,,,,,0,59,59,58,imgFunc,0,NA,1.0354925999999978,410.8491534999921,411.98401307000313,2023-08-30 14:12:46.804356,2023-08-30 14:12:47.939060,MF009.jpg,0,10642,30-49,2023-08-30_14h06.17.570,Recall,2021.2.3,59.88938430851679,
,SD029.jpg,0,MF029.jpg,0,,,,,0,60,60,78,imgFunc,9,NA,1.3994764999952167,411.9811079999781,413.4837403699639,2023-08-30 14:12:47.946043,2023-08-30 14:12:49.440130,MF029.jpg,0,10642,30-49,2023-08-30_14h06.17.570,Recall,2021.2.3,59.88938430851679,
,L_SD501.jpg,1,L_MF501.jpg,1,,,,,0,61,61,90,imgFunc,0,NA,2.698181699961424,413.4820777999703,416.28579526994145,2023-08-30 14:12:49.447113,2023-08-30 14:12:52.242161,L_MF501.jpg,1,10642,30-49,2023-08-30_14h06.17.570,Recall,2021.2.3,59.88938430851679,
,SD022.jpg,0,MF022.jpg,0,,,,,0,62,62,71,imgFunc,2,NA,1.6626323999953456,416.30182280001463,418.08514266996644,2023-08-30 14:12:52.251140,2023-08-30 14:12:54.026681,MF022.jpg,0,10642,30-49,2023-08-30_14h06.17.570,Recall,2021.2.3,59.88938430851679,
,L_SD503.jpg,1,L_MF503.jpg,1,,,,,0,63,63,92,imgFunc,1,NA,1.6576908000279218,418.08286550000776,419.849046170013,2023-08-30 14:12:54.035682,2023-08-30 14:12:55.794809,L_MF503.jpg,1,10642,30-49,2023-08-30_14h06.17.570,Recall,2021.2.3,59.88938430851679,
,L_SD509.jpg,1,L_MF509.jpg,1,,,,,0,64,64,98,imgFunc,1,NA,0.9311889000236988,419.84146119997604,420.8748882699292,2023-08-30 14:12:55.802789,2023-08-30 14:12:56.829006,L_MF509.jpg,1,10642,30-49,2023-08-30_14h06.17.570,Recall,2021.2.3,59.88938430851679,
,SD014.jpg,0,MF014.jpg,0,,,,,0,65,65,63,imgFunc,1,NA,1.3999286000034772,420.8686017,422.3715334699955,2023-08-30 14:12:56.835990,2023-08-30 14:12:58.329866,MF014.jpg,0,10642,30-49,2023-08-30_14h06.17.570,Recall,2021.2.3,59.88938430851679,
,SD024.jpg,0,MF024.jpg,0,,,,,0,66,66,73,imgFunc,0,NA,1.2413305999943987,422.37927199999103,423.7318282700144,2023-08-30 14:12:58.336872,2023-08-30 14:12:59.681137,MF024.jpg,0,10642,30-49,2023-08-30_14h06.17.570,Recall,2021.2.3,59.88938430851679,
,SD033.jpg,0,MF033.jpg,0,,,,,0,67,67,82,imgFunc,0,NA,1.1173266000114381,423.73526829999173,424.97073107003234,2023-08-30 14:12:59.688121,2023-08-30 14:13:00.915215,MF033.jpg,0,10642,30-49,2023-08-30_14h06.17.570,Recall,2021.2.3,59.88938430851679,
,DD034.jpg,0,FF034.jpg,0,,,,,0,68,68,33,imgFunc,2,NA,2.7450691999983974,424.9714847999858,427.8125282700057,2023-08-30 14:13:00.929180,2023-08-30 14:13:03.767496,FF034.jpg,0,10642,30-49,2023-08-30_14h06.17.570,Recall,2021.2.3,59.88938430851679,
,DD011.jpg,0,FF011.jpg,0,,,,,0,69,69,10,imgFunc,2,NA,2.160636999993585,427.82001979998313,430.0729766699369,2023-08-30 14:13:03.783455,2023-08-30 14:13:06.035746,FF011.jpg,0,10642,30-49,2023-08-30_14h06.17.570,Recall,2021.2.3,59.88938430851679,
,L_DD505.jpg,1,L_FF505.jpg,1,,,,,0,70,70,44,imgFunc,1,NA,1.1213363999850117,430.08313919999637,431.3022200699779,2023-08-30 14:13:06.042749,2023-08-30 14:13:07.253425,L_FF505.jpg,1,10642,30-49,2023-08-30_14h06.17.570,Recall,2021.2.3,59.88938430851679,
,DD027.jpg,0,FF027.jpg,0,,,,,0,71,71,26,imgFunc,0,NA,2.0590392000158317,431.29736079997383,433.4504492699634,2023-08-30 14:13:07.260408,2023-08-30 14:13:09.404000,FF027.jpg,0,10642,30-49,2023-08-30_14h06.17.570,Recall,2021.2.3,59.88938430851679,
,DD013.jpg,0,FF013.jpg,0,,,,,0,72,72,12,imgFunc,0,NA,3.610307599999942,433.4502688999637,437.15456486993935,2023-08-30 14:13:09.411984,2023-08-30 14:13:13.107705,FF013.jpg,0,10642,30-49,2023-08-30_14h06.17.570,Recall,2021.2.3,59.88938430851679,
,SD027.jpg,0,MF027.jpg,0,,,,,0,73,73,76,imgFunc,9,NA,1.3386604999541305,437.16998619999504,438.6088643699768,2023-08-30 14:13:13.121669,2023-08-30 14:13:14.558509,MF027.jpg,0,10642,30-49,2023-08-30_14h06.17.570,Recall,2021.2.3,59.88938430851679,
,SD028.jpg,0,MF028.jpg,0,,,,,0,74,74,77,imgFunc,1,NA,1.3957531999913044,438.6007055999944,440.1031653699465,2023-08-30 14:13:14.565514,2023-08-30 14:13:16.059585,MF028.jpg,0,10642,30-49,2023-08-30_14h06.17.570,Recall,2021.2.3,59.88938430851679,
,SD030.jpg,0,MF030.jpg,0,,,,,0,75,75,79,imgFunc,2,NA,0.9563383999629878,440.1041378999944,441.1565758699435,2023-08-30 14:13:16.066568,2023-08-30 14:13:17.110385,MF030.jpg,0,10642,30-49,2023-08-30_14h06.17.570,Recall,2021.2.3,59.88938430851679,
,DD026.jpg,0,FF026.jpg,0,,,,,0,76,76,25,imgFunc,9,NA,1.495120199979283,441.15752559999237,442.7604740699753,2023-08-30 14:13:17.117369,2023-08-30 14:13:18.711563,FF026.jpg,0,10642,30-49,2023-08-30_14h06.17.570,Recall,2021.2.3,59.88938430851679,
,SD020.jpg,0,MF020.jpg,0,,,,,0,77,77,69,imgFunc,1,NA,1.0017794000450522,442.762775900017,443.86354467005003,2023-08-30 14:13:18.719566,2023-08-30 14:13:19.812271,MF020.jpg,0,10642,30-49,2023-08-30_14h06.17.570,Recall,2021.2.3,59.88938430851679,
,SD035.jpg,0,MF035.jpg,0,,,,,0,78,78,84,imgFunc,0,NA,0.8649949000100605,443.8514058999717,444.82046997,2023-08-30 14:13:19.819286,2023-08-30 14:13:20.779902,MF035.jpg,0,10642,30-49,2023-08-30_14h06.17.570,Recall,2021.2.3,59.88938430851679,
,DD022.jpg,0,FF022.jpg,0,,,,,0,79,79,21,imgFunc,2,NA,2.813660699990578,444.8228459999664,447.7433334699599,2023-08-30 14:13:20.786885,2023-08-30 14:13:23.698597,FF022.jpg,0,10642,30-49,2023-08-30_14h06.17.570,Recall,2021.2.3,59.88938430851679,
,L_SD507.jpg,1,L_MF507.jpg,1,,,,,0,80,80,96,imgFunc,1,NA,1.1566266000154428,447.7437503999681,448.9966249699937,2023-08-30 14:13:23.705580,2023-08-30 14:13:24.949731,L_MF507.jpg,1,10642,30-49,2023-08-30_14h06.17.570,Recall,2021.2.3,59.88938430851679,
,DD035.jpg,0,FF035.jpg,0,,,,,0,81,81,34,imgFunc,1,NA,0.9460650000255555,449.0021876000101,450.05423956998857,2023-08-30 14:13:24.956714,2023-08-30 14:13:26.000235,FF035.jpg,0,10642,30-49,2023-08-30_14h06.17.570,Recall,2021.2.3,59.88938430851679,
,L_DD501.jpg,1,L_FF501.jpg,1,,,,,0,82,82,40,imgFunc,0,NA,1.1337892999872565,450.05451190000167,451.29492106998805,2023-08-30 14:13:26.013202,2023-08-30 14:13:27.251238,L_FF501.jpg,1,10642,30-49,2023-08-30_14h06.17.570,Recall,2021.2.3,59.88938430851679,
,L_DD508.jpg,1,L_FF508.jpg,1,,,,,0,83,83,47,imgFunc,2,NA,1.4000850000302307,451.29255700000795,452.79492206999566,2023-08-30 14:13:27.258221,2023-08-30 14:13:28.752212,L_FF508.jpg,1,10642,30-49,2023-08-30_14h06.17.570,Recall,2021.2.3,59.88938430851679,
,SD016.jpg,0,MF016.jpg,0,,,,,0,84,84,65,imgFunc,1,NA,1.388196500018239,452.7923672000179,454.2781797700445,2023-08-30 14:13:28.759195,2023-08-30 14:13:30.236579,MF016.jpg,0,10642,30-49,2023-08-30_14h06.17.570,Recall,2021.2.3,59.88938430851679,
,SD001.jpg,0,MF001.jpg,0,,,,,0,85,85,50,imgFunc,1,NA,0.9987375999917276,454.28590999997687,455.387820969976,2023-08-30 14:13:30.243585,2023-08-30 14:13:31.337326,MF001.jpg,0,10642,30-49,2023-08-30_14h06.17.570,Recall,2021.2.3,59.88938430851679,
,DD001.jpg,0,FF001.jpg,0,,,,,0,86,86,0,imgFunc,1,NA,1.3423335999832489,455.3903117000009,456.84326927002985,2023-08-30 14:13:31.344309,2023-08-30 14:13:32.788629,FF001.jpg,0,10642,30-49,2023-08-30_14h06.17.570,Recall,2021.2.3,59.88938430851679,
,DD029.jpg,0,FF029.jpg,0,,,,,0,87,87,28,imgFunc,0,NA,1.1942745000123978,456.84208749997197,458.13137206993997,2023-08-30 14:13:32.802594,2023-08-30 14:13:34.089295,FF029.jpg,0,10642,30-49,2023-08-30_14h06.17.570,Recall,2021.2.3,59.88938430851679,
,SD012.jpg,0,MF012.jpg,0,,,,,0,88,88,61,imgFunc,9,NA,2.850625300023239,458.1298425999703,461.083270569914,2023-08-30 14:13:34.097298,2023-08-30 14:13:37.041664,MF012.jpg,0,10642,30-49,2023-08-30_14h06.17.570,Recall,2021.2.3,59.88938430851679,
,DD031.jpg,0,FF031.jpg,0,,,,,0,89,89,30,imgFunc,0,NA,1.0963773999828845,461.08391079999274,462.2850321699516,2023-08-30 14:13:37.049488,2023-08-30 14:13:38.242102,FF031.jpg,0,10642,30-49,2023-08-30_14h06.17.570,Recall,2021.2.3,59.88938430851679,
,DD002.jpg,0,FF002.jpg,0,,,,,0,90,90,1,imgFunc,9,NA,0.8749016000074334,462.29745830001775,463.28275916998973,2023-08-30 14:13:38.249082,2023-08-30 14:13:39.226082,FF002.jpg,0,10642,30-49,2023-08-30_14h06.17.570,Recall,2021.2.3,59.88938430851679,
,DD008.jpg,0,FF008.jpg,0,,,,,0,91,91,7,imgFunc,9,NA,0.7429940000292845,463.27729319996433,464.1292278699111,2023-08-30 14:13:39.234059,2023-08-30 14:13:40.076274,FF008.jpg,0,10642,30-49,2023-08-30_14h06.17.570,Recall,2021.2.3,59.88938430851679,
,SD036.jpg,0,MF036.jpg,0,,,,,0,92,92,85,imgFunc,1,NA,1.4681253000162542,464.12052880000556,465.68956076999893,2023-08-30 14:13:40.084221,2023-08-30 14:13:41.644966,MF036.jpg,0,10642,30-49,2023-08-30_14h06.17.570,Recall,2021.2.3,59.88938430851679,
,DD040.jpg,0,FF040.jpg,0,,,,,0,93,93,39,imgFunc,1,NA,1.2089222999638878,465.6837753999862,466.9863616700168,2023-08-30 14:13:41.651949,2023-08-30 14:13:42.945822,FF040.jpg,0,10642,30-49,2023-08-30_14h06.17.570,Recall,2021.2.3,59.88938430851679,
,SD018.jpg,0,MF018.jpg,0,,,,,0,94,94,67,imgFunc,9,NA,2.8806346000055782,466.9878006000072,469.97482196998317,2023-08-30 14:13:42.952806,2023-08-30 14:13:45.931125,MF018.jpg,0,10642,30-49,2023-08-30_14h06.17.570,Recall,2021.2.3,59.88938430851679,
,SD007.jpg,0,MF007.jpg,0,,,,,0,95,95,56,imgFunc,2,NA,3.1049511000164784,469.98773599998094,473.2077632699511,2023-08-30 14:13:45.939128,2023-08-30 14:13:49.150505,MF007.jpg,0,10642,30-49,2023-08-30_14h06.17.570,Recall,2021.2.3,59.88938430851679,
,SD004.jpg,0,MF004.jpg,0,,,,,0,96,96,53,imgFunc,0,NA,1.704118199995719,473.2041712999926,475.00847996998345,2023-08-30 14:13:49.165467,2023-08-30 14:13:50.968497,MF004.jpg,0,10642,30-49,2023-08-30_14h06.17.570,Recall,2021.2.3,59.88938430851679,
,DD033.jpg,0,FF033.jpg,0,,,,,0,97,97,32,imgFunc,1,NA,1.5674226999981329,475.01335039996775,476.68285146995913,2023-08-30 14:13:50.975481,2023-08-30 14:13:52.636438,FF033.jpg,0,10642,30-49,2023-08-30_14h06.17.570,Recall,2021.2.3,59.88938430851679,
,DD038.jpg,0,FF038.jpg,0,,,,,0,98,98,37,imgFunc,0,NA,1.0477170000085607,476.6848691999912,477.8371652700007,2023-08-30 14:13:52.643426,2023-08-30 14:13:53.787251,FF038.jpg,0,10642,30-49,2023-08-30_14h06.17.570,Recall,2021.2.3,59.88938430851679,
,DD010.jpg,0,FF010.jpg,0,,,,,0,99,99,9,imgFunc,1,NA,1.6876128999865614,477.8369959999691,479.64010417001555,2023-08-30 14:13:53.794234,2023-08-30 14:13:55.588367,FF010.jpg,0,10642,30-49,2023-08-30_14h06.17.570,Recall,2021.2.3,59.88938430851679,
