onset	duration	trial_type	rt	resp	gender	image_left	image_right
0.6306000000331551	3.001992900040932	decision	2.0326379999751225	left	M	MF001.jpg	MF002.jpg
4.180529400007799	1.0000044000335038	win	n/a	n/a	n/a	MF001.jpg	MF002.jpg
11.147344700060785	3.000961699988693	decision	2.0323708000360057	right	M	MF003.jpg	MF004.jpg
14.69722620001994	1.0000447999918833	loss	n/a	n/a	n/a	MF003.jpg	MF004.jpg
17.44722610001918	3.0016160000814125	decision	2.533408800023608	left	M	MF005.jpg	MF006.jpg
20.99739600007888	1.0163824999472126	win	n/a	n/a	n/a	MF005.jpg	MF006.jpg
23.763956600101665	3.0012549998937175	decision	2.0326500999508426	left	F	FF001.jpg	FF002.jpg
27.313890199991874	1.00006840005517	win	n/a	n/a	n/a	FF001.jpg	FF002.jpg
32.164062099996954	3.0010405000066385	decision	2.2824280000058934	left	F	FF003.jpg	FF004.jpg
35.71373560000211	1.0000349000329152	loss	n/a	n/a	n/a	FF003.jpg	FF004.jpg
42.66385800007265	3.03460469993297	decision	3.0341456999303773	left	M	MF007.jpg	MF008.jpg
46.24721590010449	1.0165480999276042	loss	n/a	n/a	n/a	MF007.jpg	MF008.jpg
51.11397649999708	3.0011512000346556	decision	2.5325070000253618	right	M	MF009.jpg	MF010.jpg
54.663624500040896	1.0167383999796584	win	n/a	n/a	n/a	MF009.jpg	MF010.jpg
59.53042990004178	3.0012485999614	decision	2.7834592000581324	left	F	FF005.jpg	FF006.jpg
63.08044430008158	1.0167316999286413	loss	n/a	n/a	n/a	FF005.jpg	FF006.jpg
65.84702660003677	3.0017562999855727	decision	1.5337231999728829	right	F	FF007.jpg	FF008.jpg
69.39713410008699	1.0164808999979869	win	n/a	n/a	n/a	FF007.jpg	FF008.jpg
72.1637792000547	3.0014237000141293	decision	2.283745800028555	left	F	FF009.jpg	FF010.jpg
75.71405100007541	1.0162970999954268	win	n/a	n/a	n/a	FF009.jpg	FF010.jpg
78.48046700004488	3.001484900014475	decision	2.2833103999728337	left	F	FF011.jpg	FF012.jpg
82.03031470009591	1.000094399903901	loss	n/a	n/a	n/a	FF011.jpg	FF012.jpg
86.88058240001556	3.001174099976197	decision	2.033083499991335	right	M	MF011.jpg	MF012.jpg
90.43031110009179	1.016680800006725	loss	n/a	n/a	n/a	MF011.jpg	MF012.jpg
93.19710180000402	3.0019423000048846	decision	1.532524700043723	right	M	MF013.jpg	MF014.jpg
96.74708170001395	1.0166041000047699	win	n/a	n/a	n/a	MF013.jpg	MF014.jpg
103.71389720006846	3.0009380999254063	decision	2.5323939999798313	right	M	MF015.jpg	MF016.jpg
107.26366920000874	1.0000213000457734	win	n/a	n/a	n/a	MF015.jpg	MF016.jpg
110.01364360004663	3.000828900025226	decision	1.782356100040488	right	F	FF013.jpg	FF014.jpg
113.56357980007306	1.0000472000101581	win	n/a	n/a	n/a	FF013.jpg	FF014.jpg
120.51353230001405	3.0012464000610635	decision	2.0327496000099927	right	M	MF017.jpg	MF018.jpg
124.06356740009505	1.0167198999552056	win	n/a	n/a	n/a	MF017.jpg	MF018.jpg
128.93043340009172	3.001376700005494	decision	2.2823864999227226	right	F	FF015.jpg	FF016.jpg
132.48020450002514	1.0001134000485763	win	n/a	n/a	n/a	FF015.jpg	FF016.jpg
137.33014650002588	3.0012876000255346	decision	1.7825788999907672	right	M	MF019.jpg	MF020.jpg
140.88016709999647	1.0000037000281736	win	n/a	n/a	n/a	MF019.jpg	MF020.jpg
145.73027820000425	3.0023132000351325	decision	2.532904800027609	left	F	FF017.jpg	FF018.jpg
149.28012840007432	1.0001047999830917	win	n/a	n/a	n/a	FF017.jpg	FF018.jpg
162.5301895000739	3.0003967999946326	decision	2.2840548999374732	left	M	MF021.jpg	MF022.jpg
166.08015040005557	1.0165452000219375	loss	n/a	n/a	n/a	MF021.jpg	MF022.jpg
173.04683060001116	3.0011730000842363	decision	1.7825746000744402	right	M	MF023.jpg	MF024.jpg
176.59677060006652	1.00024979992304	win	n/a	n/a	n/a	MF023.jpg	MF024.jpg
183.54693190008402	3.0016686000162736	decision	1.5324223999632522	right	M	MF025.jpg	MF026.jpg
187.09641870006453	1.000054799951613	loss	n/a	n/a	n/a	MF025.jpg	MF026.jpg
191.94670580001548	3.0018036999972537	decision	2.033833699999377	right	M	MF027.jpg	MF028.jpg
195.4966415000381	1.0165660000639036	loss	n/a	n/a	n/a	MF027.jpg	MF028.jpg
198.26335440005641	3.0011272999690846	decision	1.783318700036034	right	F	FF019.jpg	FF020.jpg
201.81328670005314	1.0002399999648333	loss	n/a	n/a	n/a	FF019.jpg	FF020.jpg
204.56334860005882	3.0000469000078738	decision	2.033112599980086	left	F	FF021.jpg	FF022.jpg
208.1131855000276	1.0167529999744147	win	n/a	n/a	n/a	FF021.jpg	FF022.jpg
215.07985350000672	3.0015869000926614	decision	2.5326424000086263	right	M	MF029.jpg	MF030.jpg
218.62999380007386	1.0164232000242919	loss	n/a	n/a	n/a	MF029.jpg	MF030.jpg
225.59665359999053	3.0011783000081778	decision	2.0325621000956744	left	M	MF031.jpg	MF032.jpg
229.14641110005323	1.000097700045444	win	n/a	n/a	n/a	MF031.jpg	MF032.jpg
233.99662320001516	3.00202660006471	decision	2.033787199994549	left	F	FF023.jpg	FF024.jpg
237.54646850004792	1.0166202000109479	loss	n/a	n/a	n/a	FF023.jpg	FF024.jpg
240.31313720007893	3.0019809999503195	decision	1.7826568000018597	right	F	FF025.jpg	FF026.jpg
243.86310469999444	1.0000450001098216	win	n/a	n/a	n/a	FF025.jpg	FF026.jpg
248.71346220001578	3.000651300069876	decision	2.0330670999828726	right	F	FF027.jpg	FF028.jpg
252.26331860001665	1.0162478000856936	loss	n/a	n/a	n/a	FF027.jpg	FF028.jpg
255.0299171000952	3.0004748000064865	decision	2.533015299937688	left	M	MF033.jpg	MF034.jpg
258.57973990007304	1.000033100019209	loss	n/a	n/a	n/a	MF033.jpg	MF034.jpg
261.3298611000646	3.0006397999823093	decision	1.5332296999404207	right	M	MF035.jpg	MF036.jpg
264.8797714000102	1.0000006000045687	loss	n/a	n/a	n/a	MF035.jpg	MF036.jpg
267.62985900009517	3.00127279991284	decision	2.2826127998996526	right	M	MF037.jpg	MF038.jpg
271.17971120006405	1.0000007000053301	win	n/a	n/a	n/a	MF037.jpg	MF038.jpg
278.1299371999921	3.0338516000192612	decision	3.0333074000664055	left	F	FF029.jpg	FF030.jpg
281.71295750001445	1.000017200014554	loss	n/a	n/a	n/a	FF029.jpg	FF030.jpg
284.462984999991	3.0012072001118213	decision	1.782706700032577	right	F	FF031.jpg	FF032.jpg
288.01289870007895	1.0001203999854624	loss	n/a	n/a	n/a	FF031.jpg	FF032.jpg
292.86299890000373	3.0018052000086755	decision	2.549850800074637	right	F	FF033.jpg	FF034.jpg
296.4129585000919	1.0000438999850303	win	n/a	n/a	n/a	FF033.jpg	FF034.jpg
303.3629762000637	3.0013246999587864	decision	2.283338199951686	right	M	MF039.jpg	MF040.jpg
306.9128897000337	1.0000398999545723	loss	n/a	n/a	n/a	MF039.jpg	MF040.jpg
313.86295800004154	3.001489600050263	decision	2.0330869000172243	right	F	FF035.jpg	FF036.jpg
317.41274699999485	1.0010080001084134	win	n/a	n/a	n/a	FF035.jpg	FF036.jpg
320.1630571000278	3.001732900040224	decision	1.532943999976851	right	F	FF037.jpg	FF038.jpg
323.71286100009456	1.016647499985993	loss	n/a	n/a	n/a	FF037.jpg	FF038.jpg
326.47961020004004	3.0013500000350177	decision	2.033134500030428	left	F	FF039.jpg	FF040.jpg
330.0295906000538	1.0165550999809057	loss	n/a	n/a	n/a	FF039.jpg	FF040.jpg
