onset	duration	trial_type	rt	resp
0.00045089994091540575	0.6008277999935672	fixation_1	999	999
0.6013347000116482	3.0011666999198496	face	1.7824750998988748	1
3.6025387999834493	0.6008277999935672	fixation_2	999	999
4.151260799961165	1.0001835000002757	feedback win	999	999
5.151446599978954	5.316651499946602	ITI	999	999
10.48360039992258	0.5839326999848709	fixation_1	999	999
11.067574399989098	3.001096799969673	face	1.5323972000041977	2
14.068708500009961	0.5839326999848709	fixation_2	999	999
14.61752569989767	1.0003241000231355	feedback loss	999	999
15.617852099938318	1.1180469000246376	ITI	999	999
16.738943599979393	0.5956791000207886	fixation_1	999	999
17.334679599967785	3.0012613999424502	face	1.7822352999355644	2
20.335976699949242	0.5956791000207886	fixation_2	999	999
20.884500699932687	1.0000251000747085	feedback win	999	999
21.8845285999123	1.1168010000837967	ITI	999	999
23.00430339993909	0.5969767000060529	fixation_1	999	999
23.601356599945575	3.0006331000477076	face	2.2830934000667185	2
26.602028399938717	0.5969767000060529	fixation_2	999	999
27.15076649992261	1.0002324000233784	feedback win	999	999
28.151001899968833	3.216896799975075	ITI	999	999
31.371013499912806	0.5968406000174582	fixation_1	999	999
31.967930699931458	3.0007292999653146	face	2.7991287000477314	1
34.96868910000194	0.5968406000174582	fixation_2	999	999
35.51785499998368	1.0000901999883354	feedback loss	999	999
36.517948499997146	5.316620699944906	ITI	999	999
41.83762729994487	0.5968503999756649	fixation_1	999	999
42.43457039992791	3.0010590000310913	face	2.0323906000703573	1
45.43566560000181	0.5968503999756649	fixation_2	999	999
45.985018700012006	1.016133499913849	feedback loss	999	999
47.001154999947175	3.2157897000433877	ITI	999	999
50.22003019996919	0.5978328000055626	fixation_1	999	999
50.81792539998423	3.001994799938984	face	1.7829182000132278	2
53.81995619996451	0.5978328000055626	fixation_2	999	999
54.36780509992968	1.000021200045012	feedback win	999	999
55.36782919999678	3.2170717999106273	ITI	999	999
58.58807729999535	0.6128148999996483	fixation_1	999	999
59.20097109989729	3.0019827000796795	face	1.7825725000584498	2
62.202990699908696	0.6128148999996483	fixation_2	999	999
62.75075639993884	1.0000012000091374	feedback loss	999	999
63.7507608999731	1.1180930000264198	ITI	999	999
64.87200470000971	0.5958458998939022	fixation_1	999	999
65.4679271999048	3.000598600017838	face	2.033029600046575	2
68.46856229996774	0.5958458998939022	fixation_2	999	999
69.01781359990127	1.0163963000522926	feedback win	999	999
70.03421279997565	1.1176913999952376	ITI	999	999
71.15509639994707	0.5958881999831647	fixation_1	999	999
71.75104839995038	3.0493879000423476	face	3.0488649000180885	1
74.80046329996549	0.5958881999831647	fixation_2	999	999
75.35097109992057	1.0000814000377432	feedback win	999	999
76.35105529997963	1.1168493999866769	ITI	999	999
77.47117209993303	0.5961983000161126	fixation_1	999	999
78.06742649991065	3.00129869999364	face	2.5334890000522137	1
81.06876239995472	0.5961983000161126	fixation_2	999	999
81.61782029992901	1.0162764000706375	feedback loss	999	999
82.63409969990607	3.215830000001006	ITI	999	999
85.85325289994944	0.5975990999722853	fixation_1	999	999
86.45091859996319	3.0009638000046834	face	1.7831632000161335	2
89.45191939990036	0.5975990999722853	fixation_2	999	999
90.00086029991508	1.0000711000757292	feedback loss	999	999
91.00093439989723	1.117603600025177	ITI	999	999
92.12182919995394	0.5956718999659643	fixation_1	999	999
92.71755479997955	3.0013588999863714	face	2.2823942999821156	2
95.71895159990527	0.5956718999659643	fixation_2	999	999
96.26748329994734	1.0168435999657959	feedback win	999	999
97.28432969993446	5.315716200042516	ITI	999	999
102.60338999994565	0.5975517999613658	fixation_1	999	999
103.20102339994628	3.001934100058861	face	2.282802400062792	1
106.20299569994677	0.5975517999613658	fixation_2	999	999
106.75085609999951	1.0168361999094486	feedback win	999	999
107.76769509993028	1.117294399999082	ITI	999	999
108.88835689995904	0.5960987999569625	fixation_1	999	999
109.48453749995679	3.001368499943055	face	2.53264059999492	2
112.48594579997007	0.5960987999569625	fixation_2	999	999
113.03419599996414	1.0164199999999255	feedback win	999	999
114.05061989999376	5.316830999916419	ITI	999	999
119.37092069990467	0.5964133000234142	fixation_1	999	999
119.9673965999391	3.0017676000716165	face	2.2836450999602675	2
122.96920439996757	0.5964133000234142	fixation_2	999	999
123.51737009990029	1.0166021001059562	feedback win	999	999
124.53397529991344	3.2164596000220627	ITI	999	999
127.7539051999338	0.6136142000323161	fixation_1	999	999
128.36757599993143	3.0023117000237107	face	2.032914499985054	2
131.36992359999567	0.6136142000323161	fixation_2	999	999
131.91767110000364	1.0001564999110997	feedback win	999	999
132.9178305999376	3.2171569999773055	ITI	999	999
136.13848149997648	0.628909399965778	fixation_1	999	999
136.76747839991003	3.000850300071761	face	2.0325017001014203	2
139.76836499990895	0.628909399965778	fixation_2	999	999
140.31733849993907	1.0002889999886975	feedback win	999	999
141.3176312999567	3.2157833999954164	ITI	999	999
144.53692759992555	0.5967240000609308	fixation_1	999	999
145.13372079993133	3.0015064000617713	face	2.5332164000719786	1
148.13526739994995	0.5967240000609308	fixation_2	999	999
148.68389149999712	1.000026399968192	feedback win	999	999
149.6839204999851	11.616930900025181	ITI	999	999
161.30456029996276	0.5961462999694049	fixation_1	999	999
161.90078789996915	3.001172099960968	face	2.5330994999967515	2
164.90200339991134	0.5961462999694049	fixation_2	999	999
165.45057579991408	1.0002507000463083	feedback loss	999	999
166.45082939998247	5.316077499999665	ITI	999	999
171.770442500012	0.596689899917692	fixation_1	999	999
172.3671933999285	3.050781000056304	face	3.050258200033568	2
175.41800169995986	0.596689899917692	fixation_2	999	999
175.96732970001176	1.016621199902147	feedback win	999	999
176.983953799936	5.316655599977821	ITI	999	999
182.30466869997326	0.5961991000222042	fixation_1	999	999
182.90096399991307	3.001616800087504	face	2.5335426999954507	2
185.90262349997647	0.5961991000222042	fixation_2	999	999
186.45058489998337	1.0002580999862403	feedback loss	999	999
187.4508458999917	3.2160629999125376	ITI	999	999
190.67053829994984	0.5968044999754056	fixation_1	999	999
191.2674065999454	3.001846299972385	face	2.533611800055951	1
194.2692931999918	0.5968044999754056	fixation_2	999	999
194.81732559995726	1.0165018000407144	feedback loss	999	999
195.83383019990288	1.118415900040418	ITI	999	999
196.95590079994872	0.6280215999577194	fixation_1	999	999
197.5840008999221	3.001428500050679	face	2.032519800006412	2
200.5854701999342	0.6280215999577194	fixation_2	999	999
201.13400349998847	1.0000025000190362	feedback loss	999	999
202.13400889991317	1.1184674000833184	ITI	999	999
203.25613150000572	0.59466139995493	fixation_1	999	999
203.85087600001134	3.0022881999611855	face	2.0329669999191537	1
206.853207499953	0.59466139995493	fixation_2	999	999
207.4008865999058	1.0000099000753835	feedback win	999	999
208.40089960000478	5.31609999993816	ITI	999	999
213.72068269993179	0.596671300008893	fixation_1	999	999
214.31743609998375	3.0020576999522746	face	2.7996752000181004	1
217.31953639991116	0.596671300008893	fixation_2	999	999
217.86707499995828	1.00040939997416	feedback loss	999	999
218.86748729995452	5.315937599982135	ITI	999	999
224.18708719999995	0.5966601999243721	fixation_1	999	999
224.78381539997645	3.001575700007379	face	2.2828962999628857	2
227.78542829991784	0.5966601999243721	fixation_2	999	999
228.33377209992614	1.0167185000609607	feedback win	999	999
229.35049340000842	3.2165221999166533	ITI	999	999
232.57091439992655	0.5965202000224963	fixation_1	999	999
233.16754980001133	3.0010525999823585	face	2.533304899930954	1
236.16864539997187	0.5965202000224963	fixation_2	999	999
236.71711839991622	1.0001630000770092	feedback loss	999	999
237.71728449990042	1.1176465000025928	ITI	999	999
238.83877689996734	0.5951868999982253	fixation_1	999	999
239.43405829998665	3.002321199979633	face	2.282803399953991	1
242.43641580000985	0.5951868999982253	fixation_2	999	999
242.98372799996287	1.0007263999432325	feedback win	999	999
243.98445729992818	3.216675400035456	ITI	999	999
247.2049686999526	0.5958763000089675	fixation_1	999	999
247.80094159999862	3.0020611999789253	face	2.28392650000751	1
250.80304019991308	0.5958763000089675	fixation_2	999	999
251.35046659992076	1.016598700080067	feedback loss	999	999
252.36706809990574	1.1178926000138745	ITI	999	999
253.48882829991635	0.5949098999844864	fixation_1	999	999
254.08382079994772	3.000607499969192	face	2.283098499989137	1
257.0844700000016	0.5949098999844864	fixation_2	999	999
257.633909999975	1.0163743000011891	feedback loss	999	999
258.650286899996	1.117660399992019	ITI	999	999
259.7717723000096	0.5957705999026075	fixation_1	999	999
260.3676306999987	3.0013942999066785	face	2.2832273999229074	2
263.369061699952	0.5957705999026075	fixation_2	999	999
263.9173221999081	1.0000814000377432	feedback loss	999	999
264.9174065999687	1.118534000008367	ITI	999	999
266.0397473999765	0.5942958999658003	fixation_1	999	999
266.6341361999512	3.000822899979539	face	2.5322020000312477	2
269.6349995000055	0.5942958999658003	fixation_2	999	999
270.18390669999644	1.0000237999483943	feedback win	999	999
271.1839333999669	5.316991199972108	ITI	999	999
276.5047027999535	0.5963285999605432	fixation_1	999	999
277.10111789999064	3.0014441999373958	face	2.532806699979119	2
280.102601999999	0.5963285999605432	fixation_2	999	999
280.65035499993246	1.0000013000098988	feedback loss	999	999
281.6503589999629	1.1167990999529138	ITI	999	999
282.771019399981	0.6129201999865472	fixation_1	999	999
283.3840403999202	3.001090500038117	face	2.2830546000041068	1
286.38516649999656	0.6129201999865472	fixation_2	999	999
286.93390069995075	1.0168174999998882	feedback loss	999	999
287.95072099997196	3.217223000014201	ITI	999	999
291.1718844999559	0.5953602000372484	fixation_1	999	999
291.7673506999854	3.0013640000252053	face	2.0328426000196487	2
294.76875259994995	0.5953602000372484	fixation_2	999	999
295.31679680000525	1.0000718999654055	feedback win	999	999
296.316871499992	5.316073399968445	ITI	999	999
301.6369039999554	0.5967762999935076	fixation_1	999	999
302.23378759995103	3.0008204999612644	face	2.5331930000102147	1
305.2346470999764	0.5967762999935076	fixation_2	999	999
305.7839091999922	1.0162894999375567	feedback loss	999	999
306.8002014999511	5.316372200031765	ITI	999	999
312.12052599992603	0.6130159000167623	fixation_1	999	999
312.73362119996455	3.0012198999756947	face	2.2824587000068277	1
315.7348805000074	0.6130159000167623	fixation_2	999	999
316.28358359995764	1.0002934000222012	feedback win	999	999
317.2838816998992	1.1182192000560462	ITI	999	999
318.406212199945	0.5943871999625117	fixation_1	999	999
319.00071269995533	3.0016122000524774	face	2.533310899976641	2
322.0023644999601	0.5943871999625117	fixation_2	999	999
322.55056739994325	1.0000015000114217	feedback loss	999	999
323.550571699976	1.1174796000123024	ITI	999	999
324.67208419996314	0.5952089999336749	fixation_1	999	999
325.2673870999133	3.001427000039257	face	2.0321954000974074	2
328.2688574999338	0.5952089999336749	fixation_2	999	999
328.8171035000123	1.0168163999915123	feedback loss	999	999
329.833922999911	5.317014600033872	ITI	999	999
