instrText,stimDoor,stimDoorLure,stimFace,stimFaceLure,Instructions.thisRepN,Instructions.thisTrialN,Instructions.thisN,Instructions.thisIndex,Trials.thisRepN,Trials.thisTrialN,Trials.thisN,Trials.thisIndex,Func,Keys,Text,RespTime,Onset,Offset,SystemTime_Start,SystemTime_Stop,Stim,Lure,Participant*,Age,date,expName,psychopyVersion,frameRate,
"In the earlier Feedback Games, you chose which doors contained a prize, and which peers liked you. 

You then saw positive or negative feedback (green check mark or red X) from the door or peer you selected.

You will now see a series of doors and peers, some of which you saw during the earlier Feedback Games, and some that you have never seen before.

Please press the spacebar to continue.",,,,,0,0,0,0,,,,,instrFunc,space,"In the earlier Feedback Games, you chose which doors contained a prize, and which peers liked you. 

You then saw positive or negative feedback (green check mark or red X) from the door or peer you selected.

You will now see a series of doors and peers, some of which you saw during the earlier Feedback Games, and some that you have never seen before.

Please press the spacebar to continue.",46.451102799968794,66.00241369998548,112.52092414000072,2023-06-06 12:57:38.919799,2023-06-06 12:58:25.429911,,,10317,40-69,2023-06-06_12h57.35.930,Recall,2021.2.3,60.05205312451164,
"For doors/peers that you remember selecting and getting feedback from, your job is to RECALL what feedback you received. 

Press '1' if you recall positive feedback. 

Press '2' if you recall negative feedback

Press the spacebar to continue.",,,,,0,1,1,1,,,,,instrFunc,space,"For doors/peers that you remember selecting and getting feedback from, your job is to RECALL what feedback you received. 

Press '1' if you recall positive feedback. 

Press '2' if you recall negative feedback

Press the spacebar to continue.",20.51537409995217,112.49012049997691,133.05061443988234,2023-06-06 12:58:25.431905,2023-06-06 12:58:45.977059,,,10317,40-69,2023-06-06_12h57.35.930,Recall,2021.2.3,60.05205312451164,
"For doors/peers that you don't remember getting feedback from, your job is to PREDICT what feedback you WOULD HAVE received.

Press '9' if you predict positive feedback.

Press '0' if you predict negative feedback. 

Please press the spacebar to continue.",,,,,0,2,2,2,,,,,instrFunc,space,"For doors/peers that you don't remember getting feedback from, your job is to PREDICT what feedback you WOULD HAVE received.

Press '9' if you predict positive feedback.

Press '0' if you predict negative feedback. 

Please press the spacebar to continue.",20.290309199946932,133.03518689994235,153.38029593985993,2023-06-06 12:58:45.979052,2023-06-06 12:59:06.308627,,,10317,40-69,2023-06-06_12h57.35.930,Recall,2021.2.3,60.05205312451164,
"This task is self-paced, and the prompts will always stay on the screen so that you know which buttons to press.

On the next screen we will show you what those prompts look like, so that you know exactly what to expect. 

You will start with either doors or peers, and then switch halfway through. 

Please press the spacebar to continue.",,,,,0,3,3,3,,,,,instrFunc,space,"This task is self-paced, and the prompts will always stay on the screen so that you know which buttons to press.

On the next screen we will show you what those prompts look like, so that you know exactly what to expect. 

You will start with either doors or peers, and then switch halfway through. 

Please press the spacebar to continue.",14.55082769994624,153.36667609994765,167.9741922399262,2023-06-06 12:59:06.310612,2023-06-06 12:59:20.902663,,,10317,40-69,2023-06-06_12h57.35.930,Recall,2021.2.3,60.05205312451164,
,,,,,,,,,,,,,imgtextFunc,space,"Here is what the screen will look like while you make your ratings.
The green circles remind you to press 1 or 9 for positive feedback.
The red circles remind you to press 2 or 0 for negative feedback.









Please let the experimenter know if you have any questions.

Whenever you're ready, press the spacebar to start the task.",14.592113999999128,168.1014862000011,182.8664542400511,2023-06-06 12:59:20.917626,2023-06-06 12:59:35.680312,,,10317,40-69,2023-06-06_12h57.35.930,Recall,2021.2.3,60.05205312451164,
,SD033.jpg,0,MF033.jpg,0,,,,,0,0,0,82,imgFunc,2,NA,29.270653799991123,182.9112332999939,212.3306884400081,2023-06-06 12:59:35.765069,2023-06-06 13:00:05.168461,SD033.jpg,0,10317,40-69,2023-06-06_12h57.35.930,Recall,2021.2.3,60.05205312451164,
,SD015.jpg,0,MF015.jpg,0,,,,,0,1,1,64,imgFunc,0,NA,8.775461599929258,212.31831090000924,221.2119796400657,2023-06-06 13:00:05.182425,2023-06-06 13:00:14.074815,SD015.jpg,0,10317,40-69,2023-06-06_12h57.35.930,Recall,2021.2.3,60.05205312451164,
,DD024.jpg,0,FF024.jpg,0,,,,,0,2,2,23,imgFunc,9,NA,2.896559700020589,221.21323749993462,224.2207123398548,2023-06-06 13:00:14.088713,2023-06-06 13:00:17.093585,DD024.jpg,0,10317,40-69,2023-06-06_12h57.35.930,Recall,2021.2.3,60.05205312451164,
,SD017.jpg,0,MF017.jpg,0,,,,,0,3,3,66,imgFunc,0,NA,4.2313492000103,224.21422129997518,228.54709934000857,2023-06-06 13:00:17.103560,2023-06-06 13:00:21.429451,SD017.jpg,0,10317,40-69,2023-06-06_12h57.35.930,Recall,2021.2.3,60.05205312451164,
,DD022.jpg,0,FF022.jpg,0,,,,,0,4,4,21,imgFunc,2,NA,5.308980100089684,228.55260900000576,233.95081094000489,2023-06-06 13:00:21.440403,2023-06-06 13:00:26.833770,DD022.jpg,0,10317,40-69,2023-06-06_12h57.35.930,Recall,2021.2.3,60.05205312451164,
,SD018.jpg,0,MF018.jpg,0,,,,,0,5,5,67,imgFunc,2,NA,4.6530689999926835,233.9604867999442,238.70853664004244,2023-06-06 13:00:26.844740,2023-06-06 13:00:31.586744,SD018.jpg,0,10317,40-69,2023-06-06_12h57.35.930,Recall,2021.2.3,60.05205312451164,
,DD006.jpg,0,FF006.jpg,0,,,,,0,6,6,5,imgFunc,1,NA,3.59880100004375,238.718995800009,242.40623703994788,2023-06-06 13:00:31.602701,2023-06-06 13:00:35.290036,DD006.jpg,0,10317,40-69,2023-06-06_12h57.35.930,Recall,2021.2.3,60.05205312451164,
,SD004.jpg,0,MF004.jpg,0,,,,,0,7,7,53,imgFunc,1,NA,2.955210499931127,242.402580199996,245.45292043988593,2023-06-06 13:00:35.299014,2023-06-06 13:00:38.341279,SD004.jpg,0,10317,40-69,2023-06-06_12h57.35.930,Recall,2021.2.3,60.05205312451164,
,DD036.jpg,0,FF036.jpg,0,,,,,0,8,8,35,imgFunc,2,NA,3.5912692000856623,245.46236239990685,249.14597803994548,2023-06-06 13:00:38.351254,2023-06-06 13:00:42.027694,DD036.jpg,0,10317,40-69,2023-06-06_12h57.35.930,Recall,2021.2.3,60.05205312451164,
,SD032.jpg,0,MF032.jpg,0,,,,,0,9,9,81,imgFunc,2,NA,5.152156900032423,249.14957679994404,254.4015318399761,2023-06-06 13:00:42.036672,2023-06-06 13:00:47.281654,SD032.jpg,0,10317,40-69,2023-06-06_12h57.35.930,Recall,2021.2.3,60.05205312451164,
,SD013.jpg,0,MF013.jpg,0,,,,,0,10,10,62,imgFunc,1,NA,2.3059093999909237,254.4275612999918,256.85692474013194,2023-06-06 13:00:47.292626,2023-06-06 13:00:49.716895,SD013.jpg,0,10317,40-69,2023-06-06_12h57.35.930,Recall,2021.2.3,60.05205312451164,
,DD020.jpg,0,FF020.jpg,0,,,,,0,11,11,19,imgFunc,2,NA,1.6294168999884278,256.8483501999872,258.56695563998073,2023-06-06 13:00:49.732851,2023-06-06 13:00:51.451425,DD020.jpg,0,10317,40-69,2023-06-06_12h57.35.930,Recall,2021.2.3,60.05205312451164,
,DD013.jpg,0,FF013.jpg,0,,,,,0,12,12,12,imgFunc,1,NA,2.874502299935557,258.56324970000423,261.53080813994166,2023-06-06 13:00:51.460402,2023-06-06 13:00:54.420258,DD013.jpg,0,10317,40-69,2023-06-06_12h57.35.930,Recall,2021.2.3,60.05205312451164,
,L_SD505.jpg,1,L_MF505.jpg,1,,,,,0,13,13,94,imgFunc,1,NA,1.7691383000928909,261.54041109990794,263.40567153994925,2023-06-06 13:00:54.429257,2023-06-06 13:00:56.287992,L_SD505.jpg,1,10317,40-69,2023-06-06_12h57.35.930,Recall,2021.2.3,60.05205312451164,
,L_SD509.jpg,1,L_MF509.jpg,1,,,,,0,14,14,98,imgFunc,2,NA,1.4166937998961657,263.40479659999255,264.91996123990975,2023-06-06 13:00:56.296969,2023-06-06 13:00:57.805776,L_SD509.jpg,1,10317,40-69,2023-06-06_12h57.35.930,Recall,2021.2.3,60.05205312451164,
,SD002.jpg,0,MF002.jpg,0,,,,,0,15,15,51,imgFunc,9,NA,2.414106599986553,264.9273844999261,267.4318993400084,2023-06-06 13:00:57.820765,2023-06-06 13:01:00.323860,SD002.jpg,0,10317,40-69,2023-06-06_12h57.35.930,Recall,2021.2.3,60.05205312451164,
,DD040.jpg,0,FF040.jpg,0,,,,,0,16,16,39,imgFunc,1,NA,2.1495845000026748,267.43994349997956,269.6891257399693,2023-06-06 13:01:00.333807,2023-06-06 13:01:02.575811,DD040.jpg,0,10317,40-69,2023-06-06_12h57.35.930,Recall,2021.2.3,60.05205312451164,
,DD033.jpg,0,FF033.jpg,0,,,,,0,17,17,32,imgFunc,0,NA,1.23656089999713,269.6889120999258,271.02098793978803,2023-06-06 13:01:02.584789,2023-06-06 13:01:03.909588,DD033.jpg,0,10317,40-69,2023-06-06_12h57.35.930,Recall,2021.2.3,60.05205312451164,
,DD032.jpg,0,FF032.jpg,0,,,,,0,18,18,31,imgFunc,2,NA,3.3671080000931397,271.0304715000093,274.49701334000565,2023-06-06 13:01:03.919560,2023-06-06 13:01:07.379321,DD032.jpg,0,10317,40-69,2023-06-06_12h57.35.930,Recall,2021.2.3,60.05205312451164,
,DD028.jpg,0,FF028.jpg,0,,,,,0,19,19,27,imgFunc,0,NA,1.6517434000270441,274.49767309997696,276.2476859400049,2023-06-06 13:01:07.388299,2023-06-06 13:01:09.130371,DD028.jpg,0,10317,40-69,2023-06-06_12h57.35.930,Recall,2021.2.3,60.05205312451164,
,L_DD501.jpg,1,L_FF501.jpg,1,,,,,0,20,20,40,imgFunc,9,NA,2.1264975999947637,276.2630105999997,278.49453628004994,2023-06-06 13:01:09.148325,2023-06-06 13:01:11.364854,L_DD501.jpg,1,10317,40-69,2023-06-06_12h57.35.930,Recall,2021.2.3,60.05205312451164,
,DD017.jpg,0,FF017.jpg,0,,,,,0,21,21,16,imgFunc,1,NA,1.2065000999718904,278.4789864999475,279.77816553995945,2023-06-06 13:01:11.373829,2023-06-06 13:01:12.666421,DD017.jpg,0,10317,40-69,2023-06-06_12h57.35.930,Recall,2021.2.3,60.05205312451164,
,SD035.jpg,0,MF035.jpg,0,,,,,0,22,22,84,imgFunc,2,NA,2.5451303999871016,279.7803811999038,282.4137785398634,2023-06-06 13:01:12.675399,2023-06-06 13:01:15.301323,SD035.jpg,0,10317,40-69,2023-06-06_12h57.35.930,Recall,2021.2.3,60.05205312451164,
,DD002.jpg,0,FF002.jpg,0,,,,,0,23,23,1,imgFunc,9,NA,3.60118869994767,282.42027819994837,286.1216646399116,2023-06-06 13:01:15.310298,2023-06-06 13:01:19.004381,DD002.jpg,0,10317,40-69,2023-06-06_12h57.35.930,Recall,2021.2.3,60.05205312451164,
,DD012.jpg,0,FF012.jpg,0,,,,,0,24,24,11,imgFunc,0,NA,4.791251600021496,286.12640269997064,290.999058439862,2023-06-06 13:01:19.019342,2023-06-06 13:01:23.891411,DD012.jpg,0,10317,40-69,2023-06-06_12h57.35.930,Recall,2021.2.3,60.05205312451164,
,L_SD508.jpg,1,L_MF508.jpg,1,,,,,0,25,25,97,imgFunc,0,NA,3.276188399991952,291.0095484999474,294.37383063987363,2023-06-06 13:01:23.901386,2023-06-06 13:01:27.260011,L_SD508.jpg,1,10317,40-69,2023-06-06_12h57.35.930,Recall,2021.2.3,60.05205312451164,
,DD003.jpg,0,FF003.jpg,0,,,,,0,26,26,2,imgFunc,9,NA,4.883911799988709,294.3778404999757,299.3629631398944,2023-06-06 13:01:27.268989,2023-06-06 13:01:32.247029,DD003.jpg,0,10317,40-69,2023-06-06_12h57.35.930,Recall,2021.2.3,60.05205312451164,
,SD036.jpg,0,MF036.jpg,0,,,,,0,27,27,85,imgFunc,2,NA,2.8571450000163168,299.388358599972,302.3683045399375,2023-06-06 13:01:32.258002,2023-06-06 13:01:35.231985,SD036.jpg,0,10317,40-69,2023-06-06_12h57.35.930,Recall,2021.2.3,60.05205312451164,
,SD006.jpg,0,MF006.jpg,0,,,,,0,28,28,55,imgFunc,0,NA,3.4132641999749467,302.3523334999336,305.8696083398536,2023-06-06 13:01:35.240960,2023-06-06 13:01:38.750891,SD006.jpg,0,10317,40-69,2023-06-06_12h57.35.930,Recall,2021.2.3,60.05205312451164,
,DD015.jpg,0,FF015.jpg,0,,,,,0,29,29,14,imgFunc,9,NA,2.323932299972512,305.8895657999674,308.30879173986614,2023-06-06 13:01:38.767847,2023-06-06 13:01:41.186371,DD015.jpg,0,10317,40-69,2023-06-06_12h57.35.930,Recall,2021.2.3,60.05205312451164,
,DD021.jpg,0,FF021.jpg,0,,,,,0,30,30,20,imgFunc,0,NA,3.5690865999786183,308.300542699988,311.9684994400013,2023-06-06 13:01:41.195337,2023-06-06 13:01:44.856244,DD021.jpg,0,10317,40-69,2023-06-06_12h57.35.930,Recall,2021.2.3,60.05205312451164,
,DD018.jpg,0,FF018.jpg,0,,,,,0,31,31,17,imgFunc,0,NA,3.317996299942024,311.967523099971,315.3681939400267,2023-06-06 13:01:44.865222,2023-06-06 13:01:48.258110,DD018.jpg,0,10317,40-69,2023-06-06_12h57.35.930,Recall,2021.2.3,60.05205312451164,
,L_SD506.jpg,1,L_MF506.jpg,1,,,,,0,32,32,95,imgFunc,9,NA,2.9177318000001833,315.3757514999015,318.3929361398332,2023-06-06 13:01:48.267077,2023-06-06 13:01:51.277016,L_SD506.jpg,1,10317,40-69,2023-06-06_12h57.35.930,Recall,2021.2.3,60.05205312451164,
,DD004.jpg,0,FF004.jpg,0,,,,,0,33,33,3,imgFunc,1,NA,1.662791799986735,318.4067837999901,320.16150614002254,2023-06-06 13:01:51.291976,2023-06-06 13:01:53.045299,DD004.jpg,0,10317,40-69,2023-06-06_12h57.35.930,Recall,2021.2.3,60.05205312451164,
,DD031.jpg,0,FF031.jpg,0,,,,,0,34,34,30,imgFunc,1,NA,1.4721384000731632,320.15732070000377,321.7235390400747,2023-06-06 13:01:53.054274,2023-06-06 13:01:54.613184,DD031.jpg,0,10317,40-69,2023-06-06_12h57.35.930,Recall,2021.2.3,60.05205312451164,
,SD038.jpg,0,MF038.jpg,0,,,,,0,35,35,87,imgFunc,0,NA,2.2198146000737324,321.7219195999205,324.02235343994107,2023-06-06 13:01:54.622160,2023-06-06 13:01:56.914921,SD038.jpg,0,10317,40-69,2023-06-06_12h57.35.930,Recall,2021.2.3,60.05205312451164,
,L_DD506.jpg,1,L_FF506.jpg,1,,,,,0,36,36,45,imgFunc,0,NA,2.228282199939713,324.03335489996243,326.36633193993475,2023-06-06 13:01:56.923899,2023-06-06 13:01:59.249233,L_DD506.jpg,1,10317,40-69,2023-06-06_12h57.35.930,Recall,2021.2.3,60.05205312451164,
,L_SD501.jpg,1,L_MF501.jpg,1,,,,,0,37,37,90,imgFunc,9,NA,2.4674112000502646,326.3620097999228,328.9120500398567,2023-06-06 13:01:59.258208,2023-06-06 13:02:01.800494,L_SD501.jpg,1,10317,40-69,2023-06-06_12h57.35.930,Recall,2021.2.3,60.05205312451164,
,SD025.jpg,0,MF025.jpg,0,,,,,0,38,38,74,imgFunc,2,NA,3.0359568001003936,328.92965889989864,332.08226827997714,2023-06-06 13:02:01.817449,2023-06-06 13:02:04.953695,SD025.jpg,0,10317,40-69,2023-06-06_12h57.35.930,Recall,2021.2.3,60.05205312451164,
,L_DD509.jpg,1,L_FF509.jpg,1,,,,,0,39,39,48,imgFunc,1,NA,1.177253899979405,332.0682998999255,333.3330704398686,2023-06-06 13:02:04.963670,2023-06-06 13:02:06.220911,L_DD509.jpg,1,10317,40-69,2023-06-06_12h57.35.930,Recall,2021.2.3,60.05205312451164,
,L_DD507.jpg,1,L_FF507.jpg,1,,,,,0,40,40,46,imgFunc,2,NA,2.1169052000623196,333.3366118000122,335.5527428399073,2023-06-06 13:02:06.229887,2023-06-06 13:02:08.439307,L_DD507.jpg,1,10317,40-69,2023-06-06_12h57.35.930,Recall,2021.2.3,60.05205312451164,
,SD005.jpg,0,MF005.jpg,0,,,,,0,41,41,54,imgFunc,9,NA,1.9329646000405774,335.55270389991347,337.56971663981676,2023-06-06 13:02:08.448282,2023-06-06 13:02:10.457531,SD005.jpg,0,10317,40-69,2023-06-06_12h57.35.930,Recall,2021.2.3,60.05205312451164,
,DD027.jpg,0,FF027.jpg,0,,,,,0,42,42,26,imgFunc,0,NA,2.2735281999921426,337.57990509993397,339.9345247398596,2023-06-06 13:02:10.472491,2023-06-06 13:02:12.825067,DD027.jpg,0,10317,40-69,2023-06-06_12h57.35.930,Recall,2021.2.3,60.05205312451164,
,SD019.jpg,0,MF019.jpg,0,,,,,0,43,43,68,imgFunc,9,NA,1.9277739999815822,339.941777799977,341.958990439889,2023-06-06 13:02:12.835040,2023-06-06 13:02:14.843927,SD019.jpg,0,10317,40-69,2023-06-06_12h57.35.930,Recall,2021.2.3,60.05205312451164,
,SD037.jpg,0,MF037.jpg,0,,,,,0,44,44,86,imgFunc,1,NA,2.9380542000290006,341.9634403999662,344.99588893994223,2023-06-06 13:02:14.853900,2023-06-06 13:02:17.879664,SD037.jpg,0,10317,40-69,2023-06-06_12h57.35.930,Recall,2021.2.3,60.05205312451164,
,DD008.jpg,0,FF008.jpg,0,,,,,0,45,45,7,imgFunc,9,NA,2.422897099982947,344.9984754999168,347.5143509398913,2023-06-06 13:02:17.888640,2023-06-06 13:02:20.397892,DD008.jpg,0,10317,40-69,2023-06-06_12h57.35.930,Recall,2021.2.3,60.05205312451164,
,SD007.jpg,0,MF007.jpg,0,,,,,0,46,46,56,imgFunc,0,NA,1.4382602999685332,347.519392499933,349.05077223991975,2023-06-06 13:02:20.407865,2023-06-06 13:02:21.932677,SD007.jpg,0,10317,40-69,2023-06-06_12h57.35.930,Recall,2021.2.3,60.05205312451164,
,SD030.jpg,0,MF030.jpg,0,,,,,0,47,47,79,imgFunc,9,NA,2.216038199956529,349.0615286999382,351.3636552399257,2023-06-06 13:02:21.948637,2023-06-06 13:02:24.251029,SD030.jpg,0,10317,40-69,2023-06-06_12h57.35.930,Recall,2021.2.3,60.05205312451164,
,SD034.jpg,0,MF034.jpg,0,,,,,0,48,48,83,imgFunc,2,NA,1.6812075999332592,351.3643116999883,353.12982033996377,2023-06-06 13:02:24.259982,2023-06-06 13:02:26.018289,SD034.jpg,0,10317,40-69,2023-06-06_12h57.35.930,Recall,2021.2.3,60.05205312451164,
,DD023.jpg,0,FF023.jpg,0,,,,,0,49,49,22,imgFunc,9,NA,2.0676697000162676,353.1299433999229,355.28041913989,2023-06-06 13:02:26.027264,2023-06-06 13:02:28.170547,DD023.jpg,0,10317,40-69,2023-06-06_12h57.35.930,Recall,2021.2.3,60.05205312451164,
,DD029.jpg,0,FF029.jpg,0,,,,,0,50,50,28,imgFunc,9,NA,1.7364445999264717,355.2850408999948,357.1181726399809,2023-06-06 13:02:28.179551,2023-06-06 13:02:30.005270,DD029.jpg,0,10317,40-69,2023-06-06_12h57.35.930,Recall,2021.2.3,60.05205312451164,
,DD007.jpg,0,FF007.jpg,0,,,,,0,51,51,6,imgFunc,0,NA,3.905063100042753,357.13240299990866,361.13838734000456,2023-06-06 13:02:30.020237,2023-06-06 13:02:34.024263,DD007.jpg,0,10317,40-69,2023-06-06_12h57.35.930,Recall,2021.2.3,60.05205312451164,
,SD024.jpg,0,MF024.jpg,0,,,,,0,52,52,73,imgFunc,2,NA,2.610021000029519,361.1395726999035,363.84044173988514,2023-06-06 13:02:34.033241,2023-06-06 13:02:36.726053,SD024.jpg,0,10317,40-69,2023-06-06_12h57.35.930,Recall,2021.2.3,60.05205312451164,
,DD039.jpg,0,FF039.jpg,0,,,,,0,53,53,38,imgFunc,9,NA,1.913600099971518,363.8439152999781,365.86037033994216,2023-06-06 13:02:36.735032,2023-06-06 13:02:38.744670,DD039.jpg,0,10317,40-69,2023-06-06_12h57.35.930,Recall,2021.2.3,60.05205312451164,
,SD027.jpg,0,MF027.jpg,0,,,,,0,54,54,76,imgFunc,0,NA,1.9296142000239342,365.8599901999114,367.87652913981583,2023-06-06 13:02:38.753645,2023-06-06 13:02:40.762565,SD027.jpg,0,10317,40-69,2023-06-06_12h57.35.930,Recall,2021.2.3,60.05205312451164,
,SD008.jpg,0,MF008.jpg,0,,,,,0,55,55,57,imgFunc,9,NA,4.461113499943167,367.8804709999822,372.4324317399878,2023-06-06 13:02:40.771532,2023-06-06 13:02:45.315951,SD008.jpg,0,10317,40-69,2023-06-06_12h57.35.930,Recall,2021.2.3,60.05205312451164,
,SD023.jpg,0,MF023.jpg,0,,,,,0,56,56,72,imgFunc,0,NA,3.816709299921058,372.4610745999962,376.3950098800706,2023-06-06 13:02:45.333896,2023-06-06 13:02:49.252578,SD023.jpg,0,10317,40-69,2023-06-06_12h57.35.930,Recall,2021.2.3,60.05205312451164,
,L_DD502.jpg,1,L_FF502.jpg,1,,,,,0,57,57,41,imgFunc,9,NA,3.519970400026068,376.36575239989907,379.9828210398555,2023-06-06 13:02:49.261555,2023-06-06 13:02:52.871559,L_DD502.jpg,1,10317,40-69,2023-06-06_12h57.35.930,Recall,2021.2.3,60.05205312451164,
,L_DD503.jpg,1,L_FF503.jpg,1,,,,,0,58,58,42,imgFunc,0,NA,1.624241599929519,379.9895267999964,381.70530124008656,2023-06-06 13:02:52.880537,2023-06-06 13:02:54.589559,L_DD503.jpg,1,10317,40-69,2023-06-06_12h57.35.930,Recall,2021.2.3,60.05205312451164,
,DD026.jpg,0,FF026.jpg,0,,,,,0,59,59,25,imgFunc,9,NA,4.510144499945454,381.70338329998776,386.30450383992866,2023-06-06 13:02:54.598439,2023-06-06 13:02:59.192230,DD026.jpg,0,10317,40-69,2023-06-06_12h57.35.930,Recall,2021.2.3,60.05205312451164,
,L_SD503.jpg,1,L_MF503.jpg,1,,,,,0,60,60,92,imgFunc,1,NA,2.8036351999035105,386.33813549997285,389.25847173994407,2023-06-06 13:02:59.208189,2023-06-06 13:03:02.128176,L_SD503.jpg,1,10317,40-69,2023-06-06_12h57.35.930,Recall,2021.2.3,60.05205312451164,
,L_DD510.jpg,1,L_FF510.jpg,1,,,,,0,61,61,49,imgFunc,0,NA,1.6847567999502644,389.24076309998054,391.02358423999976,2023-06-06 13:03:02.137154,2023-06-06 13:03:03.912131,L_DD510.jpg,1,10317,40-69,2023-06-06_12h57.35.930,Recall,2021.2.3,60.05205312451164,
,DD001.jpg,0,FF001.jpg,0,,,,,0,62,62,0,imgFunc,9,NA,1.4899187999544665,391.0278357999632,392.6103087399388,2023-06-06 13:03:03.922107,2023-06-06 13:03:05.497523,DD001.jpg,0,10317,40-69,2023-06-06_12h57.35.930,Recall,2021.2.3,60.05205312451164,
,SD003.jpg,0,MF003.jpg,0,,,,,0,63,63,52,imgFunc,0,NA,1.9832184000406414,392.6225425999146,394.7040868400363,2023-06-06 13:03:05.507520,2023-06-06 13:03:07.582269,SD003.jpg,0,10317,40-69,2023-06-06_12h57.35.930,Recall,2021.2.3,60.05205312451164,
,DD037.jpg,0,FF037.jpg,0,,,,,0,64,64,36,imgFunc,9,NA,3.5189629000378773,394.7028667998966,398.32027063984424,2023-06-06 13:03:07.591247,2023-06-06 13:03:11.201358,DD037.jpg,0,10317,40-69,2023-06-06_12h57.35.930,Recall,2021.2.3,60.05205312451164,
,SD011.jpg,0,MF011.jpg,0,,,,,0,65,65,60,imgFunc,1,NA,1.9067427999107167,398.33890109998174,400.34156693995465,2023-06-06 13:03:11.217317,2023-06-06 13:03:13.219676,SD011.jpg,0,10317,40-69,2023-06-06_12h57.35.930,Recall,2021.2.3,60.05205312451164,
,DD016.jpg,0,FF016.jpg,0,,,,,0,66,66,15,imgFunc,0,NA,1.8491747999796644,400.34059129992966,402.29077013989445,2023-06-06 13:03:13.228654,2023-06-06 13:03:15.171028,DD016.jpg,0,10317,40-69,2023-06-06_12h57.35.930,Recall,2021.2.3,60.05205312451164,
,L_SD510.jpg,1,L_MF510.jpg,1,,,,,0,67,67,99,imgFunc,9,NA,2.048915300052613,402.28480549994856,404.43511433992535,2023-06-06 13:03:15.180005,2023-06-06 13:03:17.322315,L_SD510.jpg,1,10317,40-69,2023-06-06_12h57.35.930,Recall,2021.2.3,60.05205312451164,
,SD028.jpg,0,MF028.jpg,0,,,,,0,68,68,77,imgFunc,1,NA,2.866373599972576,404.4434286999749,407.4107355399756,2023-06-06 13:03:17.331315,2023-06-06 13:03:20.291453,SD028.jpg,0,10317,40-69,2023-06-06_12h57.35.930,Recall,2021.2.3,60.05205312451164,
,SD040.jpg,0,MF040.jpg,0,,,,,0,69,69,89,imgFunc,0,NA,2.0654263000469655,407.4124463999178,409.56823833985254,2023-06-06 13:03:20.305417,2023-06-06 13:03:22.459570,SD040.jpg,0,10317,40-69,2023-06-06_12h57.35.930,Recall,2021.2.3,60.05205312451164,
,L_DD508.jpg,1,L_FF508.jpg,1,,,,,0,70,70,47,imgFunc,9,NA,9.511258500046097,409.57452539994847,419.18053353985306,2023-06-06 13:03:22.468548,2023-06-06 13:03:32.066619,L_DD508.jpg,1,10317,40-69,2023-06-06_12h57.35.930,Recall,2021.2.3,60.05205312451164,
,DD025.jpg,0,FF025.jpg,0,,,,,0,71,71,24,imgFunc,0,NA,3.9702800000086427,419.19546189997345,423.2758904399816,2023-06-06 13:03:32.077504,2023-06-06 13:03:36.152547,DD025.jpg,0,10317,40-69,2023-06-06_12h57.35.930,Recall,2021.2.3,60.05205312451164,
,SD009.jpg,0,MF009.jpg,0,,,,,0,72,72,58,imgFunc,1,NA,2.2902071999851614,423.2675304999575,425.65156844002195,2023-06-06 13:03:36.161524,2023-06-06 13:03:38.537897,SD009.jpg,0,10317,40-69,2023-06-06_12h57.35.930,Recall,2021.2.3,60.05205312451164,
,DD014.jpg,0,FF014.jpg,0,,,,,0,73,73,13,imgFunc,9,NA,4.521042000036687,425.6527705999324,430.2709934399463,2023-06-06 13:03:38.546875,2023-06-06 13:03:43.157725,DD014.jpg,0,10317,40-69,2023-06-06_12h57.35.930,Recall,2021.2.3,60.05205312451164,
,SD026.jpg,0,MF026.jpg,0,,,,,0,74,74,75,imgFunc,1,NA,2.9002503999508917,430.3054630999686,433.3381769800326,2023-06-06 13:03:43.175679,2023-06-06 13:03:46.192719,SD026.jpg,0,10317,40-69,2023-06-06_12h57.35.930,Recall,2021.2.3,60.05205312451164,
,DD035.jpg,0,FF035.jpg,0,,,,,0,75,75,34,imgFunc,2,NA,1.4241095000179484,433.30938629992306,434.8249839398777,2023-06-06 13:03:46.201710,2023-06-06 13:03:47.710719,DD035.jpg,0,10317,40-69,2023-06-06_12h57.35.930,Recall,2021.2.3,60.05205312451164,
,SD016.jpg,0,MF016.jpg,0,,,,,0,76,76,65,imgFunc,1,NA,2.609750800067559,434.8199624000117,437.5204292399576,2023-06-06 13:03:47.719718,2023-06-06 13:03:50.412788,SD016.jpg,0,10317,40-69,2023-06-06_12h57.35.930,Recall,2021.2.3,60.05205312451164,
,SD031.jpg,0,MF031.jpg,0,,,,,0,77,77,80,imgFunc,2,NA,1.4961407999508083,437.5256521999836,439.1088540399214,2023-06-06 13:03:50.421765,2023-06-06 13:03:51.997422,SD031.jpg,0,10317,40-69,2023-06-06_12h57.35.930,Recall,2021.2.3,60.05205312451164,
,L_DD504.jpg,1,L_FF504.jpg,1,,,,,0,78,78,43,imgFunc,0,NA,1.2189344000071287,439.1308434999082,440.4525533398846,2023-06-06 13:03:52.011386,2023-06-06 13:03:53.331609,L_DD504.jpg,1,10317,40-69,2023-06-06_12h57.35.930,Recall,2021.2.3,60.05205312451164,
,SD020.jpg,0,MF020.jpg,0,,,,,0,79,79,69,imgFunc,9,NA,2.879160500015132,440.4466322999215,443.4142520399764,2023-06-06 13:03:53.340587,2023-06-06 13:03:56.299888,SD020.jpg,0,10317,40-69,2023-06-06_12h57.35.930,Recall,2021.2.3,60.05205312451164,
,L_SD502.jpg,1,L_MF502.jpg,1,,,,,0,80,80,91,imgFunc,0,NA,4.571710499934852,443.4180330999661,448.0863880398683,2023-06-06 13:03:56.308766,2023-06-06 13:04:00.970309,L_SD502.jpg,1,10317,40-69,2023-06-06_12h57.35.930,Recall,2021.2.3,60.05205312451164,
,SD010.jpg,0,MF010.jpg,0,,,,,0,81,81,59,imgFunc,2,NA,2.53335160005372,448.0880080999341,450.7177897399524,2023-06-06 13:04:00.980284,2023-06-06 13:04:03.604906,SD010.jpg,0,10317,40-69,2023-06-06_12h57.35.930,Recall,2021.2.3,60.05205312451164,
,DD030.jpg,0,FF030.jpg,0,,,,,0,82,82,29,imgFunc,9,NA,3.889175400021486,450.7241735999705,454.7081765398616,2023-06-06 13:04:03.613884,2023-06-06 13:04:07.591080,DD030.jpg,0,10317,40-69,2023-06-06_12h57.35.930,Recall,2021.2.3,60.05205312451164,
,DD019.jpg,0,FF019.jpg,0,,,,,0,83,83,18,imgFunc,9,NA,1.2834912999533117,454.7218600999331,456.10692773992196,2023-06-06 13:04:07.607039,2023-06-06 13:04:08.992085,DD019.jpg,0,10317,40-69,2023-06-06_12h57.35.930,Recall,2021.2.3,60.05205312451164,
,SD001.jpg,0,MF001.jpg,0,,,,,0,84,84,50,imgFunc,1,NA,1.5299108000472188,456.10752929991577,457.7236615398433,2023-06-06 13:04:09.001063,2023-06-06 13:04:10.609698,SD001.jpg,0,10317,40-69,2023-06-06_12h57.35.930,Recall,2021.2.3,60.05205312451164,
,DD034.jpg,0,FF034.jpg,0,,,,,0,85,85,33,imgFunc,9,NA,10.135891300044023,457.7258509999374,467.9487104398431,2023-06-06 13:04:10.618675,2023-06-06 13:04:20.834514,DD034.jpg,0,10317,40-69,2023-06-06_12h57.35.930,Recall,2021.2.3,60.05205312451164,
,SD039.jpg,0,MF039.jpg,0,,,,,0,86,86,88,imgFunc,1,NA,2.8023604000918567,467.9633705999004,470.87543963990174,2023-06-06 13:04:20.845514,2023-06-06 13:04:23.753272,SD039.jpg,0,10317,40-69,2023-06-06_12h57.35.930,Recall,2021.2.3,60.05205312451164,
,L_DD505.jpg,1,L_FF505.jpg,1,,,,,0,87,87,44,imgFunc,0,NA,1.4789604999823496,470.87885199999437,472.4497563398909,2023-06-06 13:04:23.768233,2023-06-06 13:04:25.337804,L_DD505.jpg,1,10317,40-69,2023-06-06_12h57.35.930,Recall,2021.2.3,60.05205312451164,
,L_SD504.jpg,1,L_MF504.jpg,1,,,,,0,88,88,93,imgFunc,9,NA,2.111647400073707,472.4540582000045,474.6532758399844,2023-06-06 13:04:25.346781,2023-06-06 13:04:27.539604,L_SD504.jpg,1,10317,40-69,2023-06-06_12h57.35.930,Recall,2021.2.3,60.05205312451164,
,SD021.jpg,0,MF021.jpg,0,,,,,0,89,89,70,imgFunc,0,NA,2.3768361000111327,474.6529563999502,477.1199394398136,2023-06-06 13:04:27.548582,2023-06-06 13:04:30.007650,SD021.jpg,0,10317,40-69,2023-06-06_12h57.35.930,Recall,2021.2.3,60.05205312451164,
,SD014.jpg,0,MF014.jpg,0,,,,,0,90,90,63,imgFunc,0,NA,25.86349220003467,477.12633359991014,503.0936161398422,2023-06-06 13:04:30.016628,2023-06-06 13:04:55.976341,SD014.jpg,0,10317,40-69,2023-06-06_12h57.35.930,Recall,2021.2.3,60.05205312451164,
,SD029.jpg,0,MF029.jpg,0,,,,,0,91,91,78,imgFunc,9,NA,3.953375000040978,503.1002255999483,507.1456422400661,2023-06-06 13:04:55.988311,2023-06-06 13:05:00.029041,SD029.jpg,0,10317,40-69,2023-06-06_12h57.35.930,Recall,2021.2.3,60.05205312451164,
,L_SD507.jpg,1,L_MF507.jpg,1,,,,,0,92,92,96,imgFunc,9,NA,4.083330900059082,507.1544052999234,511.3256025399314,2023-06-06 13:05:00.044997,2023-06-06 13:05:04.215748,L_SD507.jpg,1,10317,40-69,2023-06-06_12h57.35.930,Recall,2021.2.3,60.05205312451164,
,DD009.jpg,0,FF009.jpg,0,,,,,0,93,93,8,imgFunc,1,NA,1.9434813000261784,511.3263720999239,513.3586076399079,2023-06-06 13:05:04.224747,2023-06-06 13:05:06.250512,DD009.jpg,0,10317,40-69,2023-06-06_12h57.35.930,Recall,2021.2.3,60.05205312451164,
,DD011.jpg,0,FF011.jpg,0,,,,,0,94,94,10,imgFunc,1,NA,1.4601708000991493,513.3615920000011,514.9108657400357,2023-06-06 13:05:06.259490,2023-06-06 13:05:07.801219,DD011.jpg,0,10317,40-69,2023-06-06_12h57.35.930,Recall,2021.2.3,60.05205312451164,
,SD012.jpg,0,MF012.jpg,0,,,,,0,95,95,61,imgFunc,0,NA,2.3633240000344813,514.914251399925,517.3645515398821,2023-06-06 13:05:07.810197,2023-06-06 13:05:10.252842,SD012.jpg,0,10317,40-69,2023-06-06_12h57.35.930,Recall,2021.2.3,60.05205312451164,
,DD038.jpg,0,FF038.jpg,0,,,,,0,96,96,37,imgFunc,9,NA,3.0297338999807835,517.3840389999095,520.519335379824,2023-06-06 13:05:10.269795,2023-06-06 13:05:13.388848,DD038.jpg,0,10317,40-69,2023-06-06_12h57.35.930,Recall,2021.2.3,60.05205312451164,
,DD010.jpg,0,FF010.jpg,0,,,,,0,97,97,9,imgFunc,9,NA,2.336011900100857,520.5018056000117,522.9356135398848,2023-06-06 13:05:13.397826,2023-06-06 13:05:15.823820,DD010.jpg,0,10317,40-69,2023-06-06_12h57.35.930,Recall,2021.2.3,60.05205312451164,
,DD005.jpg,0,FF005.jpg,0,,,,,0,98,98,4,imgFunc,1,NA,3.7882189999800175,522.9375454999972,526.8217746398877,2023-06-06 13:05:15.832798,2023-06-06 13:05:19.709934,DD005.jpg,0,10317,40-69,2023-06-06_12h57.35.930,Recall,2021.2.3,60.05205312451164,
,SD022.jpg,0,MF022.jpg,0,,,,,0,99,99,71,imgFunc,1,NA,1.3616808000952005,526.8201465999009,528.2699886398623,2023-06-06 13:05:19.718911,2023-06-06 13:05:21.161169,SD022.jpg,0,10317,40-69,2023-06-06_12h57.35.930,Recall,2021.2.3,60.05205312451164,
,,,,,,,,,,,,,instrFunc,space,"Great work! 

 Now you will switch to the other image type.

 Press the spacebar whenever you are ready to start.",2.300358400098048,528.2094320999458,530.5566716399044,2023-06-06 13:05:21.162168,2023-06-06 13:05:23.494613,,,10317,40-69,2023-06-06_12h57.35.930,Recall,2021.2.3,60.05205312451164,
,DD021.jpg,0,FF021.jpg,0,,,,,0,0,0,20,imgFunc,2,NA,5.45447240001522,530.6313558999682,536.1793729800265,2023-06-06 13:05:23.522540,2023-06-06 13:05:29.066548,FF021.jpg,0,10317,40-69,2023-06-06_12h57.35.930,Recall,2021.2.3,60.05205312451164,
,SD038.jpg,0,MF038.jpg,0,,,,,0,1,1,87,imgFunc,0,NA,2.5579763000132516,536.1839022999629,538.8310511399759,2023-06-06 13:05:29.077521,2023-06-06 13:05:31.718576,MF038.jpg,0,10317,40-69,2023-06-06_12h57.35.930,Recall,2021.2.3,60.05205312451164,
,L_SD503.jpg,1,L_MF503.jpg,1,,,,,0,2,2,92,imgFunc,0,NA,1.7233524000039324,538.8343828999205,540.6505553399911,2023-06-06 13:05:31.727554,2023-06-06 13:05:33.536587,L_MF503.jpg,1,10317,40-69,2023-06-06_12h57.35.930,Recall,2021.2.3,60.05205312451164,
,SD015.jpg,0,MF015.jpg,0,,,,,0,3,3,64,imgFunc,1,NA,2.2292015999555588,540.6726171999471,543.0137262399076,2023-06-06 13:05:33.549554,2023-06-06 13:05:35.888001,MF015.jpg,0,10317,40-69,2023-06-06_12h57.35.930,Recall,2021.2.3,60.05205312451164,
,SD012.jpg,0,MF012.jpg,0,,,,,0,4,4,61,imgFunc,1,NA,2.7573553000111133,543.0083425999619,545.8580104399007,2023-06-06 13:05:35.896979,2023-06-06 13:05:38.740152,MF012.jpg,0,10317,40-69,2023-06-06_12h57.35.930,Recall,2021.2.3,60.05205312451164,
,DD017.jpg,0,FF017.jpg,0,,,,,0,5,5,16,imgFunc,2,NA,3.710698299924843,545.8550736999605,549.6563909398392,2023-06-06 13:05:38.749151,2023-06-06 13:05:42.543107,FF017.jpg,0,10317,40-69,2023-06-06_12h57.35.930,Recall,2021.2.3,60.05205312451164,
,DD035.jpg,0,FF035.jpg,0,,,,,0,6,6,34,imgFunc,2,NA,5.964331900002435,549.6574767999118,555.7102963398211,2023-06-06 13:05:42.552085,2023-06-06 13:05:48.597379,FF035.jpg,0,10317,40-69,2023-06-06_12h57.35.930,Recall,2021.2.3,60.05205312451164,
,DD020.jpg,0,FF020.jpg,0,,,,,0,7,7,19,imgFunc,2,NA,2.0819638000102714,555.7396597999614,557.9395643800963,2023-06-06 13:05:48.614335,2023-06-06 13:05:50.798963,FF020.jpg,0,10317,40-69,2023-06-06_12h57.35.930,Recall,2021.2.3,60.05205312451164,
,DD006.jpg,0,FF006.jpg,0,,,,,0,8,8,5,imgFunc,9,NA,5.224029699922539,557.9176825999748,563.2368440398714,2023-06-06 13:05:50.807941,2023-06-06 13:05:56.119270,FF006.jpg,0,10317,40-69,2023-06-06_12h57.35.930,Recall,2021.2.3,60.05205312451164,
,SD009.jpg,0,MF009.jpg,0,,,,,0,9,9,58,imgFunc,1,NA,1.967091100057587,563.2387195999036,565.302223439794,2023-06-06 13:05:56.129274,2023-06-06 13:05:58.187399,MF009.jpg,0,10317,40-69,2023-06-06_12h57.35.930,Recall,2021.2.3,60.05205312451164,
,SD030.jpg,0,MF030.jpg,0,,,,,0,10,10,79,imgFunc,2,NA,1.5996023999759927,565.3102771999547,567.0100176399574,2023-06-06 13:05:58.196377,2023-06-06 13:05:59.888624,MF030.jpg,0,10317,40-69,2023-06-06_12h57.35.930,Recall,2021.2.3,60.05205312451164,
,SD022.jpg,0,MF022.jpg,0,,,,,0,11,11,71,imgFunc,2,NA,1.74939400004223,567.0162908999482,568.8660890399478,2023-06-06 13:05:59.897602,2023-06-06 13:06:01.739953,MF022.jpg,0,10317,40-69,2023-06-06_12h57.35.930,Recall,2021.2.3,60.05205312451164,
,DD022.jpg,0,FF022.jpg,0,,,,,0,12,12,21,imgFunc,9,NA,4.943826800095849,568.8777068000054,573.9319079399575,2023-06-06 13:06:01.755913,2023-06-06 13:06:06.810265,FF022.jpg,0,10317,40-69,2023-06-06_12h57.35.930,Recall,2021.2.3,60.05205312451164,
,DD038.jpg,0,FF038.jpg,0,,,,,0,13,13,37,imgFunc,1,NA,3.115088799968362,573.9307754999027,577.1436592398677,2023-06-06 13:06:06.821259,2023-06-06 13:06:10.029217,FF038.jpg,0,10317,40-69,2023-06-06_12h57.35.930,Recall,2021.2.3,60.05205312451164,
,SD020.jpg,0,MF020.jpg,0,,,,,0,14,14,69,imgFunc,2,NA,1.8362247999757528,577.1454153999221,579.079045239836,2023-06-06 13:06:10.038194,2023-06-06 13:06:11.963886,MF020.jpg,0,10317,40-69,2023-06-06_12h57.35.930,Recall,2021.2.3,60.05205312451164,
,DD024.jpg,0,FF024.jpg,0,,,,,0,15,15,23,imgFunc,9,NA,4.580392399919219,579.089469700004,583.7736865398474,2023-06-06 13:06:11.972864,2023-06-06 13:06:16.650598,FF024.jpg,0,10317,40-69,2023-06-06_12h57.35.930,Recall,2021.2.3,60.05205312451164,
,SD004.jpg,0,MF004.jpg,0,,,,,0,16,16,53,imgFunc,1,NA,1.5321908000623807,583.7856121999212,585.4361139800167,2023-06-06 13:06:16.667555,2023-06-06 13:06:18.301806,MF004.jpg,0,10317,40-69,2023-06-06_12h57.35.930,Recall,2021.2.3,60.05205312451164,
,SD003.jpg,0,MF003.jpg,0,,,,,0,17,17,52,imgFunc,1,NA,1.2587827999377623,585.4189050999703,586.7688105398556,2023-06-06 13:06:18.310784,2023-06-06 13:06:19.652867,MF003.jpg,0,10317,40-69,2023-06-06_12h57.35.930,Recall,2021.2.3,60.05205312451164,
,DD040.jpg,0,FF040.jpg,0,,,,,0,18,18,39,imgFunc,2,NA,2.413746199919842,586.7681011999957,589.2854605399771,2023-06-06 13:06:19.661845,2023-06-06 13:06:22.171151,FF040.jpg,0,10317,40-69,2023-06-06_12h57.35.930,Recall,2021.2.3,60.05205312451164,
,DD023.jpg,0,FF023.jpg,0,,,,,0,19,19,22,imgFunc,2,NA,3.619424300035462,589.2904584999196,593.008955140016,2023-06-06 13:06:22.180128,2023-06-06 13:06:25.890593,FF023.jpg,0,10317,40-69,2023-06-06_12h57.35.930,Recall,2021.2.3,60.05205312451164,
,L_DD505.jpg,1,L_FF505.jpg,1,,,,,0,20,20,44,imgFunc,9,NA,2.9333204000722617,593.0084900999209,596.0428902398562,2023-06-06 13:06:25.899571,2023-06-06 13:06:28.926126,L_FF505.jpg,1,10317,40-69,2023-06-06_12h57.35.930,Recall,2021.2.3,60.05205312451164,
,DD039.jpg,0,FF039.jpg,0,,,,,0,21,21,38,imgFunc,1,NA,3.8266994000878185,596.0668135999003,600.003521539853,2023-06-06 13:06:28.942086,2023-06-06 13:06:32.878368,FF039.jpg,0,10317,40-69,2023-06-06_12h57.35.930,Recall,2021.2.3,60.05205312451164,
,SD002.jpg,0,MF002.jpg,0,,,,,0,22,22,51,imgFunc,9,NA,2.3954490999458358,599.9942161999643,602.4765223398572,2023-06-06 13:06:32.888331,2023-06-06 13:06:35.364223,MF002.jpg,0,10317,40-69,2023-06-06_12h57.35.930,Recall,2021.2.3,60.05205312451164,
,SD028.jpg,0,MF028.jpg,0,,,,,0,23,23,77,imgFunc,0,NA,4.670984799973667,602.4867073999485,607.255001339945,2023-06-06 13:06:35.373201,2023-06-06 13:06:40.133900,MF028.jpg,0,10317,40-69,2023-06-06_12h57.35.930,Recall,2021.2.3,60.05205312451164,
,L_DD503.jpg,1,L_FF503.jpg,1,,,,,0,24,24,42,imgFunc,0,NA,7.5212061000056565,607.2604674999602,614.8792474400252,2023-06-06 13:06:40.143875,2023-06-06 13:06:47.756186,L_FF503.jpg,1,10317,40-69,2023-06-06_12h57.35.930,Recall,2021.2.3,60.05205312451164,
,SD018.jpg,0,MF018.jpg,0,,,,,0,25,25,67,imgFunc,1,NA,1.7473420000169426,614.8985226999503,616.7658946799347,2023-06-06 13:06:47.773074,2023-06-06 13:06:49.624325,MF018.jpg,0,10317,40-69,2023-06-06_12h57.35.930,Recall,2021.2.3,60.05205312451164,
,L_SD508.jpg,1,L_MF508.jpg,1,,,,,0,26,26,97,imgFunc,1,NA,1.972622999921441,616.7451500999741,618.811785939848,2023-06-06 13:06:49.633303,2023-06-06 13:06:51.692325,L_MF508.jpg,1,10317,40-69,2023-06-06_12h57.35.930,Recall,2021.2.3,60.05205312451164,
,DD018.jpg,0,FF018.jpg,0,,,,,0,27,27,17,imgFunc,9,NA,3.3629669999936596,618.810831699986,622.278741540038,2023-06-06 13:06:51.701303,2023-06-06 13:06:55.161349,FF018.jpg,0,10317,40-69,2023-06-06_12h57.35.930,Recall,2021.2.3,60.05205312451164,
,L_SD510.jpg,1,L_MF510.jpg,1,,,,,0,28,28,99,imgFunc,1,NA,2.7166736000217497,622.2890562999528,625.1066141399788,2023-06-06 13:06:55.170326,2023-06-06 13:06:57.980160,L_MF510.jpg,1,10317,40-69,2023-06-06_12h57.35.930,Recall,2021.2.3,60.05205312451164,
,SD036.jpg,0,MF036.jpg,0,,,,,0,29,29,85,imgFunc,9,NA,2.1648633999284357,625.1050456999801,627.372074540006,2023-06-06 13:06:57.989138,2023-06-06 13:07:00.248356,MF036.jpg,0,10317,40-69,2023-06-06_12h57.35.930,Recall,2021.2.3,60.05205312451164,
,SD037.jpg,0,MF037.jpg,0,,,,,0,30,30,86,imgFunc,2,NA,2.5148076999466866,627.3869989999803,630.0220138799632,2023-06-06 13:07:00.265334,2023-06-06 13:07:02.883777,MF037.jpg,0,10317,40-69,2023-06-06_12h57.35.930,Recall,2021.2.3,60.05205312451164,
,L_SD504.jpg,1,L_MF504.jpg,1,,,,,0,31,31,93,imgFunc,1,NA,1.676482200040482,630.0013539999491,631.7682138398523,2023-06-06 13:07:02.892754,2023-06-06 13:07:04.651801,L_MF504.jpg,1,10317,40-69,2023-06-06_12h57.35.930,Recall,2021.2.3,60.05205312451164,
,SD011.jpg,0,MF011.jpg,0,,,,,0,32,32,60,imgFunc,0,NA,3.9641897999681532,631.7695449999301,635.8379335398786,2023-06-06 13:07:04.660778,2023-06-06 13:07:08.721252,MF011.jpg,0,10317,40-69,2023-06-06_12h57.35.930,Recall,2021.2.3,60.05205312451164,
,DD010.jpg,0,FF010.jpg,0,,,,,0,33,33,9,imgFunc,1,NA,6.593217100016773,635.8444699000102,642.5480031399056,2023-06-06 13:07:08.730230,2023-06-06 13:07:15.425996,FF010.jpg,0,10317,40-69,2023-06-06_12h57.35.930,Recall,2021.2.3,60.05205312451164,
,L_SD502.jpg,1,L_MF502.jpg,1,,,,,0,34,34,91,imgFunc,9,NA,2.768090800032951,642.5736242999556,645.4594728399534,2023-06-06 13:07:15.441955,2023-06-06 13:07:18.328126,L_MF502.jpg,1,10317,40-69,2023-06-06_12h57.35.930,Recall,2021.2.3,60.05205312451164,
,SD034.jpg,0,MF034.jpg,0,,,,,0,35,35,83,imgFunc,9,NA,4.816156500019133,645.4456415999448,650.3643569400301,2023-06-06 13:07:18.337104,2023-06-06 13:07:23.248212,MF034.jpg,0,10317,40-69,2023-06-06_12h57.35.930,Recall,2021.2.3,60.05205312451164,
,SD005.jpg,0,MF005.jpg,0,,,,,0,36,36,54,imgFunc,1,NA,3.3974855000851676,650.3842200000072,653.8984943398973,2023-06-06 13:07:23.258193,2023-06-06 13:07:26.767287,MF005.jpg,0,10317,40-69,2023-06-06_12h57.35.930,Recall,2021.2.3,60.05205312451164,
,DD034.jpg,0,FF034.jpg,0,,,,,0,37,37,33,imgFunc,9,NA,2.0806030000094324,653.9009335999144,656.1011813398218,2023-06-06 13:07:26.776265,2023-06-06 13:07:28.968858,FF034.jpg,0,10317,40-69,2023-06-06_12h57.35.930,Recall,2021.2.3,60.05205312451164,
,L_SD501.jpg,1,L_MF501.jpg,1,,,,,0,38,38,90,imgFunc,0,NA,3.327793499920517,656.0939171999926,659.5284097400727,2023-06-06 13:07:28.977841,2023-06-06 13:07:32.404958,L_MF501.jpg,1,10317,40-69,2023-06-06_12h57.35.930,Recall,2021.2.3,60.05205312451164,
,DD015.jpg,0,FF015.jpg,0,,,,,0,39,39,14,imgFunc,9,NA,2.2780162999406457,659.5438718999503,661.9451707799453,2023-06-06 13:07:32.421915,2023-06-06 13:07:34.806653,FF015.jpg,0,10317,40-69,2023-06-06_12h57.35.930,Recall,2021.2.3,60.05205312451164,
,SD008.jpg,0,MF008.jpg,0,,,,,0,40,40,57,imgFunc,1,NA,2.5053659999975935,661.9244162999094,664.5249311397783,2023-06-06 13:07:34.815631,2023-06-06 13:07:37.408512,MF008.jpg,0,10317,40-69,2023-06-06_12h57.35.930,Recall,2021.2.3,60.05205312451164,
,L_DD506.jpg,1,L_FF506.jpg,1,,,,,0,41,41,45,imgFunc,9,NA,2.157322100014426,664.5283282999881,666.7778871400515,2023-06-06 13:07:37.417489,2023-06-06 13:07:39.658963,L_FF506.jpg,1,10317,40-69,2023-06-06_12h57.35.930,Recall,2021.2.3,60.05205312451164,
,DD031.jpg,0,FF031.jpg,0,,,,,0,42,42,30,imgFunc,0,NA,2.7760333999758586,666.7817927999422,669.6666652398417,2023-06-06 13:07:39.667939,2023-06-06 13:07:42.545532,FF031.jpg,0,10317,40-69,2023-06-06_12h57.35.930,Recall,2021.2.3,60.05205312451164,
,SD016.jpg,0,MF016.jpg,0,,,,,0,43,43,65,imgFunc,1,NA,1.4772799999918789,669.6725240999367,671.2434832400177,2023-06-06 13:07:42.560493,2023-06-06 13:07:44.129754,MF016.jpg,0,10317,40-69,2023-06-06_12h57.35.930,Recall,2021.2.3,60.05205312451164,
,L_DD508.jpg,1,L_FF508.jpg,1,,,,,0,44,44,47,imgFunc,9,NA,2.6253660999936983,671.2523442999227,673.9852174399421,2023-06-06 13:07:44.138732,2023-06-06 13:07:46.865053,L_FF508.jpg,1,10317,40-69,2023-06-06_12h57.35.930,Recall,2021.2.3,60.05205312451164,
,DD037.jpg,0,FF037.jpg,0,,,,,0,45,45,36,imgFunc,9,NA,4.118179899989627,673.9836829999695,678.2012473399518,2023-06-06 13:07:46.873914,2023-06-06 13:07:51.084994,FF037.jpg,0,10317,40-69,2023-06-06_12h57.35.930,Recall,2021.2.3,60.05205312451164,
,SD007.jpg,0,MF007.jpg,0,,,,,0,46,46,56,imgFunc,2,NA,3.6614417999517173,678.2083990999963,681.9758660399821,2023-06-06 13:07:51.093971,2023-06-06 13:07:54.854315,MF007.jpg,0,10317,40-69,2023-06-06_12h57.35.930,Recall,2021.2.3,60.05205312451164,
,DD011.jpg,0,FF011.jpg,0,,,,,0,47,47,10,imgFunc,0,NA,1.7860189999919385,681.9795830999501,683.8796366398456,2023-06-06 13:07:54.863293,2023-06-06 13:07:56.755099,FF011.jpg,0,10317,40-69,2023-06-06_12h57.35.930,Recall,2021.2.3,60.05205312451164,
,SD017.jpg,0,MF017.jpg,0,,,,,0,48,48,66,imgFunc,1,NA,1.8634371999651194,683.8863411999773,685.8542625801638,2023-06-06 13:07:56.772077,2023-06-06 13:07:58.723002,MF017.jpg,0,10317,40-69,2023-06-06_12h57.35.930,Recall,2021.2.3,60.05205312451164,
,DD001.jpg,0,FF001.jpg,0,,,,,0,49,49,0,imgFunc,9,NA,2.166618900024332,685.8391808999004,688.1061358399456,2023-06-06 13:07:58.732008,2023-06-06 13:08:00.991790,FF001.jpg,0,10317,40-69,2023-06-06_12h57.35.930,Recall,2021.2.3,60.05205312451164,
,SD001.jpg,0,MF001.jpg,0,,,,,0,50,50,50,imgFunc,9,NA,4.018296000082046,688.1154171999078,692.2333424397511,2023-06-06 13:08:01.000768,2023-06-06 13:08:05.111513,MF001.jpg,0,10317,40-69,2023-06-06_12h57.35.930,Recall,2021.2.3,60.05205312451164,
,L_SD506.jpg,1,L_MF506.jpg,1,,,,,0,51,51,95,imgFunc,9,NA,2.2505671000108123,692.2354006000096,694.5852497399319,2023-06-06 13:08:05.120512,2023-06-06 13:08:07.463260,L_MF506.jpg,1,10317,40-69,2023-06-06_12h57.35.930,Recall,2021.2.3,60.05205312451164,
,L_DD507.jpg,1,L_FF507.jpg,1,,,,,0,52,52,46,imgFunc,9,NA,3.462448099977337,694.599189999979,698.171921840054,2023-06-06 13:08:07.478222,2023-06-06 13:08:11.049052,L_FF507.jpg,1,10317,40-69,2023-06-06_12h57.35.930,Recall,2021.2.3,60.05205312451164,
,SD025.jpg,0,MF025.jpg,0,,,,,0,53,53,74,imgFunc,2,NA,2.4183838999597356,698.1794368999545,700.7098479398992,2023-06-06 13:08:11.060022,2023-06-06 13:08:13.584195,MF025.jpg,0,10317,40-69,2023-06-06_12h57.35.930,Recall,2021.2.3,60.05205312451164,
,SD026.jpg,0,MF026.jpg,0,,,,,0,54,54,75,imgFunc,0,NA,1.9622031999751925,700.6995409999508,702.7501482400112,2023-06-06 13:08:13.593173,2023-06-06 13:08:15.635946,MF026.jpg,0,10317,40-69,2023-06-06_12h57.35.930,Recall,2021.2.3,60.05205312451164,
,DD009.jpg,0,FF009.jpg,0,,,,,0,55,55,8,imgFunc,9,NA,3.7324295999715105,702.75343469996,706.5881805400131,2023-06-06 13:08:15.644923,2023-06-06 13:08:19.471844,FF009.jpg,0,10317,40-69,2023-06-06_12h57.35.930,Recall,2021.2.3,60.05205312451164,
,L_DD502.jpg,1,L_FF502.jpg,1,,,,,0,56,56,41,imgFunc,9,NA,2.6262783999554813,706.5954590999754,709.3293476400431,2023-06-06 13:08:19.480821,2023-06-06 13:08:22.206916,L_FF502.jpg,1,10317,40-69,2023-06-06_12h57.35.930,Recall,2021.2.3,60.05205312451164,
,DD030.jpg,0,FF030.jpg,0,,,,,0,57,57,29,imgFunc,9,NA,3.4373954000184312,709.344318099902,712.8949772799388,2023-06-06 13:08:22.224870,2023-06-06 13:08:25.759776,FF030.jpg,0,10317,40-69,2023-06-06_12h57.35.930,Recall,2021.2.3,60.05205312451164,
,DD005.jpg,0,FF005.jpg,0,,,,,0,58,58,4,imgFunc,9,NA,2.1706775999628007,712.8751343999757,715.1417457399657,2023-06-06 13:08:25.768754,2023-06-06 13:08:28.027687,FF005.jpg,0,10317,40-69,2023-06-06_12h57.35.930,Recall,2021.2.3,60.05205312451164,
,DD026.jpg,0,FF026.jpg,0,,,,,0,59,59,25,imgFunc,0,NA,3.8223263000836596,715.1513744000113,719.0863281399943,2023-06-06 13:08:28.036665,2023-06-06 13:08:31.964047,FF026.jpg,0,10317,40-69,2023-06-06_12h57.35.930,Recall,2021.2.3,60.05205312451164,
,SD027.jpg,0,MF027.jpg,0,,,,,0,60,60,76,imgFunc,1,NA,1.5826800999930128,719.0870825999882,720.7695265398361,2023-06-06 13:08:31.973053,2023-06-06 13:08:33.648665,MF027.jpg,0,10317,40-69,2023-06-06_12h57.35.930,Recall,2021.2.3,60.05205312451164,
,SD023.jpg,0,MF023.jpg,0,,,,,0,61,61,72,imgFunc,9,NA,2.702304699923843,720.7752112000016,723.5807021398796,2023-06-06 13:08:33.663627,2023-06-06 13:08:36.467269,MF023.jpg,0,10317,40-69,2023-06-06_12h57.35.930,Recall,2021.2.3,60.05205312451164,
,DD004.jpg,0,FF004.jpg,0,,,,,0,62,62,3,imgFunc,0,NA,4.25831379997544,723.5875128000043,727.9371124398895,2023-06-06 13:08:36.477244,2023-06-06 13:08:40.820218,FF004.jpg,0,10317,40-69,2023-06-06_12h57.35.930,Recall,2021.2.3,60.05205312451164,
,SD019.jpg,0,MF019.jpg,0,,,,,0,63,63,68,imgFunc,9,NA,2.0044159000972286,727.9451158999,730.0616620398359,2023-06-06 13:08:40.829198,2023-06-06 13:08:42.938660,MF019.jpg,0,10317,40-69,2023-06-06_12h57.35.930,Recall,2021.2.3,60.05205312451164,
,SD006.jpg,0,MF006.jpg,0,,,,,0,64,64,55,imgFunc,0,NA,1.7639678000705317,730.0578412999166,731.9246271398151,2023-06-06 13:08:42.947638,2023-06-06 13:08:44.806728,MF006.jpg,0,10317,40-69,2023-06-06_12h57.35.930,Recall,2021.2.3,60.05205312451164,
,DD007.jpg,0,FF007.jpg,0,,,,,0,65,65,6,imgFunc,1,NA,1.7924542999826372,731.9333528999705,733.8334264399018,2023-06-06 13:08:44.815706,2023-06-06 13:08:46.707974,FF007.jpg,0,10317,40-69,2023-06-06_12h57.35.930,Recall,2021.2.3,60.05205312451164,
,DD019.jpg,0,FF019.jpg,0,,,,,0,66,66,18,imgFunc,1,NA,1.4753105000127107,733.8424281999469,735.4112441398902,2023-06-06 13:08:46.723933,2023-06-06 13:08:48.292606,FF019.jpg,0,10317,40-69,2023-06-06_12h57.35.930,Recall,2021.2.3,60.05205312451164,
,DD002.jpg,0,FF002.jpg,0,,,,,0,67,67,1,imgFunc,9,NA,3.6525296999607235,735.4093917999417,739.1597069399431,2023-06-06 13:08:48.301583,2023-06-06 13:08:52.045089,FF002.jpg,0,10317,40-69,2023-06-06_12h57.35.930,Recall,2021.2.3,60.05205312451164,
,SD032.jpg,0,MF032.jpg,0,,,,,0,68,68,81,imgFunc,0,NA,4.795252999989316,739.1625422999496,744.0478368399199,2023-06-06 13:08:52.054089,2023-06-06 13:08:56.932001,MF032.jpg,0,10317,40-69,2023-06-06_12h57.35.930,Recall,2021.2.3,60.05205312451164,
,DD028.jpg,0,FF028.jpg,0,,,,,0,69,69,27,imgFunc,0,NA,1.5272233000723645,744.0786635999102,745.7206066398649,2023-06-06 13:08:56.944968,2023-06-06 13:08:58.583046,FF028.jpg,0,10317,40-69,2023-06-06_12h57.35.930,Recall,2021.2.3,60.05205312451164,
,SD010.jpg,0,MF010.jpg,0,,,,,0,70,70,59,imgFunc,1,NA,2.0087669999338686,745.7170651999768,747.8200563398423,2023-06-06 13:08:58.599005,2023-06-06 13:09:00.701257,MF010.jpg,0,10317,40-69,2023-06-06_12h57.35.930,Recall,2021.2.3,60.05205312451164,
,L_SD509.jpg,1,L_MF509.jpg,1,,,,,0,71,71,98,imgFunc,0,NA,1.6590122999623418,747.818701799959,749.5691890398739,2023-06-06 13:09:00.709237,2023-06-06 13:09:02.452535,L_MF509.jpg,1,10317,40-69,2023-06-06_12h57.35.930,Recall,2021.2.3,60.05205312451164,
,DD014.jpg,0,FF014.jpg,0,,,,,0,72,72,13,imgFunc,9,NA,1.9558331000152975,749.5699928000104,751.6207381399581,2023-06-06 13:09:02.461513,2023-06-06 13:09:04.504161,FF014.jpg,0,10317,40-69,2023-06-06_12h57.35.930,Recall,2021.2.3,60.05205312451164,
,L_DD501.jpg,1,L_FF501.jpg,1,,,,,0,73,73,40,imgFunc,9,NA,6.165367699926719,751.6324453999987,757.8997613399988,2023-06-06 13:09:04.514158,2023-06-06 13:09:10.774644,L_FF501.jpg,1,10317,40-69,2023-06-06_12h57.35.930,Recall,2021.2.3,60.05205312451164,
,DD025.jpg,0,FF025.jpg,0,,,,,0,74,74,24,imgFunc,9,NA,2.82166610006243,757.9202326999512,760.8671711799689,2023-06-06 13:09:10.793592,2023-06-06 13:09:13.727187,FF025.jpg,0,10317,40-69,2023-06-06_12h57.35.930,Recall,2021.2.3,60.05205312451164,
,DD003.jpg,0,FF003.jpg,0,,,,,0,75,75,2,imgFunc,0,NA,2.570776699925773,760.8509496999905,763.5033721399959,2023-06-06 13:09:13.743146,2023-06-06 13:09:16.395393,FF003.jpg,0,10317,40-69,2023-06-06_12h57.35.930,Recall,2021.2.3,60.05205312451164,
,L_DD510.jpg,1,L_FF510.jpg,1,,,,,0,76,76,49,imgFunc,0,NA,4.323437700048089,763.514495399897,767.9323607399128,2023-06-06 13:09:16.404369,2023-06-06 13:09:20.815763,L_FF510.jpg,1,10317,40-69,2023-06-06_12h57.35.930,Recall,2021.2.3,60.05205312451164,
,SD021.jpg,0,MF021.jpg,0,,,,,0,77,77,70,imgFunc,1,NA,1.3472512000007555,767.930543800001,769.3792392399628,2023-06-06 13:09:20.824741,2023-06-06 13:09:22.266708,MF021.jpg,0,10317,40-69,2023-06-06_12h57.35.930,Recall,2021.2.3,60.05205312451164,
,SD040.jpg,0,MF040.jpg,0,,,,,0,78,78,89,imgFunc,1,NA,1.1626800999511033,769.3871509999735,770.6529871398816,2023-06-06 13:09:22.275686,2023-06-06 13:09:23.534211,MF040.jpg,0,10317,40-69,2023-06-06_12h57.35.930,Recall,2021.2.3,60.05205312451164,
,SD035.jpg,0,MF035.jpg,0,,,,,0,79,79,84,imgFunc,1,NA,1.304645499913022,770.653342799982,772.0418475400656,2023-06-06 13:09:23.548174,2023-06-06 13:09:24.935526,MF035.jpg,0,10317,40-69,2023-06-06_12h57.35.930,Recall,2021.2.3,60.05205312451164,
,L_DD509.jpg,1,L_FF509.jpg,1,,,,,0,80,80,48,imgFunc,9,NA,4.241793800028972,772.0521064999048,776.387160939863,2023-06-06 13:09:24.944504,2023-06-06 13:09:29.271893,L_FF509.jpg,1,10317,40-69,2023-06-06_12h57.35.930,Recall,2021.2.3,60.05205312451164,
,DD036.jpg,0,FF036.jpg,0,,,,,0,81,81,35,imgFunc,9,NA,2.2840738999657333,776.3856010999298,778.7681391399819,2023-06-06 13:09:29.280891,2023-06-06 13:09:31.656581,FF036.jpg,0,10317,40-69,2023-06-06_12h57.35.930,Recall,2021.2.3,60.05205312451164,
,SD013.jpg,0,MF013.jpg,0,,,,,0,82,82,62,imgFunc,0,NA,1.7816571000730619,778.7761302998988,780.6596859400161,2023-06-06 13:09:31.665558,2023-06-06 13:09:33.541476,MF013.jpg,0,10317,40-69,2023-06-06_12h57.35.930,Recall,2021.2.3,60.05205312451164,
,SD029.jpg,0,MF029.jpg,0,,,,,0,83,83,78,imgFunc,2,NA,3.4585209999931976,780.6591610999312,784.210689439904,2023-06-06 13:09:33.550454,2023-06-06 13:09:37.094121,MF029.jpg,0,10317,40-69,2023-06-06_12h57.35.930,Recall,2021.2.3,60.05205312451164,
,DD027.jpg,0,FF027.jpg,0,,,,,0,84,84,26,imgFunc,9,NA,2.157992299995385,784.2315683999332,786.5165140799945,2023-06-06 13:09:37.110080,2023-06-06 13:09:39.378991,FF027.jpg,0,10317,40-69,2023-06-06_12h57.35.930,Recall,2021.2.3,60.05205312451164,
,SD031.jpg,0,MF031.jpg,0,,,,,0,85,85,80,imgFunc,1,NA,2.317700200015679,786.5040547999088,788.9214521399699,2023-06-06 13:09:39.387969,2023-06-06 13:09:41.797310,MF031.jpg,0,10317,40-69,2023-06-06_12h57.35.930,Recall,2021.2.3,60.05205312451164,
,SD039.jpg,0,MF039.jpg,0,,,,,0,86,86,88,imgFunc,1,NA,3.465401599998586,788.908451700001,792.4599586399272,2023-06-06 13:09:41.806287,2023-06-06 13:09:45.350113,MF039.jpg,0,10317,40-69,2023-06-06_12h57.35.930,Recall,2021.2.3,60.05205312451164,
,DD012.jpg,0,FF012.jpg,0,,,,,0,87,87,11,imgFunc,9,NA,2.7949734000721946,792.4665437999647,795.3667792399647,2023-06-06 13:09:45.359091,2023-06-06 13:09:48.251559,FF012.jpg,0,10317,40-69,2023-06-06_12h57.35.930,Recall,2021.2.3,60.05205312451164,
,SD024.jpg,0,MF024.jpg,0,,,,,0,88,88,73,imgFunc,9,NA,1.631755999987945,795.3741349999327,797.0936269399244,2023-06-06 13:09:48.267518,2023-06-06 13:09:49.986374,MF024.jpg,0,10317,40-69,2023-06-06_12h57.35.930,Recall,2021.2.3,60.05205312451164,
,DD032.jpg,0,FF032.jpg,0,,,,,0,89,89,31,imgFunc,9,NA,3.0354253000114113,797.0984708999749,800.2332812398672,2023-06-06 13:09:49.994355,2023-06-06 13:09:53.122063,FF032.jpg,0,10317,40-69,2023-06-06_12h57.35.930,Recall,2021.2.3,60.05205312451164,
,DD029.jpg,0,FF029.jpg,0,,,,,0,90,90,28,imgFunc,9,NA,1.9345134999603033,800.2392157999566,802.2726516398834,2023-06-06 13:09:53.131040,2023-06-06 13:09:55.156588,FF029.jpg,0,10317,40-69,2023-06-06_12h57.35.930,Recall,2021.2.3,60.05205312451164,
,DD008.jpg,0,FF008.jpg,0,,,,,0,91,91,7,imgFunc,9,NA,2.1037534000352025,802.2780775999418,804.4783791399095,2023-06-06 13:09:55.165566,2023-06-06 13:09:57.358738,FF008.jpg,0,10317,40-69,2023-06-06_12h57.35.930,Recall,2021.2.3,60.05205312451164,
,L_SD505.jpg,1,L_MF505.jpg,1,,,,,0,92,92,94,imgFunc,9,NA,2.0657612999202684,804.4760532999644,806.6425740398699,2023-06-06 13:09:57.367738,2023-06-06 13:09:59.526683,L_MF505.jpg,1,10317,40-69,2023-06-06_12h57.35.930,Recall,2021.2.3,60.05205312451164,
,DD033.jpg,0,FF033.jpg,0,,,,,0,93,93,32,imgFunc,9,NA,2.0068978000199422,806.6628093000036,808.7807094799355,2023-06-06 13:09:59.543639,2023-06-06 13:10:01.644736,FF033.jpg,0,10317,40-69,2023-06-06_12h57.35.930,Recall,2021.2.3,60.05205312451164,
,L_DD504.jpg,1,L_FF504.jpg,1,,,,,0,94,94,43,imgFunc,9,NA,1.82473300001584,808.765014900011,810.6983679400291,2023-06-06 13:10:01.653597,2023-06-06 13:10:03.579651,L_FF504.jpg,1,10317,40-69,2023-06-06_12h57.35.930,Recall,2021.2.3,60.05205312451164,
,SD014.jpg,0,MF014.jpg,0,,,,,0,95,95,63,imgFunc,1,NA,2.5124612000072375,810.6932159999851,813.2940694399877,2023-06-06 13:10:03.587629,2023-06-06 13:10:06.181449,MF014.jpg,0,10317,40-69,2023-06-06_12h57.35.930,Recall,2021.2.3,60.05205312451164,
,SD033.jpg,0,MF033.jpg,0,,,,,0,96,96,82,imgFunc,1,NA,1.2928044000873342,813.296847099904,814.6795190398116,2023-06-06 13:10:06.190445,2023-06-06 13:10:07.565725,MF033.jpg,0,10317,40-69,2023-06-06_12h57.35.930,Recall,2021.2.3,60.05205312451164,
,L_SD507.jpg,1,L_MF507.jpg,1,,,,,0,97,97,96,imgFunc,0,NA,2.5749945000279695,814.6948432999197,817.3673739398364,2023-06-06 13:10:07.579689,2023-06-06 13:10:10.250667,L_MF507.jpg,1,10317,40-69,2023-06-06_12h57.35.930,Recall,2021.2.3,60.05205312451164,
,DD013.jpg,0,FF013.jpg,0,,,,,0,98,98,12,imgFunc,9,NA,5.252906100009568,817.3608939999249,822.6968699397985,2023-06-06 13:10:10.259646,2023-06-06 13:10:15.587697,FF013.jpg,0,10317,40-69,2023-06-06_12h57.35.930,Recall,2021.2.3,60.05205312451164,
,DD016.jpg,0,FF016.jpg,0,,,,,0,99,99,15,imgFunc,0,NA,2.310405600001104,822.7115095999325,825.1253385398304,2023-06-06 13:10:15.598692,2023-06-06 13:10:18.006546,FF016.jpg,0,10317,40-69,2023-06-06_12h57.35.930,Recall,2021.2.3,60.05205312451164,
