onset	duration	trial_type	rt	resp	gender	image_left	image_right
0.589173200074583	3.00122900004499	decision	1.53264250000939	left	S	SD001.jpg	SD002.jpg
4.13944280007854	1.01639820006676	win	NaN	n/a	n/a	SD001.jpg	SD002.jpg
11.0892773000523	3.0007273000665	decision	2.28335490007885	right	S	SD003.jpg	SD004.jpg
14.6391076999716	1.01674160012044	loss	NaN	n/a	n/a	SD003.jpg	SD004.jpg
17.3727812001016	3.00163569999859	decision	2.28211409994401	left	S	SD005.jpg	SD006.jpg
20.9227597001009	1.01663079997525	win	NaN	n/a	n/a	SD005.jpg	SD006.jpg
23.6557312000077	3.00122570013627	decision	2.03340100008063	left	D	DD001.jpg	DD002.jpg
27.2058143999893	1.01662250002846	win	NaN	n/a	n/a	DD001.jpg	DD002.jpg
32.0392587999813	3.00148260011338	decision	2.03292310005054	right	D	DD003.jpg	DD004.jpg
35.5893578999676	1.01623710012063	loss	NaN	n/a	n/a	DD003.jpg	DD004.jpg
42.5060650999658	3.0007837000303	decision	2.03308439999819	left	S	SD007.jpg	SD008.jpg
46.0556222000159	1.01674750004895	loss	NaN	n/a	n/a	SD007.jpg	SD008.jpg
50.9058942999691	3.00170460017398	decision	1.78292720019817	left	S	SD009.jpg	SD010.jpg
54.4556200001389	1.00018960004672	win	NaN	n/a	n/a	SD009.jpg	SD010.jpg
59.2899079001509	3.00192389986478	decision	2.53366849990562	left	D	DD005.jpg	DD006.jpg
62.8389981000219	1.0002805001568	loss	NaN	n/a	n/a	DD005.jpg	DD006.jpg
65.5723300001118	3.0014124000445	decision	2.0336188999936	right	D	DD007.jpg	DD008.jpg
69.1226590001024	1.00000980007462	win	NaN	n/a	n/a	DD007.jpg	DD008.jpg
71.8392855999991	3.0012207000982	decision	1.53238510014489	left	D	DD009.jpg	DD010.jpg
75.389110899996	1.00002730009146	win	NaN	n/a	n/a	DD009.jpg	DD010.jpg
78.1058245000895	3.00120759988204	decision	1.78349790000357	right	D	DD011.jpg	DD012.jpg
81.6558320999611	1.01639620005153	loss	NaN	n/a	n/a	DD011.jpg	DD012.jpg
86.5059039001353	3.00162260001525	decision	2.03275180002674	left	S	SD011.jpg	SD012.jpg
90.0558764999732	1.01635859999806	loss	NaN	n/a	n/a	SD011.jpg	SD012.jpg
92.7892355001532	3.00189689989202	decision	2.03258219989948	right	S	SD013.jpg	SD014.jpg
96.3390922001563	1.01673199981451	win	NaN	n/a	n/a	SD013.jpg	SD014.jpg
103.272670200095	3.00070030009374	decision	2.28206579992548	left	S	SD015.jpg	SD016.jpg
106.822584700072	1.01649790001102	win	NaN	n/a	n/a	SD015.jpg	SD016.jpg
109.555829599965	3.00090080010705	decision	2.03319530002773	right	D	DD013.jpg	DD014.jpg
113.105837400071	1.01669479999691	win	NaN	n/a	n/a	DD013.jpg	DD014.jpg
120.038857000181	3.00054439995438	decision	2.2831792999059	left	S	SD017.jpg	SD018.jpg
123.588879700052	1.01665650005452	win	NaN	n/a	n/a	SD017.jpg	SD018.jpg
128.439061300131	3.00190699985251	decision	2.03284609992988	right	D	DD015.jpg	DD016.jpg
131.989172199974	1.01655450020917	win	NaN	n/a	n/a	DD015.jpg	DD016.jpg
136.855959900189	3.0009227998089	decision	2.28206229978241	left	S	SD019.jpg	SD020.jpg
140.405549500138	1.0003718000371	win	NaN	n/a	n/a	SD019.jpg	SD020.jpg
145.222246200079	3.00165329989977	decision	2.28347670007497	left	D	DD017.jpg	DD018.jpg
148.772227399983	1.00017950008623	win	NaN	n/a	n/a	DD017.jpg	DD018.jpg
161.989005000098	3.00093659991398	decision	2.03302760003135	right	S	SD021.jpg	SD022.jpg
165.538700700039	1.00012570014223	loss	NaN	n/a	n/a	SD021.jpg	SD022.jpg
172.455542700132	3.00112919998355	decision	2.28249399992637	right	S	SD023.jpg	SD024.jpg
176.005766100017	1.01637369999662	win	NaN	n/a	n/a	SD023.jpg	SD024.jpg
182.938727900153	3.00105730001815	decision	2.78323249984533	left	S	SD025.jpg	SD026.jpg
186.488803799963	1.016878800001	loss	NaN	n/a	n/a	SD025.jpg	SD026.jpg
191.322349900147	3.0015217999462	decision	2.28235540003516	right	S	SD027.jpg	SD028.jpg
194.872311400017	1.00006909994408	loss	NaN	n/a	n/a	SD027.jpg	SD028.jpg
197.622218500124	3.00122199999169	decision	2.28252619993873	right	D	DD019.jpg	DD020.jpg
201.172326200176	1.01645829994231	loss	NaN	n/a	n/a	DD019.jpg	DD020.jpg
203.905703300145	3.00108469999395	decision	2.28307559993118	right	D	DD021.jpg	DD022.jpg
207.455770900007	1.01641890010796	win	NaN	n/a	n/a	DD021.jpg	DD022.jpg
214.388701900141	3.00120479986072	decision	2.03250159998424	left	S	SD029.jpg	SD030.jpg
217.938759200042	1.00015690014698	loss	NaN	n/a	n/a	SD029.jpg	SD030.jpg
224.855289499974	3.00147470016964	decision	2.03361380007118	right	S	SD031.jpg	SD032.jpg
228.405602300074	1.00001650000922	win	NaN	n/a	n/a	SD031.jpg	SD032.jpg
233.222394300159	3.00083869998343	decision	1.78227579989471	left	D	DD023.jpg	DD024.jpg
236.772214000113	1.00000909995288	loss	NaN	n/a	n/a	DD023.jpg	DD024.jpg
239.488550300011	3.00219290005043	decision	2.03374180011451	right	D	DD025.jpg	DD026.jpg
243.038793800166	1.00000200001523	win	NaN	n/a	n/a	DD025.jpg	DD026.jpg
247.855668000178	3.0012363998685	decision	2.03245689999312	right	D	DD027.jpg	DD028.jpg
251.405300399987	1.00018550013192	loss	NaN	n/a	n/a	DD027.jpg	DD028.jpg
254.122291200096	3.00169249996543	decision	2.03251400007866	right	S	SD033.jpg	SD034.jpg
257.67161249998	1.0000960000325	loss	NaN	n/a	n/a	SD033.jpg	SD034.jpg
260.388653300004	3.00072570005432	decision	1.78208180004731	left	S	SD035.jpg	SD036.jpg
263.938523400109	1.01669700001366	loss	NaN	n/a	n/a	SD035.jpg	SD036.jpg
266.671869700076	3.00200359988958	decision	1.78297089994885	right	S	SD037.jpg	SD038.jpg
270.221807900118	1.00017350004055	win	NaN	n/a	n/a	SD037.jpg	SD038.jpg
277.13869040017	3.00213659997098	decision	2.03270319988951	left	D	DD029.jpg	DD030.jpg
280.688884900184	1.01623119995929	loss	NaN	n/a	n/a	DD029.jpg	DD030.jpg
283.438496300019	3.00124350003898	decision	1.78252510004677	left	D	DD031.jpg	DD032.jpg
286.988811000017	1.00007500010543	loss	NaN	n/a	n/a	DD031.jpg	DD032.jpg
291.821863900172	3.0018588998355	decision	2.03295219992287	right	D	DD033.jpg	DD034.jpg
295.371823700145	1.01668270002119	win	NaN	n/a	n/a	DD033.jpg	DD034.jpg
302.305508899968	3.00052400003187	decision	2.03220030013472	left	S	SD039.jpg	SD040.jpg
305.855319400085	1.00034809997305	loss	NaN	n/a	n/a	SD039.jpg	SD040.jpg
312.78880830016	3.00134509988129	decision	2.03309559985064	right	D	DD035.jpg	DD036.jpg
316.338454600191	1.00001709978096	win	NaN	n/a	n/a	DD035.jpg	DD036.jpg
319.055208400125	3.00157419987954	decision	2.03281069989316	right	D	DD037.jpg	DD038.jpg
322.605435100151	1.01617540000007	loss	NaN	n/a	n/a	DD037.jpg	DD038.jpg
325.338508700021	3.00139500014484	decision	1.78331369999796	left	D	DD039.jpg	DD040.jpg
328.888702300144	1.01665230002254	loss	NaN	n/a	n/a	DD039.jpg	DD040.jpg
