onset	duration	trial_type	response_time	Endowment	Endowment_pmod	Decision	Decision_pmod	Offer_pmod
4.515717	2	cue_nonsocial	n/a	16	-6	n/a	n/a	n/a
4.515717	2	cue_nonsocial_low	n/a	16	-7	n/a	n/a	n/a
12.165878	2	cue_nonsocial	n/a	16	-6	n/a	n/a	n/a
12.165878	2	cue_nonsocial_low	n/a	16	-7	n/a	n/a	n/a
19.083004	2	cue_social	n/a	32	9	n/a	n/a	n/a
19.083004	2	cue_social_high	n/a	32	10	n/a	n/a	n/a
28.249031	2	cue_nonsocial	n/a	32	10	n/a	n/a	n/a
28.249031	2	cue_nonsocial_high	n/a	32	9	n/a	n/a	n/a
35.169890	2	cue_social	n/a	16	-7	n/a	n/a	n/a
35.169890	2	cue_social_low	n/a	16	-6	n/a	n/a	n/a
41.983340	2	cue_social	n/a	16	-7	n/a	n/a	n/a
41.983340	2	cue_social_low	n/a	16	-6	n/a	n/a	n/a
48.854504	2	cue_social	n/a	16	-7	n/a	n/a	n/a
48.854504	2	cue_social_low	n/a	16	-6	n/a	n/a	n/a
56.484620	2	cue_social	n/a	16	-7	n/a	n/a	n/a
56.484620	2	cue_social_low	n/a	16	-6	n/a	n/a	n/a
68.898860	2	cue_nonsocial	n/a	16	-6	n/a	n/a	n/a
68.898860	2	cue_nonsocial_low	n/a	16	-7	n/a	n/a	n/a
76.532400	2	cue_nonsocial	n/a	32	10	n/a	n/a	n/a
76.532400	2	cue_nonsocial_high	n/a	32	9	n/a	n/a	n/a
83.365620	2	cue_nonsocial	n/a	16	-6	n/a	n/a	n/a
83.365620	2	cue_nonsocial_low	n/a	16	-7	n/a	n/a	n/a
91.015430	2	cue_nonsocial	n/a	16	-6	n/a	n/a	n/a
91.015430	2	cue_nonsocial_low	n/a	16	-7	n/a	n/a	n/a
97.911900	2	cue_social	n/a	32	9	n/a	n/a	n/a
97.911900	2	cue_social_high	n/a	32	10	n/a	n/a	n/a
105.581726	2	cue_social	n/a	32	9	n/a	n/a	n/a
105.581726	2	cue_social_high	n/a	32	10	n/a	n/a	n/a
112.420090	2	cue_social	n/a	16	-7	n/a	n/a	n/a
112.420090	2	cue_social_low	n/a	16	-6	n/a	n/a	n/a
119.242870	2	cue_social	n/a	16	-7	n/a	n/a	n/a
119.242870	2	cue_social_low	n/a	16	-6	n/a	n/a	n/a
126.878815	2	cue_social	n/a	16	-7	n/a	n/a	n/a
126.878815	2	cue_social_low	n/a	16	-6	n/a	n/a	n/a
133.648940	2	cue_nonsocial	n/a	32	10	n/a	n/a	n/a
133.648940	2	cue_nonsocial_high	n/a	32	9	n/a	n/a	n/a
140.482500	2	cue_nonsocial	n/a	32	10	n/a	n/a	n/a
140.482500	2	cue_nonsocial_high	n/a	32	9	n/a	n/a	n/a
149.819730	2	cue_social	n/a	32	9	n/a	n/a	n/a
149.819730	2	cue_social_high	n/a	32	10	n/a	n/a	n/a
156.582170	2	cue_nonsocial	n/a	32	10	n/a	n/a	n/a
156.582170	2	cue_nonsocial_high	n/a	32	9	n/a	n/a	n/a
165.946560	2	cue_social	n/a	32	9	n/a	n/a	n/a
165.946560	2	cue_social_high	n/a	32	10	n/a	n/a	n/a
172.734950	2	cue_social	n/a	32	9	n/a	n/a	n/a
172.734950	2	cue_social_high	n/a	32	10	n/a	n/a	n/a
179.497940	2	cue_nonsocial	n/a	32	10	n/a	n/a	n/a
179.497940	2	cue_nonsocial_high	n/a	32	9	n/a	n/a	n/a
186.430980	2	cue_social	n/a	32	9	n/a	n/a	n/a
186.430980	2	cue_social_high	n/a	32	10	n/a	n/a	n/a
197.215000	2	cue_nonsocial	n/a	16	-6	n/a	n/a	n/a
197.215000	2	cue_nonsocial_low	n/a	16	-7	n/a	n/a	n/a
204.108750	2	cue_social	n/a	16	-7	n/a	n/a	n/a
204.108750	2	cue_social_low	n/a	16	-6	n/a	n/a	n/a
210.937580	2	cue_social	n/a	16	-7	n/a	n/a	n/a
210.937580	2	cue_social_low	n/a	16	-6	n/a	n/a	n/a
217.790920	2	cue_social	n/a	16	-7	n/a	n/a	n/a
217.790920	2	cue_social_low	n/a	16	-6	n/a	n/a	n/a
225.365400	2	cue_nonsocial	n/a	16	-6	n/a	n/a	n/a
225.365400	2	cue_nonsocial_low	n/a	16	-7	n/a	n/a	n/a
234.687670	2	cue_social	n/a	16	-7	n/a	n/a	n/a
234.687670	2	cue_social_low	n/a	16	-6	n/a	n/a	n/a
242.327530	2	cue_social	n/a	16	-7	n/a	n/a	n/a
242.327530	2	cue_social_low	n/a	16	-6	n/a	n/a	n/a
249.881930	2	cue_nonsocial	n/a	32	10	n/a	n/a	n/a
249.881930	2	cue_nonsocial_high	n/a	32	9	n/a	n/a	n/a
259.131440	2	cue_nonsocial	n/a	16	-6	n/a	n/a	n/a
259.131440	2	cue_nonsocial_low	n/a	16	-7	n/a	n/a	n/a
266.781830	2	cue_nonsocial	n/a	16	-6	n/a	n/a	n/a
266.781830	2	cue_nonsocial_low	n/a	16	-7	n/a	n/a	n/a
276.031700	2	cue_nonsocial	n/a	16	-6	n/a	n/a	n/a
276.031700	2	cue_nonsocial_low	n/a	16	-7	n/a	n/a	n/a
283.681300	2	cue_nonsocial	n/a	32	10	n/a	n/a	n/a
283.681300	2	cue_nonsocial_high	n/a	32	9	n/a	n/a	n/a
290.531800	2	cue_nonsocial	n/a	32	10	n/a	n/a	n/a
290.531800	2	cue_nonsocial_high	n/a	32	9	n/a	n/a	n/a
297.469570	2	cue_social	n/a	32	9	n/a	n/a	n/a
297.469570	2	cue_social_high	n/a	32	10	n/a	n/a	n/a
304.198520	2	cue_nonsocial	n/a	16	-6	n/a	n/a	n/a
304.198520	2	cue_nonsocial_low	n/a	16	-7	n/a	n/a	n/a
311.848300	2	cue_nonsocial	n/a	16	-6	n/a	n/a	n/a
311.848300	2	cue_nonsocial_low	n/a	16	-7	n/a	n/a	n/a
322.794620	2	cue_social	n/a	32	9	n/a	n/a	n/a
322.794620	2	cue_social_high	n/a	32	10	n/a	n/a	n/a
330.421330	2	cue_social	n/a	16	-7	n/a	n/a	n/a
330.421330	2	cue_social_low	n/a	16	-6	n/a	n/a	n/a
337.254850	2	cue_social	n/a	16	-7	n/a	n/a	n/a
337.254850	2	cue_social_low	n/a	16	-6	n/a	n/a	n/a
348.147340	2	cue_social	n/a	32	9	n/a	n/a	n/a
348.147340	2	cue_social_high	n/a	32	10	n/a	n/a	n/a
354.915470	2	cue_nonsocial	n/a	16	-6	n/a	n/a	n/a
354.915470	2	cue_nonsocial_low	n/a	16	-7	n/a	n/a	n/a
361.748200	2	cue_nonsocial	n/a	16	-6	n/a	n/a	n/a
361.748200	2	cue_nonsocial_low	n/a	16	-7	n/a	n/a	n/a
368.581240	2	cue_nonsocial	n/a	16	-6	n/a	n/a	n/a
368.581240	2	cue_nonsocial_low	n/a	16	-7	n/a	n/a	n/a
6.522084	2.849596	dec_nonsocial_choice	2.849596	16.000000	n/a	0	0	-2.388393e-01
6.522084	2.849596	dec_choice	2.849596	16.000000	n/a	0	0	-2.258523e-01
6.522084	2.849596	dec_nonsocial_reject	2.849596	16.000000	n/a	0	0	-3.645833e-02
6.522084	2.849596	dec_reject	2.849596	16.000000	n/a	0	0	-4.261364e-02
6.522084	2.849596	dec_nonsocial_low	2.849596	16.000000	n/a	0	-2.258523e-01	-2.258523e-01
6.522084	2.849596	dec_nonsocial_reject_low	2.849596	16.000000	n/a	1	-4.261364e-02	-1.051136e-01
14.172100	2.250074	dec_nonsocial_choice	2.250074	16.000000	n/a	0	0	-2.388393e-01
14.172100	2.250074	dec_choice	2.250074	16.000000	n/a	0	0	-2.258523e-01
14.172100	2.250074	dec_nonsocial_reject	2.250074	16.000000	n/a	0	0	-3.645833e-02
14.172100	2.250074	dec_reject	2.250074	16.000000	n/a	0	0	-4.261364e-02
14.172100	2.250074	dec_nonsocial_reject_low	2.250074	16.000000	n/a	1	-2.678571e-02	-8.928571e-02
21.004526	2.117357	dec_social_choice	2.117357	32.000000	n/a	8	1.116071e-02	1.116071e-02
21.004526	2.117357	dec_choice	2.117357	32.000000	n/a	8	-3.125000e-03	-3.125000e-03
21.004526	2.117357	dec_social_accept	2.117357	32.000000	n/a	8	-9.375000e-02	-9.375000e-02
21.004526	2.117357	dec_accept	2.117357	32.000000	n/a	8	-9.134615e-02	-9.134615e-02
21.004526	2.117357	dec_social_low	2.117357	32.000000	n/a	8	-3.125000e-03	-3.125000e-03
21.004526	2.117357	dec_social_accept_low	2.117357	32.000000	n/a	8	-3.125000e-03	-3.125000e-03
30.255730	2.149527	dec_nonsocial_choice	2.149527	32.000000	n/a	8	1.116071e-02	1.116071e-02
30.255730	2.149527	dec_choice	2.149527	32.000000	n/a	8	2.414773e-02	2.414773e-02
30.255730	2.149527	dec_nonsocial_accept	2.149527	32.000000	n/a	8	-9.375000e-02	-9.375000e-02
30.255730	2.149527	dec_accept	2.149527	32.000000	n/a	8	-9.659091e-02	-9.659091e-02
30.255730	2.149527	dec_nonsocial_accept_low	2.149527	32.000000	n/a	8	-9.134615e-02	-9.134615e-02
37.088005	1.700719	dec_social_choice	1.700719	16.000000	n/a	8	2.611607e-01	2.611607e-01
37.088005	1.700719	dec_choice	1.700719	16.000000	n/a	8	2.468750e-01	2.468750e-01
37.088005	1.700719	dec_social_accept	1.700719	16.000000	n/a	8	1.562500e-01	1.562500e-01
37.088005	1.700719	dec_accept	1.700719	16.000000	n/a	8	1.586538e-01	1.586538e-01
37.088005	1.700719	dec_social_accept_high	1.700719	16.000000	n/a	8	2.468750e-01	2.468750e-01
43.921825	3.766946	missed_trial	3.766946	16.000000	n/a	n/a	n/a	n/a
50.772057	1.799855	dec_social_choice	1.799855	16.000000	n/a	0	0	-2.388393e-01
50.772057	1.799855	dec_choice	1.799855	16.000000	n/a	0	0	-2.531250e-01
50.772057	1.799855	dec_social_reject	1.799855	16.000000	n/a	0	0	2.604167e-02
50.772057	1.799855	dec_reject	1.799855	16.000000	n/a	0	0	3.571429e-02
50.772057	1.799855	dec_social_low	1.799855	16.000000	n/a	0	-2.531250e-01	-2.531250e-01
50.772057	1.799855	dec_social_reject_low	1.799855	16.000000	n/a	2	-1.281250e-01	-2.531250e-01
58.421560	1.000322	dec_social_choice	1.000322	16.000000	n/a	8	2.611607e-01	2.611607e-01
58.421560	1.000322	dec_choice	1.000322	16.000000	n/a	8	2.468750e-01	2.468750e-01
58.421560	1.000322	dec_social_accept	1.000322	16.000000	n/a	8	1.562500e-01	1.562500e-01
58.421560	1.000322	dec_accept	1.000322	16.000000	n/a	8	1.586538e-01	1.586538e-01
58.421560	1.000322	dec_social_accept_high	1.000322	16.000000	n/a	8	2.468750e-01	2.468750e-01
70.904205	1.567196	dec_nonsocial_choice	1.567196	16.000000	n/a	0	0	-2.388393e-01
70.904205	1.567196	dec_choice	1.567196	16.000000	n/a	0	0	-2.258523e-01
70.904205	1.567196	dec_nonsocial_reject	1.567196	16.000000	n/a	0	0	-3.645833e-02
70.904205	1.567196	dec_reject	1.567196	16.000000	n/a	0	0	-4.261364e-02
70.904205	1.567196	dec_nonsocial_reject_low	1.567196	16.000000	n/a	1	-2.678571e-02	-8.928571e-02
78.538864	1.465793	dec_nonsocial_choice	1.465793	32.000000	n/a	8	1.116071e-02	1.116071e-02
78.538864	1.465793	dec_choice	1.465793	32.000000	n/a	8	2.414773e-02	2.414773e-02
78.538864	1.465793	dec_nonsocial_accept	1.465793	32.000000	n/a	8	-9.375000e-02	-9.375000e-02
78.538864	1.465793	dec_accept	1.465793	32.000000	n/a	8	-9.659091e-02	-9.659091e-02
78.538864	1.465793	dec_nonsocial_high	1.465793	32.000000	n/a	8	2.414773e-02	2.414773e-02
78.538864	1.465793	dec_nonsocial_accept_high	1.465793	32.000000	n/a	8	-9.659091e-02	-9.659091e-02
85.371605	2.333275	dec_nonsocial_choice	2.333275	16.000000	n/a	4	1.116071e-02	1.116071e-02
85.371605	2.333275	dec_choice	2.333275	16.000000	n/a	4	2.414773e-02	2.414773e-02
85.371605	2.333275	dec_nonsocial_accept	2.333275	16.000000	n/a	4	-9.375000e-02	-9.375000e-02
85.371605	2.333275	dec_accept	2.333275	16.000000	n/a	4	-9.659091e-02	-9.659091e-02
85.371605	2.333275	dec_nonsocial_accept_low	2.333275	16.000000	n/a	4	-9.134615e-02	-9.134615e-02
93.022980	2.198857	dec_nonsocial_choice	2.198857	16.000000	n/a	0	0	-2.388393e-01
93.022980	2.198857	dec_choice	2.198857	16.000000	n/a	0	0	-2.258523e-01
93.022980	2.198857	dec_nonsocial_reject	2.198857	16.000000	n/a	0	0	1.510417e-01
93.022980	2.198857	dec_reject	2.198857	16.000000	n/a	0	0	1.448864e-01
93.022980	2.198857	dec_nonsocial_reject_low	2.198857	16.000000	n/a	4	1.607143e-01	-8.928571e-02
99.855970	1.232527	dec_social_choice	1.232527	32.000000	n/a	0	0	-2.388393e-01
99.855970	1.232527	dec_choice	1.232527	32.000000	n/a	0	0	-2.531250e-01
99.855970	1.232527	dec_social_reject	1.232527	32.000000	n/a	0	0	-5.208333e-03
99.855970	1.232527	dec_reject	1.232527	32.000000	n/a	0	0	4.464286e-03
99.855970	1.232527	dec_social_reject_low	1.232527	32.000000	n/a	3	-1.593750e-01	-2.531250e-01
107.504070	3.766946	missed_trial	3.766946	32.000000	n/a	n/a	n/a	n/a
114.338090	2.566656	dec_social_choice	2.566656	16.000000	n/a	4	1.116071e-02	1.116071e-02
114.338090	2.566656	dec_choice	2.566656	16.000000	n/a	4	-3.125000e-03	-3.125000e-03
114.338090	2.566656	dec_social_accept	2.566656	16.000000	n/a	4	-9.375000e-02	-9.375000e-02
114.338090	2.566656	dec_accept	2.566656	16.000000	n/a	4	-9.134615e-02	-9.134615e-02
114.338090	2.566656	dec_social_low	2.566656	16.000000	n/a	4	-3.125000e-03	-3.125000e-03
114.338090	2.566656	dec_social_accept_low	2.566656	16.000000	n/a	4	-3.125000e-03	-3.125000e-03
121.171670	2.516954	dec_social_choice	2.516954	16.000000	n/a	8	2.611607e-01	2.611607e-01
121.171670	2.516954	dec_choice	2.516954	16.000000	n/a	8	2.468750e-01	2.468750e-01
121.171670	2.516954	dec_social_accept	2.516954	16.000000	n/a	8	1.562500e-01	1.562500e-01
121.171670	2.516954	dec_accept	2.516954	16.000000	n/a	8	1.586538e-01	1.586538e-01
121.171670	2.516954	dec_social_high	2.516954	16.000000	n/a	8	2.468750e-01	2.468750e-01
121.171670	2.516954	dec_social_accept_high	2.516954	16.000000	n/a	8	2.468750e-01	2.468750e-01
128.822130	2.199680	dec_social_choice	2.199680	16.000000	n/a	2	-1.138393e-01	-1.138393e-01
128.822130	2.199680	dec_choice	2.199680	16.000000	n/a	2	-1.281250e-01	-1.281250e-01
128.822130	2.199680	dec_social_accept	2.199680	16.000000	n/a	2	-2.187500e-01	-2.187500e-01
128.822130	2.199680	dec_accept	2.199680	16.000000	n/a	2	-2.163462e-01	-2.163462e-01
128.822130	2.199680	dec_social_accept_low	2.199680	16.000000	n/a	2	-1.281250e-01	-1.281250e-01
135.654980	1.183439	dec_nonsocial_choice	1.183439	32.000000	n/a	16	2.611607e-01	2.611607e-01
135.654980	1.183439	dec_choice	1.183439	32.000000	n/a	16	2.741477e-01	2.741477e-01
135.654980	1.183439	dec_nonsocial_accept	1.183439	32.000000	n/a	16	1.562500e-01	1.562500e-01
135.654980	1.183439	dec_accept	1.183439	32.000000	n/a	16	1.534091e-01	1.534091e-01
135.654980	1.183439	dec_nonsocial_high	1.183439	32.000000	n/a	16	2.741477e-01	2.741477e-01
135.654980	1.183439	dec_nonsocial_accept_high	1.183439	32.000000	n/a	16	1.534091e-01	1.534091e-01
142.488980	2.149307	dec_nonsocial_choice	2.149307	32.000000	n/a	0	0	-2.388393e-01
142.488980	2.149307	dec_choice	2.149307	32.000000	n/a	0	0	-2.258523e-01
142.488980	2.149307	dec_nonsocial_reject	2.149307	32.000000	n/a	0	0	-3.645833e-02
142.488980	2.149307	dec_reject	2.149307	32.000000	n/a	0	0	-4.261364e-02
142.488980	2.149307	dec_nonsocial_low	2.149307	32.000000	n/a	0	-2.258523e-01	-2.258523e-01
142.488980	2.149307	dec_nonsocial_reject_low	2.149307	32.000000	n/a	2	-4.261364e-02	-1.051136e-01
151.754150	1.483672	dec_social_choice	1.483672	32.000000	n/a	0	0	-2.388393e-01
151.754150	1.483672	dec_choice	1.483672	32.000000	n/a	0	0	-2.531250e-01
151.754150	1.483672	dec_social_reject	1.483672	32.000000	n/a	0	0	-3.645833e-02
151.754150	1.483672	dec_reject	1.483672	32.000000	n/a	0	0	-2.678571e-02
151.754150	1.483672	dec_social_reject_low	1.483672	32.000000	n/a	2	-1.906250e-01	-2.531250e-01
158.588130	2.416758	dec_nonsocial_choice	2.416758	32.000000	n/a	0	0	-2.388393e-01
158.588130	2.416758	dec_choice	2.416758	32.000000	n/a	0	0	-2.258523e-01
158.588130	2.416758	dec_nonsocial_reject	2.416758	32.000000	n/a	0	0	-5.208333e-03
158.588130	2.416758	dec_reject	2.416758	32.000000	n/a	0	0	-1.136364e-02
158.588130	2.416758	dec_nonsocial_reject_low	2.416758	32.000000	n/a	3	4.464286e-03	-8.928571e-02
167.838360	1.733265	dec_social_choice	1.733265	32.000000	n/a	2	-1.763393e-01	-1.763393e-01
167.838360	1.733265	dec_choice	1.733265	32.000000	n/a	2	-1.906250e-01	-1.906250e-01
167.838360	1.733265	dec_social_accept	1.733265	32.000000	n/a	2	-2.812500e-01	-2.812500e-01
167.838360	1.733265	dec_accept	1.733265	32.000000	n/a	2	-2.788462e-01	-2.788462e-01
167.838360	1.733265	dec_social_accept_low	1.733265	32.000000	n/a	2	-1.906250e-01	-1.906250e-01
174.671940	1.949574	dec_social_choice	1.949574	32.000000	n/a	0	0	-2.388393e-01
174.671940	1.949574	dec_choice	1.949574	32.000000	n/a	0	0	-2.531250e-01
174.671940	1.949574	dec_social_reject	1.949574	32.000000	n/a	0	0	-5.208333e-03
174.671940	1.949574	dec_reject	1.949574	32.000000	n/a	0	0	4.464286e-03
174.671940	1.949574	dec_social_low	1.949574	32.000000	n/a	0	-2.531250e-01	-2.531250e-01
174.671940	1.949574	dec_social_reject_low	1.949574	32.000000	n/a	3	-1.593750e-01	-2.531250e-01
181.504940	3.766946	missed_trial	3.766946	32.000000	n/a	n/a	n/a	n/a
188.353910	1.467915	dec_social_choice	1.467915	32.000000	n/a	0	0	-2.388393e-01
188.353910	1.467915	dec_choice	1.467915	32.000000	n/a	0	0	-2.531250e-01
188.353910	1.467915	dec_social_reject	1.467915	32.000000	n/a	0	0	-3.645833e-02
188.353910	1.467915	dec_reject	1.467915	32.000000	n/a	0	0	-2.678571e-02
188.353910	1.467915	dec_social_low	1.467915	32.000000	n/a	0	-2.531250e-01	-2.531250e-01
188.353910	1.467915	dec_social_reject_low	1.467915	32.000000	n/a	2	-1.906250e-01	-2.531250e-01
199.221630	2.466112	dec_nonsocial_choice	2.466112	16.000000	n/a	1	-1.763393e-01	-1.763393e-01
199.221630	2.466112	dec_choice	2.466112	16.000000	n/a	1	-1.633523e-01	-1.633523e-01
199.221630	2.466112	dec_nonsocial_accept	2.466112	16.000000	n/a	1	-2.812500e-01	-2.812500e-01
199.221630	2.466112	dec_accept	2.466112	16.000000	n/a	1	-2.840909e-01	-2.840909e-01
199.221630	2.466112	dec_nonsocial_accept_low	2.466112	16.000000	n/a	1	-2.788462e-01	-2.788462e-01
206.054440	2.100560	dec_social_choice	2.100560	16.000000	n/a	4	1.116071e-02	1.116071e-02
206.054440	2.100560	dec_choice	2.100560	16.000000	n/a	4	-3.125000e-03	-3.125000e-03
206.054440	2.100560	dec_social_accept	2.100560	16.000000	n/a	4	-9.375000e-02	-9.375000e-02
206.054440	2.100560	dec_accept	2.100560	16.000000	n/a	4	-9.134615e-02	-9.134615e-02
206.054440	2.100560	dec_social_accept_low	2.100560	16.000000	n/a	4	-3.125000e-03	-3.125000e-03
212.888800	1.332761	dec_social_choice	1.332761	16.000000	n/a	0	0	-2.388393e-01
212.888800	1.332761	dec_choice	1.332761	16.000000	n/a	0	0	-2.531250e-01
212.888800	1.332761	dec_social_reject	1.332761	16.000000	n/a	0	0	-3.645833e-02
212.888800	1.332761	dec_reject	1.332761	16.000000	n/a	0	0	-2.678571e-02
212.888800	1.332761	dec_social_low	1.332761	16.000000	n/a	0	-2.531250e-01	-2.531250e-01
212.888800	1.332761	dec_social_reject_low	1.332761	16.000000	n/a	1	-1.906250e-01	-2.531250e-01
219.721270	3.100360	dec_social_choice	3.100360	16.000000	n/a	0	0	-2.388393e-01
219.721270	3.100360	dec_choice	3.100360	16.000000	n/a	0	0	-2.531250e-01
219.721270	3.100360	dec_social_reject	3.100360	16.000000	n/a	0	0	2.604167e-02
219.721270	3.100360	dec_reject	3.100360	16.000000	n/a	0	0	3.571429e-02
219.721270	3.100360	dec_social_low	3.100360	16.000000	n/a	0	-2.531250e-01	-2.531250e-01
219.721270	3.100360	dec_social_reject_low	3.100360	16.000000	n/a	2	-1.281250e-01	-2.531250e-01
227.371050	1.366770	dec_nonsocial_choice	1.366770	16.000000	n/a	0	0	-2.388393e-01
227.371050	1.366770	dec_choice	1.366770	16.000000	n/a	0	0	-2.258523e-01
227.371050	1.366770	dec_nonsocial_reject	1.366770	16.000000	n/a	0	0	2.604167e-02
227.371050	1.366770	dec_reject	1.366770	16.000000	n/a	0	0	1.988636e-02
227.371050	1.366770	dec_nonsocial_reject_low	1.366770	16.000000	n/a	2	3.571429e-02	-8.928571e-02
236.621050	1.717009	dec_social_choice	1.717009	16.000000	n/a	8	2.611607e-01	2.611607e-01
236.621050	1.717009	dec_choice	1.717009	16.000000	n/a	8	2.468750e-01	2.468750e-01
236.621050	1.717009	dec_social_accept	1.717009	16.000000	n/a	8	1.562500e-01	1.562500e-01
236.621050	1.717009	dec_accept	1.717009	16.000000	n/a	8	1.586538e-01	1.586538e-01
236.621050	1.717009	dec_social_high	1.717009	16.000000	n/a	8	2.468750e-01	2.468750e-01
236.621050	1.717009	dec_social_accept_high	1.717009	16.000000	n/a	8	2.468750e-01	2.468750e-01
244.254170	3.766946	missed_trial	3.766946	16.000000	n/a	n/a	n/a	n/a
251.887340	1.066819	dec_nonsocial_choice	1.066819	32.000000	n/a	16	2.611607e-01	2.611607e-01
251.887340	1.066819	dec_choice	1.066819	32.000000	n/a	16	2.741477e-01	2.741477e-01
251.887340	1.066819	dec_nonsocial_accept	1.066819	32.000000	n/a	16	1.562500e-01	1.562500e-01
251.887340	1.066819	dec_accept	1.066819	32.000000	n/a	16	1.534091e-01	1.534091e-01
251.887340	1.066819	dec_nonsocial_accept_high	1.066819	32.000000	n/a	16	1.586538e-01	1.586538e-01
261.137450	1.250754	dec_nonsocial_choice	1.250754	16.000000	n/a	8	2.611607e-01	2.611607e-01
261.137450	1.250754	dec_choice	1.250754	16.000000	n/a	8	2.741477e-01	2.741477e-01
261.137450	1.250754	dec_nonsocial_accept	1.250754	16.000000	n/a	8	1.562500e-01	1.562500e-01
261.137450	1.250754	dec_accept	1.250754	16.000000	n/a	8	1.534091e-01	1.534091e-01
261.137450	1.250754	dec_nonsocial_accept_high	1.250754	16.000000	n/a	8	1.586538e-01	1.586538e-01
268.788800	2.549148	dec_nonsocial_choice	2.549148	16.000000	n/a	4	1.116071e-02	1.116071e-02
268.788800	2.549148	dec_choice	2.549148	16.000000	n/a	4	2.414773e-02	2.414773e-02
268.788800	2.549148	dec_nonsocial_accept	2.549148	16.000000	n/a	4	-9.375000e-02	-9.375000e-02
268.788800	2.549148	dec_accept	2.549148	16.000000	n/a	4	-9.659091e-02	-9.659091e-02
268.788800	2.549148	dec_nonsocial_accept_low	2.549148	16.000000	n/a	4	-9.134615e-02	-9.134615e-02
278.037230	2.084155	dec_nonsocial_choice	2.084155	16.000000	n/a	4	1.116071e-02	1.116071e-02
278.037230	2.084155	dec_choice	2.084155	16.000000	n/a	4	2.414773e-02	2.414773e-02
278.037230	2.084155	dec_nonsocial_accept	2.084155	16.000000	n/a	4	-9.375000e-02	-9.375000e-02
278.037230	2.084155	dec_accept	2.084155	16.000000	n/a	4	-9.659091e-02	-9.659091e-02
278.037230	2.084155	dec_nonsocial_accept_low	2.084155	16.000000	n/a	4	-9.134615e-02	-9.134615e-02
285.687930	3.766946	missed_trial	3.766946	32.000000	n/a	n/a	n/a	n/a
292.537780	1.350222	dec_nonsocial_choice	1.350222	32.000000	n/a	0	0	-2.388393e-01
292.537780	1.350222	dec_choice	1.350222	32.000000	n/a	0	0	-2.258523e-01
292.537780	1.350222	dec_nonsocial_reject	1.350222	32.000000	n/a	0	0	-3.645833e-02
292.537780	1.350222	dec_reject	1.350222	32.000000	n/a	0	0	-4.261364e-02
292.537780	1.350222	dec_nonsocial_low	1.350222	32.000000	n/a	0	-2.258523e-01	-2.258523e-01
292.537780	1.350222	dec_nonsocial_reject_low	1.350222	32.000000	n/a	2	-4.261364e-02	-1.051136e-01
299.372040	1.799497	dec_social_choice	1.799497	32.000000	n/a	16	2.611607e-01	2.611607e-01
299.372040	1.799497	dec_choice	1.799497	32.000000	n/a	16	2.468750e-01	2.468750e-01
299.372040	1.799497	dec_social_accept	1.799497	32.000000	n/a	16	1.562500e-01	1.562500e-01
299.372040	1.799497	dec_accept	1.799497	32.000000	n/a	16	1.586538e-01	1.586538e-01
299.372040	1.799497	dec_social_high	1.799497	32.000000	n/a	16	2.468750e-01	2.468750e-01
299.372040	1.799497	dec_social_accept_high	1.799497	32.000000	n/a	16	2.468750e-01	2.468750e-01
306.205020	2.132779	dec_nonsocial_choice	2.132779	16.000000	n/a	8	2.611607e-01	2.611607e-01
306.205020	2.132779	dec_choice	2.132779	16.000000	n/a	8	2.741477e-01	2.741477e-01
306.205020	2.132779	dec_nonsocial_accept	2.132779	16.000000	n/a	8	1.562500e-01	1.562500e-01
306.205020	2.132779	dec_accept	2.132779	16.000000	n/a	8	1.534091e-01	1.534091e-01
306.205020	2.132779	dec_nonsocial_high	2.132779	16.000000	n/a	8	2.741477e-01	2.741477e-01
306.205020	2.132779	dec_nonsocial_accept_high	2.132779	16.000000	n/a	8	1.534091e-01	1.534091e-01
313.855620	1.332355	dec_nonsocial_choice	1.332355	16.000000	n/a	8	2.611607e-01	2.611607e-01
313.855620	1.332355	dec_choice	1.332355	16.000000	n/a	8	2.741477e-01	2.741477e-01
313.855620	1.332355	dec_nonsocial_accept	1.332355	16.000000	n/a	8	1.562500e-01	1.562500e-01
313.855620	1.332355	dec_accept	1.332355	16.000000	n/a	8	1.534091e-01	1.534091e-01
313.855620	1.332355	dec_nonsocial_high	1.332355	16.000000	n/a	8	2.741477e-01	2.741477e-01
313.855620	1.332355	dec_nonsocial_accept_high	1.332355	16.000000	n/a	8	1.534091e-01	1.534091e-01
324.721250	1.299751	dec_social_choice	1.299751	32.000000	n/a	16	2.611607e-01	2.611607e-01
324.721250	1.299751	dec_choice	1.299751	32.000000	n/a	16	2.468750e-01	2.468750e-01
324.721250	1.299751	dec_social_accept	1.299751	32.000000	n/a	16	1.562500e-01	1.562500e-01
324.721250	1.299751	dec_accept	1.299751	32.000000	n/a	16	1.586538e-01	1.586538e-01
324.721250	1.299751	dec_social_accept_high	1.299751	32.000000	n/a	16	2.468750e-01	2.468750e-01
332.372100	3.199199	dec_social_choice	3.199199	16.000000	n/a	4	1.116071e-02	1.116071e-02
332.372100	3.199199	dec_choice	3.199199	16.000000	n/a	4	-3.125000e-03	-3.125000e-03
332.372100	3.199199	dec_social_accept	3.199199	16.000000	n/a	4	-9.375000e-02	-9.375000e-02
332.372100	3.199199	dec_accept	3.199199	16.000000	n/a	4	-9.134615e-02	-9.134615e-02
332.372100	3.199199	dec_social_accept_low	3.199199	16.000000	n/a	4	-3.125000e-03	-3.125000e-03
339.204700	3.766946	missed_trial	3.766946	16.000000	n/a	n/a	n/a	n/a
350.087650	2.150515	dec_social_choice	2.150515	32.000000	n/a	8	1.116071e-02	1.116071e-02
350.087650	2.150515	dec_choice	2.150515	32.000000	n/a	8	-3.125000e-03	-3.125000e-03
350.087650	2.150515	dec_social_accept	2.150515	32.000000	n/a	8	-9.375000e-02	-9.375000e-02
350.087650	2.150515	dec_accept	2.150515	32.000000	n/a	8	-9.134615e-02	-9.134615e-02
350.087650	2.150515	dec_social_accept_low	2.150515	32.000000	n/a	8	-3.125000e-03	-3.125000e-03
356.921500	2.599832	dec_nonsocial_choice	2.599832	16.000000	n/a	0	0	-2.388393e-01
356.921500	2.599832	dec_choice	2.599832	16.000000	n/a	0	0	-2.258523e-01
356.921500	2.599832	dec_nonsocial_reject	2.599832	16.000000	n/a	0	0	2.604167e-02
356.921500	2.599832	dec_reject	2.599832	16.000000	n/a	0	0	1.988636e-02
356.921500	2.599832	dec_nonsocial_reject_low	2.599832	16.000000	n/a	2	3.571429e-02	-8.928571e-02
363.754900	1.499551	dec_nonsocial_choice	1.499551	16.000000	n/a	0	0	-2.388393e-01
363.754900	1.499551	dec_choice	1.499551	16.000000	n/a	0	0	-2.258523e-01
363.754900	1.499551	dec_nonsocial_reject	1.499551	16.000000	n/a	0	0	2.604167e-02
363.754900	1.499551	dec_reject	1.499551	16.000000	n/a	0	0	1.988636e-02
363.754900	1.499551	dec_nonsocial_low	1.499551	16.000000	n/a	0	-2.258523e-01	-2.258523e-01
363.754900	1.499551	dec_nonsocial_reject_low	1.499551	16.000000	n/a	2	1.988636e-02	-1.051136e-01
370.588750	2.282193	dec_nonsocial_choice	2.282193	16.000000	n/a	0	0	-2.388393e-01
370.588750	2.282193	dec_choice	2.282193	16.000000	n/a	0	0	-2.258523e-01
370.588750	2.282193	dec_nonsocial_reject	2.282193	16.000000	n/a	0	0	2.604167e-02
370.588750	2.282193	dec_reject	2.282193	16.000000	n/a	0	0	1.988636e-02
370.588750	2.282193	dec_nonsocial_low	2.282193	16.000000	n/a	0	-2.258523e-01	-2.258523e-01
370.588750	2.282193	dec_nonsocial_reject_low	2.282193	16.000000	n/a	2	1.988636e-02	-1.051136e-01
