onset	duration	trial_type	response_time	Endowment	Decision	Offer
4.513100	2	cue_nonsocial	n/a	16	n/a	n/a
4.513100	2	cue_nonsocial_low	n/a	16	n/a	n/a
6.519997	1.050088	dec_nonsocial_low	1.050088	16	n/a	1
6.519997	1.050088	dec_nonsocial_low_reject	1.050088	16	reject	1
12.163149	2	cue_nonsocial	n/a	16	n/a	n/a
12.163149	2	cue_nonsocial_low	n/a	16	n/a	n/a
14.169998	0.633014	dec_nonsocial_low	0.633014	16	n/a	1
14.169998	0.633014	dec_nonsocial_low_accept	0.633014	16	accept	1
19.035135	2	cue_social	n/a	32	n/a	n/a
19.035135	2	cue_social_high	n/a	32	n/a	n/a
21.003296	1.883093	dec_social_high	1.883093	32	n/a	8
21.003296	1.883093	dec_social_high_accept	1.883093	32	accept	8
28.246807	2	cue_nonsocial	n/a	32	n/a	n/a
28.246807	2	cue_nonsocial_high	n/a	32	n/a	n/a
30.254120	1.399245	dec_nonsocial_high	1.399245	32	n/a	8
30.254120	1.399245	dec_nonsocial_high_accept	1.399245	32	accept	8
35.157110	2	cue_social	n/a	16	n/a	n/a
35.157110	2	cue_social_low	n/a	16	n/a	n/a
37.086130	0.782940	dec_social_low	0.782940	16	n/a	8
37.086130	0.782940	dec_social_low_accept	0.782940	16	accept	8
41.983517	2	cue_social	n/a	16	n/a	n/a
41.983517	2	cue_social_low	n/a	16	n/a	n/a
43.918964	1.384394	dec_social_low	1.384394	16	n/a	4
43.918964	1.384394	dec_social_low_accept	1.384394	16	accept	4
48.831673	2	cue_social	n/a	16	n/a	n/a
48.831673	2	cue_social_low	n/a	16	n/a	n/a
50.753070	0.982967	dec_social_low	0.982967	16	n/a	2
50.753070	0.982967	dec_social_low_reject	0.982967	16	reject	2
56.482586	2	cue_social	n/a	16	n/a	n/a
56.482586	2	cue_social_low	n/a	16	n/a	n/a
58.401840	0.833810	dec_social_low	0.833810	16	n/a	8
58.401840	0.833810	dec_social_low_accept	0.833810	16	accept	8
68.879350	2	cue_nonsocial	n/a	16	n/a	n/a
68.879350	2	cue_nonsocial_low	n/a	16	n/a	n/a
70.886190	1.050103	dec_nonsocial_low	1.050103	16	n/a	1
70.886190	1.050103	dec_nonsocial_low_reject	1.050103	16	reject	1
76.529816	2	cue_nonsocial	n/a	32	n/a	n/a
76.529816	2	cue_nonsocial_high	n/a	32	n/a	n/a
78.536060	1.333659	dec_nonsocial_high	1.333659	32	n/a	8
78.536060	1.333659	dec_nonsocial_high_accept	1.333659	32	accept	8
83.362915	2	cue_nonsocial	n/a	16	n/a	n/a
83.362915	2	cue_nonsocial_low	n/a	16	n/a	n/a
85.369995	1.115867	dec_nonsocial_low	1.115867	16	n/a	4
85.369995	1.115867	dec_nonsocial_low_accept	1.115867	16	accept	4
91.013016	2	cue_nonsocial	n/a	16	n/a	n/a
91.013016	2	cue_nonsocial_low	n/a	16	n/a	n/a
93.020070	1.199560	dec_nonsocial_low	1.199560	16	n/a	4
93.020070	1.199560	dec_nonsocial_low_accept	1.199560	16	accept	4
97.944200	2	cue_social	n/a	32	n/a	n/a
97.944200	2	cue_social_high	n/a	32	n/a	n/a
99.853180	1.265731	dec_social_high	1.265731	32	n/a	3
99.853180	1.265731	dec_social_high_reject	1.265731	32	reject	3
105.579050	2	cue_social	n/a	32	n/a	n/a
105.579050	2	cue_social_high	n/a	32	n/a	n/a
107.502150	1.067485	dec_social_high	1.067485	32	n/a	2
107.502150	1.067485	dec_social_high_reject	1.067485	32	reject	2
112.422240	2	cue_social	n/a	16	n/a	n/a
112.422240	2	cue_social_low	n/a	16	n/a	n/a
114.336890	0.999172	dec_social_low	0.999172	16	n/a	4
114.336890	0.999172	dec_social_low_reject	0.999172	16	reject	4
119.240240	2	cue_social	n/a	16	n/a	n/a
119.240240	2	cue_social_low	n/a	16	n/a	n/a
121.169020	1.467237	dec_social_low	1.467237	16	n/a	8
121.169020	1.467237	dec_social_low_reject	1.467237	16	reject	8
126.819230	2	cue_social	n/a	16	n/a	n/a
126.819230	2	cue_social_low	n/a	16	n/a	n/a
128.819180	1.083788	dec_social_low	1.083788	16	n/a	2
128.819180	1.083788	dec_social_low_reject	1.083788	16	reject	2
133.646770	2	cue_nonsocial	n/a	32	n/a	n/a
133.646770	2	cue_nonsocial_high	n/a	32	n/a	n/a
135.653780	1.565271	dec_nonsocial_high	1.565271	32	n/a	16
135.653780	1.565271	dec_nonsocial_high_accept	1.565271	32	accept	16
140.480000	2	cue_nonsocial	n/a	32	n/a	n/a
140.480000	2	cue_nonsocial_high	n/a	32	n/a	n/a
142.491700	1.261395	dec_nonsocial_high	1.261395	32	n/a	2
142.491700	1.261395	dec_nonsocial_high_reject	1.261395	32	reject	2
149.821210	2	cue_social	n/a	32	n/a	n/a
149.821210	2	cue_social_high	n/a	32	n/a	n/a
151.752580	0.983190	dec_social_high	0.983190	32	n/a	2
151.752580	0.983190	dec_social_high_reject	0.983190	32	reject	2
156.579600	2	cue_nonsocial	n/a	32	n/a	n/a
156.579600	2	cue_nonsocial_high	n/a	32	n/a	n/a
158.586620	0.982806	dec_nonsocial_high	0.982806	32	n/a	3
158.586620	0.982806	dec_nonsocial_high_reject	0.982806	32	reject	3
165.922900	2	cue_social	n/a	32	n/a	n/a
165.922900	2	cue_social_high	n/a	32	n/a	n/a
167.851970	0.967486	dec_social_high	0.967486	32	n/a	2
167.851970	0.967486	dec_social_high_reject	0.967486	32	reject	2
172.760130	2	cue_social	n/a	32	n/a	n/a
172.760130	2	cue_social_high	n/a	32	n/a	n/a
174.686040	0.949979	dec_social_high	0.949979	32	n/a	3
174.686040	0.949979	dec_social_high_reject	0.949979	32	reject	3
179.512910	2	cue_nonsocial	n/a	32	n/a	n/a
179.512910	2	cue_nonsocial_high	n/a	32	n/a	n/a
181.519320	1.366066	dec_nonsocial_high	1.366066	32	n/a	16
181.519320	1.366066	dec_nonsocial_high_accept	1.366066	32	accept	16
186.432340	2	cue_social	n/a	32	n/a	n/a
186.432340	2	cue_social_high	n/a	32	n/a	n/a
188.351990	0.867388	dec_social_high	0.867388	32	n/a	2
188.351990	0.867388	dec_social_high_reject	0.867388	32	reject	2
197.212720	2	cue_nonsocial	n/a	16	n/a	n/a
197.212720	2	cue_nonsocial_low	n/a	16	n/a	n/a
199.218630	0.917188	dec_nonsocial_low	0.917188	16	n/a	1
199.218630	0.917188	dec_nonsocial_low_reject	0.917188	16	reject	1
204.097320	2	cue_social	n/a	16	n/a	n/a
204.097320	2	cue_social_low	n/a	16	n/a	n/a
206.053990	0.914949	dec_social_low	0.914949	16	n/a	4
206.053990	0.914949	dec_social_low_reject	0.914949	16	reject	4
210.933410	2	cue_social	n/a	16	n/a	n/a
210.933410	2	cue_social_low	n/a	16	n/a	n/a
212.885910	0.850026	dec_social_low	0.850026	16	n/a	1
212.885910	0.850026	dec_social_low_reject	0.850026	16	reject	1
217.773280	2	cue_social	n/a	16	n/a	n/a
217.773280	2	cue_social_low	n/a	16	n/a	n/a
219.719600	0.799803	dec_social_low	0.799803	16	n/a	2
219.719600	0.799803	dec_social_low_reject	0.799803	16	reject	2
225.362920	2	cue_nonsocial	n/a	16	n/a	n/a
225.362920	2	cue_nonsocial_low	n/a	16	n/a	n/a
227.369000	1.216398	dec_nonsocial_low	1.216398	16	n/a	2
227.369000	1.216398	dec_nonsocial_low_reject	1.216398	16	reject	2
234.679930	2	cue_social	n/a	16	n/a	n/a
234.679930	2	cue_social_low	n/a	16	n/a	n/a
236.618840	0.917083	dec_social_low	0.917083	16	n/a	8
236.618840	0.917083	dec_social_low_accept	0.917083	16	accept	8
242.308670	2	cue_social	n/a	16	n/a	n/a
242.308670	2	cue_social_low	n/a	16	n/a	n/a
244.269820	0.882706	dec_social_low	0.882706	16	n/a	1
244.269820	0.882706	dec_social_low_reject	0.882706	16	reject	1
249.912730	2	cue_nonsocial	n/a	32	n/a	n/a
249.912730	2	cue_nonsocial_high	n/a	32	n/a	n/a
251.920030	0.799331	dec_nonsocial_high	0.799331	32	n/a	16
251.920030	0.799331	dec_nonsocial_high_accept	0.799331	32	accept	16
259.162780	2	cue_nonsocial	n/a	16	n/a	n/a
259.162780	2	cue_nonsocial_low	n/a	16	n/a	n/a
261.169070	0.800041	dec_nonsocial_low	0.800041	16	n/a	8
261.169070	0.800041	dec_nonsocial_low_accept	0.800041	16	accept	8
266.812600	2	cue_nonsocial	n/a	16	n/a	n/a
266.812600	2	cue_nonsocial_low	n/a	16	n/a	n/a
268.820000	1.299192	dec_nonsocial_low	1.299192	16	n/a	4
268.820000	1.299192	dec_nonsocial_low_accept	1.299192	16	accept	4
276.062620	2	cue_nonsocial	n/a	16	n/a	n/a
276.062620	2	cue_nonsocial_low	n/a	16	n/a	n/a
278.068360	0.884166	dec_nonsocial_low	0.884166	16	n/a	4
278.068360	0.884166	dec_nonsocial_low_accept	0.884166	16	accept	4
283.695800	2	cue_nonsocial	n/a	32	n/a	n/a
283.695800	2	cue_nonsocial_high	n/a	32	n/a	n/a
285.703670	1.265072	dec_nonsocial_high	1.265072	32	n/a	3
285.703670	1.265072	dec_nonsocial_high_reject	1.265072	32	reject	3
290.529360	2	cue_nonsocial	n/a	32	n/a	n/a
290.529360	2	cue_nonsocial_high	n/a	32	n/a	n/a
292.535460	0.916579	dec_nonsocial_high	0.916579	32	n/a	2
292.535460	0.916579	dec_nonsocial_high_reject	0.916579	32	reject	2
297.416700	2	cue_social	n/a	32	n/a	n/a
297.416700	2	cue_social_high	n/a	32	n/a	n/a
299.369000	1.500103	dec_social_high	1.500103	32	n/a	16
299.369000	1.500103	dec_social_high_accept	1.500103	32	accept	16
304.195560	2	cue_nonsocial	n/a	16	n/a	n/a
304.195560	2	cue_nonsocial_low	n/a	16	n/a	n/a
306.201970	1.000536	dec_nonsocial_low	1.000536	16	n/a	8
306.201970	1.000536	dec_nonsocial_low_accept	1.000536	16	accept	8
311.846070	2	cue_nonsocial	n/a	16	n/a	n/a
311.846070	2	cue_nonsocial_low	n/a	16	n/a	n/a
313.852660	1.015968	dec_nonsocial_low	1.015968	16	n/a	8
313.852660	1.015968	dec_nonsocial_low_accept	1.015968	16	accept	8
322.820920	2	cue_social	n/a	32	n/a	n/a
322.820920	2	cue_social_high	n/a	32	n/a	n/a
324.719000	1.316710	dec_social_high	1.316710	32	n/a	16
324.719000	1.316710	dec_social_high_accept	1.316710	32	accept	16
330.405520	2	cue_social	n/a	16	n/a	n/a
330.405520	2	cue_social_low	n/a	16	n/a	n/a
332.369080	1.083197	dec_social_low	1.083197	16	n/a	4
332.369080	1.083197	dec_social_low_reject	1.083197	16	reject	4
337.247770	2	cue_social	n/a	16	n/a	n/a
337.247770	2	cue_social_low	n/a	16	n/a	n/a
339.202600	0.916077	dec_social_low	0.916077	16	n/a	2
339.202600	0.916077	dec_social_low_reject	0.916077	16	reject	2
348.165220	2	cue_social	n/a	32	n/a	n/a
348.165220	2	cue_social_high	n/a	32	n/a	n/a
350.068150	1.534200	dec_social_high	1.534200	32	n/a	8
350.068150	1.534200	dec_social_high_accept	1.534200	32	accept	8
354.895780	2	cue_nonsocial	n/a	16	n/a	n/a
354.895780	2	cue_nonsocial_low	n/a	16	n/a	n/a
356.902680	0.999656	dec_nonsocial_low	0.999656	16	n/a	2
356.902680	0.999656	dec_nonsocial_low_reject	0.999656	16	reject	2
361.729340	2	cue_nonsocial	n/a	16	n/a	n/a
361.729340	2	cue_nonsocial_low	n/a	16	n/a	n/a
363.736080	1.283107	dec_nonsocial_low	1.283107	16	n/a	2
363.736080	1.283107	dec_nonsocial_low_reject	1.283107	16	reject	2
368.562400	2	cue_nonsocial	n/a	16	n/a	n/a
368.562400	2	cue_nonsocial_low	n/a	16	n/a	n/a
370.569000	0.999838	dec_nonsocial_low	0.999838	16	n/a	2
370.569000	0.999838	dec_nonsocial_low_reject	0.999838	16	reject	2
