onset	duration	trial_type	response_time	Endowment	Endowment_pmod	Decision	Decision_pmod	Offer_pmod
4.507160	2	cue_nonsocial	n/a	16	-7	n/a	n/a	n/a
4.507160	2	cue_nonsocial_low	n/a	16	-6	n/a	n/a	n/a
11.432475	2	cue_social	n/a	16	-6	n/a	n/a	n/a
11.432475	2	cue_social_low	n/a	16	-7	n/a	n/a	n/a
19.051758	2	cue_social	n/a	16	-6	n/a	n/a	n/a
19.051758	2	cue_social_low	n/a	16	-7	n/a	n/a	n/a
25.885027	2	cue_social	n/a	16	-6	n/a	n/a	n/a
25.885027	2	cue_social_low	n/a	16	-7	n/a	n/a	n/a
35.073505	2	cue_nonsocial	n/a	16	-7	n/a	n/a	n/a
35.073505	2	cue_nonsocial_low	n/a	16	-6	n/a	n/a	n/a
41.906403	2	cue_nonsocial	n/a	32	9	n/a	n/a	n/a
41.906403	2	cue_nonsocial_high	n/a	32	10	n/a	n/a	n/a
48.824480	2	cue_social	n/a	32	10	n/a	n/a	n/a
48.824480	2	cue_social_high	n/a	32	9	n/a	n/a	n/a
56.484818	2	cue_social	n/a	16	-6	n/a	n/a	n/a
56.484818	2	cue_social_low	n/a	16	-7	n/a	n/a	n/a
64.095880	2	cue_social	n/a	16	-6	n/a	n/a	n/a
64.095880	2	cue_social_low	n/a	16	-7	n/a	n/a	n/a
71.689896	2	cue_nonsocial	n/a	16	-7	n/a	n/a	n/a
71.689896	2	cue_nonsocial_low	n/a	16	-6	n/a	n/a	n/a
84.173560	2	cue_nonsocial	n/a	32	9	n/a	n/a	n/a
84.173560	2	cue_nonsocial_high	n/a	32	10	n/a	n/a	n/a
91.006230	2	cue_nonsocial	n/a	16	-7	n/a	n/a	n/a
91.006230	2	cue_nonsocial_low	n/a	16	-6	n/a	n/a	n/a
97.898544	2	cue_social	n/a	16	-6	n/a	n/a	n/a
97.898544	2	cue_social_low	n/a	16	-7	n/a	n/a	n/a
105.541920	2	cue_social	n/a	32	10	n/a	n/a	n/a
105.541920	2	cue_social_high	n/a	32	9	n/a	n/a	n/a
112.323210	2	cue_nonsocial	n/a	32	9	n/a	n/a	n/a
112.323210	2	cue_nonsocial_high	n/a	32	10	n/a	n/a	n/a
119.156740	2	cue_nonsocial	n/a	16	-7	n/a	n/a	n/a
119.156740	2	cue_nonsocial_low	n/a	16	-6	n/a	n/a	n/a
130.023160	2	cue_nonsocial	n/a	16	-7	n/a	n/a	n/a
130.023160	2	cue_nonsocial_low	n/a	16	-6	n/a	n/a	n/a
137.672880	2	cue_nonsocial	n/a	16	-7	n/a	n/a	n/a
137.672880	2	cue_nonsocial_low	n/a	16	-6	n/a	n/a	n/a
145.366500	2	cue_social	n/a	32	10	n/a	n/a	n/a
145.366500	2	cue_social_high	n/a	32	9	n/a	n/a	n/a
152.156510	2	cue_nonsocial	n/a	32	9	n/a	n/a	n/a
152.156510	2	cue_nonsocial_high	n/a	32	10	n/a	n/a	n/a
159.037520	2	cue_social	n/a	16	-6	n/a	n/a	n/a
159.037520	2	cue_social_low	n/a	16	-7	n/a	n/a	n/a
168.288730	2	cue_social	n/a	16	-6	n/a	n/a	n/a
168.288730	2	cue_social_low	n/a	16	-7	n/a	n/a	n/a
175.073090	2	cue_nonsocial	n/a	16	-7	n/a	n/a	n/a
175.073090	2	cue_nonsocial_low	n/a	16	-6	n/a	n/a	n/a
182.763690	2	cue_social	n/a	32	10	n/a	n/a	n/a
182.763690	2	cue_social_high	n/a	32	9	n/a	n/a	n/a
191.972980	2	cue_nonsocial	n/a	16	-7	n/a	n/a	n/a
191.972980	2	cue_nonsocial_low	n/a	16	-6	n/a	n/a	n/a
198.887390	2	cue_social	n/a	32	10	n/a	n/a	n/a
198.887390	2	cue_social_high	n/a	32	9	n/a	n/a	n/a
205.639700	2	cue_nonsocial	n/a	32	9	n/a	n/a	n/a
205.639700	2	cue_nonsocial_high	n/a	32	10	n/a	n/a	n/a
212.472980	2	cue_nonsocial	n/a	32	9	n/a	n/a	n/a
212.472980	2	cue_nonsocial_high	n/a	32	10	n/a	n/a	n/a
220.122970	2	cue_nonsocial	n/a	16	-7	n/a	n/a	n/a
220.122970	2	cue_nonsocial_low	n/a	16	-6	n/a	n/a	n/a
226.956400	2	cue_nonsocial	n/a	32	9	n/a	n/a	n/a
226.956400	2	cue_nonsocial_high	n/a	32	10	n/a	n/a	n/a
234.606430	2	cue_nonsocial	n/a	16	-7	n/a	n/a	n/a
234.606430	2	cue_nonsocial_low	n/a	16	-6	n/a	n/a	n/a
241.491260	2	cue_social	n/a	32	10	n/a	n/a	n/a
241.491260	2	cue_social_high	n/a	32	9	n/a	n/a	n/a
252.306520	2	cue_nonsocial	n/a	32	9	n/a	n/a	n/a
252.306520	2	cue_nonsocial_high	n/a	32	10	n/a	n/a	n/a
259.186550	2	cue_social	n/a	16	-6	n/a	n/a	n/a
259.186550	2	cue_social_low	n/a	16	-7	n/a	n/a	n/a
266.839000	2	cue_social	n/a	16	-6	n/a	n/a	n/a
266.839000	2	cue_social_low	n/a	16	-7	n/a	n/a	n/a
273.622830	2	cue_nonsocial	n/a	32	9	n/a	n/a	n/a
273.622830	2	cue_nonsocial_high	n/a	32	10	n/a	n/a	n/a
280.512760	2	cue_social	n/a	32	10	n/a	n/a	n/a
280.512760	2	cue_social_high	n/a	32	9	n/a	n/a	n/a
289.783700	2	cue_social	n/a	32	10	n/a	n/a	n/a
289.783700	2	cue_social_high	n/a	32	9	n/a	n/a	n/a
296.556120	2	cue_nonsocial	n/a	16	-7	n/a	n/a	n/a
296.556120	2	cue_nonsocial_low	n/a	16	-6	n/a	n/a	n/a
305.866400	2	cue_social	n/a	16	-6	n/a	n/a	n/a
305.866400	2	cue_social_low	n/a	16	-7	n/a	n/a	n/a
312.690250	2	cue_social	n/a	16	-6	n/a	n/a	n/a
312.690250	2	cue_social_low	n/a	16	-7	n/a	n/a	n/a
321.889700	2	cue_nonsocial	n/a	16	-7	n/a	n/a	n/a
321.889700	2	cue_nonsocial_low	n/a	16	-6	n/a	n/a	n/a
328.722780	2	cue_nonsocial	n/a	16	-7	n/a	n/a	n/a
328.722780	2	cue_nonsocial_low	n/a	16	-6	n/a	n/a	n/a
335.582600	2	cue_social	n/a	16	-6	n/a	n/a	n/a
335.582600	2	cue_social_low	n/a	16	-7	n/a	n/a	n/a
344.863500	2	cue_social	n/a	32	10	n/a	n/a	n/a
344.863500	2	cue_social_high	n/a	32	9	n/a	n/a	n/a
351.708440	2	cue_social	n/a	16	-6	n/a	n/a	n/a
351.708440	2	cue_social_low	n/a	16	-7	n/a	n/a	n/a
359.352780	2	cue_social	n/a	16	-6	n/a	n/a	n/a
359.352780	2	cue_social_low	n/a	16	-7	n/a	n/a	n/a
366.939450	2	cue_nonsocial	n/a	32	9	n/a	n/a	n/a
366.939450	2	cue_nonsocial_high	n/a	32	10	n/a	n/a	n/a
6.513654	1.533068	dec_nonsocial_choice	1.533068	16.000000	n/a	4	1.822917e-02	1.822917e-02
6.513654	1.533068	dec_choice	1.533068	16.000000	n/a	4	1.822917e-02	1.822917e-02
6.513654	1.533068	dec_nonsocial_accept	1.533068	16.000000	n/a	4	-1.527778e-01	-1.527778e-01
6.513654	1.533068	dec_accept	1.533068	16.000000	n/a	4	-1.363636e-01	-1.363636e-01
6.513654	1.533068	dec_nonsocial_accept_high	1.533068	16.000000	n/a	4	-1.785714e-01	-1.785714e-01
13.347824	1.032176	dec_social_choice	1.032176	16.000000	n/a	0	0	-2.317708e-01
13.347824	1.032176	dec_choice	1.032176	16.000000	n/a	0	0	-2.317708e-01
13.347824	1.032176	dec_social_reject	1.032176	16.000000	n/a	0	0	-6.666667e-02
13.347824	1.032176	dec_reject	1.032176	16.000000	n/a	0	0	-8.823529e-02
13.347824	1.032176	dec_social_reject_low	1.032176	16.000000	n/a	1	-1.692708e-01	-2.317708e-01
20.995907	0.916770	dec_social_choice	0.916770	16.000000	n/a	0	0	-2.317708e-01
20.995907	0.916770	dec_choice	0.916770	16.000000	n/a	0	0	-2.317708e-01
20.995907	0.916770	dec_social_reject	0.916770	16.000000	n/a	0	0	-6.666667e-02
20.995907	0.916770	dec_reject	0.916770	16.000000	n/a	0	0	-8.823529e-02
20.995907	0.916770	dec_social_low	0.916770	16.000000	n/a	0	-2.317708e-01	-2.317708e-01
20.995907	0.916770	dec_social_reject_low	0.916770	16.000000	n/a	1	-1.692708e-01	-2.317708e-01
27.830040	1.266139	dec_social_choice	1.266139	16.000000	n/a	0	0	-2.317708e-01
27.830040	1.266139	dec_choice	1.266139	16.000000	n/a	0	0	-2.317708e-01
27.830040	1.266139	dec_social_reject	1.266139	16.000000	n/a	0	0	1.208333e-01
27.830040	1.266139	dec_reject	1.266139	16.000000	n/a	0	0	9.926471e-02
27.830040	1.266139	dec_social_reject_low	1.266139	16.000000	n/a	4	1.822917e-02	-2.317708e-01
37.080215	1.050232	dec_nonsocial_choice	1.050232	16.000000	n/a	4	1.822917e-02	1.822917e-02
37.080215	1.050232	dec_choice	1.050232	16.000000	n/a	4	1.822917e-02	1.822917e-02
37.080215	1.050232	dec_nonsocial_accept	1.050232	16.000000	n/a	4	-1.527778e-01	-1.527778e-01
37.080215	1.050232	dec_accept	1.050232	16.000000	n/a	4	-1.363636e-01	-1.363636e-01
37.080215	1.050232	dec_nonsocial_high	1.050232	16.000000	n/a	4	1.822917e-02	1.822917e-02
37.080215	1.050232	dec_nonsocial_accept_high	1.050232	16.000000	n/a	4	-1.363636e-01	-1.363636e-01
43.914024	0.965672	dec_nonsocial_choice	0.965672	32.000000	n/a	16	2.682292e-01	2.682292e-01
43.914024	0.965672	dec_choice	0.965672	32.000000	n/a	16	2.682292e-01	2.682292e-01
43.914024	0.965672	dec_nonsocial_accept	0.965672	32.000000	n/a	16	9.722222e-02	9.722222e-02
43.914024	0.965672	dec_accept	0.965672	32.000000	n/a	16	1.136364e-01	1.136364e-01
43.914024	0.965672	dec_nonsocial_accept_high	0.965672	32.000000	n/a	16	7.142857e-02	7.142857e-02
50.746006	0.950559	dec_social_choice	0.950559	32.000000	n/a	0	0	-2.317708e-01
50.746006	0.950559	dec_choice	0.950559	32.000000	n/a	0	0	-2.317708e-01
50.746006	0.950559	dec_social_reject	0.950559	32.000000	n/a	0	0	-3.541667e-02
50.746006	0.950559	dec_reject	0.950559	32.000000	n/a	0	0	-5.698529e-02
50.746006	0.950559	dec_social_reject_low	0.950559	32.000000	n/a	3	-1.380208e-01	-2.317708e-01
58.397360	0.949244	dec_social_choice	0.949244	16.000000	n/a	0	0	-2.317708e-01
58.397360	0.949244	dec_choice	0.949244	16.000000	n/a	0	0	-2.317708e-01
58.397360	0.949244	dec_social_reject	0.949244	16.000000	n/a	0	0	3.708333e-01
58.397360	0.949244	dec_reject	0.949244	16.000000	n/a	0	0	3.492647e-01
58.397360	0.949244	dec_social_reject_low	0.949244	16.000000	n/a	8	2.682292e-01	-2.317708e-01
66.046180	0.983663	dec_social_choice	0.983663	16.000000	n/a	0	0	-2.317708e-01
66.046180	0.983663	dec_choice	0.983663	16.000000	n/a	0	0	-2.317708e-01
66.046180	0.983663	dec_social_reject	0.983663	16.000000	n/a	0	0	-4.166667e-03
66.046180	0.983663	dec_reject	0.983663	16.000000	n/a	0	0	-2.573529e-02
66.046180	0.983663	dec_social_reject_low	0.983663	16.000000	n/a	2	-1.067708e-01	-2.317708e-01
73.696690	1.300294	dec_nonsocial_choice	1.300294	16.000000	n/a	0	0	-2.317708e-01
73.696690	1.300294	dec_choice	1.300294	16.000000	n/a	0	0	-2.317708e-01
73.696690	1.300294	dec_nonsocial_reject	1.300294	16.000000	n/a	0	0	-4.166667e-03
73.696690	1.300294	dec_reject	1.300294	16.000000	n/a	0	0	2.403846e-02
73.696690	1.300294	dec_nonsocial_low	1.300294	16.000000	n/a	0	-2.317708e-01	-2.317708e-01
73.696690	1.300294	dec_nonsocial_reject_low	1.300294	16.000000	n/a	2	2.403846e-02	-1.009615e-01
86.179634	1.183579	dec_nonsocial_choice	1.183579	32.000000	n/a	8	1.822917e-02	1.822917e-02
86.179634	1.183579	dec_choice	1.183579	32.000000	n/a	8	1.822917e-02	1.822917e-02
86.179634	1.183579	dec_nonsocial_accept	1.183579	32.000000	n/a	8	-1.527778e-01	-1.527778e-01
86.179634	1.183579	dec_accept	1.183579	32.000000	n/a	8	-1.363636e-01	-1.363636e-01
86.179634	1.183579	dec_nonsocial_accept_high	1.183579	32.000000	n/a	8	-1.785714e-01	-1.785714e-01
93.012474	1.066907	dec_nonsocial_choice	1.066907	16.000000	n/a	0	0	-2.317708e-01
93.012474	1.066907	dec_choice	1.066907	16.000000	n/a	0	0	-2.317708e-01
93.012474	1.066907	dec_nonsocial_reject	1.066907	16.000000	n/a	0	0	-6.666667e-02
93.012474	1.066907	dec_reject	1.066907	16.000000	n/a	0	0	-3.846154e-02
93.012474	1.066907	dec_nonsocial_reject_low	1.066907	16.000000	n/a	1	-8.823529e-02	-1.507353e-01
99.847595	0.998929	dec_social_choice	0.998929	16.000000	n/a	0	0	-2.317708e-01
99.847595	0.998929	dec_choice	0.998929	16.000000	n/a	0	0	-2.317708e-01
99.847595	0.998929	dec_social_reject	0.998929	16.000000	n/a	0	0	-6.666667e-02
99.847595	0.998929	dec_reject	0.998929	16.000000	n/a	0	0	-8.823529e-02
99.847595	0.998929	dec_social_low	0.998929	16.000000	n/a	0	-2.317708e-01	-2.317708e-01
99.847595	0.998929	dec_social_reject_low	0.998929	16.000000	n/a	1	-1.692708e-01	-2.317708e-01
107.495940	2.066783	dec_social_choice	2.066783	32.000000	n/a	8	1.822917e-02	1.822917e-02
107.495940	2.066783	dec_choice	2.066783	32.000000	n/a	8	1.822917e-02	1.822917e-02
107.495940	2.066783	dec_social_accept	2.066783	32.000000	n/a	8	-1.527778e-01	-1.527778e-01
107.495940	2.066783	dec_accept	2.066783	32.000000	n/a	8	-1.785714e-01	-1.785714e-01
107.495940	2.066783	dec_social_high	2.066783	32.000000	n/a	8	1.822917e-02	1.822917e-02
107.495940	2.066783	dec_social_accept_high	2.066783	32.000000	n/a	8	1.822917e-02	1.822917e-02
114.330925	1.032235	dec_nonsocial_choice	1.032235	32.000000	n/a	16	2.682292e-01	2.682292e-01
114.330925	1.032235	dec_choice	1.032235	32.000000	n/a	16	2.682292e-01	2.682292e-01
114.330925	1.032235	dec_nonsocial_accept	1.032235	32.000000	n/a	16	9.722222e-02	9.722222e-02
114.330925	1.032235	dec_accept	1.032235	32.000000	n/a	16	1.136364e-01	1.136364e-01
114.330925	1.032235	dec_nonsocial_high	1.032235	32.000000	n/a	16	2.682292e-01	2.682292e-01
114.330925	1.032235	dec_nonsocial_accept_high	1.032235	32.000000	n/a	16	1.136364e-01	1.136364e-01
121.163110	0.933511	dec_nonsocial_choice	0.933511	16.000000	n/a	0	0	-2.317708e-01
121.163110	0.933511	dec_choice	0.933511	16.000000	n/a	0	0	-2.317708e-01
121.163110	0.933511	dec_nonsocial_reject	0.933511	16.000000	n/a	0	0	-6.666667e-02
121.163110	0.933511	dec_reject	0.933511	16.000000	n/a	0	0	-3.846154e-02
121.163110	0.933511	dec_nonsocial_reject_low	0.933511	16.000000	n/a	1	-8.823529e-02	-1.507353e-01
132.030690	0.949290	dec_nonsocial_choice	0.949290	16.000000	n/a	0	0	-2.317708e-01
132.030690	0.949290	dec_choice	0.949290	16.000000	n/a	0	0	-2.317708e-01
132.030690	0.949290	dec_nonsocial_reject	0.949290	16.000000	n/a	0	0	-4.166667e-03
132.030690	0.949290	dec_reject	0.949290	16.000000	n/a	0	0	2.403846e-02
132.030690	0.949290	dec_nonsocial_reject_low	0.949290	16.000000	n/a	2	-2.573529e-02	-1.507353e-01
139.680010	0.949836	dec_nonsocial_choice	0.949836	16.000000	n/a	0	0	-2.317708e-01
139.680010	0.949836	dec_choice	0.949836	16.000000	n/a	0	0	-2.317708e-01
139.680010	0.949836	dec_nonsocial_reject	0.949836	16.000000	n/a	0	0	-4.166667e-03
139.680010	0.949836	dec_reject	0.949836	16.000000	n/a	0	0	2.403846e-02
139.680010	0.949836	dec_nonsocial_low	0.949836	16.000000	n/a	0	-2.317708e-01	-2.317708e-01
139.680010	0.949836	dec_nonsocial_reject_low	0.949836	16.000000	n/a	2	2.403846e-02	-1.009615e-01
147.329030	1.550609	dec_social_choice	1.550609	32.000000	n/a	0	0	-2.317708e-01
147.329030	1.550609	dec_choice	1.550609	32.000000	n/a	0	0	-2.317708e-01
147.329030	1.550609	dec_social_reject	1.550609	32.000000	n/a	0	0	1.208333e-01
147.329030	1.550609	dec_reject	1.550609	32.000000	n/a	0	0	9.926471e-02
147.329030	1.550609	dec_social_reject_low	1.550609	32.000000	n/a	8	1.822917e-02	-2.317708e-01
154.163210	1.599326	dec_nonsocial_choice	1.599326	32.000000	n/a	8	1.822917e-02	1.822917e-02
154.163210	1.599326	dec_choice	1.599326	32.000000	n/a	8	1.822917e-02	1.822917e-02
154.163210	1.599326	dec_nonsocial_accept	1.599326	32.000000	n/a	8	-1.527778e-01	-1.527778e-01
154.163210	1.599326	dec_accept	1.599326	32.000000	n/a	8	-1.363636e-01	-1.363636e-01
154.163210	1.599326	dec_nonsocial_accept_high	1.599326	32.000000	n/a	8	-1.785714e-01	-1.785714e-01
160.996020	1.350344	dec_social_choice	1.350344	16.000000	n/a	8	2.682292e-01	2.682292e-01
160.996020	1.350344	dec_choice	1.350344	16.000000	n/a	8	2.682292e-01	2.682292e-01
160.996020	1.350344	dec_social_accept	1.350344	16.000000	n/a	8	9.722222e-02	9.722222e-02
160.996020	1.350344	dec_accept	1.350344	16.000000	n/a	8	7.142857e-02	7.142857e-02
160.996020	1.350344	dec_social_accept_high	1.350344	16.000000	n/a	8	2.682292e-01	2.682292e-01
170.246950	1.165366	dec_social_choice	1.165366	16.000000	n/a	8	2.682292e-01	2.682292e-01
170.246950	1.165366	dec_choice	1.165366	16.000000	n/a	8	2.682292e-01	2.682292e-01
170.246950	1.165366	dec_social_accept	1.165366	16.000000	n/a	8	9.722222e-02	9.722222e-02
170.246950	1.165366	dec_accept	1.165366	16.000000	n/a	8	7.142857e-02	7.142857e-02
170.246950	1.165366	dec_social_high	1.165366	16.000000	n/a	8	2.682292e-01	2.682292e-01
170.246950	1.165366	dec_social_accept_high	1.165366	16.000000	n/a	8	2.682292e-01	2.682292e-01
177.079990	0.932950	dec_nonsocial_choice	0.932950	16.000000	n/a	8	2.682292e-01	2.682292e-01
177.079990	0.932950	dec_choice	0.932950	16.000000	n/a	8	2.682292e-01	2.682292e-01
177.079990	0.932950	dec_nonsocial_accept	0.932950	16.000000	n/a	8	9.722222e-02	9.722222e-02
177.079990	0.932950	dec_accept	0.932950	16.000000	n/a	8	1.136364e-01	1.136364e-01
177.079990	0.932950	dec_nonsocial_accept_high	0.932950	16.000000	n/a	8	7.142857e-02	7.142857e-02
184.729030	1.000640	dec_social_choice	1.000640	32.000000	n/a	0	0	-2.317708e-01
184.729030	1.000640	dec_choice	1.000640	32.000000	n/a	0	0	-2.317708e-01
184.729030	1.000640	dec_social_reject	1.000640	32.000000	n/a	0	0	-6.666667e-02
184.729030	1.000640	dec_reject	1.000640	32.000000	n/a	0	0	-8.823529e-02
184.729030	1.000640	dec_social_low	1.000640	32.000000	n/a	0	-2.317708e-01	-2.317708e-01
184.729030	1.000640	dec_social_reject_low	1.000640	32.000000	n/a	2	-1.692708e-01	-2.317708e-01
193.979000	0.983939	dec_nonsocial_choice	0.983939	16.000000	n/a	0	0	-2.317708e-01
193.979000	0.983939	dec_choice	0.983939	16.000000	n/a	0	0	-2.317708e-01
193.979000	0.983939	dec_nonsocial_reject	0.983939	16.000000	n/a	0	0	-6.666667e-02
193.979000	0.983939	dec_reject	0.983939	16.000000	n/a	0	0	-3.846154e-02
193.979000	0.983939	dec_nonsocial_low	0.983939	16.000000	n/a	0	-2.317708e-01	-2.317708e-01
193.979000	0.983939	dec_nonsocial_reject_low	0.983939	16.000000	n/a	1	-3.846154e-02	-1.009615e-01
200.812600	1.333220	dec_social_choice	1.333220	32.000000	n/a	0	0	-2.317708e-01
200.812600	1.333220	dec_choice	1.333220	32.000000	n/a	0	0	-2.317708e-01
200.812600	1.333220	dec_social_reject	1.333220	32.000000	n/a	0	0	-3.541667e-02
200.812600	1.333220	dec_reject	1.333220	32.000000	n/a	0	0	-5.698529e-02
200.812600	1.333220	dec_social_reject_low	1.333220	32.000000	n/a	3	-1.380208e-01	-2.317708e-01
207.645970	1.000417	dec_nonsocial_choice	1.000417	32.000000	n/a	0	0	-2.317708e-01
207.645970	1.000417	dec_choice	1.000417	32.000000	n/a	0	0	-2.317708e-01
207.645970	1.000417	dec_nonsocial_reject	1.000417	32.000000	n/a	0	0	-3.541667e-02
207.645970	1.000417	dec_reject	1.000417	32.000000	n/a	0	0	-7.211538e-03
207.645970	1.000417	dec_nonsocial_low	1.000417	32.000000	n/a	0	-2.317708e-01	-2.317708e-01
207.645970	1.000417	dec_nonsocial_reject_low	1.000417	32.000000	n/a	3	-7.211538e-03	-1.009615e-01
214.479930	1.050111	dec_nonsocial_choice	1.050111	32.000000	n/a	0	0	-2.317708e-01
214.479930	1.050111	dec_choice	1.050111	32.000000	n/a	0	0	-2.317708e-01
214.479930	1.050111	dec_nonsocial_reject	1.050111	32.000000	n/a	0	0	-3.541667e-02
214.479930	1.050111	dec_reject	1.050111	32.000000	n/a	0	0	-7.211538e-03
214.479930	1.050111	dec_nonsocial_reject_low	1.050111	32.000000	n/a	3	-5.698529e-02	-1.507353e-01
222.129900	0.999385	dec_nonsocial_choice	0.999385	16.000000	n/a	0	0	-2.317708e-01
222.129900	0.999385	dec_choice	0.999385	16.000000	n/a	0	0	-2.317708e-01
222.129900	0.999385	dec_nonsocial_reject	0.999385	16.000000	n/a	0	0	-6.666667e-02
222.129900	0.999385	dec_reject	0.999385	16.000000	n/a	0	0	-3.846154e-02
222.129900	0.999385	dec_nonsocial_reject_low	0.999385	16.000000	n/a	1	-8.823529e-02	-1.507353e-01
228.962680	1.116350	dec_nonsocial_choice	1.116350	32.000000	n/a	16	2.682292e-01	2.682292e-01
228.962680	1.116350	dec_choice	1.116350	32.000000	n/a	16	2.682292e-01	2.682292e-01
228.962680	1.116350	dec_nonsocial_accept	1.116350	32.000000	n/a	16	9.722222e-02	9.722222e-02
228.962680	1.116350	dec_accept	1.116350	32.000000	n/a	16	1.136364e-01	1.136364e-01
228.962680	1.116350	dec_nonsocial_high	1.116350	32.000000	n/a	16	2.682292e-01	2.682292e-01
228.962680	1.116350	dec_nonsocial_accept_high	1.116350	32.000000	n/a	16	1.136364e-01	1.136364e-01
236.612240	1.000341	dec_nonsocial_choice	1.000341	16.000000	n/a	8	2.682292e-01	2.682292e-01
236.612240	1.000341	dec_choice	1.000341	16.000000	n/a	8	2.682292e-01	2.682292e-01
236.612240	1.000341	dec_nonsocial_accept	1.000341	16.000000	n/a	8	9.722222e-02	9.722222e-02
236.612240	1.000341	dec_accept	1.000341	16.000000	n/a	8	1.136364e-01	1.136364e-01
236.612240	1.000341	dec_nonsocial_accept_high	1.000341	16.000000	n/a	8	7.142857e-02	7.142857e-02
243.446380	1.083314	dec_social_choice	1.083314	32.000000	n/a	16	2.682292e-01	2.682292e-01
243.446380	1.083314	dec_choice	1.083314	32.000000	n/a	16	2.682292e-01	2.682292e-01
243.446380	1.083314	dec_social_accept	1.083314	32.000000	n/a	16	9.722222e-02	9.722222e-02
243.446380	1.083314	dec_accept	1.083314	32.000000	n/a	16	7.142857e-02	7.142857e-02
243.446380	1.083314	dec_social_high	1.083314	32.000000	n/a	16	2.682292e-01	2.682292e-01
243.446380	1.083314	dec_social_accept_high	1.083314	32.000000	n/a	16	2.682292e-01	2.682292e-01
254.312560	1.083899	dec_nonsocial_choice	1.083899	32.000000	n/a	8	1.822917e-02	1.822917e-02
254.312560	1.083899	dec_choice	1.083899	32.000000	n/a	8	1.822917e-02	1.822917e-02
254.312560	1.083899	dec_nonsocial_accept	1.083899	32.000000	n/a	8	-1.527778e-01	-1.527778e-01
254.312560	1.083899	dec_accept	1.083899	32.000000	n/a	8	-1.363636e-01	-1.363636e-01
254.312560	1.083899	dec_nonsocial_accept_high	1.083899	32.000000	n/a	8	-1.785714e-01	-1.785714e-01
261.145900	1.716508	dec_social_choice	1.716508	16.000000	n/a	4	1.822917e-02	1.822917e-02
261.145900	1.716508	dec_choice	1.716508	16.000000	n/a	4	1.822917e-02	1.822917e-02
261.145900	1.716508	dec_social_accept	1.716508	16.000000	n/a	4	-1.527778e-01	-1.527778e-01
261.145900	1.716508	dec_accept	1.716508	16.000000	n/a	4	-1.785714e-01	-1.785714e-01
261.145900	1.716508	dec_social_accept_high	1.716508	16.000000	n/a	4	1.822917e-02	1.822917e-02
268.796630	0.715610	dec_social_choice	0.715610	16.000000	n/a	8	2.682292e-01	2.682292e-01
268.796630	0.715610	dec_choice	0.715610	16.000000	n/a	8	2.682292e-01	2.682292e-01
268.796630	0.715610	dec_social_accept	0.715610	16.000000	n/a	8	9.722222e-02	9.722222e-02
268.796630	0.715610	dec_accept	0.715610	16.000000	n/a	8	7.142857e-02	7.142857e-02
268.796630	0.715610	dec_social_accept_high	0.715610	16.000000	n/a	8	2.682292e-01	2.682292e-01
275.630040	0.965681	dec_nonsocial_choice	0.965681	32.000000	n/a	0	0	-2.317708e-01
275.630040	0.965681	dec_choice	0.965681	32.000000	n/a	0	0	-2.317708e-01
275.630040	0.965681	dec_nonsocial_reject	0.965681	32.000000	n/a	0	0	-6.666667e-02
275.630040	0.965681	dec_reject	0.965681	32.000000	n/a	0	0	-3.846154e-02
275.630040	0.965681	dec_nonsocial_reject_low	0.965681	32.000000	n/a	2	-8.823529e-02	-1.507353e-01
282.463070	1.182911	dec_social_choice	1.182911	32.000000	n/a	0	0	-2.317708e-01
282.463070	1.182911	dec_choice	1.182911	32.000000	n/a	0	0	-2.317708e-01
282.463070	1.182911	dec_social_reject	1.182911	32.000000	n/a	0	0	-6.666667e-02
282.463070	1.182911	dec_reject	1.182911	32.000000	n/a	0	0	-8.823529e-02
282.463070	1.182911	dec_social_low	1.182911	32.000000	n/a	0	-2.317708e-01	-2.317708e-01
282.463070	1.182911	dec_social_reject_low	1.182911	32.000000	n/a	2	-1.692708e-01	-2.317708e-01
291.728600	1.367248	dec_social_choice	1.367248	32.000000	n/a	0	0	-2.317708e-01
291.728600	1.367248	dec_choice	1.367248	32.000000	n/a	0	0	-2.317708e-01
291.728600	1.367248	dec_social_reject	1.367248	32.000000	n/a	0	0	1.208333e-01
291.728600	1.367248	dec_reject	1.367248	32.000000	n/a	0	0	9.926471e-02
291.728600	1.367248	dec_social_low	1.367248	32.000000	n/a	0	-2.317708e-01	-2.317708e-01
291.728600	1.367248	dec_social_reject_low	1.367248	32.000000	n/a	8	1.822917e-02	-2.317708e-01
298.562000	0.800976	dec_nonsocial_choice	0.800976	16.000000	n/a	8	2.682292e-01	2.682292e-01
298.562000	0.800976	dec_choice	0.800976	16.000000	n/a	8	2.682292e-01	2.682292e-01
298.562000	0.800976	dec_nonsocial_accept	0.800976	16.000000	n/a	8	9.722222e-02	9.722222e-02
298.562000	0.800976	dec_accept	0.800976	16.000000	n/a	8	1.136364e-01	1.136364e-01
298.562000	0.800976	dec_nonsocial_high	0.800976	16.000000	n/a	8	2.682292e-01	2.682292e-01
298.562000	0.800976	dec_nonsocial_accept_high	0.800976	16.000000	n/a	8	1.136364e-01	1.136364e-01
307.813900	0.915058	dec_social_choice	0.915058	16.000000	n/a	0	0	-2.317708e-01
307.813900	0.915058	dec_choice	0.915058	16.000000	n/a	0	0	-2.317708e-01
307.813900	0.915058	dec_social_reject	0.915058	16.000000	n/a	0	0	-6.666667e-02
307.813900	0.915058	dec_reject	0.915058	16.000000	n/a	0	0	-8.823529e-02
307.813900	0.915058	dec_social_low	0.915058	16.000000	n/a	0	-2.317708e-01	-2.317708e-01
307.813900	0.915058	dec_social_reject_low	0.915058	16.000000	n/a	1	-1.692708e-01	-2.317708e-01
314.646030	1.050083	dec_social_choice	1.050083	16.000000	n/a	0	0	-2.317708e-01
314.646030	1.050083	dec_choice	1.050083	16.000000	n/a	0	0	-2.317708e-01
314.646030	1.050083	dec_social_reject	1.050083	16.000000	n/a	0	0	1.208333e-01
314.646030	1.050083	dec_reject	1.050083	16.000000	n/a	0	0	9.926471e-02
314.646030	1.050083	dec_social_low	1.050083	16.000000	n/a	0	-2.317708e-01	-2.317708e-01
314.646030	1.050083	dec_social_reject_low	1.050083	16.000000	n/a	4	1.822917e-02	-2.317708e-01
323.895050	1.384033	dec_nonsocial_choice	1.384033	16.000000	n/a	0	0	-2.317708e-01
323.895050	1.384033	dec_choice	1.384033	16.000000	n/a	0	0	-2.317708e-01
323.895050	1.384033	dec_nonsocial_reject	1.384033	16.000000	n/a	0	0	1.208333e-01
323.895050	1.384033	dec_reject	1.384033	16.000000	n/a	0	0	1.490385e-01
323.895050	1.384033	dec_nonsocial_reject_low	1.384033	16.000000	n/a	4	9.926471e-02	-1.507353e-01
330.729000	1.033550	dec_nonsocial_choice	1.033550	16.000000	n/a	0	0	-2.317708e-01
330.729000	1.033550	dec_choice	1.033550	16.000000	n/a	0	0	-2.317708e-01
330.729000	1.033550	dec_nonsocial_reject	1.033550	16.000000	n/a	0	0	-4.166667e-03
330.729000	1.033550	dec_reject	1.033550	16.000000	n/a	0	0	2.403846e-02
330.729000	1.033550	dec_nonsocial_low	1.033550	16.000000	n/a	0	-2.317708e-01	-2.317708e-01
330.729000	1.033550	dec_nonsocial_reject_low	1.033550	16.000000	n/a	2	2.403846e-02	-1.009615e-01
337.562130	0.883560	dec_social_choice	0.883560	16.000000	n/a	0	0	-2.317708e-01
337.562130	0.883560	dec_choice	0.883560	16.000000	n/a	0	0	-2.317708e-01
337.562130	0.883560	dec_social_reject	0.883560	16.000000	n/a	0	0	-4.166667e-03
337.562130	0.883560	dec_reject	0.883560	16.000000	n/a	0	0	-2.573529e-02
337.562130	0.883560	dec_social_low	0.883560	16.000000	n/a	0	-2.317708e-01	-2.317708e-01
337.562130	0.883560	dec_social_reject_low	0.883560	16.000000	n/a	2	-1.067708e-01	-2.317708e-01
346.812650	0.949907	dec_social_choice	0.949907	32.000000	n/a	16	2.682292e-01	2.682292e-01
346.812650	0.949907	dec_choice	0.949907	32.000000	n/a	16	2.682292e-01	2.682292e-01
346.812650	0.949907	dec_social_accept	0.949907	32.000000	n/a	16	9.722222e-02	9.722222e-02
346.812650	0.949907	dec_accept	0.949907	32.000000	n/a	16	7.142857e-02	7.142857e-02
346.812650	0.949907	dec_social_high	0.949907	32.000000	n/a	16	2.682292e-01	2.682292e-01
346.812650	0.949907	dec_social_accept_high	0.949907	32.000000	n/a	16	2.682292e-01	2.682292e-01
353.646120	0.899781	dec_social_choice	0.899781	16.000000	n/a	0	0	-2.317708e-01
353.646120	0.899781	dec_choice	0.899781	16.000000	n/a	0	0	-2.317708e-01
353.646120	0.899781	dec_social_reject	0.899781	16.000000	n/a	0	0	-4.166667e-03
353.646120	0.899781	dec_reject	0.899781	16.000000	n/a	0	0	-2.573529e-02
353.646120	0.899781	dec_social_reject_low	0.899781	16.000000	n/a	2	-1.067708e-01	-2.317708e-01
361.295930	1.899851	dec_social_choice	1.899851	16.000000	n/a	0	0	-2.317708e-01
361.295930	1.899851	dec_choice	1.899851	16.000000	n/a	0	0	-2.317708e-01
361.295930	1.899851	dec_social_reject	1.899851	16.000000	n/a	0	0	-4.166667e-03
361.295930	1.899851	dec_reject	1.899851	16.000000	n/a	0	0	-2.573529e-02
361.295930	1.899851	dec_social_low	1.899851	16.000000	n/a	0	-2.317708e-01	-2.317708e-01
361.295930	1.899851	dec_social_reject_low	1.899851	16.000000	n/a	2	-1.067708e-01	-2.317708e-01
368.947000	0.964969	dec_nonsocial_choice	0.964969	32.000000	n/a	0	0	-2.317708e-01
368.947000	0.964969	dec_choice	0.964969	32.000000	n/a	0	0	-2.317708e-01
368.947000	0.964969	dec_nonsocial_reject	0.964969	32.000000	n/a	0	0	-6.666667e-02
368.947000	0.964969	dec_reject	0.964969	32.000000	n/a	0	0	-3.846154e-02
368.947000	0.964969	dec_nonsocial_reject_low	0.964969	32.000000	n/a	2	-8.823529e-02	-1.507353e-01
