onset	duration	trial_type	response_time	Endowment	Endowment_pmod	Decision	Decision_pmod	Offer_pmod
4.516138	2	cue_nonsocial	n/a	32	9	n/a	n/a	n/a
4.516138	2	cue_nonsocial_high	n/a	32	10	n/a	n/a	n/a
11.349878	2	cue_nonsocial	n/a	32	9	n/a	n/a	n/a
11.349878	2	cue_nonsocial_high	n/a	32	10	n/a	n/a	n/a
20.616423	2	cue_nonsocial	n/a	32	9	n/a	n/a	n/a
20.616423	2	cue_nonsocial_high	n/a	32	10	n/a	n/a	n/a
28.266483	2	cue_nonsocial	n/a	32	9	n/a	n/a	n/a
28.266483	2	cue_nonsocial_high	n/a	32	10	n/a	n/a	n/a
37.524452	2	cue_social	n/a	16	-6	n/a	n/a	n/a
37.524452	2	cue_social_low	n/a	16	-7	n/a	n/a	n/a
44.349533	2	cue_nonsocial	n/a	32	9	n/a	n/a	n/a
44.349533	2	cue_nonsocial_high	n/a	32	10	n/a	n/a	n/a
52.093143	2	cue_social	n/a	16	-6	n/a	n/a	n/a
52.093143	2	cue_social_low	n/a	16	-7	n/a	n/a	n/a
58.832973	2	cue_nonsocial	n/a	16	-7	n/a	n/a	n/a
58.832973	2	cue_nonsocial_low	n/a	16	-6	n/a	n/a	n/a
65.666306	2	cue_nonsocial	n/a	16	-7	n/a	n/a	n/a
65.666306	2	cue_nonsocial_low	n/a	16	-6	n/a	n/a	n/a
72.499466	2	cue_nonsocial	n/a	32	9	n/a	n/a	n/a
72.499466	2	cue_nonsocial_high	n/a	32	10	n/a	n/a	n/a
80.218420	2	cue_social	n/a	32	10	n/a	n/a	n/a
80.218420	2	cue_social_high	n/a	32	9	n/a	n/a	n/a
86.983086	2	cue_nonsocial	n/a	32	9	n/a	n/a	n/a
86.983086	2	cue_nonsocial_high	n/a	32	10	n/a	n/a	n/a
96.299130	2	cue_social	n/a	16	-6	n/a	n/a	n/a
96.299130	2	cue_social_low	n/a	16	-7	n/a	n/a	n/a
103.189040	2	cue_social	n/a	16	-6	n/a	n/a	n/a
103.189040	2	cue_social_low	n/a	16	-7	n/a	n/a	n/a
109.985245	2	cue_social	n/a	16	-6	n/a	n/a	n/a
109.985245	2	cue_social_low	n/a	16	-7	n/a	n/a	n/a
116.795784	2	cue_social	n/a	16	-6	n/a	n/a	n/a
116.795784	2	cue_social_low	n/a	16	-7	n/a	n/a	n/a
123.566055	2	cue_nonsocial	n/a	16	-7	n/a	n/a	n/a
123.566055	2	cue_nonsocial_low	n/a	16	-6	n/a	n/a	n/a
130.399770	2	cue_nonsocial	n/a	16	-7	n/a	n/a	n/a
130.399770	2	cue_nonsocial_low	n/a	16	-6	n/a	n/a	n/a
138.108110	2	cue_social	n/a	32	10	n/a	n/a	n/a
138.108110	2	cue_social_high	n/a	32	9	n/a	n/a	n/a
144.945790	2	cue_social	n/a	16	-6	n/a	n/a	n/a
144.945790	2	cue_social_low	n/a	16	-7	n/a	n/a	n/a
152.532880	2	cue_nonsocial	n/a	32	9	n/a	n/a	n/a
152.532880	2	cue_nonsocial_high	n/a	32	10	n/a	n/a	n/a
160.182570	2	cue_nonsocial	n/a	32	9	n/a	n/a	n/a
160.182570	2	cue_nonsocial_high	n/a	32	10	n/a	n/a	n/a
167.914750	2	cue_social	n/a	16	-6	n/a	n/a	n/a
167.914750	2	cue_social_low	n/a	16	-7	n/a	n/a	n/a
174.665900	2	cue_nonsocial	n/a	16	-7	n/a	n/a	n/a
174.665900	2	cue_nonsocial_low	n/a	16	-6	n/a	n/a	n/a
182.386540	2	cue_social	n/a	32	10	n/a	n/a	n/a
182.386540	2	cue_social_high	n/a	32	9	n/a	n/a	n/a
191.582720	2	cue_nonsocial	n/a	16	-7	n/a	n/a	n/a
191.582720	2	cue_nonsocial_low	n/a	16	-6	n/a	n/a	n/a
198.497830	2	cue_social	n/a	32	10	n/a	n/a	n/a
198.497830	2	cue_social_high	n/a	32	9	n/a	n/a	n/a
205.329200	2	cue_social	n/a	16	-6	n/a	n/a	n/a
205.329200	2	cue_social_low	n/a	16	-7	n/a	n/a	n/a
212.888630	2	cue_social	n/a	16	-6	n/a	n/a	n/a
212.888630	2	cue_social_low	n/a	16	-7	n/a	n/a	n/a
222.181370	2	cue_social	n/a	32	10	n/a	n/a	n/a
222.181370	2	cue_social_high	n/a	32	9	n/a	n/a	n/a
229.058820	2	cue_social	n/a	32	10	n/a	n/a	n/a
229.058820	2	cue_social_high	n/a	32	9	n/a	n/a	n/a
239.929080	2	cue_social	n/a	16	-6	n/a	n/a	n/a
239.929080	2	cue_social_low	n/a	16	-7	n/a	n/a	n/a
246.682430	2	cue_nonsocial	n/a	32	9	n/a	n/a	n/a
246.682430	2	cue_nonsocial_high	n/a	32	10	n/a	n/a	n/a
253.599720	2	cue_social	n/a	32	10	n/a	n/a	n/a
253.599720	2	cue_social_high	n/a	32	9	n/a	n/a	n/a
260.349030	2	cue_nonsocial	n/a	16	-7	n/a	n/a	n/a
260.349030	2	cue_nonsocial_low	n/a	16	-6	n/a	n/a	n/a
267.268770	2	cue_social	n/a	32	10	n/a	n/a	n/a
267.268770	2	cue_social_high	n/a	32	9	n/a	n/a	n/a
274.913270	2	cue_social	n/a	16	-6	n/a	n/a	n/a
274.913270	2	cue_social_low	n/a	16	-7	n/a	n/a	n/a
281.665900	2	cue_nonsocial	n/a	32	9	n/a	n/a	n/a
281.665900	2	cue_nonsocial_high	n/a	32	10	n/a	n/a	n/a
288.613400	2	cue_social	n/a	16	-6	n/a	n/a	n/a
288.613400	2	cue_social_low	n/a	16	-7	n/a	n/a	n/a
295.332180	2	cue_nonsocial	n/a	16	-7	n/a	n/a	n/a
295.332180	2	cue_nonsocial_low	n/a	16	-6	n/a	n/a	n/a
303.077100	2	cue_social	n/a	32	10	n/a	n/a	n/a
303.077100	2	cue_social_high	n/a	32	9	n/a	n/a	n/a
310.632400	2	cue_nonsocial	n/a	16	-7	n/a	n/a	n/a
310.632400	2	cue_nonsocial_low	n/a	16	-6	n/a	n/a	n/a
319.898860	2	cue_nonsocial	n/a	16	-7	n/a	n/a	n/a
319.898860	2	cue_nonsocial_low	n/a	16	-6	n/a	n/a	n/a
330.826140	2	cue_social	n/a	16	-6	n/a	n/a	n/a
330.826140	2	cue_social_low	n/a	16	-7	n/a	n/a	n/a
338.415920	2	cue_nonsocial	n/a	16	-7	n/a	n/a	n/a
338.415920	2	cue_nonsocial_low	n/a	16	-6	n/a	n/a	n/a
350.996280	2	cue_social	n/a	16	-6	n/a	n/a	n/a
350.996280	2	cue_social_low	n/a	16	-7	n/a	n/a	n/a
357.732100	2	cue_nonsocial	n/a	16	-7	n/a	n/a	n/a
357.732100	2	cue_nonsocial_low	n/a	16	-6	n/a	n/a	n/a
368.598630	2	cue_nonsocial	n/a	16	-7	n/a	n/a	n/a
368.598630	2	cue_nonsocial_low	n/a	16	-6	n/a	n/a	n/a
6.522261	1.133610	dec_nonsocial_choice	1.133610	32.000000	n/a	0	0	-2.317708e-01
6.522261	1.133610	dec_choice	1.133610	32.000000	n/a	0	0	-2.330729e-01
6.522261	1.133610	dec_nonsocial_reject	1.133610	32.000000	n/a	0	0	-9.027778e-02
6.522261	1.133610	dec_reject	1.133610	32.000000	n/a	0	0	-1.024306e-01
6.522261	1.133610	dec_nonsocial_low	1.133610	32.000000	n/a	0	-2.330729e-01	-2.330729e-01
6.522261	1.133610	dec_nonsocial_reject_low	1.133610	32.000000	n/a	2	-1.024306e-01	-1.649306e-01
13.356060	1.166341	dec_nonsocial_choice	1.166341	32.000000	n/a	16	2.682292e-01	2.682292e-01
13.356060	1.166341	dec_choice	1.166341	32.000000	n/a	16	2.669271e-01	2.669271e-01
13.356060	1.166341	dec_nonsocial_accept	1.166341	32.000000	n/a	16	3.125000e-02	3.125000e-02
13.356060	1.166341	dec_accept	1.166341	32.000000	n/a	16	6.250000e-02	6.250000e-02
13.356060	1.166341	dec_nonsocial_accept_high	1.166341	32.000000	n/a	16	0	0
22.622780	1.399710	dec_nonsocial_choice	1.399710	32.000000	n/a	0	0	-2.317708e-01
22.622780	1.399710	dec_choice	1.399710	32.000000	n/a	0	0	-2.330729e-01
22.622780	1.399710	dec_nonsocial_reject	1.399710	32.000000	n/a	0	0	-5.902778e-02
22.622780	1.399710	dec_reject	1.399710	32.000000	n/a	0	0	-7.118056e-02
22.622780	1.399710	dec_nonsocial_reject_low	1.399710	32.000000	n/a	3	-4.687500e-02	-1.406250e-01
30.272745	0.950122	dec_nonsocial_choice	0.950122	32.000000	n/a	0	0	-2.317708e-01
30.272745	0.950122	dec_choice	0.950122	32.000000	n/a	0	0	-2.330729e-01
30.272745	0.950122	dec_nonsocial_reject	0.950122	32.000000	n/a	0	0	3.472222e-01
30.272745	0.950122	dec_reject	0.950122	32.000000	n/a	0	0	3.350694e-01
30.272745	0.950122	dec_nonsocial_low	0.950122	32.000000	n/a	0	-2.330729e-01	-2.330729e-01
30.272745	0.950122	dec_nonsocial_reject_low	0.950122	32.000000	n/a	16	3.350694e-01	-1.649306e-01
39.522200	1.300147	dec_social_choice	1.300147	16.000000	n/a	0	0	-2.317708e-01
39.522200	1.300147	dec_choice	1.300147	16.000000	n/a	0	0	-2.304688e-01
39.522200	1.300147	dec_social_reject	1.300147	16.000000	n/a	0	0	-2.777778e-02
39.522200	1.300147	dec_reject	1.300147	16.000000	n/a	0	0	-1.562500e-02
39.522200	1.300147	dec_social_reject_low	1.300147	16.000000	n/a	2	-1.054688e-01	-2.304688e-01
46.356090	1.183395	dec_nonsocial_choice	1.183395	32.000000	n/a	0	0	-2.317708e-01
46.356090	1.183395	dec_choice	1.183395	32.000000	n/a	0	0	-2.330729e-01
46.356090	1.183395	dec_nonsocial_reject	1.183395	32.000000	n/a	0	0	9.722222e-02
46.356090	1.183395	dec_reject	1.183395	32.000000	n/a	0	0	8.506944e-02
46.356090	1.183395	dec_nonsocial_reject_low	1.183395	32.000000	n/a	8	1.093750e-01	-1.406250e-01
54.006130	0.865988	dec_social_choice	0.865988	16.000000	n/a	0	0	-2.317708e-01
54.006130	0.865988	dec_choice	0.865988	16.000000	n/a	0	0	-2.304688e-01
54.006130	0.865988	dec_social_reject	0.865988	16.000000	n/a	0	0	-9.027778e-02
54.006130	0.865988	dec_reject	0.865988	16.000000	n/a	0	0	-7.812500e-02
54.006130	0.865988	dec_social_reject_low	0.865988	16.000000	n/a	1	-1.679688e-01	-2.304688e-01
60.838882	1.084203	dec_nonsocial_choice	1.084203	16.000000	n/a	8	2.682292e-01	2.682292e-01
60.838882	1.084203	dec_choice	1.084203	16.000000	n/a	8	2.669271e-01	2.669271e-01
60.838882	1.084203	dec_nonsocial_accept	1.084203	16.000000	n/a	8	3.125000e-02	3.125000e-02
60.838882	1.084203	dec_accept	1.084203	16.000000	n/a	8	6.250000e-02	6.250000e-02
60.838882	1.084203	dec_nonsocial_high	1.084203	16.000000	n/a	8	2.669271e-01	2.669271e-01
60.838882	1.084203	dec_nonsocial_accept_high	1.084203	16.000000	n/a	8	6.250000e-02	6.250000e-02
67.672890	0.799983	dec_nonsocial_choice	0.799983	16.000000	n/a	0	0	-2.317708e-01
67.672890	0.799983	dec_choice	0.799983	16.000000	n/a	0	0	-2.330729e-01
67.672890	0.799983	dec_nonsocial_reject	0.799983	16.000000	n/a	0	0	-9.027778e-02
67.672890	0.799983	dec_reject	0.799983	16.000000	n/a	0	0	-1.024306e-01
67.672890	0.799983	dec_nonsocial_reject_low	0.799983	16.000000	n/a	1	-7.812500e-02	-1.406250e-01
74.507100	1.365166	dec_nonsocial_choice	1.365166	32.000000	n/a	0	0	-2.317708e-01
74.507100	1.365166	dec_choice	1.365166	32.000000	n/a	0	0	-2.330729e-01
74.507100	1.365166	dec_nonsocial_reject	1.365166	32.000000	n/a	0	0	9.722222e-02
74.507100	1.365166	dec_reject	1.365166	32.000000	n/a	0	0	8.506944e-02
74.507100	1.365166	dec_nonsocial_reject_low	1.365166	32.000000	n/a	8	1.093750e-01	-1.406250e-01
82.156240	0.915982	dec_social_choice	0.915982	32.000000	n/a	0	0	-2.317708e-01
82.156240	0.915982	dec_choice	0.915982	32.000000	n/a	0	0	-2.304688e-01
82.156240	0.915982	dec_social_reject	0.915982	32.000000	n/a	0	0	9.722222e-02
82.156240	0.915982	dec_reject	0.915982	32.000000	n/a	0	0	1.093750e-01
82.156240	0.915982	dec_social_low	0.915982	32.000000	n/a	0	-2.304688e-01	-2.304688e-01
82.156240	0.915982	dec_social_reject_low	0.915982	32.000000	n/a	8	1.953125e-02	-2.304688e-01
88.990090	1.049027	dec_nonsocial_choice	1.049027	32.000000	n/a	0	0	-2.317708e-01
88.990090	1.049027	dec_choice	1.049027	32.000000	n/a	0	0	-2.330729e-01
88.990090	1.049027	dec_nonsocial_reject	1.049027	32.000000	n/a	0	0	-9.027778e-02
88.990090	1.049027	dec_reject	1.049027	32.000000	n/a	0	0	-1.024306e-01
88.990090	1.049027	dec_nonsocial_reject_low	1.049027	32.000000	n/a	2	-7.812500e-02	-1.406250e-01
98.240130	1.032709	dec_social_choice	1.032709	16.000000	n/a	8	2.682292e-01	2.682292e-01
98.240130	1.032709	dec_choice	1.032709	16.000000	n/a	8	2.695312e-01	2.695312e-01
98.240130	1.032709	dec_social_accept	1.032709	16.000000	n/a	8	3.125000e-02	3.125000e-02
98.240130	1.032709	dec_accept	1.032709	16.000000	n/a	8	0	0
98.240130	1.032709	dec_social_accept_high	1.032709	16.000000	n/a	8	2.695312e-01	2.695312e-01
105.072136	0.950359	dec_social_choice	0.950359	16.000000	n/a	0	0	-2.317708e-01
105.072136	0.950359	dec_choice	0.950359	16.000000	n/a	0	0	-2.304688e-01
105.072136	0.950359	dec_social_reject	0.950359	16.000000	n/a	0	0	9.722222e-02
105.072136	0.950359	dec_reject	0.950359	16.000000	n/a	0	0	1.093750e-01
105.072136	0.950359	dec_social_low	0.950359	16.000000	n/a	0	-2.304688e-01	-2.304688e-01
105.072136	0.950359	dec_social_reject_low	0.950359	16.000000	n/a	4	1.953125e-02	-2.304688e-01
111.905100	0.850813	dec_social_choice	0.850813	16.000000	n/a	0	0	-2.317708e-01
111.905100	0.850813	dec_choice	0.850813	16.000000	n/a	0	0	-2.304688e-01
111.905100	0.850813	dec_social_reject	0.850813	16.000000	n/a	0	0	-2.777778e-02
111.905100	0.850813	dec_reject	0.850813	16.000000	n/a	0	0	-1.562500e-02
111.905100	0.850813	dec_social_reject_low	0.850813	16.000000	n/a	2	-1.054688e-01	-2.304688e-01
118.740130	0.832434	dec_social_choice	0.832434	16.000000	n/a	0	0	-2.317708e-01
118.740130	0.832434	dec_choice	0.832434	16.000000	n/a	0	0	-2.304688e-01
118.740130	0.832434	dec_social_reject	0.832434	16.000000	n/a	0	0	9.722222e-02
118.740130	0.832434	dec_reject	0.832434	16.000000	n/a	0	0	1.093750e-01
118.740130	0.832434	dec_social_low	0.832434	16.000000	n/a	0	-2.304688e-01	-2.304688e-01
118.740130	0.832434	dec_social_reject_low	0.832434	16.000000	n/a	4	1.953125e-02	-2.304688e-01
125.572220	0.850378	dec_nonsocial_choice	0.850378	16.000000	n/a	0	0	-2.317708e-01
125.572220	0.850378	dec_choice	0.850378	16.000000	n/a	0	0	-2.330729e-01
125.572220	0.850378	dec_nonsocial_reject	0.850378	16.000000	n/a	0	0	9.722222e-02
125.572220	0.850378	dec_reject	0.850378	16.000000	n/a	0	0	8.506944e-02
125.572220	0.850378	dec_nonsocial_low	0.850378	16.000000	n/a	0	-2.330729e-01	-2.330729e-01
125.572220	0.850378	dec_nonsocial_reject_low	0.850378	16.000000	n/a	4	8.506944e-02	-1.649306e-01
132.406080	0.833103	dec_nonsocial_choice	0.833103	16.000000	n/a	2	-1.067708e-01	-1.067708e-01
132.406080	0.833103	dec_choice	0.833103	16.000000	n/a	2	-1.080729e-01	-1.080729e-01
132.406080	0.833103	dec_nonsocial_accept	0.833103	16.000000	n/a	2	-3.437500e-01	-3.437500e-01
132.406080	0.833103	dec_accept	0.833103	16.000000	n/a	2	-3.125000e-01	-3.125000e-01
132.406080	0.833103	dec_nonsocial_low	0.833103	16.000000	n/a	2	-1.080729e-01	-1.080729e-01
132.406080	0.833103	dec_nonsocial_accept_low	0.833103	16.000000	n/a	2	-3.125000e-01	-3.125000e-01
140.055680	1.133437	dec_social_choice	1.133437	32.000000	n/a	0	0	-2.317708e-01
140.055680	1.133437	dec_choice	1.133437	32.000000	n/a	0	0	-2.304688e-01
140.055680	1.133437	dec_social_reject	1.133437	32.000000	n/a	0	0	9.722222e-02
140.055680	1.133437	dec_reject	1.133437	32.000000	n/a	0	0	1.093750e-01
140.055680	1.133437	dec_social_reject_low	1.133437	32.000000	n/a	8	1.953125e-02	-2.304688e-01
146.890030	0.915426	dec_social_choice	0.915426	16.000000	n/a	0	0	-2.317708e-01
146.890030	0.915426	dec_choice	0.915426	16.000000	n/a	0	0	-2.304688e-01
146.890030	0.915426	dec_social_reject	0.915426	16.000000	n/a	0	0	-9.027778e-02
146.890030	0.915426	dec_reject	0.915426	16.000000	n/a	0	0	-7.812500e-02
146.890030	0.915426	dec_social_low	0.915426	16.000000	n/a	0	-2.304688e-01	-2.304688e-01
146.890030	0.915426	dec_social_reject_low	0.915426	16.000000	n/a	1	-1.679688e-01	-2.304688e-01
154.539440	1.249291	dec_nonsocial_choice	1.249291	32.000000	n/a	0	0	-2.317708e-01
154.539440	1.249291	dec_choice	1.249291	32.000000	n/a	0	0	-2.330729e-01
154.539440	1.249291	dec_nonsocial_reject	1.249291	32.000000	n/a	0	0	-9.027778e-02
154.539440	1.249291	dec_reject	1.249291	32.000000	n/a	0	0	-1.024306e-01
154.539440	1.249291	dec_nonsocial_reject_low	1.249291	32.000000	n/a	2	-7.812500e-02	-1.406250e-01
162.189350	1.183174	dec_nonsocial_choice	1.183174	32.000000	n/a	16	2.682292e-01	2.682292e-01
162.189350	1.183174	dec_choice	1.183174	32.000000	n/a	16	2.669271e-01	2.669271e-01
162.189350	1.183174	dec_nonsocial_accept	1.183174	32.000000	n/a	16	3.125000e-02	3.125000e-02
162.189350	1.183174	dec_accept	1.183174	32.000000	n/a	16	6.250000e-02	6.250000e-02
162.189350	1.183174	dec_nonsocial_accept_high	1.183174	32.000000	n/a	16	0	0
169.838350	0.983447	dec_social_choice	0.983447	16.000000	n/a	8	2.682292e-01	2.682292e-01
169.838350	0.983447	dec_choice	0.983447	16.000000	n/a	8	2.695312e-01	2.695312e-01
169.838350	0.983447	dec_social_accept	0.983447	16.000000	n/a	8	3.125000e-02	3.125000e-02
169.838350	0.983447	dec_accept	0.983447	16.000000	n/a	8	0	0
169.838350	0.983447	dec_social_high	0.983447	16.000000	n/a	8	2.695312e-01	2.695312e-01
169.838350	0.983447	dec_social_accept_high	0.983447	16.000000	n/a	8	2.695312e-01	2.695312e-01
176.673130	0.965559	dec_nonsocial_choice	0.965559	16.000000	n/a	0	0	-2.317708e-01
176.673130	0.965559	dec_choice	0.965559	16.000000	n/a	0	0	-2.330729e-01
176.673130	0.965559	dec_nonsocial_reject	0.965559	16.000000	n/a	0	0	-2.777778e-02
176.673130	0.965559	dec_reject	0.965559	16.000000	n/a	0	0	-3.993056e-02
176.673130	0.965559	dec_nonsocial_low	0.965559	16.000000	n/a	0	-2.330729e-01	-2.330729e-01
176.673130	0.965559	dec_nonsocial_reject_low	0.965559	16.000000	n/a	2	-3.993056e-02	-1.649306e-01
184.322850	0.832866	dec_social_choice	0.832866	32.000000	n/a	0	0	-2.317708e-01
184.322850	0.832866	dec_choice	0.832866	32.000000	n/a	0	0	-2.304688e-01
184.322850	0.832866	dec_social_reject	0.832866	32.000000	n/a	0	0	-5.902778e-02
184.322850	0.832866	dec_reject	0.832866	32.000000	n/a	0	0	-4.687500e-02
184.322850	0.832866	dec_social_low	0.832866	32.000000	n/a	0	-2.304688e-01	-2.304688e-01
184.322850	0.832866	dec_social_reject_low	0.832866	32.000000	n/a	3	-1.367188e-01	-2.304688e-01
193.589170	1.015866	dec_nonsocial_choice	1.015866	16.000000	n/a	8	2.682292e-01	2.682292e-01
193.589170	1.015866	dec_choice	1.015866	16.000000	n/a	8	2.669271e-01	2.669271e-01
193.589170	1.015866	dec_nonsocial_accept	1.015866	16.000000	n/a	8	3.125000e-02	3.125000e-02
193.589170	1.015866	dec_accept	1.015866	16.000000	n/a	8	6.250000e-02	6.250000e-02
193.589170	1.015866	dec_nonsocial_high	1.015866	16.000000	n/a	8	2.669271e-01	2.669271e-01
193.589170	1.015866	dec_nonsocial_accept_high	1.015866	16.000000	n/a	8	6.250000e-02	6.250000e-02
200.422640	0.849785	dec_social_choice	0.849785	32.000000	n/a	16	2.682292e-01	2.682292e-01
200.422640	0.849785	dec_choice	0.849785	32.000000	n/a	16	2.695312e-01	2.695312e-01
200.422640	0.849785	dec_social_accept	0.849785	32.000000	n/a	16	3.125000e-02	3.125000e-02
200.422640	0.849785	dec_accept	0.849785	32.000000	n/a	16	0	0
200.422640	0.849785	dec_social_high	0.849785	32.000000	n/a	16	2.695312e-01	2.695312e-01
200.422640	0.849785	dec_social_accept_high	0.849785	32.000000	n/a	16	2.695312e-01	2.695312e-01
207.255170	1.017262	dec_social_choice	1.017262	16.000000	n/a	8	2.682292e-01	2.682292e-01
207.255170	1.017262	dec_choice	1.017262	16.000000	n/a	8	2.695312e-01	2.695312e-01
207.255170	1.017262	dec_social_accept	1.017262	16.000000	n/a	8	3.125000e-02	3.125000e-02
207.255170	1.017262	dec_accept	1.017262	16.000000	n/a	8	0	0
207.255170	1.017262	dec_social_accept_high	1.017262	16.000000	n/a	8	2.695312e-01	2.695312e-01
214.890010	1.048986	dec_social_choice	1.048986	16.000000	n/a	0	0	-2.317708e-01
214.890010	1.048986	dec_choice	1.048986	16.000000	n/a	0	0	-2.304688e-01
214.890010	1.048986	dec_social_reject	1.048986	16.000000	n/a	0	0	9.722222e-02
214.890010	1.048986	dec_reject	1.048986	16.000000	n/a	0	0	1.093750e-01
214.890010	1.048986	dec_social_low	1.048986	16.000000	n/a	0	-2.304688e-01	-2.304688e-01
214.890010	1.048986	dec_social_reject_low	1.048986	16.000000	n/a	4	1.953125e-02	-2.304688e-01
224.155100	0.950608	dec_social_choice	0.950608	32.000000	n/a	0	0	-2.317708e-01
224.155100	0.950608	dec_choice	0.950608	32.000000	n/a	0	0	-2.304688e-01
224.155100	0.950608	dec_social_reject	0.950608	32.000000	n/a	0	0	-9.027778e-02
224.155100	0.950608	dec_reject	0.950608	32.000000	n/a	0	0	-7.812500e-02
224.155100	0.950608	dec_social_low	0.950608	32.000000	n/a	0	-2.304688e-01	-2.304688e-01
224.155100	0.950608	dec_social_reject_low	0.950608	32.000000	n/a	2	-1.679688e-01	-2.304688e-01
230.989060	1.066521	dec_social_choice	1.066521	32.000000	n/a	0	0	-2.317708e-01
230.989060	1.066521	dec_choice	1.066521	32.000000	n/a	0	0	-2.304688e-01
230.989060	1.066521	dec_social_reject	1.066521	32.000000	n/a	0	0	-9.027778e-02
230.989060	1.066521	dec_reject	1.066521	32.000000	n/a	0	0	-7.812500e-02
230.989060	1.066521	dec_social_reject_low	1.066521	32.000000	n/a	2	-1.679688e-01	-2.304688e-01
241.855200	0.833094	dec_social_choice	0.833094	16.000000	n/a	0	0	-2.317708e-01
241.855200	0.833094	dec_choice	0.833094	16.000000	n/a	0	0	-2.304688e-01
241.855200	0.833094	dec_social_reject	0.833094	16.000000	n/a	0	0	-2.777778e-02
241.855200	0.833094	dec_reject	0.833094	16.000000	n/a	0	0	-1.562500e-02
241.855200	0.833094	dec_social_reject_low	0.833094	16.000000	n/a	2	-1.054688e-01	-2.304688e-01
248.689090	1.666056	dec_nonsocial_choice	1.666056	32.000000	n/a	0	0	-2.317708e-01
248.689090	1.666056	dec_choice	1.666056	32.000000	n/a	0	0	-2.330729e-01
248.689090	1.666056	dec_nonsocial_reject	1.666056	32.000000	n/a	0	0	9.722222e-02
248.689090	1.666056	dec_reject	1.666056	32.000000	n/a	0	0	8.506944e-02
248.689090	1.666056	dec_nonsocial_low	1.666056	32.000000	n/a	0	-2.330729e-01	-2.330729e-01
248.689090	1.666056	dec_nonsocial_reject_low	1.666056	32.000000	n/a	8	8.506944e-02	-1.649306e-01
255.522000	0.916904	dec_social_choice	0.916904	32.000000	n/a	0	0	-2.317708e-01
255.522000	0.916904	dec_choice	0.916904	32.000000	n/a	0	0	-2.304688e-01
255.522000	0.916904	dec_social_reject	0.916904	32.000000	n/a	0	0	-5.902778e-02
255.522000	0.916904	dec_reject	0.916904	32.000000	n/a	0	0	-4.687500e-02
255.522000	0.916904	dec_social_low	0.916904	32.000000	n/a	0	-2.304688e-01	-2.304688e-01
255.522000	0.916904	dec_social_reject_low	0.916904	32.000000	n/a	3	-1.367188e-01	-2.304688e-01
262.355930	0.649730	dec_nonsocial_choice	0.649730	16.000000	n/a	8	2.682292e-01	2.682292e-01
262.355930	0.649730	dec_choice	0.649730	16.000000	n/a	8	2.669271e-01	2.669271e-01
262.355930	0.649730	dec_nonsocial_accept	0.649730	16.000000	n/a	8	3.125000e-02	3.125000e-02
262.355930	0.649730	dec_accept	0.649730	16.000000	n/a	8	6.250000e-02	6.250000e-02
262.355930	0.649730	dec_nonsocial_accept_high	0.649730	16.000000	n/a	8	0	0
269.188500	1.067118	dec_social_choice	1.067118	32.000000	n/a	16	2.682292e-01	2.682292e-01
269.188500	1.067118	dec_choice	1.067118	32.000000	n/a	16	2.695312e-01	2.695312e-01
269.188500	1.067118	dec_social_accept	1.067118	32.000000	n/a	16	3.125000e-02	3.125000e-02
269.188500	1.067118	dec_accept	1.067118	32.000000	n/a	16	0	0
269.188500	1.067118	dec_social_high	1.067118	32.000000	n/a	16	2.695312e-01	2.695312e-01
269.188500	1.067118	dec_social_accept_high	1.067118	32.000000	n/a	16	2.695312e-01	2.695312e-01
276.838000	0.933738	dec_social_choice	0.933738	16.000000	n/a	0	0	-2.317708e-01
276.838000	0.933738	dec_choice	0.933738	16.000000	n/a	0	0	-2.304688e-01
276.838000	0.933738	dec_social_reject	0.933738	16.000000	n/a	0	0	-9.027778e-02
276.838000	0.933738	dec_reject	0.933738	16.000000	n/a	0	0	-7.812500e-02
276.838000	0.933738	dec_social_reject_low	0.933738	16.000000	n/a	1	-1.679688e-01	-2.304688e-01
283.672180	1.016040	dec_nonsocial_choice	1.016040	32.000000	n/a	0	0	-2.317708e-01
283.672180	1.016040	dec_choice	1.016040	32.000000	n/a	0	0	-2.330729e-01
283.672180	1.016040	dec_nonsocial_reject	1.016040	32.000000	n/a	0	0	-9.027778e-02
283.672180	1.016040	dec_reject	1.016040	32.000000	n/a	0	0	-1.024306e-01
283.672180	1.016040	dec_nonsocial_reject_low	1.016040	32.000000	n/a	2	-7.812500e-02	-1.406250e-01
290.504940	1.016827	dec_social_choice	1.016827	16.000000	n/a	8	2.682292e-01	2.682292e-01
290.504940	1.016827	dec_choice	1.016827	16.000000	n/a	8	2.695312e-01	2.695312e-01
290.504940	1.016827	dec_social_accept	1.016827	16.000000	n/a	8	3.125000e-02	3.125000e-02
290.504940	1.016827	dec_accept	1.016827	16.000000	n/a	8	0	0
290.504940	1.016827	dec_social_high	1.016827	16.000000	n/a	8	2.695312e-01	2.695312e-01
290.504940	1.016827	dec_social_accept_high	1.016827	16.000000	n/a	8	2.695312e-01	2.695312e-01
297.339230	1.165919	dec_nonsocial_choice	1.165919	16.000000	n/a	0	0	-2.317708e-01
297.339230	1.165919	dec_choice	1.165919	16.000000	n/a	0	0	-2.330729e-01
297.339230	1.165919	dec_nonsocial_reject	1.165919	16.000000	n/a	0	0	9.722222e-02
297.339230	1.165919	dec_reject	1.165919	16.000000	n/a	0	0	8.506944e-02
297.339230	1.165919	dec_nonsocial_reject_low	1.165919	16.000000	n/a	4	1.093750e-01	-1.406250e-01
304.988740	0.866259	dec_social_choice	0.866259	32.000000	n/a	0	0	-2.317708e-01
304.988740	0.866259	dec_choice	0.866259	32.000000	n/a	0	0	-2.304688e-01
304.988740	0.866259	dec_social_reject	0.866259	32.000000	n/a	0	0	-5.902778e-02
304.988740	0.866259	dec_reject	0.866259	32.000000	n/a	0	0	-4.687500e-02
304.988740	0.866259	dec_social_low	0.866259	32.000000	n/a	0	-2.304688e-01	-2.304688e-01
304.988740	0.866259	dec_social_reject_low	0.866259	32.000000	n/a	3	-1.367188e-01	-2.304688e-01
312.639070	1.382941	dec_nonsocial_choice	1.382941	16.000000	n/a	0	0	-2.317708e-01
312.639070	1.382941	dec_choice	1.382941	16.000000	n/a	0	0	-2.330729e-01
312.639070	1.382941	dec_nonsocial_reject	1.382941	16.000000	n/a	0	0	-9.027778e-02
312.639070	1.382941	dec_reject	1.382941	16.000000	n/a	0	0	-1.024306e-01
312.639070	1.382941	dec_nonsocial_low	1.382941	16.000000	n/a	0	-2.330729e-01	-2.330729e-01
312.639070	1.382941	dec_nonsocial_reject_low	1.382941	16.000000	n/a	1	-1.024306e-01	-1.649306e-01
321.905060	0.900390	dec_nonsocial_choice	0.900390	16.000000	n/a	0	0	-2.317708e-01
321.905060	0.900390	dec_choice	0.900390	16.000000	n/a	0	0	-2.330729e-01
321.905060	0.900390	dec_nonsocial_reject	0.900390	16.000000	n/a	0	0	-2.777778e-02
321.905060	0.900390	dec_reject	0.900390	16.000000	n/a	0	0	-3.993056e-02
321.905060	0.900390	dec_nonsocial_low	0.900390	16.000000	n/a	0	-2.330729e-01	-2.330729e-01
321.905060	0.900390	dec_nonsocial_reject_low	0.900390	16.000000	n/a	2	-3.993056e-02	-1.649306e-01
332.772000	0.983392	dec_social_choice	0.983392	16.000000	n/a	0	0	-2.317708e-01
332.772000	0.983392	dec_choice	0.983392	16.000000	n/a	0	0	-2.304688e-01
332.772000	0.983392	dec_social_reject	0.983392	16.000000	n/a	0	0	9.722222e-02
332.772000	0.983392	dec_reject	0.983392	16.000000	n/a	0	0	1.093750e-01
332.772000	0.983392	dec_social_low	0.983392	16.000000	n/a	0	-2.304688e-01	-2.304688e-01
332.772000	0.983392	dec_social_reject_low	0.983392	16.000000	n/a	4	1.953125e-02	-2.304688e-01
340.422100	0.916236	dec_nonsocial_choice	0.916236	16.000000	n/a	0	0	-2.317708e-01
340.422100	0.916236	dec_choice	0.916236	16.000000	n/a	0	0	-2.330729e-01
340.422100	0.916236	dec_nonsocial_reject	0.916236	16.000000	n/a	0	0	-2.777778e-02
340.422100	0.916236	dec_reject	0.916236	16.000000	n/a	0	0	-3.993056e-02
340.422100	0.916236	dec_nonsocial_reject_low	0.916236	16.000000	n/a	2	-1.562500e-02	-1.406250e-01
352.906160	1.132536	dec_social_choice	1.132536	16.000000	n/a	0	0	-2.317708e-01
352.906160	1.132536	dec_choice	1.132536	16.000000	n/a	0	0	-2.304688e-01
352.906160	1.132536	dec_social_reject	1.132536	16.000000	n/a	0	0	-9.027778e-02
352.906160	1.132536	dec_reject	1.132536	16.000000	n/a	0	0	-7.812500e-02
352.906160	1.132536	dec_social_reject_low	1.132536	16.000000	n/a	1	-1.679688e-01	-2.304688e-01
359.738160	1.050468	dec_nonsocial_choice	1.050468	16.000000	n/a	0	0	-2.317708e-01
359.738160	1.050468	dec_choice	1.050468	16.000000	n/a	0	0	-2.330729e-01
359.738160	1.050468	dec_nonsocial_reject	1.050468	16.000000	n/a	0	0	9.722222e-02
359.738160	1.050468	dec_reject	1.050468	16.000000	n/a	0	0	8.506944e-02
359.738160	1.050468	dec_nonsocial_low	1.050468	16.000000	n/a	0	-2.330729e-01	-2.330729e-01
359.738160	1.050468	dec_nonsocial_reject_low	1.050468	16.000000	n/a	4	8.506944e-02	-1.649306e-01
370.605260	1.049960	dec_nonsocial_choice	1.049960	16.000000	n/a	0	0	-2.317708e-01
370.605260	1.049960	dec_choice	1.049960	16.000000	n/a	0	0	-2.330729e-01
370.605260	1.049960	dec_nonsocial_reject	1.049960	16.000000	n/a	0	0	-2.777778e-02
370.605260	1.049960	dec_reject	1.049960	16.000000	n/a	0	0	-3.993056e-02
370.605260	1.049960	dec_nonsocial_reject_low	1.049960	16.000000	n/a	2	-1.562500e-02	-1.406250e-01
