onset	duration	trial_type	response_time	Endowment	Decision	Offer
4.516138	2	cue_nonsocial	n/a	32	n/a	n/a
4.516138	2	cue_nonsocial_high	n/a	32	n/a	n/a
6.522261	1.133610	dec_nonsocial_high	1.133610	32	n/a	2
6.522261	1.133610	dec_nonsocial_high_reject	1.133610	32	reject	2
11.349878	2	cue_nonsocial	n/a	32	n/a	n/a
11.349878	2	cue_nonsocial_high	n/a	32	n/a	n/a
13.356060	1.166341	dec_nonsocial_high	1.166341	32	n/a	16
13.356060	1.166341	dec_nonsocial_high_accept	1.166341	32	accept	16
20.616423	2	cue_nonsocial	n/a	32	n/a	n/a
20.616423	2	cue_nonsocial_high	n/a	32	n/a	n/a
22.622780	1.399710	dec_nonsocial_high	1.399710	32	n/a	3
22.622780	1.399710	dec_nonsocial_high_reject	1.399710	32	reject	3
28.266483	2	cue_nonsocial	n/a	32	n/a	n/a
28.266483	2	cue_nonsocial_high	n/a	32	n/a	n/a
30.272745	0.950122	dec_nonsocial_high	0.950122	32	n/a	16
30.272745	0.950122	dec_nonsocial_high_reject	0.950122	32	reject	16
37.524452	2	cue_social	n/a	16	n/a	n/a
37.524452	2	cue_social_low	n/a	16	n/a	n/a
39.522200	1.300147	dec_social_low	1.300147	16	n/a	2
39.522200	1.300147	dec_social_low_reject	1.300147	16	reject	2
44.349533	2	cue_nonsocial	n/a	32	n/a	n/a
44.349533	2	cue_nonsocial_high	n/a	32	n/a	n/a
46.356090	1.183395	dec_nonsocial_high	1.183395	32	n/a	8
46.356090	1.183395	dec_nonsocial_high_reject	1.183395	32	reject	8
52.093143	2	cue_social	n/a	16	n/a	n/a
52.093143	2	cue_social_low	n/a	16	n/a	n/a
54.006130	0.865988	dec_social_low	0.865988	16	n/a	1
54.006130	0.865988	dec_social_low_reject	0.865988	16	reject	1
58.832973	2	cue_nonsocial	n/a	16	n/a	n/a
58.832973	2	cue_nonsocial_low	n/a	16	n/a	n/a
60.838882	1.084203	dec_nonsocial_low	1.084203	16	n/a	8
60.838882	1.084203	dec_nonsocial_low_accept	1.084203	16	accept	8
65.666306	2	cue_nonsocial	n/a	16	n/a	n/a
65.666306	2	cue_nonsocial_low	n/a	16	n/a	n/a
67.672890	0.799983	dec_nonsocial_low	0.799983	16	n/a	1
67.672890	0.799983	dec_nonsocial_low_reject	0.799983	16	reject	1
72.499466	2	cue_nonsocial	n/a	32	n/a	n/a
72.499466	2	cue_nonsocial_high	n/a	32	n/a	n/a
74.507100	1.365166	dec_nonsocial_high	1.365166	32	n/a	8
74.507100	1.365166	dec_nonsocial_high_reject	1.365166	32	reject	8
80.218420	2	cue_social	n/a	32	n/a	n/a
80.218420	2	cue_social_high	n/a	32	n/a	n/a
82.156240	0.915982	dec_social_high	0.915982	32	n/a	8
82.156240	0.915982	dec_social_high_reject	0.915982	32	reject	8
86.983086	2	cue_nonsocial	n/a	32	n/a	n/a
86.983086	2	cue_nonsocial_high	n/a	32	n/a	n/a
88.990090	1.049027	dec_nonsocial_high	1.049027	32	n/a	2
88.990090	1.049027	dec_nonsocial_high_reject	1.049027	32	reject	2
96.299130	2	cue_social	n/a	16	n/a	n/a
96.299130	2	cue_social_low	n/a	16	n/a	n/a
98.240130	1.032709	dec_social_low	1.032709	16	n/a	8
98.240130	1.032709	dec_social_low_accept	1.032709	16	accept	8
103.189040	2	cue_social	n/a	16	n/a	n/a
103.189040	2	cue_social_low	n/a	16	n/a	n/a
105.072136	0.950359	dec_social_low	0.950359	16	n/a	4
105.072136	0.950359	dec_social_low_reject	0.950359	16	reject	4
109.985245	2	cue_social	n/a	16	n/a	n/a
109.985245	2	cue_social_low	n/a	16	n/a	n/a
111.905100	0.850813	dec_social_low	0.850813	16	n/a	2
111.905100	0.850813	dec_social_low_reject	0.850813	16	reject	2
116.795784	2	cue_social	n/a	16	n/a	n/a
116.795784	2	cue_social_low	n/a	16	n/a	n/a
118.740130	0.832434	dec_social_low	0.832434	16	n/a	4
118.740130	0.832434	dec_social_low_reject	0.832434	16	reject	4
123.566055	2	cue_nonsocial	n/a	16	n/a	n/a
123.566055	2	cue_nonsocial_low	n/a	16	n/a	n/a
125.572220	0.850378	dec_nonsocial_low	0.850378	16	n/a	4
125.572220	0.850378	dec_nonsocial_low_reject	0.850378	16	reject	4
130.399770	2	cue_nonsocial	n/a	16	n/a	n/a
130.399770	2	cue_nonsocial_low	n/a	16	n/a	n/a
132.406080	0.833103	dec_nonsocial_low	0.833103	16	n/a	2
132.406080	0.833103	dec_nonsocial_low_accept	0.833103	16	accept	2
138.108110	2	cue_social	n/a	32	n/a	n/a
138.108110	2	cue_social_high	n/a	32	n/a	n/a
140.055680	1.133437	dec_social_high	1.133437	32	n/a	8
140.055680	1.133437	dec_social_high_reject	1.133437	32	reject	8
144.945790	2	cue_social	n/a	16	n/a	n/a
144.945790	2	cue_social_low	n/a	16	n/a	n/a
146.890030	0.915426	dec_social_low	0.915426	16	n/a	1
146.890030	0.915426	dec_social_low_reject	0.915426	16	reject	1
152.532880	2	cue_nonsocial	n/a	32	n/a	n/a
152.532880	2	cue_nonsocial_high	n/a	32	n/a	n/a
154.539440	1.249291	dec_nonsocial_high	1.249291	32	n/a	2
154.539440	1.249291	dec_nonsocial_high_reject	1.249291	32	reject	2
160.182570	2	cue_nonsocial	n/a	32	n/a	n/a
160.182570	2	cue_nonsocial_high	n/a	32	n/a	n/a
162.189350	1.183174	dec_nonsocial_high	1.183174	32	n/a	16
162.189350	1.183174	dec_nonsocial_high_accept	1.183174	32	accept	16
167.914750	2	cue_social	n/a	16	n/a	n/a
167.914750	2	cue_social_low	n/a	16	n/a	n/a
169.838350	0.983447	dec_social_low	0.983447	16	n/a	8
169.838350	0.983447	dec_social_low_accept	0.983447	16	accept	8
174.665900	2	cue_nonsocial	n/a	16	n/a	n/a
174.665900	2	cue_nonsocial_low	n/a	16	n/a	n/a
176.673130	0.965559	dec_nonsocial_low	0.965559	16	n/a	2
176.673130	0.965559	dec_nonsocial_low_reject	0.965559	16	reject	2
182.386540	2	cue_social	n/a	32	n/a	n/a
182.386540	2	cue_social_high	n/a	32	n/a	n/a
184.322850	0.832866	dec_social_high	0.832866	32	n/a	3
184.322850	0.832866	dec_social_high_reject	0.832866	32	reject	3
191.582720	2	cue_nonsocial	n/a	16	n/a	n/a
191.582720	2	cue_nonsocial_low	n/a	16	n/a	n/a
193.589170	1.015866	dec_nonsocial_low	1.015866	16	n/a	8
193.589170	1.015866	dec_nonsocial_low_accept	1.015866	16	accept	8
198.497830	2	cue_social	n/a	32	n/a	n/a
198.497830	2	cue_social_high	n/a	32	n/a	n/a
200.422640	0.849785	dec_social_high	0.849785	32	n/a	16
200.422640	0.849785	dec_social_high_accept	0.849785	32	accept	16
205.329200	2	cue_social	n/a	16	n/a	n/a
205.329200	2	cue_social_low	n/a	16	n/a	n/a
207.255170	1.017262	dec_social_low	1.017262	16	n/a	8
207.255170	1.017262	dec_social_low_accept	1.017262	16	accept	8
212.888630	2	cue_social	n/a	16	n/a	n/a
212.888630	2	cue_social_low	n/a	16	n/a	n/a
214.890010	1.048986	dec_social_low	1.048986	16	n/a	4
214.890010	1.048986	dec_social_low_reject	1.048986	16	reject	4
222.181370	2	cue_social	n/a	32	n/a	n/a
222.181370	2	cue_social_high	n/a	32	n/a	n/a
224.155100	0.950608	dec_social_high	0.950608	32	n/a	2
224.155100	0.950608	dec_social_high_reject	0.950608	32	reject	2
229.058820	2	cue_social	n/a	32	n/a	n/a
229.058820	2	cue_social_high	n/a	32	n/a	n/a
230.989060	1.066521	dec_social_high	1.066521	32	n/a	2
230.989060	1.066521	dec_social_high_reject	1.066521	32	reject	2
239.929080	2	cue_social	n/a	16	n/a	n/a
239.929080	2	cue_social_low	n/a	16	n/a	n/a
241.855200	0.833094	dec_social_low	0.833094	16	n/a	2
241.855200	0.833094	dec_social_low_reject	0.833094	16	reject	2
246.682430	2	cue_nonsocial	n/a	32	n/a	n/a
246.682430	2	cue_nonsocial_high	n/a	32	n/a	n/a
248.689090	1.666056	dec_nonsocial_high	1.666056	32	n/a	8
248.689090	1.666056	dec_nonsocial_high_reject	1.666056	32	reject	8
253.599720	2	cue_social	n/a	32	n/a	n/a
253.599720	2	cue_social_high	n/a	32	n/a	n/a
255.522000	0.916904	dec_social_high	0.916904	32	n/a	3
255.522000	0.916904	dec_social_high_reject	0.916904	32	reject	3
260.349030	2	cue_nonsocial	n/a	16	n/a	n/a
260.349030	2	cue_nonsocial_low	n/a	16	n/a	n/a
262.355930	0.649730	dec_nonsocial_low	0.649730	16	n/a	8
262.355930	0.649730	dec_nonsocial_low_accept	0.649730	16	accept	8
267.268770	2	cue_social	n/a	32	n/a	n/a
267.268770	2	cue_social_high	n/a	32	n/a	n/a
269.188500	1.067118	dec_social_high	1.067118	32	n/a	16
269.188500	1.067118	dec_social_high_accept	1.067118	32	accept	16
274.913270	2	cue_social	n/a	16	n/a	n/a
274.913270	2	cue_social_low	n/a	16	n/a	n/a
276.838000	0.933738	dec_social_low	0.933738	16	n/a	1
276.838000	0.933738	dec_social_low_reject	0.933738	16	reject	1
281.665900	2	cue_nonsocial	n/a	32	n/a	n/a
281.665900	2	cue_nonsocial_high	n/a	32	n/a	n/a
283.672180	1.016040	dec_nonsocial_high	1.016040	32	n/a	2
283.672180	1.016040	dec_nonsocial_high_reject	1.016040	32	reject	2
288.613400	2	cue_social	n/a	16	n/a	n/a
288.613400	2	cue_social_low	n/a	16	n/a	n/a
290.504940	1.016827	dec_social_low	1.016827	16	n/a	8
290.504940	1.016827	dec_social_low_accept	1.016827	16	accept	8
295.332180	2	cue_nonsocial	n/a	16	n/a	n/a
295.332180	2	cue_nonsocial_low	n/a	16	n/a	n/a
297.339230	1.165919	dec_nonsocial_low	1.165919	16	n/a	4
297.339230	1.165919	dec_nonsocial_low_reject	1.165919	16	reject	4
303.077100	2	cue_social	n/a	32	n/a	n/a
303.077100	2	cue_social_high	n/a	32	n/a	n/a
304.988740	0.866259	dec_social_high	0.866259	32	n/a	3
304.988740	0.866259	dec_social_high_reject	0.866259	32	reject	3
310.632400	2	cue_nonsocial	n/a	16	n/a	n/a
310.632400	2	cue_nonsocial_low	n/a	16	n/a	n/a
312.639070	1.382941	dec_nonsocial_low	1.382941	16	n/a	1
312.639070	1.382941	dec_nonsocial_low_reject	1.382941	16	reject	1
319.898860	2	cue_nonsocial	n/a	16	n/a	n/a
319.898860	2	cue_nonsocial_low	n/a	16	n/a	n/a
321.905060	0.900390	dec_nonsocial_low	0.900390	16	n/a	2
321.905060	0.900390	dec_nonsocial_low_reject	0.900390	16	reject	2
330.826140	2	cue_social	n/a	16	n/a	n/a
330.826140	2	cue_social_low	n/a	16	n/a	n/a
332.772000	0.983392	dec_social_low	0.983392	16	n/a	4
332.772000	0.983392	dec_social_low_reject	0.983392	16	reject	4
338.415920	2	cue_nonsocial	n/a	16	n/a	n/a
338.415920	2	cue_nonsocial_low	n/a	16	n/a	n/a
340.422100	0.916236	dec_nonsocial_low	0.916236	16	n/a	2
340.422100	0.916236	dec_nonsocial_low_reject	0.916236	16	reject	2
350.996280	2	cue_social	n/a	16	n/a	n/a
350.996280	2	cue_social_low	n/a	16	n/a	n/a
352.906160	1.132536	dec_social_low	1.132536	16	n/a	1
352.906160	1.132536	dec_social_low_reject	1.132536	16	reject	1
357.732100	2	cue_nonsocial	n/a	16	n/a	n/a
357.732100	2	cue_nonsocial_low	n/a	16	n/a	n/a
359.738160	1.050468	dec_nonsocial_low	1.050468	16	n/a	4
359.738160	1.050468	dec_nonsocial_low_reject	1.050468	16	reject	4
368.598630	2	cue_nonsocial	n/a	16	n/a	n/a
368.598630	2	cue_nonsocial_low	n/a	16	n/a	n/a
370.605260	1.049960	dec_nonsocial_low	1.049960	16	n/a	2
370.605260	1.049960	dec_nonsocial_low_reject	1.049960	16	reject	2
