instrText,stimDoor,stimDoorLure,stimFace,stimFaceLure,Instructions.thisRepN,Instructions.thisTrialN,Instructions.thisN,Instructions.thisIndex,Trials.thisRepN,Trials.thisTrialN,Trials.thisN,Trials.thisIndex,Func,Keys,Text,RespTime,Onset,Offset,SystemTime_Start,SystemTime_Stop,Stim,Lure,Participant*,Age,date,expName,psychopyVersion,frameRate,
"In the earlier Feedback Games, you chose which doors contained a prize, and which peers liked you. 

You then saw positive or negative feedback (green check mark or red X) from the door or peer you selected.

You will now see a series of doors and peers, some of which you saw during the earlier Feedback Games, and some that you have never seen before.

Please press the spacebar to continue.",,,,,0,0,0,0,,,,,instrFunc,space,"In the earlier Feedback Games, you chose which doors contained a prize, and which peers liked you. 

You then saw positive or negative feedback (green check mark or red X) from the door or peer you selected.

You will now see a series of doors and peers, some of which you saw during the earlier Feedback Games, and some that you have never seen before.

Please press the spacebar to continue.",54.5902858999998,117.86296240000047,172.53641104000053,2024-03-11 19:00:36.651571,2024-03-11 19:01:31.309805,,,10926,30-49,2024-03-11_19h00.33.748,Recall,2021.2.3,60.07232708159631,
"For doors/peers that you remember selecting and getting feedback from, your job is to RECALL what feedback you received. 

Press '1' if you recall positive feedback. 

Press '2' if you recall negative feedback

Press the spacebar to continue.",,,,,0,1,1,1,,,,,instrFunc,space,"For doors/peers that you remember selecting and getting feedback from, your job is to RECALL what feedback you received. 

Press '1' if you recall positive feedback. 

Press '2' if you recall negative feedback

Press the spacebar to continue.",0.39263840000057826,172.50070219999907,172.94797278000078,2024-03-11 19:01:31.310805,2024-03-11 19:01:31.742594,,,10926,30-49,2024-03-11_19h00.33.748,Recall,2021.2.3,60.07232708159631,
"For doors/peers that you don't remember getting feedback from, your job is to PREDICT what feedback you WOULD HAVE received.

Press '9' if you predict positive feedback.

Press '0' if you predict negative feedback. 

Please press the spacebar to continue.",,,,,0,2,2,2,,,,,instrFunc,space,"For doors/peers that you don't remember getting feedback from, your job is to PREDICT what feedback you WOULD HAVE received.

Press '9' if you predict positive feedback.

Press '0' if you predict negative feedback. 

Please press the spacebar to continue.",2.720242599998528,172.93292090000068,175.71596998000132,2024-03-11 19:01:31.743595,2024-03-11 19:01:34.510787,,,10926,30-49,2024-03-11_19h00.33.748,Recall,2021.2.3,60.07232708159631,
"This task is self-paced, and the prompts will always stay on the screen so that you know which buttons to press.

On the next screen we will show you what those prompts look like, so that you know exactly what to expect. 

You will start with either doors or peers, and then switch halfway through. 

Please press the spacebar to continue.",,,,,0,3,3,3,,,,,instrFunc,space,"This task is self-paced, and the prompts will always stay on the screen so that you know which buttons to press.

On the next screen we will show you what those prompts look like, so that you know exactly what to expect. 

You will start with either doors or peers, and then switch halfway through. 

Please press the spacebar to continue.",0.4624856999998883,175.69485340000028,176.21017867999944,2024-03-11 19:01:34.511777,2024-03-11 19:01:35.011995,,,10926,30-49,2024-03-11_19h00.33.748,Recall,2021.2.3,60.07232708159631,
,,,,,,,,,,,,,imgtextFunc,space,"Here is what the screen will look like while you make your ratings.
The green circles remind you to press 1 or 9 for positive feedback.
The red circles remind you to press 2 or 0 for negative feedback.









Please let the experimenter know if you have any questions.

Whenever you're ready, press the spacebar to start the task.",21.230191700000432,176.34302989999924,197.75484017999952,2024-03-11 19:01:35.021970,2024-03-11 19:01:56.428147,,,10926,30-49,2024-03-11_19h00.33.748,Recall,2021.2.3,60.07232708159631,
,SD027.jpg,0,MF027.jpg,0,,,,,0,0,0,76,imgFunc,2,NA,25.130130000001373,197.7310655000001,222.98551013999713,2024-03-11 19:01:56.467696,2024-03-11 19:02:21.712680,MF027.jpg,0,10926,30-49,2024-03-11_19h00.33.748,Recall,2021.2.3,60.07232708159631,
,DD015.jpg,0,FF015.jpg,0,,,,,0,1,1,14,imgFunc,2,NA,2.3824193000000378,222.9828937000002,225.48130297999887,2024-03-11 19:02:21.722739,2024-03-11 19:02:24.214368,FF015.jpg,0,10926,30-49,2024-03-11_19h00.33.748,Recall,2021.2.3,60.07232708159631,
,DD014.jpg,0,FF014.jpg,0,,,,,0,2,2,13,imgFunc,1,NA,1.39171720000013,225.46148489999905,226.95090187999813,2024-03-11 19:02:24.221352,2024-03-11 19:02:25.702120,FF014.jpg,0,10926,30-49,2024-03-11_19h00.33.748,Recall,2021.2.3,60.07232708159631,
,SD006.jpg,0,MF006.jpg,0,,,,,0,3,3,55,imgFunc,2,NA,1.2578682000003027,226.94721890000073,228.29342738000014,2024-03-11 19:02:25.709102,2024-03-11 19:02:27.050135,MF006.jpg,0,10926,30-49,2024-03-11_19h00.33.748,Recall,2021.2.3,60.07232708159631,
,DD004.jpg,0,FF004.jpg,0,,,,,0,4,4,3,imgFunc,1,NA,0.7635695999997552,228.28964160000032,229.14215847999913,2024-03-11 19:02:27.057119,2024-03-11 19:02:27.900620,FF004.jpg,0,10926,30-49,2024-03-11_19h00.33.748,Recall,2021.2.3,60.07232708159631,
,DD039.jpg,0,FF039.jpg,0,,,,,0,5,5,38,imgFunc,2,NA,1.2319591999985278,229.14120290000028,230.46077677999892,2024-03-11 19:02:27.907603,2024-03-11 19:02:29.218359,FF039.jpg,0,10926,30-49,2024-03-11_19h00.33.748,Recall,2021.2.3,60.07232708159631,
,DD019.jpg,0,FF019.jpg,0,,,,,0,6,6,18,imgFunc,1,NA,1.803170000001046,230.46602370000073,232.36910738000188,2024-03-11 19:02:29.225342,2024-03-11 19:02:31.119654,FF019.jpg,0,10926,30-49,2024-03-11_19h00.33.748,Recall,2021.2.3,60.07232708159631,
,SD019.jpg,0,MF019.jpg,0,,,,,0,7,7,68,imgFunc,1,NA,1.3299910000005184,232.37093020000066,233.79862528000012,2024-03-11 19:02:31.130637,2024-03-11 19:02:32.554039,MF019.jpg,0,10926,30-49,2024-03-11_19h00.33.748,Recall,2021.2.3,60.07232708159631,
,DD040.jpg,0,FF040.jpg,0,,,,,0,8,8,39,imgFunc,2,NA,0.6747100000011415,233.79444479999984,234.56358688,2024-03-11 19:02:32.561022,2024-03-11 19:02:33.321192,FF040.jpg,0,10926,30-49,2024-03-11_19h00.33.748,Recall,2021.2.3,60.07232708159631,
,DD003.jpg,0,FF003.jpg,0,,,,,0,9,9,2,imgFunc,1,NA,0.7713378000007651,234.56193650000023,235.43130728000142,2024-03-11 19:02:33.328175,2024-03-11 19:02:34.188573,FF003.jpg,0,10926,30-49,2024-03-11_19h00.33.748,Recall,2021.2.3,60.07232708159631,
,DD012.jpg,0,FF012.jpg,0,,,,,0,10,10,11,imgFunc,9,NA,2.4773810999995476,235.43985910000083,238.02704878000077,2024-03-11 19:02:34.195556,2024-03-11 19:02:36.773866,FF012.jpg,0,10926,30-49,2024-03-11_19h00.33.748,Recall,2021.2.3,60.07232708159631,
,DD038.jpg,0,FF038.jpg,0,,,,,0,11,11,37,imgFunc,0,NA,1.420819200000551,238.0244956000006,239.54365958000017,2024-03-11 19:02:36.780872,2024-03-11 19:02:38.291551,FF038.jpg,0,10926,30-49,2024-03-11_19h00.33.748,Recall,2021.2.3,60.07232708159631,
,SD035.jpg,0,MF035.jpg,0,,,,,0,12,12,84,imgFunc,2,NA,2.013024400001086,239.54383959999905,241.64973667999766,2024-03-11 19:02:38.305515,2024-03-11 19:02:40.409581,MF035.jpg,0,10926,30-49,2024-03-11_19h00.33.748,Recall,2021.2.3,60.07232708159631,
,DD025.jpg,0,FF025.jpg,0,,,,,0,13,13,24,imgFunc,1,NA,0.9487992000013037,241.6563853000007,242.70904297999914,2024-03-11 19:02:40.416554,2024-03-11 19:02:41.460556,FF025.jpg,0,10926,30-49,2024-03-11_19h00.33.748,Recall,2021.2.3,60.07232708159631,
,SD021.jpg,0,MF021.jpg,0,,,,,0,14,14,70,imgFunc,2,NA,1.731029700000363,242.71422619999976,244.5506143800012,2024-03-11 19:02:41.467539,2024-03-11 19:02:43.295132,MF021.jpg,0,10926,30-49,2024-03-11_19h00.33.748,Recall,2021.2.3,60.07232708159631,
,SD028.jpg,0,MF028.jpg,0,,,,,0,15,15,77,imgFunc,1,NA,0.7958595000000059,244.56136719999995,245.48033047999888,2024-03-11 19:02:43.302115,2024-03-11 19:02:44.212514,MF028.jpg,0,10926,30-49,2024-03-11_19h00.33.748,Recall,2021.2.3,60.07232708159631,
,SD010.jpg,0,MF010.jpg,0,,,,,0,16,16,59,imgFunc,2,NA,1.1980520999986766,245.4792054999998,246.79876008000065,2024-03-11 19:02:44.219497,2024-03-11 19:02:45.530294,MF010.jpg,0,10926,30-49,2024-03-11_19h00.33.748,Recall,2021.2.3,60.07232708159631,
,DD007.jpg,0,FF007.jpg,0,,,,,0,17,17,6,imgFunc,1,NA,0.8757925000008981,246.76942620000045,247.7385128800015,2024-03-11 19:02:45.537277,2024-03-11 19:02:46.497586,FF007.jpg,0,10926,30-49,2024-03-11_19h00.33.748,Recall,2021.2.3,60.07232708159631,
,L_DD510.jpg,1,L_FF510.jpg,1,,,,,0,18,18,49,imgFunc,2,NA,2.651467199999388,247.73765210000056,250.47488617999988,2024-03-11 19:02:46.504569,2024-03-11 19:02:49.233071,L_FF510.jpg,1,10926,30-49,2024-03-11_19h00.33.748,Recall,2021.2.3,60.07232708159631,
,L_DD508.jpg,1,L_FF508.jpg,1,,,,,0,19,19,47,imgFunc,1,NA,0.8148955000015121,250.47825100000045,251.39732778000143,2024-03-11 19:02:49.240054,2024-03-11 19:02:50.150156,L_FF508.jpg,1,10926,30-49,2024-03-11_19h00.33.748,Recall,2021.2.3,60.07232708159631,
,DD035.jpg,0,FF035.jpg,0,,,,,0,20,20,34,imgFunc,2,NA,1.0626897999991343,251.39850060000026,252.5674967800005,2024-03-11 19:02:50.157161,2024-03-11 19:02:51.317740,FF035.jpg,0,10926,30-49,2024-03-11_19h00.33.748,Recall,2021.2.3,60.07232708159631,
,L_SD509.jpg,1,L_MF509.jpg,1,,,,,0,21,21,98,imgFunc,0,NA,1.6793967000012344,252.56578509999963,254.34095098000034,2024-03-11 19:02:51.330708,2024-03-11 19:02:53.102289,L_MF509.jpg,1,10926,30-49,2024-03-11_19h00.33.748,Recall,2021.2.3,60.07232708159631,
,SD038.jpg,0,MF038.jpg,0,,,,,0,22,22,87,imgFunc,9,NA,0.7774520000002667,254.34786890000032,255.21762918000059,2024-03-11 19:02:53.109272,2024-03-11 19:02:53.970058,MF038.jpg,0,10926,30-49,2024-03-11_19h00.33.748,Recall,2021.2.3,60.07232708159631,
,SD011.jpg,0,MF011.jpg,0,,,,,0,23,23,60,imgFunc,0,NA,0.8209603000013885,255.2161976999996,256.13441607999994,2024-03-11 19:02:53.977041,2024-03-11 19:02:54.887109,MF011.jpg,0,10926,30-49,2024-03-11_19h00.33.748,Recall,2021.2.3,60.07232708159631,
,L_SD508.jpg,1,L_MF508.jpg,1,,,,,0,24,24,97,imgFunc,2,NA,1.4325125999985175,256.1406494999992,257.6768835799994,2024-03-11 19:02:54.894093,2024-03-11 19:02:56.421354,L_MF508.jpg,1,10926,30-49,2024-03-11_19h00.33.748,Recall,2021.2.3,60.07232708159631,
,DD002.jpg,0,FF002.jpg,0,,,,,0,25,25,1,imgFunc,1,NA,1.025492499999018,257.6755548000001,258.8119558800008,2024-03-11 19:02:56.428338,2024-03-11 19:02:57.555706,FF002.jpg,0,10926,30-49,2024-03-11_19h00.33.748,Recall,2021.2.3,60.07232708159631,
,SD012.jpg,0,MF012.jpg,0,,,,,0,26,26,61,imgFunc,2,NA,2.4124163999986195,258.8087393000005,261.3139470799997,2024-03-11 19:02:57.570669,2024-03-11 19:03:00.074083,MF012.jpg,0,10926,30-49,2024-03-11_19h00.33.748,Recall,2021.2.3,60.07232708159631,
,DD031.jpg,0,FF031.jpg,0,,,,,0,27,27,30,imgFunc,1,NA,0.9958363999994617,261.3213228000004,262.4241605800016,2024-03-11 19:03:00.081066,2024-03-11 19:03:01.175006,FF031.jpg,0,10926,30-49,2024-03-11_19h00.33.748,Recall,2021.2.3,60.07232708159631,
,SD022.jpg,0,MF022.jpg,0,,,,,0,28,28,71,imgFunc,0,NA,2.243023799999719,262.42616199999975,264.7795620800007,2024-03-11 19:03:01.181989,2024-03-11 19:03:03.526660,MF022.jpg,0,10926,30-49,2024-03-11_19h00.33.748,Recall,2021.2.3,60.07232708159631,
,L_DD504.jpg,1,L_FF504.jpg,1,,,,,0,29,29,43,imgFunc,9,NA,1.0430098999986512,264.7782281,265.9305094800002,2024-03-11 19:03:03.533666,2024-03-11 19:03:04.677514,L_FF504.jpg,1,10926,30-49,2024-03-11_19h00.33.748,Recall,2021.2.3,60.07232708159631,
,DD020.jpg,0,FF020.jpg,0,,,,,0,30,30,19,imgFunc,2,NA,1.3702941999999894,265.9389291000007,267.42477318000056,2024-03-11 19:03:04.684520,2024-03-11 19:03:06.162163,FF020.jpg,0,10926,30-49,2024-03-11_19h00.33.748,Recall,2021.2.3,60.07232708159631,
,L_DD505.jpg,1,L_FF505.jpg,1,,,,,0,31,31,44,imgFunc,1,NA,1.1147308999989036,267.40237100000013,268.60501018000105,2024-03-11 19:03:06.169168,2024-03-11 19:03:07.363102,L_FF505.jpg,1,10926,30-49,2024-03-11_19h00.33.748,Recall,2021.2.3,60.07232708159631,
,SD003.jpg,0,MF003.jpg,0,,,,,0,32,32,52,imgFunc,2,NA,1.0217954000017926,268.6074291999994,269.72659137999835,2024-03-11 19:03:07.370085,2024-03-11 19:03:08.480361,MF003.jpg,0,10926,30-49,2024-03-11_19h00.33.748,Recall,2021.2.3,60.07232708159631,
,DD010.jpg,0,FF010.jpg,0,,,,,0,33,33,9,imgFunc,1,NA,1.3626129000003857,269.72226860000046,271.17478338,2024-03-11 19:03:08.487346,2024-03-11 19:03:09.931108,FF010.jpg,0,10926,30-49,2024-03-11_19h00.33.748,Recall,2021.2.3,60.07232708159631,
,L_SD501.jpg,1,L_MF501.jpg,1,,,,,0,34,34,90,imgFunc,2,NA,1.5137541999993118,271.1794725,272.7992106799993,2024-03-11 19:03:09.938089,2024-03-11 19:03:11.549227,L_MF501.jpg,1,10926,30-49,2024-03-11_19h00.33.748,Recall,2021.2.3,60.07232708159631,
,DD037.jpg,0,FF037.jpg,0,,,,,0,35,35,36,imgFunc,0,NA,1.434066100000564,272.80315169999994,274.32732437999766,2024-03-11 19:03:11.562197,2024-03-11 19:03:13.083945,FF037.jpg,0,10926,30-49,2024-03-11_19h00.33.748,Recall,2021.2.3,60.07232708159631,
,L_SD507.jpg,1,L_MF507.jpg,1,,,,,0,36,36,96,imgFunc,2,NA,1.726467300000877,274.3346739999997,276.1707672799985,2024-03-11 19:03:13.091384,2024-03-11 19:03:14.918445,L_MF507.jpg,1,10926,30-49,2024-03-11_19h00.33.748,Recall,2021.2.3,60.07232708159631,
,SD024.jpg,0,MF024.jpg,0,,,,,0,37,37,73,imgFunc,1,NA,2.4911356000011438,276.16968500000075,278.773446180001,2024-03-11 19:03:14.925428,2024-03-11 19:03:17.520383,MF024.jpg,0,10926,30-49,2024-03-11_19h00.33.748,Recall,2021.2.3,60.07232708159631,
,L_SD505.jpg,1,L_MF505.jpg,1,,,,,0,38,38,94,imgFunc,2,NA,1.0787787999997818,278.7743252,279.9590204800006,2024-03-11 19:03:17.528363,2024-03-11 19:03:18.704584,L_MF505.jpg,1,10926,30-49,2024-03-11_19h00.33.748,Recall,2021.2.3,60.07232708159631,
,SD034.jpg,0,MF034.jpg,0,,,,,0,39,39,83,imgFunc,0,NA,1.9637198999989778,279.9613647999995,282.0313647799976,2024-03-11 19:03:18.711568,2024-03-11 19:03:20.772968,MF034.jpg,0,10926,30-49,2024-03-11_19h00.33.748,Recall,2021.2.3,60.07232708159631,
,DD033.jpg,0,FF033.jpg,0,,,,,0,40,40,32,imgFunc,1,NA,1.2399703999999474,282.02923460000056,283.3685201799999,2024-03-11 19:03:20.786933,2024-03-11 19:03:22.123601,FF033.jpg,0,10926,30-49,2024-03-11_19h00.33.748,Recall,2021.2.3,60.07232708159631,
,SD016.jpg,0,MF016.jpg,0,,,,,0,41,41,65,imgFunc,0,NA,2.5183407999993506,283.36687300000085,285.98762208000153,2024-03-11 19:03:22.130584,2024-03-11 19:03:24.742375,MF016.jpg,0,10926,30-49,2024-03-11_19h00.33.748,Recall,2021.2.3,60.07232708159631,
,SD017.jpg,0,MF017.jpg,0,,,,,0,42,42,66,imgFunc,9,NA,1.273648400001548,285.99555899999905,287.3816580799976,2024-03-11 19:03:24.749359,2024-03-11 19:03:26.126660,MF017.jpg,0,10926,30-49,2024-03-11_19h00.33.748,Recall,2021.2.3,60.07232708159631,
,SD001.jpg,0,MF001.jpg,0,,,,,0,43,43,50,imgFunc,0,NA,1.1056147999988752,287.3794548999995,288.59905337999953,2024-03-11 19:03:26.133643,2024-03-11 19:03:27.344248,MF001.jpg,0,10926,30-49,2024-03-11_19h00.33.748,Recall,2021.2.3,60.07232708159631,
,L_SD502.jpg,1,L_MF502.jpg,1,,,,,0,44,44,91,imgFunc,9,NA,1.5088716999998724,288.60035959999914,290.2200510799994,2024-03-11 19:03:27.351231,2024-03-11 19:03:28.962102,L_MF502.jpg,1,10926,30-49,2024-03-11_19h00.33.748,Recall,2021.2.3,60.07232708159631,
,SD026.jpg,0,MF026.jpg,0,,,,,0,45,45,75,imgFunc,0,NA,0.9229474000003393,290.20223179999994,291.2215626800007,2024-03-11 19:03:28.969086,2024-03-11 19:03:29.979600,MF026.jpg,0,10926,30-49,2024-03-11_19h00.33.748,Recall,2021.2.3,60.07232708159631,
,SD025.jpg,0,MF025.jpg,0,,,,,0,46,46,74,imgFunc,2,NA,1.8131611999997403,291.22401440000067,293.14400487999956,2024-03-11 19:03:29.986583,2024-03-11 19:03:31.897517,MF025.jpg,0,10926,30-49,2024-03-11_19h00.33.748,Recall,2021.2.3,60.07232708159631,
,DD011.jpg,0,FF011.jpg,0,,,,,0,47,47,10,imgFunc,1,NA,0.8376246999996511,293.14346300000034,294.07900668,2024-03-11 19:03:31.904523,2024-03-11 19:03:32.831468,FF011.jpg,0,10926,30-49,2024-03-11_19h00.33.748,Recall,2021.2.3,60.07232708159631,
,DD034.jpg,0,FF034.jpg,0,,,,,0,48,48,33,imgFunc,2,NA,1.021817300001203,294.0790287,295.19754898000065,2024-03-11 19:03:32.838474,2024-03-11 19:03:33.948155,FF034.jpg,0,10926,30-49,2024-03-11_19h00.33.748,Recall,2021.2.3,60.07232708159631,
,L_SD506.jpg,1,L_MF506.jpg,1,,,,,0,49,49,95,imgFunc,1,NA,0.770055400000274,295.2027292999992,296.07760167999913,2024-03-11 19:03:33.961119,2024-03-11 19:03:34.832394,L_MF506.jpg,1,10926,30-49,2024-03-11_19h00.33.748,Recall,2021.2.3,60.07232708159631,
,SD005.jpg,0,MF005.jpg,0,,,,,0,50,50,54,imgFunc,1,NA,1.3902039000004152,296.0869438999998,297.58928427999854,2024-03-11 19:03:34.840373,2024-03-11 19:03:36.334252,MF005.jpg,0,10926,30-49,2024-03-11_19h00.33.748,Recall,2021.2.3,60.07232708159631,
,DD024.jpg,0,FF024.jpg,0,,,,,0,51,51,23,imgFunc,2,NA,0.9605186999997386,297.5885438999994,298.6577331799981,2024-03-11 19:03:36.341235,2024-03-11 19:03:37.401645,FF024.jpg,0,10926,30-49,2024-03-11_19h00.33.748,Recall,2021.2.3,60.07232708159631,
,L_DD503.jpg,1,L_FF503.jpg,1,,,,,0,52,52,42,imgFunc,0,NA,1.9253981000001659,298.6553927999994,300.69149087999904,2024-03-11 19:03:37.408628,2024-03-11 19:03:39.435860,L_FF503.jpg,1,10926,30-49,2024-03-11_19h00.33.748,Recall,2021.2.3,60.07232708159631,
,SD033.jpg,0,MF033.jpg,0,,,,,0,53,53,82,imgFunc,9,NA,0.833058299998811,300.68373190000057,301.61922308000067,2024-03-11 19:03:39.443812,2024-03-11 19:03:40.370044,MF033.jpg,0,10926,30-49,2024-03-11_19h00.33.748,Recall,2021.2.3,60.07232708159631,
,DD028.jpg,0,FF028.jpg,0,,,,,0,54,54,27,imgFunc,0,NA,0.9042377000005217,301.62894100000085,302.63115667999955,2024-03-11 19:03:40.385972,2024-03-11 19:03:41.387690,FF028.jpg,0,10926,30-49,2024-03-11_19h00.33.748,Recall,2021.2.3,60.07232708159631,
,DD023.jpg,0,FF023.jpg,0,,,,,0,55,55,22,imgFunc,9,NA,0.9692393000004813,302.6279149999991,303.6968571799971,2024-03-11 19:03:41.394674,2024-03-11 19:03:42.455483,FF023.jpg,0,10926,30-49,2024-03-11_19h00.33.748,Recall,2021.2.3,60.07232708159631,
,SD008.jpg,0,MF008.jpg,0,,,,,0,56,56,57,imgFunc,1,NA,1.2826776999991125,303.69834040000023,305.08442018000096,2024-03-11 19:03:42.462466,2024-03-11 19:03:43.839784,MF008.jpg,0,10926,30-49,2024-03-11_19h00.33.748,Recall,2021.2.3,60.07232708159631,
,DD005.jpg,0,FF005.jpg,0,,,,,0,57,57,4,imgFunc,0,NA,1.3290648000001966,305.0838382999991,306.50345077999737,2024-03-11 19:03:43.846767,2024-03-11 19:03:45.257188,FF005.jpg,0,10926,30-49,2024-03-11_19h00.33.748,Recall,2021.2.3,60.07232708159631,
,SD036.jpg,0,MF036.jpg,0,,,,,0,58,58,85,imgFunc,1,NA,1.29263390000051,306.5124558999996,307.9147914799978,2024-03-11 19:03:45.265192,2024-03-11 19:03:46.658372,MF036.jpg,0,10926,30-49,2024-03-11_19h00.33.748,Recall,2021.2.3,60.07232708159631,
,SD037.jpg,0,MF037.jpg,0,,,,,0,59,59,86,imgFunc,2,NA,1.2055342000003293,307.9035248,309.20594377999987,2024-03-11 19:03:46.665300,2024-03-11 19:03:47.959244,MF037.jpg,0,10926,30-49,2024-03-11_19h00.33.748,Recall,2021.2.3,60.07232708159631,
,DD018.jpg,0,FF018.jpg,0,,,,,0,60,60,17,imgFunc,0,NA,1.9029180999987148,309.1981773000007,311.2015834800004,2024-03-11 19:03:47.966227,2024-03-11 19:03:49.960859,FF018.jpg,0,10926,30-49,2024-03-11_19h00.33.748,Recall,2021.2.3,60.07232708159631,
,L_SD503.jpg,1,L_MF503.jpg,1,,,,,0,61,61,92,imgFunc,2,NA,1.3004457000006369,311.2004961999992,312.6027617799991,2024-03-11 19:03:49.967843,2024-03-11 19:03:51.361896,L_MF503.jpg,1,10926,30-49,2024-03-11_19h00.33.748,Recall,2021.2.3,60.07232708159631,
,SD023.jpg,0,MF023.jpg,0,,,,,0,62,62,72,imgFunc,1,NA,1.108433999999761,312.60850179999943,313.8111298799995,2024-03-11 19:03:51.368880,2024-03-11 19:03:52.562930,MF023.jpg,0,10926,30-49,2024-03-11_19h00.33.748,Recall,2021.2.3,60.07232708159631,
,DD030.jpg,0,FF030.jpg,0,,,,,0,63,63,29,imgFunc,2,NA,1.2998355999989144,313.80895860000055,315.20148128000073,2024-03-11 19:03:52.574900,2024-03-11 19:03:53.963556,FF030.jpg,0,10926,30-49,2024-03-11_19h00.33.748,Recall,2021.2.3,60.07232708159631,
,L_SD510.jpg,1,L_MF510.jpg,1,,,,,0,64,64,99,imgFunc,9,NA,1.7667134999992413,315.2064040000005,317.07538728000145,2024-03-11 19:03:53.971534,2024-03-11 19:03:55.831748,L_MF510.jpg,1,10926,30-49,2024-03-11_19h00.33.748,Recall,2021.2.3,60.07232708159631,
,DD009.jpg,0,FF009.jpg,0,,,,,0,65,65,8,imgFunc,9,NA,2.089026500001637,317.06782159999966,319.25446137999825,2024-03-11 19:03:55.838731,2024-03-11 19:03:58.016045,FF009.jpg,0,10926,30-49,2024-03-11_19h00.33.748,Recall,2021.2.3,60.07232708159631,
,SD031.jpg,0,MF031.jpg,0,,,,,0,66,66,80,imgFunc,2,NA,2.0233712999997806,319.26173070000004,321.37790847999895,2024-03-11 19:03:58.025989,2024-03-11 19:04:00.134936,MF031.jpg,0,10926,30-49,2024-03-11_19h00.33.748,Recall,2021.2.3,60.07232708159631,
,SD029.jpg,0,MF029.jpg,0,,,,,0,67,67,78,imgFunc,2,NA,1.1308094000014535,321.37796139999955,322.6136724799999,2024-03-11 19:04:00.142754,2024-03-11 19:04:01.369375,MF029.jpg,0,10926,30-49,2024-03-11_19h00.33.748,Recall,2021.2.3,60.07232708159631,
,DD021.jpg,0,FF021.jpg,0,,,,,0,68,68,20,imgFunc,1,NA,0.8986673999988852,322.61851679999927,323.6073231800001,2024-03-11 19:04:01.383340,2024-03-11 19:04:02.370002,FF021.jpg,0,10926,30-49,2024-03-11_19h00.33.748,Recall,2021.2.3,60.07232708159631,
,SD032.jpg,0,MF032.jpg,0,,,,,0,69,69,81,imgFunc,2,NA,1.1805156999998871,323.60858220000046,324.8785187800004,2024-03-11 19:04:02.376985,2024-03-11 19:04:03.637887,MF032.jpg,0,10926,30-49,2024-03-11_19h00.33.748,Recall,2021.2.3,60.07232708159631,
,DD001.jpg,0,FF001.jpg,0,,,,,0,70,70,0,imgFunc,1,NA,1.4233045000000857,324.8778700999992,326.39744837999933,2024-03-11 19:04:03.644870,2024-03-11 19:04:05.155478,FF001.jpg,0,10926,30-49,2024-03-11_19h00.33.748,Recall,2021.2.3,60.07232708159631,
,DD006.jpg,0,FF006.jpg,0,,,,,0,71,71,5,imgFunc,2,NA,1.4922065999999177,326.3929269,327.9793636800023,2024-03-11 19:04:05.162461,2024-03-11 19:04:06.739911,FF006.jpg,0,10926,30-49,2024-03-11_19h00.33.748,Recall,2021.2.3,60.07232708159631,
,DD008.jpg,0,FF008.jpg,0,,,,,0,72,72,7,imgFunc,2,NA,1.2245906999996805,327.98851920000016,329.324657879999,2024-03-11 19:04:06.746894,2024-03-11 19:04:08.074243,FF008.jpg,0,10926,30-49,2024-03-11_19h00.33.748,Recall,2021.2.3,60.07232708159631,
,DD027.jpg,0,FF027.jpg,0,,,,,0,73,73,26,imgFunc,0,NA,1.379625199999282,329.3132380999996,330.78257437999855,2024-03-11 19:04:08.081226,2024-03-11 19:04:09.541892,FF027.jpg,0,10926,30-49,2024-03-11_19h00.33.748,Recall,2021.2.3,60.07232708159631,
,SD020.jpg,0,MF020.jpg,0,,,,,0,74,74,69,imgFunc,2,NA,1.4574106000000029,330.7793323999995,332.33196637999936,2024-03-11 19:04:09.548903,2024-03-11 19:04:11.092069,MF020.jpg,0,10926,30-49,2024-03-11_19h00.33.748,Recall,2021.2.3,60.07232708159631,
,SD013.jpg,0,MF013.jpg,0,,,,,0,75,75,62,imgFunc,2,NA,0.9675513999991381,332.3334639000004,333.40301768000063,2024-03-11 19:04:11.100047,2024-03-11 19:04:12.160696,MF013.jpg,0,10926,30-49,2024-03-11_19h00.33.748,Recall,2021.2.3,60.07232708159631,
,SD030.jpg,0,MF030.jpg,0,,,,,0,76,76,79,imgFunc,1,NA,1.6107647999997425,333.4024119000005,335.1056366800003,2024-03-11 19:04:12.167679,2024-03-11 19:04:13.861979,MF030.jpg,0,10926,30-49,2024-03-11_19h00.33.748,Recall,2021.2.3,60.07232708159631,
,SD015.jpg,0,MF015.jpg,0,,,,,0,77,77,64,imgFunc,2,NA,0.8554007999991882,335.1095196999995,336.0508693799984,2024-03-11 19:04:13.874946,2024-03-11 19:04:14.812885,MF015.jpg,0,10926,30-49,2024-03-11_19h00.33.748,Recall,2021.2.3,60.07232708159631,
,SD014.jpg,0,MF014.jpg,0,,,,,0,78,78,63,imgFunc,2,NA,2.186555300000691,336.0502832000002,338.3370028800018,2024-03-11 19:04:14.819868,2024-03-11 19:04:17.097614,MF014.jpg,0,10926,30-49,2024-03-11_19h00.33.748,Recall,2021.2.3,60.07232708159631,
,DD026.jpg,0,FF026.jpg,0,,,,,0,79,79,25,imgFunc,0,NA,2.8054228000000876,338.3355666999996,341.23912738000035,2024-03-11 19:04:17.104620,2024-03-11 19:04:19.999659,FF026.jpg,0,10926,30-49,2024-03-11_19h00.33.748,Recall,2021.2.3,60.07232708159631,
,L_DD507.jpg,1,L_FF507.jpg,1,,,,,0,80,80,46,imgFunc,9,NA,1.0022129000008135,341.24289829999907,342.34554387999924,2024-03-11 19:04:20.006642,2024-03-11 19:04:21.100515,L_FF507.jpg,1,10926,30-49,2024-03-11_19h00.33.748,Recall,2021.2.3,60.07232708159631,
,SD040.jpg,0,MF040.jpg,0,,,,,0,81,81,89,imgFunc,2,NA,1.2184735999999248,342.3462435000001,343.66542747999847,2024-03-11 19:04:21.107498,2024-03-11 19:04:22.417342,MF040.jpg,0,10926,30-49,2024-03-11_19h00.33.748,Recall,2021.2.3,60.07232708159631,
,SD018.jpg,0,MF018.jpg,0,,,,,0,82,82,67,imgFunc,9,NA,1.7569585000001098,343.67219569999907,345.5269279799977,2024-03-11 19:04:22.432276,2024-03-11 19:04:24.286215,MF018.jpg,0,10926,30-49,2024-03-11_19h00.33.748,Recall,2021.2.3,60.07232708159631,
,SD007.jpg,0,MF007.jpg,0,,,,,0,83,83,56,imgFunc,1,NA,2.3495024999992893,345.5273809999999,347.9811166800009,2024-03-11 19:04:24.293198,2024-03-11 19:04:26.737896,MF007.jpg,0,10926,30-49,2024-03-11_19h00.33.748,Recall,2021.2.3,60.07232708159631,
,L_DD509.jpg,1,L_FF509.jpg,1,,,,,0,84,84,48,imgFunc,2,NA,1.2754628999991837,347.9775453000002,349.34679318000053,2024-03-11 19:04:26.744879,2024-03-11 19:04:28.105483,L_FF509.jpg,1,10926,30-49,2024-03-11_19h00.33.748,Recall,2021.2.3,60.07232708159631,
,DD022.jpg,0,FF022.jpg,0,,,,,0,85,85,21,imgFunc,9,NA,2.0507379999999102,349.34634129999904,351.49995127999864,2024-03-11 19:04:28.112466,2024-03-11 19:04:30.257196,FF022.jpg,0,10926,30-49,2024-03-11_19h00.33.748,Recall,2021.2.3,60.07232708159631,
,SD009.jpg,0,MF009.jpg,0,,,,,0,86,86,58,imgFunc,1,NA,1.3122789999997622,351.50879279999936,352.9280911799997,2024-03-11 19:04:30.264179,2024-03-11 19:04:31.674885,MF009.jpg,0,10926,30-49,2024-03-11_19h00.33.748,Recall,2021.2.3,60.07232708159631,
,DD013.jpg,0,FF013.jpg,0,,,,,0,87,87,12,imgFunc,9,NA,2.044502000000648,352.91258449999987,355.04938237999886,2024-03-11 19:04:31.681868,2024-03-11 19:04:33.809783,FF013.jpg,0,10926,30-49,2024-03-11_19h00.33.748,Recall,2021.2.3,60.07232708159631,
,L_DD506.jpg,1,L_FF506.jpg,1,,,,,0,88,88,45,imgFunc,2,NA,1.5554874999997992,355.0496688000003,356.70186527999977,2024-03-11 19:04:33.816766,2024-03-11 19:04:35.460766,L_FF506.jpg,1,10926,30-49,2024-03-11_19h00.33.748,Recall,2021.2.3,60.07232708159631,
,DD017.jpg,0,FF017.jpg,0,,,,,0,89,89,16,imgFunc,2,NA,1.4904260000002978,356.69872209999994,358.28531637999913,2024-03-11 19:04:35.467750,2024-03-11 19:04:37.045493,FF017.jpg,0,10926,30-49,2024-03-11_19h00.33.748,Recall,2021.2.3,60.07232708159631,
,DD032.jpg,0,FF032.jpg,0,,,,,0,90,90,31,imgFunc,1,NA,1.6309732000008808,358.2858892999993,360.0056349799979,2024-03-11 19:04:37.052477,2024-03-11 19:04:38.763542,FF032.jpg,0,10926,30-49,2024-03-11_19h00.33.748,Recall,2021.2.3,60.07232708159631,
,DD036.jpg,0,FF036.jpg,0,,,,,0,91,91,35,imgFunc,9,NA,2.0612885000009555,360.01541799999904,362.17275508000057,2024-03-11 19:04:38.776509,2024-03-11 19:04:40.930919,FF036.jpg,0,10926,30-49,2024-03-11_19h00.33.748,Recall,2021.2.3,60.07232708159631,
,L_DD502.jpg,1,L_FF502.jpg,1,,,,,0,92,92,41,imgFunc,2,NA,1.4048120999996172,362.16822949999914,363.6713988799984,2024-03-11 19:04:40.938897,2024-03-11 19:04:42.432819,L_FF502.jpg,1,10926,30-49,2024-03-11_19h00.33.748,Recall,2021.2.3,60.07232708159631,
,SD002.jpg,0,MF002.jpg,0,,,,,0,93,93,51,imgFunc,0,NA,1.4992247999998654,363.6737740999997,365.2769723799993,2024-03-11 19:04:42.439803,2024-03-11 19:04:44.034046,MF002.jpg,0,10926,30-49,2024-03-11_19h00.33.748,Recall,2021.2.3,60.07232708159631,
,L_DD501.jpg,1,L_FF501.jpg,1,,,,,0,94,94,40,imgFunc,0,NA,1.6294699999998556,365.27141819999997,366.99164808000023,2024-03-11 19:04:44.041029,2024-03-11 19:04:45.752197,L_FF501.jpg,1,10926,30-49,2024-03-11_19h00.33.748,Recall,2021.2.3,60.07232708159631,
,SD039.jpg,0,MF039.jpg,0,,,,,0,95,95,88,imgFunc,1,NA,1.767477700001109,366.99760590000005,368.8675893799991,2024-03-11 19:04:45.759180,2024-03-11 19:04:47.620059,MF039.jpg,0,10926,30-49,2024-03-11_19h00.33.748,Recall,2021.2.3,60.07232708159631,
,L_SD504.jpg,1,L_MF504.jpg,1,,,,,0,96,96,93,imgFunc,1,NA,1.029944500000056,368.8790552999999,370.01799197999935,2024-03-11 19:04:47.634023,2024-03-11 19:04:48.770888,L_MF504.jpg,1,10926,30-49,2024-03-11_19h00.33.748,Recall,2021.2.3,60.07232708159631,
,SD004.jpg,0,MF004.jpg,0,,,,,0,97,97,53,imgFunc,9,NA,1.9178928000001179,370.0151831000003,372.03532318,2024-03-11 19:04:48.777871,2024-03-11 19:04:50.788862,MF004.jpg,0,10926,30-49,2024-03-11_19h00.33.748,Recall,2021.2.3,60.07232708159631,
,DD029.jpg,0,FF029.jpg,0,,,,,0,98,98,28,imgFunc,0,NA,1.3818222000008973,372.0310952,373.51710857999933,2024-03-11 19:04:50.795867,2024-03-11 19:04:52.273342,FF029.jpg,0,10926,30-49,2024-03-11_19h00.33.748,Recall,2021.2.3,60.07232708159631,
,DD016.jpg,0,FF016.jpg,0,,,,,0,99,99,15,imgFunc,0,NA,3.5855111999990186,373.51547179999943,377.2034634800002,2024-03-11 19:04:52.280327,2024-03-11 19:04:55.959395,FF016.jpg,0,10926,30-49,2024-03-11_19h00.33.748,Recall,2021.2.3,60.07232708159631,
,,,,,,,,,,,,,instrFunc,space,"Great work! 

 Now you will switch to the other image type.

 Press the spacebar whenever you are ready to start.",2.1512032999999064,377.1338993999998,379.3323609800009,2024-03-11 19:04:55.960397,2024-03-11 19:04:58.143100,,,10926,30-49,2024-03-11_19h00.33.748,Recall,2021.2.3,60.07232708159631,
,DD028.jpg,0,FF028.jpg,0,,,,,0,0,0,27,imgFunc,2,NA,2.8688612999994803,379.40009239999927,382.36240175999774,2024-03-11 19:04:58.172025,2024-03-11 19:05:01.129820,DD028.jpg,0,10926,30-49,2024-03-11_19h00.33.748,Recall,2021.2.3,60.07232708159631,
,DD011.jpg,0,FF011.jpg,0,,,,,0,1,1,10,imgFunc,1,NA,1.2244872000010218,382.36455600000045,383.6836360800007,2024-03-11 19:05:01.136825,2024-03-11 19:05:02.447421,DD011.jpg,0,10926,30-49,2024-03-11_19h00.33.748,Recall,2021.2.3,60.07232708159631,
,SD025.jpg,0,MF025.jpg,0,,,,,0,2,2,74,imgFunc,1,NA,1.389234199999919,383.67976719999933,385.1663067799982,2024-03-11 19:05:02.454404,2024-03-11 19:05:03.931975,SD025.jpg,0,10926,30-49,2024-03-11_19h00.33.748,Recall,2021.2.3,60.07232708159631,
,DD009.jpg,0,FF009.jpg,0,,,,,0,3,3,8,imgFunc,0,NA,2.597895700000663,385.1670484999995,387.8450378799989,2024-03-11 19:05:03.943945,2024-03-11 19:05:06.617179,DD009.jpg,0,10926,30-49,2024-03-11_19h00.33.748,Recall,2021.2.3,60.07232708159631,
,SD013.jpg,0,MF013.jpg,0,,,,,0,4,4,62,imgFunc,0,NA,1.9600992999985465,387.85290349999923,389.9064316799995,2024-03-11 19:05:06.624187,2024-03-11 19:05:08.668892,SD013.jpg,0,10926,30-49,2024-03-11_19h00.33.748,Recall,2021.2.3,60.07232708159631,
,L_DD503.jpg,1,L_FF503.jpg,1,,,,,0,5,5,42,imgFunc,1,NA,1.4607238999997207,389.9039250000005,391.456415380002,2024-03-11 19:05:08.675875,2024-03-11 19:05:10.219673,L_DD503.jpg,1,10926,30-49,2024-03-11_19h00.33.748,Recall,2021.2.3,60.07232708159631,
,SD012.jpg,0,MF012.jpg,0,,,,,0,6,6,61,imgFunc,2,NA,2.052754599999389,391.45614340000066,393.60974718000034,2024-03-11 19:05:10.226654,2024-03-11 19:05:12.371597,SD012.jpg,0,10926,30-49,2024-03-11_19h00.33.748,Recall,2021.2.3,60.07232708159631,
,SD035.jpg,0,MF035.jpg,0,,,,,0,7,7,84,imgFunc,9,NA,1.8325624999997672,393.6124395000006,395.54898598,2024-03-11 19:05:12.378580,2024-03-11 19:05:14.306288,SD035.jpg,0,10926,30-49,2024-03-11_19h00.33.748,Recall,2021.2.3,60.07232708159631,
,DD017.jpg,0,FF017.jpg,0,,,,,0,8,8,16,imgFunc,0,NA,1.875338499999998,395.53749570000036,397.5076636800004,2024-03-11 19:05:14.313271,2024-03-11 19:05:16.274210,DD017.jpg,0,10926,30-49,2024-03-11_19h00.33.748,Recall,2021.2.3,60.07232708159631,
,DD026.jpg,0,FF026.jpg,0,,,,,0,9,9,25,imgFunc,0,NA,1.2123777999986487,397.50467820000085,398.8073165800015,2024-03-11 19:05:16.281216,2024-03-11 19:05:17.575222,DD026.jpg,0,10926,30-49,2024-03-11_19h00.33.748,Recall,2021.2.3,60.07232708159631,
,L_DD509.jpg,1,L_FF509.jpg,1,,,,,0,10,10,48,imgFunc,2,NA,1.3905300999995234,398.80614930000047,400.29255097999885,2024-03-11 19:05:17.582228,2024-03-11 19:05:19.059912,L_DD509.jpg,1,10926,30-49,2024-03-11_19h00.33.748,Recall,2021.2.3,60.07232708159631,
,SD039.jpg,0,MF039.jpg,0,,,,,0,11,11,88,imgFunc,1,NA,1.0282984000004944,400.2967298000003,401.4161272799993,2024-03-11 19:05:19.066895,2024-03-11 19:05:20.177135,SD039.jpg,0,10926,30-49,2024-03-11_19h00.33.748,Recall,2021.2.3,60.07232708159631,
,DD001.jpg,0,FF001.jpg,0,,,,,0,12,12,0,imgFunc,2,NA,1.0136043000002246,401.4156650999994,402.5100511799992,2024-03-11 19:05:20.188108,2024-03-11 19:05:21.278315,DD001.jpg,0,10926,30-49,2024-03-11_19h00.33.748,Recall,2021.2.3,60.07232708159631,
,L_SD502.jpg,1,L_MF502.jpg,1,,,,,0,13,13,91,imgFunc,2,NA,1.5041818000008789,402.50871860000007,404.0952525800003,2024-03-11 19:05:21.285298,2024-03-11 19:05:22.862631,L_SD502.jpg,1,10926,30-49,2024-03-11_19h00.33.748,Recall,2021.2.3,60.07232708159631,
,DD012.jpg,0,FF012.jpg,0,,,,,0,14,14,11,imgFunc,9,NA,1.3511943000012252,404.09370300000046,405.53031207999993,2024-03-11 19:05:22.869614,2024-03-11 19:05:24.297094,DD012.jpg,0,10926,30-49,2024-03-11_19h00.33.748,Recall,2021.2.3,60.07232708159631,
,L_SD503.jpg,1,L_MF503.jpg,1,,,,,0,15,15,92,imgFunc,0,NA,0.8275054999994609,405.52950579999924,406.44901517999824,2024-03-11 19:05:24.304078,2024-03-11 19:05:25.214441,L_SD503.jpg,1,10926,30-49,2024-03-11_19h00.33.748,Recall,2021.2.3,60.07232708159631,
,DD003.jpg,0,FF003.jpg,0,,,,,0,16,16,2,imgFunc,1,NA,1.0116503000008379,406.44941219999964,407.55228067999997,2024-03-11 19:05:25.221424,2024-03-11 19:05:26.315166,DD003.jpg,0,10926,30-49,2024-03-11_19h00.33.748,Recall,2021.2.3,60.07232708159631,
,L_SD501.jpg,1,L_MF501.jpg,1,,,,,0,17,17,90,imgFunc,0,NA,1.3375837999992655,407.5554811000002,408.97840777999954,2024-03-11 19:05:26.329153,2024-03-11 19:05:27.749445,L_SD501.jpg,1,10926,30-49,2024-03-11_19h00.33.748,Recall,2021.2.3,60.07232708159631,
,DD006.jpg,0,FF006.jpg,0,,,,,0,18,18,5,imgFunc,1,NA,2.1989567000000534,408.98211079999965,411.26906337999935,2024-03-11 19:05:27.756428,2024-03-11 19:05:30.034358,DD006.jpg,0,10926,30-49,2024-03-11_19h00.33.748,Recall,2021.2.3,60.07232708159631,
,SD004.jpg,0,MF004.jpg,0,,,,,0,19,19,53,imgFunc,0,NA,1.9489235999990342,411.2640797999993,413.30121847999726,2024-03-11 19:05:30.041341,2024-03-11 19:05:32.069287,SD004.jpg,0,10926,30-49,2024-03-11_19h00.33.748,Recall,2021.2.3,60.07232708159631,
,SD010.jpg,0,MF010.jpg,0,,,,,0,20,20,59,imgFunc,2,NA,0.9436776000002283,413.3013690000007,414.3371955800012,2024-03-11 19:05:32.076270,2024-03-11 19:05:33.103498,SD010.jpg,0,10926,30-49,2024-03-11_19h00.33.748,Recall,2021.2.3,60.07232708159631,
,SD018.jpg,0,MF018.jpg,0,,,,,0,21,21,67,imgFunc,1,NA,1.201865800001542,414.3389258999996,415.6418081799984,2024-03-11 19:05:33.110481,2024-03-11 19:05:34.404381,SD018.jpg,0,10926,30-49,2024-03-11_19h00.33.748,Recall,2021.2.3,60.07232708159631,
,SD019.jpg,0,MF019.jpg,0,,,,,0,22,22,68,imgFunc,0,NA,1.2457854999993287,415.6470224000004,416.985850680001,2024-03-11 19:05:34.418346,2024-03-11 19:05:35.755405,SD019.jpg,0,10926,30-49,2024-03-11_19h00.33.748,Recall,2021.2.3,60.07232708159631,
,L_DD507.jpg,1,L_FF507.jpg,1,,,,,0,23,23,46,imgFunc,2,NA,1.7536173000007693,416.98730799999976,418.8242945799975,2024-03-11 19:05:35.762388,2024-03-11 19:05:37.590306,L_DD507.jpg,1,10926,30-49,2024-03-11_19h00.33.748,Recall,2021.2.3,60.07232708159631,
,DD002.jpg,0,FF002.jpg,0,,,,,0,24,24,1,imgFunc,1,NA,1.5695451999999932,418.82706099999996,420.49638717999915,2024-03-11 19:05:37.597289,2024-03-11 19:05:39.257301,DD002.jpg,0,10926,30-49,2024-03-11_19h00.33.748,Recall,2021.2.3,60.07232708159631,
,SD038.jpg,0,MF038.jpg,0,,,,,0,25,25,87,imgFunc,2,NA,1.5653254999997444,420.49539840000034,422.1483697799995,2024-03-11 19:05:39.265252,2024-03-11 19:05:40.909268,SD038.jpg,0,10926,30-49,2024-03-11_19h00.33.748,Recall,2021.2.3,60.07232708159631,
,DD040.jpg,0,FF040.jpg,0,,,,,0,26,26,39,imgFunc,1,NA,1.1421245999990788,422.1428133999998,423.3777986799996,2024-03-11 19:05:40.916231,2024-03-11 19:05:42.143290,DD040.jpg,0,10926,30-49,2024-03-11_19h00.33.748,Recall,2021.2.3,60.07232708159631,
,SD007.jpg,0,MF007.jpg,0,,,,,0,27,27,56,imgFunc,9,NA,1.2092164999994566,423.3716335000008,424.6742403800017,2024-03-11 19:05:42.150296,2024-03-11 19:05:43.444316,SD007.jpg,0,10926,30-49,2024-03-11_19h00.33.748,Recall,2021.2.3,60.07232708159631,
,SD016.jpg,0,MF016.jpg,0,,,,,0,28,28,65,imgFunc,0,NA,1.1317921999998362,424.6732291999997,425.89263528000083,2024-03-11 19:05:43.451299,2024-03-11 19:05:44.661759,SD016.jpg,0,10926,30-49,2024-03-11_19h00.33.748,Recall,2021.2.3,60.07232708159631,
,DD010.jpg,0,FF010.jpg,0,,,,,0,29,29,9,imgFunc,2,NA,0.8617396999998164,425.8958237000006,426.8485476800015,2024-03-11 19:05:44.668742,2024-03-11 19:05:45.612542,DD010.jpg,0,10926,30-49,2024-03-11_19h00.33.748,Recall,2021.2.3,60.07232708159631,
,L_SD509.jpg,1,L_MF509.jpg,1,,,,,0,30,30,98,imgFunc,2,NA,1.4070023000003857,426.8460095999999,428.3493452799976,2024-03-11 19:05:45.619525,2024-03-11 19:05:47.113730,L_SD509.jpg,1,10926,30-49,2024-03-11_19h00.33.748,Recall,2021.2.3,60.07232708159631,
,L_DD502.jpg,1,L_FF502.jpg,1,,,,,0,31,31,41,imgFunc,1,NA,1.5160915000014938,428.3527109000006,429.9616702800013,2024-03-11 19:05:47.125700,2024-03-11 19:05:48.731602,L_DD502.jpg,1,10926,30-49,2024-03-11_19h00.33.748,Recall,2021.2.3,60.07232708159631,
,DD024.jpg,0,FF024.jpg,0,,,,,0,32,32,23,imgFunc,2,NA,0.7995018000001437,429.9652537999991,430.85146348000126,2024-03-11 19:05:48.738586,2024-03-11 19:05:49.615651,DD024.jpg,0,10926,30-49,2024-03-11_19h00.33.748,Recall,2021.2.3,60.07232708159631,
,SD005.jpg,0,MF005.jpg,0,,,,,0,33,33,54,imgFunc,1,NA,1.0459981000003609,430.8469318999996,431.9827216799986,2024-03-11 19:05:49.622636,2024-03-11 19:05:50.749726,SD005.jpg,0,10926,30-49,2024-03-11_19h00.33.748,Recall,2021.2.3,60.07232708159631,
,L_DD508.jpg,1,L_FF508.jpg,1,,,,,0,34,34,47,imgFunc,2,NA,1.10683760000029,431.9860401999995,433.18910807999964,2024-03-11 19:05:50.756709,2024-03-11 19:05:51.950604,L_DD508.jpg,1,10926,30-49,2024-03-11_19h00.33.748,Recall,2021.2.3,60.07232708159631,
,SD023.jpg,0,MF023.jpg,0,,,,,0,35,35,72,imgFunc,0,NA,0.9466995000002498,433.1861095999993,434.22225378000076,2024-03-11 19:05:51.957588,2024-03-11 19:05:52.984744,SD023.jpg,0,10926,30-49,2024-03-11_19h00.33.748,Recall,2021.2.3,60.07232708159631,
,DD032.jpg,0,FF032.jpg,0,,,,,0,36,36,31,imgFunc,1,NA,1.0287687000000005,434.2240925999995,435.3265698799987,2024-03-11 19:05:53.000433,2024-03-11 19:05:54.102566,DD032.jpg,0,10926,30-49,2024-03-11_19h00.33.748,Recall,2021.2.3,60.07232708159631,
,SD040.jpg,0,MF040.jpg,0,,,,,0,37,37,89,imgFunc,0,NA,1.83925569999883,435.3334582000007,437.26938318000066,2024-03-11 19:05:54.109549,2024-03-11 19:05:56.036871,SD040.jpg,0,10926,30-49,2024-03-11_19h00.33.748,Recall,2021.2.3,60.07232708159631,
,DD022.jpg,0,FF022.jpg,0,,,,,0,38,38,21,imgFunc,9,NA,1.39962530000048,437.2690946999992,438.7551459799997,2024-03-11 19:05:56.043877,2024-03-11 19:05:57.521551,DD022.jpg,0,10926,30-49,2024-03-11_19h00.33.748,Recall,2021.2.3,60.07232708159631,
,L_SD510.jpg,1,L_MF510.jpg,1,,,,,0,39,39,99,imgFunc,9,NA,1.321946599999137,438.7549890999999,440.1746024799995,2024-03-11 19:05:57.528534,2024-03-11 19:05:58.939141,L_SD510.jpg,1,10926,30-49,2024-03-11_19h00.33.748,Recall,2021.2.3,60.07232708159631,
,SD006.jpg,0,MF006.jpg,0,,,,,0,40,40,55,imgFunc,2,NA,0.9638519000000088,440.1691171000002,441.2217618800005,2024-03-11 19:05:58.946124,2024-03-11 19:05:59.989816,SD006.jpg,0,10926,30-49,2024-03-11_19h00.33.748,Recall,2021.2.3,60.07232708159631,
,DD007.jpg,0,FF007.jpg,0,,,,,0,41,41,6,imgFunc,1,NA,1.1554805999985547,441.23332160000064,442.4712361799993,2024-03-11 19:06:00.004779,2024-03-11 19:06:01.241040,DD007.jpg,0,10926,30-49,2024-03-11_19h00.33.748,Recall,2021.2.3,60.07232708159631,
,SD026.jpg,0,MF026.jpg,0,,,,,0,42,42,75,imgFunc,1,NA,1.391685200000211,442.4690673999994,443.95567667999967,2024-03-11 19:06:01.248023,2024-03-11 19:06:02.725348,SD026.jpg,0,10926,30-49,2024-03-11_19h00.33.748,Recall,2021.2.3,60.07232708159631,
,SD033.jpg,0,MF033.jpg,0,,,,,0,43,43,82,imgFunc,1,NA,1.2084140999995725,443.95625029999974,445.25927687999865,2024-03-11 19:06:02.732331,2024-03-11 19:06:04.026150,SD033.jpg,0,10926,30-49,2024-03-11_19h00.33.748,Recall,2021.2.3,60.07232708159631,
,SD028.jpg,0,MF028.jpg,0,,,,,0,44,44,77,imgFunc,9,NA,1.638922599999205,445.26209030000064,446.99871758000154,2024-03-11 19:06:04.033133,2024-03-11 19:06:05.760805,SD028.jpg,0,10926,30-49,2024-03-11_19h00.33.748,Recall,2021.2.3,60.07232708159631,
,DD035.jpg,0,FF035.jpg,0,,,,,0,45,45,34,imgFunc,2,NA,1.7483836999999767,447.00047769999946,448.8539157799987,2024-03-11 19:06:05.767789,2024-03-11 19:06:07.612127,DD035.jpg,0,10926,30-49,2024-03-11_19h00.33.748,Recall,2021.2.3,60.07232708159631,
,SD020.jpg,0,MF020.jpg,0,,,,,0,46,46,69,imgFunc,1,NA,1.6850301000013133,448.8475354000002,450.6339126799976,2024-03-11 19:06:07.619110,2024-03-11 19:06:09.396087,SD020.jpg,0,10926,30-49,2024-03-11_19h00.33.748,Recall,2021.2.3,60.07232708159631,
,DD023.jpg,0,FF023.jpg,0,,,,,0,47,47,22,imgFunc,2,NA,1.3634519999995973,450.6251267000007,452.07797588000176,2024-03-11 19:06:09.404067,2024-03-11 19:06:10.847048,DD023.jpg,0,10926,30-49,2024-03-11_19h00.33.748,Recall,2021.2.3,60.07232708159631,
,DD037.jpg,0,FF037.jpg,0,,,,,0,48,48,36,imgFunc,0,NA,1.3174170999991475,452.0875481999992,453.5055984799983,2024-03-11 19:06:10.855026,2024-03-11 19:06:12.265562,DD037.jpg,0,10926,30-49,2024-03-11_19h00.33.748,Recall,2021.2.3,60.07232708159631,
,SD001.jpg,0,MF001.jpg,0,,,,,0,49,49,50,imgFunc,9,NA,3.0489764000012656,453.4997715999998,456.63717478000035,2024-03-11 19:06:12.272545,2024-03-11 19:06:15.401273,SD001.jpg,0,10926,30-49,2024-03-11_19h00.33.748,Recall,2021.2.3,60.07232708159631,
,L_SD508.jpg,1,L_MF508.jpg,1,,,,,0,50,50,97,imgFunc,0,NA,1.1812694000000192,456.63951330000054,457.91573188000075,2024-03-11 19:06:15.412877,2024-03-11 19:06:16.685563,L_SD508.jpg,1,10926,30-49,2024-03-11_19h00.33.748,Recall,2021.2.3,60.07232708159631,
,DD018.jpg,0,FF018.jpg,0,,,,,0,51,51,17,imgFunc,2,NA,1.2590101999994658,457.9138101000008,459.2669938800009,2024-03-11 19:06:16.692546,2024-03-11 19:06:18.036374,DD018.jpg,0,10926,30-49,2024-03-11_19h00.33.748,Recall,2021.2.3,60.07232708159631,
,DD027.jpg,0,FF027.jpg,0,,,,,0,52,52,26,imgFunc,1,NA,1.4035807000000204,459.26555240000016,460.7519894800007,2024-03-11 19:06:18.043380,2024-03-11 19:06:19.521079,DD027.jpg,0,10926,30-49,2024-03-11_19h00.33.748,Recall,2021.2.3,60.07232708159631,
,L_DD506.jpg,1,L_FF506.jpg,1,,,,,0,53,53,45,imgFunc,2,NA,1.067739199999778,460.7531574000004,461.90554888000224,2024-03-11 19:06:19.528086,2024-03-11 19:06:20.671694,L_DD506.jpg,1,10926,30-49,2024-03-11_19h00.33.748,Recall,2021.2.3,60.07232708159631,
,SD015.jpg,0,MF015.jpg,0,,,,,0,54,54,64,imgFunc,1,NA,1.1331861000016943,461.90373759999966,463.12354677999974,2024-03-11 19:06:20.678677,2024-03-11 19:06:21.889544,SD015.jpg,0,10926,30-49,2024-03-11_19h00.33.748,Recall,2021.2.3,60.07232708159631,
,DD034.jpg,0,FF034.jpg,0,,,,,0,55,55,33,imgFunc,1,NA,1.3625061999991885,463.1300582999993,464.5871053799983,2024-03-11 19:06:21.902511,2024-03-11 19:06:23.356936,DD034.jpg,0,10926,30-49,2024-03-11_19h00.33.748,Recall,2021.2.3,60.07232708159631,
,DD025.jpg,0,FF025.jpg,0,,,,,0,56,56,24,imgFunc,2,NA,1.1725069000003714,464.58430319999934,465.8376523799998,2024-03-11 19:06:23.363920,2024-03-11 19:06:24.608136,DD025.jpg,0,10926,30-49,2024-03-11_19h00.33.748,Recall,2021.2.3,60.07232708159631,
,DD005.jpg,0,FF005.jpg,0,,,,,0,57,57,4,imgFunc,1,NA,1.3395557000003464,465.84142620000057,467.2777401800013,2024-03-11 19:06:24.615119,2024-03-11 19:06:26.042336,DD005.jpg,0,10926,30-49,2024-03-11_19h00.33.748,Recall,2021.2.3,60.07232708159631,
,L_DD505.jpg,1,L_FF505.jpg,1,,,,,0,58,58,44,imgFunc,0,NA,1.8299344000006386,467.2706753000002,469.1904698800008,2024-03-11 19:06:26.049319,2024-03-11 19:06:27.960163,L_DD505.jpg,1,10926,30-49,2024-03-11_19h00.33.748,Recall,2021.2.3,60.07232708159631,
,SD034.jpg,0,MF034.jpg,0,,,,,0,59,59,83,imgFunc,9,NA,1.0973438000000897,469.19548419999956,470.3785476799985,2024-03-11 19:06:27.969138,2024-03-11 19:06:29.144748,SD034.jpg,0,10926,30-49,2024-03-11_19h00.33.748,Recall,2021.2.3,60.07232708159631,
,L_SD505.jpg,1,L_MF505.jpg,1,,,,,0,60,60,94,imgFunc,2,NA,1.1385527000002185,470.3863330000004,471.6092186799997,2024-03-11 19:06:29.158364,2024-03-11 19:06:30.379046,L_SD505.jpg,1,10926,30-49,2024-03-11_19h00.33.748,Recall,2021.2.3,60.07232708159631,
,SD022.jpg,0,MF022.jpg,0,,,,,0,61,61,71,imgFunc,0,NA,2.2508509999988746,471.60986930000035,473.9471695800021,2024-03-11 19:06:30.386029,2024-03-11 19:06:32.714170,SD022.jpg,0,10926,30-49,2024-03-11_19h00.33.748,Recall,2021.2.3,60.07232708159631,
,L_DD501.jpg,1,L_FF501.jpg,1,,,,,0,62,62,40,imgFunc,1,NA,1.274353599999813,473.9464726999995,475.31610547999844,2024-03-11 19:06:32.721153,2024-03-11 19:06:34.081641,L_DD501.jpg,1,10926,30-49,2024-03-11_19h00.33.748,Recall,2021.2.3,60.07232708159631,
,DD020.jpg,0,FF020.jpg,0,,,,,0,63,63,19,imgFunc,9,NA,1.747968800000308,475.32090529999914,477.17435427999953,2024-03-11 19:06:34.088624,2024-03-11 19:06:35.932862,DD020.jpg,0,10926,30-49,2024-03-11_19h00.33.748,Recall,2021.2.3,60.07232708159631,
,DD008.jpg,0,FF008.jpg,0,,,,,0,64,64,7,imgFunc,2,NA,1.2221988000001147,477.1667553999996,478.4859482799984,2024-03-11 19:06:35.939868,2024-03-11 19:06:37.250468,DD008.jpg,0,10926,30-49,2024-03-11_19h00.33.748,Recall,2021.2.3,60.07232708159631,
,SD037.jpg,0,MF037.jpg,0,,,,,0,65,65,86,imgFunc,1,NA,1.26856719999887,478.4802211999995,479.8336660799996,2024-03-11 19:06:37.257452,2024-03-11 19:06:38.601809,SD037.jpg,0,10926,30-49,2024-03-11_19h00.33.748,Recall,2021.2.3,60.07232708159631,
,DD016.jpg,0,FF016.jpg,0,,,,,0,66,66,15,imgFunc,2,NA,1.0393702000001213,479.83718319999934,480.97277097999904,2024-03-11 19:06:38.608816,2024-03-11 19:06:39.735349,DD016.jpg,0,10926,30-49,2024-03-11_19h00.33.748,Recall,2021.2.3,60.07232708159631,
,DD014.jpg,0,FF014.jpg,0,,,,,0,67,67,13,imgFunc,9,NA,0.856013399999938,480.9725225000002,481.92462978000003,2024-03-11 19:06:39.742329,2024-03-11 19:06:40.685409,DD014.jpg,0,10926,30-49,2024-03-11_19h00.33.748,Recall,2021.2.3,60.07232708159631,
,DD021.jpg,0,FF021.jpg,0,,,,,0,68,68,20,imgFunc,9,NA,1.1037145000009332,481.91713229999914,483.10349977999795,2024-03-11 19:06:40.693386,2024-03-11 19:06:41.870772,DD021.jpg,0,10926,30-49,2024-03-11_19h00.33.748,Recall,2021.2.3,60.07232708159631,
,DD004.jpg,0,FF004.jpg,0,,,,,0,69,69,3,imgFunc,1,NA,0.9365674999990006,483.10840889999963,484.13327258000027,2024-03-11 19:06:41.883740,2024-03-11 19:06:42.904736,DD004.jpg,0,10926,30-49,2024-03-11_19h00.33.748,Recall,2021.2.3,60.07232708159631,
,DD039.jpg,0,FF039.jpg,0,,,,,0,70,70,38,imgFunc,2,NA,1.8209391000000323,484.1357298999992,486.0391202799983,2024-03-11 19:06:42.911719,2024-03-11 19:06:44.805765,DD039.jpg,0,10926,30-49,2024-03-11_19h00.33.748,Recall,2021.2.3,60.07232708159631,
,SD036.jpg,0,MF036.jpg,0,,,,,0,71,71,85,imgFunc,0,NA,1.1519011000000319,486.03679530000045,487.27290128000095,2024-03-11 19:06:44.812771,2024-03-11 19:06:46.040489,SD036.jpg,0,10926,30-49,2024-03-11_19h00.33.748,Recall,2021.2.3,60.07232708159631,
,SD027.jpg,0,MF027.jpg,0,,,,,0,72,72,76,imgFunc,9,NA,1.8795251999999891,487.2693431000007,489.23965238000164,2024-03-11 19:06:46.047473,2024-03-11 19:06:48.008606,SD027.jpg,0,10926,30-49,2024-03-11_19h00.33.748,Recall,2021.2.3,60.07232708159631,
,DD013.jpg,0,FF013.jpg,0,,,,,0,73,73,12,imgFunc,9,NA,1.4986745000005612,489.24216759999945,490.8287728799987,2024-03-11 19:06:48.015589,2024-03-11 19:06:49.593185,DD013.jpg,0,10926,30-49,2024-03-11_19h00.33.748,Recall,2021.2.3,60.07232708159631,
,SD011.jpg,0,MF011.jpg,0,,,,,0,74,74,60,imgFunc,0,NA,0.7336171999995713,490.83123259999957,491.6527159799989,2024-03-11 19:06:49.607149,2024-03-11 19:06:50.427039,SD011.jpg,0,10926,30-49,2024-03-11_19h00.33.748,Recall,2021.2.3,60.07232708159631,
,L_SD506.jpg,1,L_MF506.jpg,1,,,,,0,75,75,95,imgFunc,2,NA,1.5861697000000277,491.6585871999996,493.32825248000154,2024-03-11 19:06:50.434046,2024-03-11 19:06:52.095064,L_SD506.jpg,1,10926,30-49,2024-03-11_19h00.33.748,Recall,2021.2.3,60.07232708159631,
,SD009.jpg,0,MF009.jpg,0,,,,,0,76,76,58,imgFunc,1,NA,1.0972789000006742,493.33148359999905,494.5171305799977,2024-03-11 19:06:52.102047,2024-03-11 19:06:53.279150,SD009.jpg,0,10926,30-49,2024-03-11_19h00.33.748,Recall,2021.2.3,60.07232708159631,
,SD029.jpg,0,MF029.jpg,0,,,,,0,77,77,78,imgFunc,9,NA,1.471194200001264,494.51759649999985,496.0861247800003,2024-03-11 19:06:53.287131,2024-03-11 19:06:54.846959,SD029.jpg,0,10926,30-49,2024-03-11_19h00.33.748,Recall,2021.2.3,60.07232708159631,
,SD021.jpg,0,MF021.jpg,0,,,,,0,78,78,70,imgFunc,0,NA,1.3062003999984881,496.09046149999995,497.4935548800004,2024-03-11 19:06:54.853942,2024-03-11 19:06:56.247976,SD021.jpg,0,10926,30-49,2024-03-11_19h00.33.748,Recall,2021.2.3,60.07232708159631,
,DD030.jpg,0,FF030.jpg,0,,,,,0,79,79,29,imgFunc,9,NA,1.2049299999998766,497.4880028000007,498.77554128000156,2024-03-11 19:06:56.262938,2024-03-11 19:06:57.548882,DD030.jpg,0,10926,30-49,2024-03-11_19h00.33.748,Recall,2021.2.3,60.07232708159631,
,L_SD507.jpg,1,L_MF507.jpg,1,,,,,0,80,80,96,imgFunc,2,NA,1.295923399999083,498.7807537000008,500.16702328000065,2024-03-11 19:06:57.555865,2024-03-11 19:06:58.933270,L_SD507.jpg,1,10926,30-49,2024-03-11_19h00.33.748,Recall,2021.2.3,60.07232708159631,
,L_DD504.jpg,1,L_FF504.jpg,1,,,,,0,81,81,43,imgFunc,1,NA,0.9173933999991277,500.16716110000016,501.1864150799993,2024-03-11 19:06:58.940253,2024-03-11 19:06:59.950597,L_DD504.jpg,1,10926,30-49,2024-03-11_19h00.33.748,Recall,2021.2.3,60.07232708159631,
,DD038.jpg,0,FF038.jpg,0,,,,,0,82,82,37,imgFunc,2,NA,1.4532004000011511,501.19166659999973,502.7445517800006,2024-03-11 19:06:59.957580,2024-03-11 19:07:01.501716,DD038.jpg,0,10926,30-49,2024-03-11_19h00.33.748,Recall,2021.2.3,60.07232708159631,
,SD002.jpg,0,MF002.jpg,0,,,,,0,83,83,51,imgFunc,9,NA,1.0885631000001013,502.7403465999996,503.92647018000025,2024-03-11 19:07:01.508699,2024-03-11 19:07:02.685841,SD002.jpg,0,10926,30-49,2024-03-11_19h00.33.748,Recall,2021.2.3,60.07232708159631,
,SD014.jpg,0,MF014.jpg,0,,,,,0,84,84,63,imgFunc,0,NA,0.9465545000002749,503.91439549999996,504.95069888000035,2024-03-11 19:07:02.692824,2024-03-11 19:07:03.720070,SD014.jpg,0,10926,30-49,2024-03-11_19h00.33.748,Recall,2021.2.3,60.07232708159631,
,DD029.jpg,0,FF029.jpg,0,,,,,0,85,85,28,imgFunc,2,NA,1.0155517000002874,504.94931890000043,506.0521453800011,2024-03-11 19:07:03.727053,2024-03-11 19:07:04.820724,DD029.jpg,0,10926,30-49,2024-03-11_19h00.33.748,Recall,2021.2.3,60.07232708159631,
,SD024.jpg,0,MF024.jpg,0,,,,,0,86,86,73,imgFunc,1,NA,1.1051189999998314,506.0515610000002,507.25442677999854,2024-03-11 19:07:04.827710,2024-03-11 19:07:06.021631,SD024.jpg,0,10926,30-49,2024-03-11_19h00.33.748,Recall,2021.2.3,60.07232708159631,
,L_SD504.jpg,1,L_MF504.jpg,1,,,,,0,87,87,93,imgFunc,2,NA,1.250644600000669,507.25818079999954,508.6111280799996,2024-03-11 19:07:06.028615,2024-03-11 19:07:07.372504,L_SD504.jpg,1,10926,30-49,2024-03-11_19h00.33.748,Recall,2021.2.3,60.07232708159631,
,DD019.jpg,0,FF019.jpg,0,,,,,0,88,88,18,imgFunc,2,NA,1.0462155999994138,508.62245579999944,509.7639920799993,2024-03-11 19:07:07.385512,2024-03-11 19:07:08.523748,DD019.jpg,0,10926,30-49,2024-03-11_19h00.33.748,Recall,2021.2.3,60.07232708159631,
,DD015.jpg,0,FF015.jpg,0,,,,,0,89,89,14,imgFunc,9,NA,0.811905000000479,509.76064360000055,510.66264178000165,2024-03-11 19:07:08.530731,2024-03-11 19:07:09.423156,DD015.jpg,0,10926,30-49,2024-03-11_19h00.33.748,Recall,2021.2.3,60.07232708159631,
,SD017.jpg,0,MF017.jpg,0,,,,,0,90,90,66,imgFunc,0,NA,1.420072099999743,510.6567735000008,512.1762094800015,2024-03-11 19:07:09.431131,2024-03-11 19:07:10.941117,SD017.jpg,0,10926,30-49,2024-03-11_19h00.33.748,Recall,2021.2.3,60.07232708159631,
,DD036.jpg,0,FF036.jpg,0,,,,,0,91,91,35,imgFunc,2,NA,1.0449083000003156,512.1759696000008,513.311923780002,2024-03-11 19:07:10.949095,2024-03-11 19:07:12.075896,DD036.jpg,0,10926,30-49,2024-03-11_19h00.33.748,Recall,2021.2.3,60.07232708159631,
,SD032.jpg,0,MF032.jpg,0,,,,,0,92,92,81,imgFunc,1,NA,1.090859800000544,513.3139054000003,514.5001618800015,2024-03-11 19:07:12.082880,2024-03-11 19:07:13.260008,SD032.jpg,0,10926,30-49,2024-03-11_19h00.33.748,Recall,2021.2.3,60.07232708159631,
,SD030.jpg,0,MF030.jpg,0,,,,,0,93,93,79,imgFunc,9,NA,2.276171199999226,514.5045410999992,516.8776519799976,2024-03-11 19:07:13.273973,2024-03-11 19:07:15.645387,SD030.jpg,0,10926,30-49,2024-03-11_19h00.33.748,Recall,2021.2.3,60.07232708159631,
,L_DD510.jpg,1,L_FF510.jpg,1,,,,,0,94,94,49,imgFunc,0,NA,0.9635775999995531,516.8810804000004,517.9331097800004,2024-03-11 19:07:15.652370,2024-03-11 19:07:16.696062,L_DD510.jpg,1,10926,30-49,2024-03-11_19h00.33.748,Recall,2021.2.3,60.07232708159631,
,SD003.jpg,0,MF003.jpg,0,,,,,0,95,95,52,imgFunc,0,NA,1.6435799000009865,517.9370641000005,519.6900535799978,2024-03-11 19:07:16.703045,2024-03-11 19:07:18.447246,SD003.jpg,0,10926,30-49,2024-03-11_19h00.33.748,Recall,2021.2.3,60.07232708159631,
,SD008.jpg,0,MF008.jpg,0,,,,,0,96,96,57,imgFunc,2,NA,1.2929609000002529,519.6876766999994,521.0739019800003,2024-03-11 19:07:18.454229,2024-03-11 19:07:19.831728,SD008.jpg,0,10926,30-49,2024-03-11_19h00.33.748,Recall,2021.2.3,60.07232708159631,
,DD031.jpg,0,FF031.jpg,0,,,,,0,97,97,30,imgFunc,1,NA,1.0237032000004547,521.0690952999994,522.1882614799997,2024-03-11 19:07:19.838711,2024-03-11 19:07:20.949074,DD031.jpg,0,10926,30-49,2024-03-11_19h00.33.748,Recall,2021.2.3,60.07232708159631,
,SD031.jpg,0,MF031.jpg,0,,,,,0,98,98,80,imgFunc,1,NA,0.9407922000009421,522.1840166000002,523.2062367799972,2024-03-11 19:07:20.963038,2024-03-11 19:07:21.983237,SD031.jpg,0,10926,30-49,2024-03-11_19h00.33.748,Recall,2021.2.3,60.07232708159631,
,DD033.jpg,0,FF033.jpg,0,,,,,0,99,99,32,imgFunc,2,NA,0.8732252000008884,523.2114067000002,524.1807963800002,2024-03-11 19:07:21.990220,2024-03-11 19:07:22.950593,DD033.jpg,0,10926,30-49,2024-03-11_19h00.33.748,Recall,2021.2.3,60.07232708159631,
