instrText,stimDoor,stimDoorLure,stimFace,stimFaceLure,Instructions.thisRepN,Instructions.thisTrialN,Instructions.thisN,Instructions.thisIndex,Trials.thisRepN,Trials.thisTrialN,Trials.thisN,Trials.thisIndex,Func,Keys,Text,RespTime,Onset,Offset,SystemTime_Start,SystemTime_Stop,Stim,Lure,Participant*,Age,date,expName,psychopyVersion,frameRate,
"In the earlier Feedback Games, you chose which doors contained a prize, and which peers liked you. 

You then saw positive or negative feedback (green check mark or red X) from the door or peer you selected.

You will now see a series of doors and peers, some of which you saw during the earlier Feedback Games, and some that you have never seen before.

Please press the spacebar to continue.",,,,,0,0,0,0,,,,,instrFunc,space,"In the earlier Feedback Games, you chose which doors contained a prize, and which peers liked you. 

You then saw positive or negative feedback (green check mark or red X) from the door or peer you selected.

You will now see a series of doors and peers, some of which you saw during the earlier Feedback Games, and some that you have never seen before.

Please press the spacebar to continue.",17.813216100039426,17.724147400003858,35.59195782028837,2024-04-12 15:47:04.872150,2024-04-12 15:47:22.737473,,,10956,18-29,2024-04-12_15h47.01.873,Recall,2021.2.3,59.96997903726789,
"For doors/peers that you remember selecting and getting feedback from, your job is to RECALL what feedback you received. 

Press '1' if you recall positive feedback. 

Press '2' if you recall negative feedback

Press the spacebar to continue.",,,,,0,1,1,1,,,,,instrFunc,space,"For doors/peers that you remember selecting and getting feedback from, your job is to RECALL what feedback you received. 

Press '1' if you recall positive feedback. 

Press '2' if you recall negative feedback

Press the spacebar to continue.",15.25191970000742,35.573046800040174,50.88062284007901,2024-04-12 15:47:22.738473,2024-04-12 15:47:38.030565,,,10956,18-29,2024-04-12_15h47.01.873,Recall,2021.2.3,59.96997903726789,
"For doors/peers that you don't remember getting feedback from, your job is to PREDICT what feedback you WOULD HAVE received.

Press '9' if you predict positive feedback.

Press '0' if you predict negative feedback. 

Please press the spacebar to continue.",,,,,0,2,2,2,,,,,instrFunc,space,"For doors/peers that you don't remember getting feedback from, your job is to PREDICT what feedback you WOULD HAVE received.

Press '9' if you predict positive feedback.

Press '0' if you predict negative feedback. 

Please press the spacebar to continue.",13.062175699975342,50.86684770003194,63.97429354005726,2024-04-12 15:47:38.031562,2024-04-12 15:47:51.123532,,,10956,18-29,2024-04-12_15h47.01.873,Recall,2021.2.3,59.96997903726789,
"This task is self-paced, and the prompts will always stay on the screen so that you know which buttons to press.

On the next screen we will show you what those prompts look like, so that you know exactly what to expect. 

You will start with either doors or peers, and then switch halfway through. 

Please press the spacebar to continue.",,,,,0,3,3,3,,,,,instrFunc,space,"This task is self-paced, and the prompts will always stay on the screen so that you know which buttons to press.

On the next screen we will show you what those prompts look like, so that you know exactly what to expect. 

You will start with either doors or peers, and then switch halfway through. 

Please press the spacebar to continue.",13.2770003999467,63.956097099988256,77.28057994000847,2024-04-12 15:47:51.124529,2024-04-12 15:48:04.433425,,,10956,18-29,2024-04-12_15h47.01.873,Recall,2021.2.3,59.96997903726789,
,,,,,,,,,,,,,imgtextFunc,space,"Here is what the screen will look like while you make your ratings.
The green circles remind you to press 1 or 9 for positive feedback.
The red circles remind you to press 2 or 0 for negative feedback.









Please let the experimenter know if you have any questions.

Whenever you're ready, press the spacebar to start the task.",17.04153819999192,77.41543160000583,94.64050714002224,2024-04-12 15:48:04.443374,2024-04-12 15:48:21.663421,,,10956,18-29,2024-04-12_15h47.01.873,Recall,2021.2.3,59.96997903726789,
,DD004.jpg,0,FF004.jpg,0,,,,,0,0,0,3,imgFunc,9,NA,5.306881800002884,94.63813370000571,100.08689851994859,2024-04-12 15:48:21.707322,2024-04-12 15:48:27.149969,FF004.jpg,0,10956,18-29,2024-04-12_15h47.01.873,Recall,2021.2.3,59.96997903726789,
,SD027.jpg,0,MF027.jpg,0,,,,,0,1,1,76,imgFunc,1,NA,5.461567000020295,100.05973149999045,105.62612664001063,2024-04-12 15:48:27.159923,2024-04-12 15:48:32.721352,MF027.jpg,0,10956,18-29,2024-04-12_15h47.01.873,Recall,2021.2.3,59.96997903726789,
,SD029.jpg,0,MF029.jpg,0,,,,,0,2,2,78,imgFunc,2,NA,5.130015700007789,105.6310022000107,110.86538433999522,2024-04-12 15:48:32.730351,2024-04-12 15:48:37.957546,MF029.jpg,0,10956,18-29,2024-04-12_15h47.01.873,Recall,2021.2.3,59.96997903726789,
,DD030.jpg,0,FF030.jpg,0,,,,,0,3,3,29,imgFunc,1,NA,1.5367395000066608,110.87208649999229,112.51375913992524,2024-04-12 15:48:37.970509,2024-04-12 15:48:39.608959,FF030.jpg,0,10956,18-29,2024-04-12_15h47.01.873,Recall,2021.2.3,59.96997903726789,
,SD013.jpg,0,MF013.jpg,0,,,,,0,4,4,62,imgFunc,1,NA,1.4229919000063092,112.52232700004242,114.05075884005055,2024-04-12 15:48:39.619933,2024-04-12 15:48:41.142871,MF013.jpg,0,10956,18-29,2024-04-12_15h47.01.873,Recall,2021.2.3,59.96997903726789,
,SD026.jpg,0,MF026.jpg,0,,,,,0,5,5,75,imgFunc,1,NA,1.570223500020802,114.03880270000082,115.70505594002316,2024-04-12 15:48:41.151845,2024-04-12 15:48:42.810396,MF026.jpg,0,10956,18-29,2024-04-12_15h47.01.873,Recall,2021.2.3,59.96997903726789,
,SD017.jpg,0,MF017.jpg,0,,,,,0,6,6,66,imgFunc,2,NA,1.4968705999781378,115.7041674000211,117.30510184005834,2024-04-12 15:48:42.819371,2024-04-12 15:48:44.412002,MF017.jpg,0,10956,18-29,2024-04-12_15h47.01.873,Recall,2021.2.3,59.96997903726789,
,DD014.jpg,0,FF014.jpg,0,,,,,0,7,7,13,imgFunc,1,NA,0.9739834000356495,117.31498200003989,118.38830914004939,2024-04-12 15:48:44.425973,2024-04-12 15:48:45.496083,FF014.jpg,0,10956,18-29,2024-04-12_15h47.01.873,Recall,2021.2.3,59.96997903726789,
,DD018.jpg,0,FF018.jpg,0,,,,,0,8,8,17,imgFunc,1,NA,1.1130587000516243,118.38414119998924,119.58638263994362,2024-04-12 15:48:45.503064,2024-04-12 15:48:46.696883,FF018.jpg,0,10956,18-29,2024-04-12_15h47.01.873,Recall,2021.2.3,59.96997903726789,
,SD015.jpg,0,MF015.jpg,0,,,,,0,9,9,64,imgFunc,2,NA,1.5603637999738567,119.58461020002142,121.236879139964,2024-04-12 15:48:46.703862,2024-04-12 15:48:48.347760,MF015.jpg,0,10956,18-29,2024-04-12_15h47.01.873,Recall,2021.2.3,59.96997903726789,
,DD029.jpg,0,FF029.jpg,0,,,,,0,10,10,28,imgFunc,2,NA,1.5970463000121526,121.23591950000264,122.92245104000904,2024-04-12 15:48:48.354736,2024-04-12 15:48:50.032296,FF029.jpg,0,10956,18-29,2024-04-12_15h47.01.873,Recall,2021.2.3,59.96997903726789,
,L_DD508.jpg,1,L_FF508.jpg,1,,,,,0,11,11,47,imgFunc,1,NA,1.2122004000120796,122.93280150002101,124.25178084004438,2024-04-12 15:48:50.040266,2024-04-12 15:48:51.350742,L_FF508.jpg,1,10956,18-29,2024-04-12_15h47.01.873,Recall,2021.2.3,59.96997903726789,
,DD026.jpg,0,FF026.jpg,0,,,,,0,12,12,25,imgFunc,1,NA,2.2158946999697946,124.25715130002936,126.56239033996826,2024-04-12 15:48:51.364732,2024-04-12 15:48:53.668762,FF026.jpg,0,10956,18-29,2024-04-12_15h47.01.873,Recall,2021.2.3,59.96997903726789,
,DD010.jpg,0,FF010.jpg,0,,,,,0,13,13,9,imgFunc,1,NA,0.8265112999943085,126.55877750000218,127.47693604003871,2024-04-12 15:48:53.676717,2024-04-12 15:48:54.586368,FF010.jpg,0,10956,18-29,2024-04-12_15h47.01.873,Recall,2021.2.3,59.96997903726789,
,SD030.jpg,0,MF030.jpg,0,,,,,0,14,14,79,imgFunc,9,NA,2.927885100012645,127.48109469999326,130.5012084399932,2024-04-12 15:48:54.594371,2024-04-12 15:48:57.605233,MF030.jpg,0,10956,18-29,2024-04-12_15h47.01.873,Recall,2021.2.3,59.96997903726789,
,SD039.jpg,0,MF039.jpg,0,,,,,0,15,15,88,imgFunc,1,NA,2.1311195999733172,130.50220550002996,132.7381940400228,2024-04-12 15:48:57.613188,2024-04-12 15:48:59.840259,MF039.jpg,0,10956,18-29,2024-04-12_15h47.01.873,Recall,2021.2.3,59.96997903726789,
,SD021.jpg,0,MF021.jpg,0,,,,,0,16,16,70,imgFunc,9,NA,3.112552999984473,132.73639550001826,135.95664294000017,2024-04-12 15:48:59.847242,2024-04-12 15:49:03.058360,MF021.jpg,0,10956,18-29,2024-04-12_15h47.01.873,Recall,2021.2.3,59.96997903726789,
,DD002.jpg,0,FF002.jpg,0,,,,,0,17,17,1,imgFunc,1,NA,3.3319965999689884,135.97305630001938,139.41072084003827,2024-04-12 15:49:03.074317,2024-04-12 15:49:06.511281,FF002.jpg,0,10956,18-29,2024-04-12_15h47.01.873,Recall,2021.2.3,59.96997903726789,
,L_DD503.jpg,1,L_FF503.jpg,1,,,,,0,18,18,42,imgFunc,1,NA,1.0058745999704115,139.40307170001324,140.50415294006234,2024-04-12 15:49:06.519260,2024-04-12 15:49:07.611378,L_FF503.jpg,1,10956,18-29,2024-04-12_15h47.01.873,Recall,2021.2.3,59.96997903726789,
,L_DD510.jpg,1,L_FF510.jpg,1,,,,,0,19,19,49,imgFunc,1,NA,1.070721699972637,140.50634850002825,141.67516834003618,2024-04-12 15:49:07.619353,2024-04-12 15:49:08.779439,L_FF510.jpg,1,10956,18-29,2024-04-12_15h47.01.873,Recall,2021.2.3,59.96997903726789,
,SD031.jpg,0,MF031.jpg,0,,,,,0,20,20,80,imgFunc,9,NA,2.902271800034214,141.67464270000346,144.67640974005917,2024-04-12 15:49:08.787417,2024-04-12 15:49:11.781429,MF031.jpg,0,10956,18-29,2024-04-12_15h47.01.873,Recall,2021.2.3,59.96997903726789,
,DD037.jpg,0,FF037.jpg,0,,,,,0,21,21,36,imgFunc,9,NA,2.724433899973519,144.6845125000109,147.51908083999297,2024-04-12 15:49:11.790404,2024-04-12 15:49:14.616721,FF037.jpg,0,10956,18-29,2024-04-12_15h47.01.873,Recall,2021.2.3,59.96997903726789,
,DD024.jpg,0,FF024.jpg,0,,,,,0,22,22,23,imgFunc,9,NA,3.204988899989985,147.52391360001639,150.84339694003575,2024-04-12 15:49:14.624685,2024-04-12 15:49:17.935656,FF024.jpg,0,10956,18-29,2024-04-12_15h47.01.873,Recall,2021.2.3,59.96997903726789,
,L_DD505.jpg,1,L_FF505.jpg,1,,,,,0,23,23,44,imgFunc,1,NA,2.141001900017727,150.84399730002042,153.09335604001535,2024-04-12 15:49:17.945625,2024-04-12 15:49:20.187643,L_FF505.jpg,1,10956,18-29,2024-04-12_15h47.01.873,Recall,2021.2.3,59.96997903726789,
,DD007.jpg,0,FF007.jpg,0,,,,,0,24,24,6,imgFunc,1,NA,0.9084916999563575,153.08461910003098,154.08666264009662,2024-04-12 15:49:20.195620,2024-04-12 15:49:21.187974,FF007.jpg,0,10956,18-29,2024-04-12_15h47.01.873,Recall,2021.2.3,59.96997903726789,
,SD032.jpg,0,MF032.jpg,0,,,,,0,25,25,81,imgFunc,1,NA,1.17515090003144,154.08981959999073,155.37410874001216,2024-04-12 15:49:21.196950,2024-04-12 15:49:22.473026,MF032.jpg,0,10956,18-29,2024-04-12_15h47.01.873,Recall,2021.2.3,59.96997903726789,
,DD033.jpg,0,FF033.jpg,0,,,,,0,26,26,32,imgFunc,1,NA,0.9346944999997504,155.39445329998853,156.4480218400131,2024-04-12 15:49:22.487987,2024-04-12 15:49:23.540673,FF033.jpg,0,10956,18-29,2024-04-12_15h47.01.873,Recall,2021.2.3,59.96997903726789,
,SD018.jpg,0,MF018.jpg,0,,,,,0,27,27,67,imgFunc,2,NA,2.058059500006493,156.43901989998994,158.5916333399946,2024-04-12 15:49:23.547655,2024-04-12 15:49:25.691785,MF018.jpg,0,10956,18-29,2024-04-12_15h47.01.873,Recall,2021.2.3,59.96997903726789,
,L_DD502.jpg,1,L_FF502.jpg,1,,,,,0,28,28,41,imgFunc,1,NA,0.9686203000019304,158.58466660004342,159.6531152400421,2024-04-12 15:49:25.699788,2024-04-12 15:49:26.759421,L_FF502.jpg,1,10956,18-29,2024-04-12_15h47.01.873,Recall,2021.2.3,59.96997903726789,
,DD009.jpg,0,FF009.jpg,0,,,,,0,29,29,8,imgFunc,1,NA,2.8413125000079162,159.65588710003067,162.59314594004536,2024-04-12 15:49:26.766404,2024-04-12 15:49:29.695128,FF009.jpg,0,10956,18-29,2024-04-12_15h47.01.873,Recall,2021.2.3,59.96997903726789,
,DD040.jpg,0,FF040.jpg,0,,,,,0,30,30,39,imgFunc,9,NA,1.8466925999964587,162.602285400033,164.5547376400209,2024-04-12 15:49:29.702111,2024-04-12 15:49:31.645863,FF040.jpg,0,10956,18-29,2024-04-12_15h47.01.873,Recall,2021.2.3,59.96997903726789,
,L_SD503.jpg,1,L_MF503.jpg,1,,,,,0,31,31,92,imgFunc,9,NA,2.5424463999806903,164.55449700000463,167.19309744000202,2024-04-12 15:49:31.660792,2024-04-12 15:49:34.297437,L_MF503.jpg,1,10956,18-29,2024-04-12_15h47.01.873,Recall,2021.2.3,59.96997903726789,
,SD003.jpg,0,MF003.jpg,0,,,,,0,32,32,52,imgFunc,9,NA,2.306701800029259,167.20612720004283,169.62596884008963,2024-04-12 15:49:34.305415,2024-04-12 15:49:36.715987,MF003.jpg,0,10956,18-29,2024-04-12_15h47.01.873,Recall,2021.2.3,59.96997903726789,
,L_DD501.jpg,1,L_FF501.jpg,1,,,,,0,33,33,40,imgFunc,1,NA,1.673490600020159,169.61558049998712,171.38114193995716,2024-04-12 15:49:36.725958,2024-04-12 15:49:38.484266,L_FF501.jpg,1,10956,18-29,2024-04-12_15h47.01.873,Recall,2021.2.3,59.96997903726789,
,SD005.jpg,0,MF005.jpg,0,,,,,0,34,34,54,imgFunc,9,NA,1.7857657999848016,171.3912767000147,173.29297443997348,2024-04-12 15:49:38.492244,2024-04-12 15:49:40.384929,MF005.jpg,0,10956,18-29,2024-04-12_15h47.01.873,Recall,2021.2.3,59.96997903726789,
,DD027.jpg,0,FF027.jpg,0,,,,,0,35,35,26,imgFunc,9,NA,1.0515425000339746,173.29341159999603,174.46068014000775,2024-04-12 15:49:40.393904,2024-04-12 15:49:41.552812,FF027.jpg,0,10956,18-29,2024-04-12_15h47.01.873,Recall,2021.2.3,59.96997903726789,
,L_SD505.jpg,1,L_MF505.jpg,1,,,,,0,36,36,94,imgFunc,1,NA,1.8051501999725588,174.44377080001868,176.34700333996443,2024-04-12 15:49:41.559793,2024-04-12 15:49:43.453966,L_MF505.jpg,1,10956,18-29,2024-04-12_15h47.01.873,Recall,2021.2.3,59.96997903726789,
,DD022.jpg,0,FF022.jpg,0,,,,,0,37,37,21,imgFunc,1,NA,1.743554899992887,176.3533780000289,178.20592804002808,2024-04-12 15:49:43.461949,2024-04-12 15:49:45.305999,FF022.jpg,0,10956,18-29,2024-04-12_15h47.01.873,Recall,2021.2.3,59.96997903726789,
,SD016.jpg,0,MF016.jpg,0,,,,,0,38,38,65,imgFunc,9,NA,2.0810284999897704,178.1999013000168,180.3845347399474,2024-04-12 15:49:45.314000,2024-04-12 15:49:47.490193,MF016.jpg,0,10956,18-29,2024-04-12_15h47.01.873,Recall,2021.2.3,59.96997903726789,
,SD004.jpg,0,MF004.jpg,0,,,,,0,39,39,53,imgFunc,1,NA,1.6914851000183262,180.3895653000218,182.19101533998037,2024-04-12 15:49:47.498154,2024-04-12 15:49:49.291754,MF004.jpg,0,10956,18-29,2024-04-12_15h47.01.873,Recall,2021.2.3,59.96997903726789,
,DD017.jpg,0,FF017.jpg,0,,,,,0,40,40,16,imgFunc,1,NA,1.1767571999807842,182.20032270002412,183.4726008400321,2024-04-12 15:49:49.305713,2024-04-12 15:49:50.576296,FF017.jpg,0,10956,18-29,2024-04-12_15h47.01.873,Recall,2021.2.3,59.96997903726789,
,SD035.jpg,0,MF035.jpg,0,,,,,0,41,41,84,imgFunc,1,NA,1.8739644000306726,183.4711595000117,185.44103084004018,2024-04-12 15:49:50.583307,2024-04-12 15:49:52.544916,MF035.jpg,0,10956,18-29,2024-04-12_15h47.01.873,Recall,2021.2.3,59.96997903726789,
,DD028.jpg,0,FF028.jpg,0,,,,,0,42,42,27,imgFunc,1,NA,0.8324903000029735,185.4407069000299,186.37604824005393,2024-04-12 15:49:52.551899,2024-04-12 15:49:53.478553,FF028.jpg,0,10956,18-29,2024-04-12_15h47.01.873,Recall,2021.2.3,59.96997903726789,
,SD006.jpg,0,MF006.jpg,0,,,,,0,43,43,55,imgFunc,9,NA,4.53774069994688,186.3753410000354,191.01262794004288,2024-04-12 15:49:53.486563,2024-04-12 15:49:58.114408,MF006.jpg,0,10956,18-29,2024-04-12_15h47.01.873,Recall,2021.2.3,59.96997903726789,
,SD014.jpg,0,MF014.jpg,0,,,,,0,44,44,63,imgFunc,2,NA,2.126520599995274,191.01857770001516,193.25214304000838,2024-04-12 15:49:58.123347,2024-04-12 15:50:00.350220,MF014.jpg,0,10956,18-29,2024-04-12_15h47.01.873,Recall,2021.2.3,59.96997903726789,
,SD028.jpg,0,MF028.jpg,0,,,,,0,45,45,77,imgFunc,2,NA,1.790160799981095,193.26699380000355,195.17093943996588,2024-04-12 15:50:00.365204,2024-04-12 15:50:02.268388,MF028.jpg,0,10956,18-29,2024-04-12_15h47.01.873,Recall,2021.2.3,59.96997903726789,
,DD013.jpg,0,FF013.jpg,0,,,,,0,46,46,12,imgFunc,2,NA,1.4620447999914177,195.16289650002727,196.73198284005048,2024-04-12 15:50:02.275371,2024-04-12 15:50:03.835689,FF013.jpg,0,10956,18-29,2024-04-12_15h47.01.873,Recall,2021.2.3,59.96997903726789,
,DD023.jpg,0,FF023.jpg,0,,,,,0,47,47,22,imgFunc,1,NA,0.9520529999863356,196.73702320002485,197.7876053400105,2024-04-12 15:50:03.843670,2024-04-12 15:50:04.886200,FF023.jpg,0,10956,18-29,2024-04-12_15h47.01.873,Recall,2021.2.3,59.96997903726789,
,DD038.jpg,0,FF038.jpg,0,,,,,0,48,48,37,imgFunc,1,NA,1.3265759000205435,197.78644850000273,199.21904394001467,2024-04-12 15:50:04.895198,2024-04-12 15:50:06.320405,FF038.jpg,0,10956,18-29,2024-04-12_15h47.01.873,Recall,2021.2.3,59.96997903726789,
,L_SD509.jpg,1,L_MF509.jpg,1,,,,,0,49,49,98,imgFunc,9,NA,33.87495179998223,199.22219070000574,233.19830523995915,2024-04-12 15:50:06.328352,2024-04-12 15:50:40.295786,L_MF509.jpg,1,10956,18-29,2024-04-12_15h47.01.873,Recall,2021.2.3,59.96997903726789,
,L_SD502.jpg,1,L_MF502.jpg,1,,,,,0,50,50,91,imgFunc,9,NA,3.2745847000041977,233.2543103999924,236.67785704002017,2024-04-12 15:50:40.309734,2024-04-12 15:50:43.730880,L_MF502.jpg,1,10956,18-29,2024-04-12_15h47.01.873,Recall,2021.2.3,59.96997903726789,
,DD005.jpg,0,FF005.jpg,0,,,,,0,51,51,4,imgFunc,9,NA,1.293293300026562,236.6276147000026,238.0297956400318,2024-04-12 15:50:43.738859,2024-04-12 15:50:45.132144,FF005.jpg,0,10956,18-29,2024-04-12_15h47.01.873,Recall,2021.2.3,59.96997903726789,
,DD036.jpg,0,FF036.jpg,0,,,,,0,52,52,35,imgFunc,9,NA,1.2121291999937966,238.03691339999205,239.3541323399986,2024-04-12 15:50:45.140122,2024-04-12 15:50:46.449657,FF036.jpg,0,10956,18-29,2024-04-12_15h47.01.873,Recall,2021.2.3,59.96997903726789,
,DD032.jpg,0,FF032.jpg,0,,,,,0,53,53,31,imgFunc,9,NA,1.9368911000201479,239.3599802000099,241.405097340059,2024-04-12 15:50:46.460625,2024-04-12 15:50:48.501144,FF032.jpg,0,10956,18-29,2024-04-12_15h47.01.873,Recall,2021.2.3,59.96997903726789,
,SD037.jpg,0,MF037.jpg,0,,,,,0,54,54,86,imgFunc,1,NA,2.333995099994354,241.40320490003796,243.82451104006032,2024-04-12 15:50:48.516131,2024-04-12 15:50:50.935647,MF037.jpg,0,10956,18-29,2024-04-12_15h47.01.873,Recall,2021.2.3,59.96997903726789,
,SD022.jpg,0,MF022.jpg,0,,,,,0,55,55,71,imgFunc,1,NA,0.8049248000024818,243.8360221000039,244.73621044005267,2024-04-12 15:50:50.944622,2024-04-12 15:50:51.836280,MF022.jpg,0,10956,18-29,2024-04-12_15h47.01.873,Recall,2021.2.3,59.96997903726789,
,SD024.jpg,0,MF024.jpg,0,,,,,0,56,56,73,imgFunc,1,NA,0.7141178000019863,244.72703740000725,245.52945834002458,2024-04-12 15:50:51.844250,2024-04-12 15:50:52.637549,MF024.jpg,0,10956,18-29,2024-04-12_15h47.01.873,Recall,2021.2.3,59.96997903726789,
,DD008.jpg,0,FF008.jpg,0,,,,,0,57,57,7,imgFunc,1,NA,1.4529424000065774,245.53222210000968,247.08456933998968,2024-04-12 15:50:52.644555,2024-04-12 15:50:54.188543,FF008.jpg,0,10956,18-29,2024-04-12_15h47.01.873,Recall,2021.2.3,59.96997903726789,
,SD025.jpg,0,MF025.jpg,0,,,,,0,58,58,74,imgFunc,9,NA,1.7987646000110544,247.08246579999104,248.98587353999028,2024-04-12 15:50:54.195526,2024-04-12 15:50:56.090193,MF025.jpg,0,10956,18-29,2024-04-12_15h47.01.873,Recall,2021.2.3,59.96997903726789,
,SD019.jpg,0,MF019.jpg,0,,,,,0,59,59,68,imgFunc,9,NA,0.907070700020995,249.00598620000528,250.02684404002503,2024-04-12 15:50:56.104180,2024-04-12 15:50:57.123936,MF019.jpg,0,10956,18-29,2024-04-12_15h47.01.873,Recall,2021.2.3,59.96997903726789,
,L_DD509.jpg,1,L_FF509.jpg,1,,,,,0,60,60,48,imgFunc,1,NA,1.5884604000020772,250.01267200004077,251.69906274002278,2024-04-12 15:50:57.130919,2024-04-12 15:50:58.808482,L_FF509.jpg,1,10956,18-29,2024-04-12_15h47.01.873,Recall,2021.2.3,59.96997903726789,
,DD034.jpg,0,FF034.jpg,0,,,,,0,61,61,33,imgFunc,1,NA,0.9979521999484859,251.70729650004068,252.8087662400212,2024-04-12 15:50:58.816485,2024-04-12 15:50:59.909449,FF034.jpg,0,10956,18-29,2024-04-12_15h47.01.873,Recall,2021.2.3,59.96997903726789,
,L_SD507.jpg,1,L_MF507.jpg,1,,,,,0,62,62,96,imgFunc,9,NA,3.9380226000212133,252.80698310001753,256.8416646400583,2024-04-12 15:50:59.918108,2024-04-12 15:51:03.945667,L_MF507.jpg,1,10956,18-29,2024-04-12_15h47.01.873,Recall,2021.2.3,59.96997903726789,
,DD021.jpg,0,FF021.jpg,0,,,,,0,63,63,20,imgFunc,1,NA,1.6421936000115238,256.8466889000265,258.5983260400244,2024-04-12 15:51:03.953645,2024-04-12 15:51:05.696023,FF021.jpg,0,10956,18-29,2024-04-12_15h47.01.873,Recall,2021.2.3,59.96997903726789,
,SD011.jpg,0,MF011.jpg,0,,,,,0,64,64,60,imgFunc,2,NA,1.3669777999748476,258.58603410003707,260.05501794000156,2024-04-12 15:51:05.703974,2024-04-12 15:51:07.164103,MF011.jpg,0,10956,18-29,2024-04-12_15h47.01.873,Recall,2021.2.3,59.96997903726789,
,DD035.jpg,0,FF035.jpg,0,,,,,0,65,65,34,imgFunc,1,NA,1.2042663000174798,260.05262329999823,261.3541874400107,2024-04-12 15:51:07.172057,2024-04-12 15:51:08.464608,FF035.jpg,0,10956,18-29,2024-04-12_15h47.01.873,Recall,2021.2.3,59.96997903726789,
,DD003.jpg,0,FF003.jpg,0,,,,,0,66,66,2,imgFunc,1,NA,1.221509299997706,261.3554726000293,262.6746994400164,2024-04-12 15:51:08.472585,2024-04-12 15:51:09.782555,FF003.jpg,0,10956,18-29,2024-04-12_15h47.01.873,Recall,2021.2.3,59.96997903726789,
,SD007.jpg,0,MF007.jpg,0,,,,,0,67,67,56,imgFunc,1,NA,1.7672984000528231,262.67364640004234,264.54318254004465,2024-04-12 15:51:09.790536,2024-04-12 15:51:11.650571,MF007.jpg,0,10956,18-29,2024-04-12_15h47.01.873,Recall,2021.2.3,59.96997903726789,
,DD001.jpg,0,FF001.jpg,0,,,,,0,68,68,0,imgFunc,9,NA,3.1576328999944963,264.5553845000104,267.81138114002533,2024-04-12 15:51:11.665533,2024-04-12 15:51:14.919272,FF001.jpg,0,10956,18-29,2024-04-12_15h47.01.873,Recall,2021.2.3,59.96997903726789,
,DD015.jpg,0,FF015.jpg,0,,,,,0,69,69,14,imgFunc,9,NA,0.9659123999881558,267.8110599000356,268.88010994001525,2024-04-12 15:51:14.927245,2024-04-12 15:51:15.987446,FF015.jpg,0,10956,18-29,2024-04-12_15h47.01.873,Recall,2021.2.3,59.96997903726789,
,SD033.jpg,0,MF033.jpg,0,,,,,0,70,70,82,imgFunc,1,NA,1.4500496999826282,268.8788470000145,270.4303159400006,2024-04-12 15:51:15.995396,2024-04-12 15:51:17.538279,MF033.jpg,0,10956,18-29,2024-04-12_15h47.01.873,Recall,2021.2.3,59.96997903726789,
,DD039.jpg,0,FF039.jpg,0,,,,,0,71,71,38,imgFunc,9,NA,1.6703591999830678,270.4345183999976,272.2021120400168,2024-04-12 15:51:17.546257,2024-04-12 15:51:19.305880,FF039.jpg,0,10956,18-29,2024-04-12_15h47.01.873,Recall,2021.2.3,59.96997903726789,
,DD012.jpg,0,FF012.jpg,0,,,,,0,72,72,11,imgFunc,9,NA,0.9808344999910332,272.20411140000215,273.2885929400218,2024-04-12 15:51:19.313859,2024-04-12 15:51:20.389960,FF012.jpg,0,10956,18-29,2024-04-12_15h47.01.873,Recall,2021.2.3,59.96997903726789,
,SD009.jpg,0,MF009.jpg,0,,,,,0,73,73,58,imgFunc,1,NA,2.9633742999867536,273.3015624000109,276.3733642400475,2024-04-12 15:51:20.404919,2024-04-12 15:51:23.475971,MF009.jpg,0,10956,18-29,2024-04-12_15h47.01.873,Recall,2021.2.3,59.96997903726789,
,SD038.jpg,0,MF038.jpg,0,,,,,0,74,74,87,imgFunc,1,NA,1.3002275999751873,276.3730355000007,277.7761809400399,2024-04-12 15:51:23.482978,2024-04-12 15:51:24.877402,MF038.jpg,0,10956,18-29,2024-04-12_15h47.01.873,Recall,2021.2.3,59.96997903726789,
,L_SD508.jpg,1,L_MF508.jpg,1,,,,,0,75,75,97,imgFunc,2,NA,1.0507723999908194,277.782147800026,278.9512354400358,2024-04-12 15:51:24.884385,2024-04-12 15:51:26.044827,L_MF508.jpg,1,10956,18-29,2024-04-12_15h47.01.873,Recall,2021.2.3,59.96997903726789,
,DD031.jpg,0,FF031.jpg,0,,,,,0,76,76,30,imgFunc,9,NA,1.559519200003706,278.94539080001414,280.6138030400034,2024-04-12 15:51:26.052807,2024-04-12 15:51:27.713184,FF031.jpg,0,10956,18-29,2024-04-12_15h47.01.873,Recall,2021.2.3,59.96997903726789,
,SD040.jpg,0,MF040.jpg,0,,,,,0,77,77,89,imgFunc,9,NA,4.275258000008762,280.6216514999978,285.00776523997774,2024-04-12 15:51:27.721165,2024-04-12 15:51:32.098690,MF040.jpg,0,10956,18-29,2024-04-12_15h47.01.873,Recall,2021.2.3,59.96997903726789,
,SD002.jpg,0,MF002.jpg,0,,,,,0,78,78,51,imgFunc,9,NA,1.4438329999684356,284.9974192000227,286.5477417400689,2024-04-12 15:51:32.107668,2024-04-12 15:51:33.650431,MF002.jpg,0,10956,18-29,2024-04-12_15h47.01.873,Recall,2021.2.3,59.96997903726789,
,L_DD506.jpg,1,L_FF506.jpg,1,,,,,0,79,79,45,imgFunc,9,NA,0.9988331000204198,286.5460434000124,287.6479492399958,2024-04-12 15:51:33.657414,2024-04-12 15:51:34.750575,L_FF506.jpg,1,10956,18-29,2024-04-12_15h47.01.873,Recall,2021.2.3,59.96997903726789,
,L_SD501.jpg,1,L_MF501.jpg,1,,,,,0,80,80,90,imgFunc,1,NA,1.3376673000166193,287.64731730002677,289.0826192399836,2024-04-12 15:51:34.758511,2024-04-12 15:51:36.184707,L_MF501.jpg,1,10956,18-29,2024-04-12_15h47.01.873,Recall,2021.2.3,59.96997903726789,
,L_SD506.jpg,1,L_MF506.jpg,1,,,,,0,81,81,95,imgFunc,1,NA,0.8889221000135876,289.0958879000391,290.0975765400799,2024-04-12 15:51:36.192684,2024-04-12 15:51:37.186036,L_MF506.jpg,1,10956,18-29,2024-04-12_15h47.01.873,Recall,2021.2.3,59.96997903726789,
,SD001.jpg,0,MF001.jpg,0,,,,,0,82,82,50,imgFunc,9,NA,1.5140523000154644,290.1028385999962,291.73424567992333,2024-04-12 15:51:37.203987,2024-04-12 15:51:38.819704,MF001.jpg,0,10956,18-29,2024-04-12_15h47.01.873,Recall,2021.2.3,59.96997903726789,
,L_SD504.jpg,1,L_MF504.jpg,1,,,,,0,83,83,93,imgFunc,9,NA,1.0970858000218868,291.7197870000382,292.9208494400955,2024-04-12 15:51:38.828652,2024-04-12 15:51:40.021028,L_MF504.jpg,1,10956,18-29,2024-04-12_15h47.01.873,Recall,2021.2.3,59.96997903726789,
,L_DD507.jpg,1,L_FF507.jpg,1,,,,,0,84,84,46,imgFunc,1,NA,1.565664599998854,292.915208099992,294.5846394399996,2024-04-12 15:51:40.028008,2024-04-12 15:51:41.688582,L_FF507.jpg,1,10956,18-29,2024-04-12_15h47.01.873,Recall,2021.2.3,59.96997903726789,
,L_SD510.jpg,1,L_MF510.jpg,1,,,,,0,85,85,99,imgFunc,9,NA,1.5837179999798536,294.58516710001277,296.2714165399666,2024-04-12 15:51:41.696558,2024-04-12 15:51:43.373109,L_MF510.jpg,1,10956,18-29,2024-04-12_15h47.01.873,Recall,2021.2.3,59.96997903726789,
,DD025.jpg,0,FF025.jpg,0,,,,,0,86,86,24,imgFunc,1,NA,1.1787189999595284,296.2702233000309,297.5558514400618,2024-04-12 15:51:43.381064,2024-04-12 15:51:44.657631,FF025.jpg,0,10956,18-29,2024-04-12_15h47.01.873,Recall,2021.2.3,59.96997903726789,
,SD020.jpg,0,MF020.jpg,0,,,,,0,87,87,69,imgFunc,1,NA,0.7466095000272617,297.56639190000715,298.4186621400295,2024-04-12 15:51:44.673573,2024-04-12 15:51:45.525277,MF020.jpg,0,10956,18-29,2024-04-12_15h47.01.873,Recall,2021.2.3,59.96997903726789,
,SD008.jpg,0,MF008.jpg,0,,,,,0,88,88,57,imgFunc,1,NA,0.7659086999483407,298.41907440003706,299.28812604001723,2024-04-12 15:51:45.532258,2024-04-12 15:51:46.391969,MF008.jpg,0,10956,18-29,2024-04-12_15h47.01.873,Recall,2021.2.3,59.96997903726789,
,DD006.jpg,0,FF006.jpg,0,,,,,0,89,89,5,imgFunc,9,NA,1.6344226999790408,299.29463820002275,301.02991874003783,2024-04-12 15:51:46.399946,2024-04-12 15:51:48.127334,FF006.jpg,0,10956,18-29,2024-04-12_15h47.01.873,Recall,2021.2.3,59.96997903726789,
,L_DD504.jpg,1,L_FF504.jpg,1,,,,,0,90,90,43,imgFunc,1,NA,1.1506536000524648,301.0262222000165,302.2779615399777,2024-04-12 15:51:48.134316,2024-04-12 15:51:49.378027,L_FF504.jpg,1,10956,18-29,2024-04-12_15h47.01.873,Recall,2021.2.3,59.96997903726789,
,DD016.jpg,0,FF016.jpg,0,,,,,0,91,91,15,imgFunc,1,NA,0.740986300050281,302.2760195999872,303.12834754004143,2024-04-12 15:51:49.385007,2024-04-12 15:51:50.228728,FF016.jpg,0,10956,18-29,2024-04-12_15h47.01.873,Recall,2021.2.3,59.96997903726789,
,DD011.jpg,0,FF011.jpg,0,,,,,0,92,92,10,imgFunc,1,NA,0.8360003000125289,303.1170110999956,304.0527405400062,2024-04-12 15:51:50.235737,2024-04-12 15:51:51.162241,FF011.jpg,0,10956,18-29,2024-04-12_15h47.01.873,Recall,2021.2.3,59.96997903726789,
,SD036.jpg,0,MF036.jpg,0,,,,,0,93,93,85,imgFunc,9,NA,2.549414099950809,304.06768710003234,306.71488103998126,2024-04-12 15:51:51.173210,2024-04-12 15:51:53.814692,MF036.jpg,0,10956,18-29,2024-04-12_15h47.01.873,Recall,2021.2.3,59.96997903726789,
,DD019.jpg,0,FF019.jpg,0,,,,,0,94,94,18,imgFunc,9,NA,1.1063979999744333,306.7107489000191,307.91363744001137,2024-04-12 15:51:53.821675,2024-04-12 15:51:55.015794,FF019.jpg,0,10956,18-29,2024-04-12_15h47.01.873,Recall,2021.2.3,59.96997903726789,
,SD010.jpg,0,MF010.jpg,0,,,,,0,95,95,59,imgFunc,1,NA,1.523979599995073,307.9169331000303,309.5528675400419,2024-04-12 15:51:55.022777,2024-04-12 15:51:56.649712,MF010.jpg,0,10956,18-29,2024-04-12_15h47.01.873,Recall,2021.2.3,59.96997903726789,
,SD012.jpg,0,MF012.jpg,0,,,,,0,96,96,61,imgFunc,1,NA,0.7628404999850318,309.56604440003866,310.4362753400346,2024-04-12 15:51:56.664681,2024-04-12 15:51:57.533208,MF012.jpg,0,10956,18-29,2024-04-12_15h47.01.873,Recall,2021.2.3,59.96997903726789,
,DD020.jpg,0,FF020.jpg,0,,,,,0,97,97,19,imgFunc,1,NA,2.416515499993693,310.4243381000124,312.94421793997753,2024-04-12 15:51:57.541186,2024-04-12 15:52:00.052604,FF020.jpg,0,10956,18-29,2024-04-12_15h47.01.873,Recall,2021.2.3,59.96997903726789,
,SD023.jpg,0,MF023.jpg,0,,,,,0,98,98,72,imgFunc,9,NA,4.186679799982812,312.9421988000395,317.2300858400413,2024-04-12 15:52:00.059587,2024-04-12 15:52:04.338130,MF023.jpg,0,10956,18-29,2024-04-12_15h47.01.873,Recall,2021.2.3,59.96997903726789,
,SD034.jpg,0,MF034.jpg,0,,,,,0,99,99,83,imgFunc,9,NA,5.837454600026831,317.2354592999909,323.1733752400032,2024-04-12 15:52:04.346105,2024-04-12 15:52:10.275465,MF034.jpg,0,10956,18-29,2024-04-12_15h47.01.873,Recall,2021.2.3,59.96997903726789,
,,,,,,,,,,,,,instrFunc,space,"Great work! 

 Now you will switch to the other image type.

 Press the spacebar whenever you are ready to start.",2.5390164999989793,323.1019371000002,325.68414623994613,2024-04-12 15:52:10.276461,2024-04-12 15:52:12.843635,,,10956,18-29,2024-04-12_15h47.01.873,Recall,2021.2.3,59.96997903726789,
,DD012.jpg,0,FF012.jpg,0,,,,,0,0,0,11,imgFunc,9,NA,3.3520175999728963,325.76895030000014,329.2304395799292,2024-04-12 15:52:12.872563,2024-04-12 15:52:16.330324,DD012.jpg,0,10956,18-29,2024-04-12_15h47.01.873,Recall,2021.2.3,59.96997903726789,
,DD003.jpg,0,FF003.jpg,0,,,,,0,1,1,2,imgFunc,9,NA,1.0656363000161946,329.2232365999953,330.3912932399544,2024-04-12 15:52:16.338287,2024-04-12 15:52:17.498190,DD003.jpg,0,10956,18-29,2024-04-12_15h47.01.873,Recall,2021.2.3,59.96997903726789,
,SD026.jpg,0,MF026.jpg,0,,,,,0,2,2,75,imgFunc,9,NA,0.8478437999729067,330.38514070003293,331.32065484003397,2024-04-12 15:52:17.505199,2024-04-12 15:52:18.431844,SD026.jpg,0,10956,18-29,2024-04-12_15h47.01.873,Recall,2021.2.3,59.96997903726789,
,DD001.jpg,0,FF001.jpg,0,,,,,0,3,3,0,imgFunc,1,NA,2.039696499996353,331.3211578000337,333.44860124000115,2024-04-12 15:52:18.443789,2024-04-12 15:52:20.566150,DD001.jpg,0,10956,18-29,2024-04-12_15h47.01.873,Recall,2021.2.3,59.96997903726789,
,L_SD502.jpg,1,L_MF502.jpg,1,,,,,0,4,4,91,imgFunc,1,NA,5.848505900008604,333.4568561000051,339.3965997399646,2024-04-12 15:52:20.574131,2024-04-12 15:52:26.504430,L_SD502.jpg,1,10956,18-29,2024-04-12_15h47.01.873,Recall,2021.2.3,59.96997903726789,
,SD011.jpg,0,MF011.jpg,0,,,,,0,5,5,60,imgFunc,1,NA,0.9804402000154369,339.39646459999494,340.4780817399733,2024-04-12 15:52:26.514407,2024-04-12 15:52:27.588903,SD011.jpg,0,10956,18-29,2024-04-12_15h47.01.873,Recall,2021.2.3,59.96997903726789,
,SD002.jpg,0,MF002.jpg,0,,,,,0,6,6,51,imgFunc,1,NA,1.0897690000128932,340.47947610000847,341.6652966400143,2024-04-12 15:52:27.595885,2024-04-12 15:52:28.773052,SD002.jpg,0,10956,18-29,2024-04-12_15h47.01.873,Recall,2021.2.3,59.96997903726789,
,SD006.jpg,0,MF006.jpg,0,,,,,0,7,7,55,imgFunc,9,NA,1.4220845999661833,341.6672226000228,343.1862982400344,2024-04-12 15:52:28.780036,2024-04-12 15:52:30.290512,SD006.jpg,0,10956,18-29,2024-04-12_15h47.01.873,Recall,2021.2.3,59.96997903726789,
,DD023.jpg,0,FF023.jpg,0,,,,,0,8,8,22,imgFunc,9,NA,5.7402151000569575,343.17279750003945,348.99504934006836,2024-04-12 15:52:30.297518,2024-04-12 15:52:36.110852,DD023.jpg,0,10956,18-29,2024-04-12_15h47.01.873,Recall,2021.2.3,59.96997903726789,
,DD018.jpg,0,FF018.jpg,0,,,,,0,9,9,17,imgFunc,2,NA,1.496593700023368,349.00045290001435,350.58202074002475,2024-04-12 15:52:36.120796,2024-04-12 15:52:37.695597,DD018.jpg,0,10956,18-29,2024-04-12_15h47.01.873,Recall,2021.2.3,59.96997903726789,
,SD025.jpg,0,MF025.jpg,0,,,,,0,10,10,74,imgFunc,1,NA,0.7543616999755614,350.5825790000381,351.43413584004156,2024-04-12 15:52:37.703570,2024-04-12 15:52:38.546350,SD025.jpg,0,10956,18-29,2024-04-12_15h47.01.873,Recall,2021.2.3,59.96997903726789,
,DD019.jpg,0,FF019.jpg,0,,,,,0,11,11,18,imgFunc,1,NA,1.7779713000054471,351.438962300017,353.30817834002664,2024-04-12 15:52:38.553305,2024-04-12 15:52:40.414337,DD019.jpg,0,10956,18-29,2024-04-12_15h47.01.873,Recall,2021.2.3,59.96997903726789,
,DD011.jpg,0,FF011.jpg,0,,,,,0,12,12,10,imgFunc,1,NA,0.7444518000120297,353.3123487000121,354.1527964400011,2024-04-12 15:52:40.427302,2024-04-12 15:52:41.265074,DD011.jpg,0,10956,18-29,2024-04-12_15h47.01.873,Recall,2021.2.3,59.96997903726789,
,DD029.jpg,0,FF029.jpg,0,,,,,0,13,13,28,imgFunc,9,NA,1.1834439000231214,354.15341989998706,355.4383798399358,2024-04-12 15:52:41.273048,2024-04-12 15:52:42.548643,DD029.jpg,0,10956,18-29,2024-04-12_15h47.01.873,Recall,2021.2.3,59.96997903726789,
,DD013.jpg,0,FF013.jpg,0,,,,,0,14,14,12,imgFunc,1,NA,1.2513691000058316,355.43748560000677,356.7889631399303,2024-04-12 15:52:42.556621,2024-04-12 15:52:43.900042,DD013.jpg,0,10956,18-29,2024-04-12_15h47.01.873,Recall,2021.2.3,59.96997903726789,
,SD022.jpg,0,MF022.jpg,0,,,,,0,15,15,71,imgFunc,2,NA,1.6986754999961704,356.79038240003865,358.5920226400485,2024-04-12 15:52:43.908015,2024-04-12 15:52:45.701259,SD022.jpg,0,10956,18-29,2024-04-12_15h47.01.873,Recall,2021.2.3,59.96997903726789,
,L_SD508.jpg,1,L_MF508.jpg,1,,,,,0,16,16,97,imgFunc,9,NA,1.3076451999950223,358.58931060001487,359.9913794400054,2024-04-12 15:52:45.709210,2024-04-12 15:52:47.102492,L_SD508.jpg,1,10956,18-29,2024-04-12_15h47.01.873,Recall,2021.2.3,59.96997903726789,
,DD005.jpg,0,FF005.jpg,0,,,,,0,17,17,4,imgFunc,9,NA,1.0269413000205532,360.0060632000095,361.1260984400287,2024-04-12 15:52:47.117451,2024-04-12 15:52:48.235965,DD005.jpg,0,10956,18-29,2024-04-12_15h47.01.873,Recall,2021.2.3,59.96997903726789,
,SD009.jpg,0,MF009.jpg,0,,,,,0,18,18,58,imgFunc,1,NA,1.5013581999810413,361.13162870000815,362.7238313400303,2024-04-12 15:52:48.248929,2024-04-12 15:52:49.837720,SD009.jpg,0,10956,18-29,2024-04-12_15h47.01.873,Recall,2021.2.3,59.96997903726789,
,DD026.jpg,0,FF026.jpg,0,,,,,0,19,19,25,imgFunc,2,NA,1.0681259999983013,362.7248148000217,363.8912381400005,2024-04-12 15:52:49.846688,2024-04-12 15:52:51.004604,DD026.jpg,0,10956,18-29,2024-04-12_15h47.01.873,Recall,2021.2.3,59.96997903726789,
,SD037.jpg,0,MF037.jpg,0,,,,,0,20,20,86,imgFunc,9,NA,2.164386399963405,363.8925709000323,366.14591884001857,2024-04-12 15:52:51.012582,2024-04-12 15:52:53.256480,SD037.jpg,0,10956,18-29,2024-04-12_15h47.01.873,Recall,2021.2.3,59.96997903726789,
,SD021.jpg,0,MF021.jpg,0,,,,,0,21,21,70,imgFunc,9,NA,2.101295400003437,366.14788110001246,368.35121074004564,2024-04-12 15:52:53.264460,2024-04-12 15:52:55.458939,SD021.jpg,0,10956,18-29,2024-04-12_15h47.01.873,Recall,2021.2.3,59.96997903726789,
,SD019.jpg,0,MF019.jpg,0,,,,,0,22,22,68,imgFunc,1,NA,0.960808600008022,368.3603031000239,369.4151961400057,2024-04-12 15:52:55.472903,2024-04-12 15:52:56.526227,SD019.jpg,0,10956,18-29,2024-04-12_15h47.01.873,Recall,2021.2.3,59.96997903726789,
,SD008.jpg,0,MF008.jpg,0,,,,,0,23,23,57,imgFunc,1,NA,1.7005676999688148,369.4125808000099,371.1991478400305,2024-04-12 15:52:56.533210,2024-04-12 15:52:58.311053,SD008.jpg,0,10956,18-29,2024-04-12_15h47.01.873,Recall,2021.2.3,59.96997903726789,
,SD033.jpg,0,MF033.jpg,0,,,,,0,24,24,82,imgFunc,9,NA,1.1460464000119828,371.1991636999883,372.4347928399802,2024-04-12 15:52:58.318036,2024-04-12 15:52:59.544728,SD033.jpg,0,10956,18-29,2024-04-12_15h47.01.873,Recall,2021.2.3,59.96997903726789,
,SD015.jpg,0,MF015.jpg,0,,,,,0,25,25,64,imgFunc,9,NA,2.180931499984581,372.43621680000797,374.72261834004894,2024-04-12 15:52:59.552709,2024-04-12 15:53:01.830040,SD015.jpg,0,10956,18-29,2024-04-12_15h47.01.873,Recall,2021.2.3,59.96997903726789,
,DD027.jpg,0,FF027.jpg,0,,,,,0,26,26,26,imgFunc,9,NA,3.616685300017707,374.728168200003,378.44895363994874,2024-04-12 15:53:01.837023,2024-04-12 15:53:05.548726,DD027.jpg,0,10956,18-29,2024-04-12_15h47.01.873,Recall,2021.2.3,59.96997903726789,
,SD001.jpg,0,MF001.jpg,0,,,,,0,27,27,50,imgFunc,1,NA,1.5758942000102252,378.4329729999881,380.10232913994696,2024-04-12 15:53:05.556733,2024-04-12 15:53:07.216301,SD001.jpg,0,10956,18-29,2024-04-12_15h47.01.873,Recall,2021.2.3,59.96997903726789,
,SD018.jpg,0,MF018.jpg,0,,,,,0,28,28,67,imgFunc,9,NA,3.6177135999896564,380.10324200004106,383.8072944400483,2024-04-12 15:53:07.224282,2024-04-12 15:53:10.919397,SD018.jpg,0,10956,18-29,2024-04-12_15h47.01.873,Recall,2021.2.3,59.96997903726789,
,DD009.jpg,0,FF009.jpg,0,,,,,0,29,29,8,imgFunc,0,NA,2.0621872000047006,383.80274740001187,385.95562074001646,2024-04-12 15:53:10.926376,2024-04-12 15:53:13.070654,DD009.jpg,0,10956,18-29,2024-04-12_15h47.01.873,Recall,2021.2.3,59.96997903726789,
,SD012.jpg,0,MF012.jpg,0,,,,,0,30,30,61,imgFunc,0,NA,1.0277228000340983,385.9651552000432,387.0995744401007,2024-04-12 15:53:13.078632,2024-04-12 15:53:14.204659,SD012.jpg,0,10956,18-29,2024-04-12_15h47.01.873,Recall,2021.2.3,59.96997903726789,
,SD024.jpg,0,MF024.jpg,0,,,,,0,31,31,73,imgFunc,0,NA,1.064770500001032,387.1121455000248,388.2850643400452,2024-04-12 15:53:14.218590,2024-04-12 15:53:15.389495,SD024.jpg,0,10956,18-29,2024-04-12_15h47.01.873,Recall,2021.2.3,59.96997903726789,
,L_DD506.jpg,1,L_FF506.jpg,1,,,,,0,32,32,45,imgFunc,1,NA,2.0710105000180192,388.27390640001977,390.4437598399818,2024-04-12 15:53:15.396480,2024-04-12 15:53:17.557683,L_DD506.jpg,1,10956,18-29,2024-04-12_15h47.01.873,Recall,2021.2.3,59.96997903726789,
,L_DD502.jpg,1,L_FF502.jpg,1,,,,,0,33,33,41,imgFunc,9,NA,1.2219743000459857,390.4428579999949,391.76163963996805,2024-04-12 15:53:17.565661,2024-04-12 15:53:18.875182,L_DD502.jpg,1,10956,18-29,2024-04-12_15h47.01.873,Recall,2021.2.3,59.96997903726789,
,DD025.jpg,0,FF025.jpg,0,,,,,0,34,34,24,imgFunc,9,NA,1.6612219999660738,391.76368700002786,393.51424973999383,2024-04-12 15:53:18.884141,2024-04-12 15:53:20.626492,DD025.jpg,0,10956,18-29,2024-04-12_15h47.01.873,Recall,2021.2.3,59.96997903726789,
,L_DD509.jpg,1,L_FF509.jpg,1,,,,,0,35,35,48,imgFunc,9,NA,1.4542674000258557,393.5225905000116,395.07547604001593,2024-04-12 15:53:20.633473,2024-04-12 15:53:22.177384,L_DD509.jpg,1,10956,18-29,2024-04-12_15h47.01.873,Recall,2021.2.3,59.96997903726789,
,DD020.jpg,0,FF020.jpg,0,,,,,0,36,36,19,imgFunc,0,NA,5.351167700020596,395.08201740001095,400.52358273998834,2024-04-12 15:53:22.192342,2024-04-12 15:53:27.632116,DD020.jpg,0,10956,18-29,2024-04-12_15h47.01.873,Recall,2021.2.3,59.96997903726789,
,DD014.jpg,0,FF014.jpg,0,,,,,0,37,37,13,imgFunc,9,NA,2.356792000005953,400.52449839998735,402.97415463998914,2024-04-12 15:53:27.641119,2024-04-12 15:53:30.083701,DD014.jpg,0,10956,18-29,2024-04-12_15h47.01.873,Recall,2021.2.3,59.96997903726789,
,DD034.jpg,0,FF034.jpg,0,,,,,0,38,38,33,imgFunc,9,NA,0.9692123999702744,402.975648200023,404.0446700400207,2024-04-12 15:53:30.090707,2024-04-12 15:53:31.151474,DD034.jpg,0,10956,18-29,2024-04-12_15h47.01.873,Recall,2021.2.3,59.96997903726789,
,L_DD510.jpg,1,L_FF510.jpg,1,,,,,0,39,39,49,imgFunc,9,NA,1.0873518000007607,404.04968360002385,405.23348013998475,2024-04-12 15:53:31.159453,2024-04-12 15:53:32.335344,L_DD510.jpg,1,10956,18-29,2024-04-12_15h47.01.873,Recall,2021.2.3,59.96997903726789,
,DD037.jpg,0,FF037.jpg,0,,,,,0,40,40,36,imgFunc,1,NA,1.0370185999781825,405.22808580001583,406.36396744003287,2024-04-12 15:53:32.342327,2024-04-12 15:53:33.469492,DD037.jpg,0,10956,18-29,2024-04-12_15h47.01.873,Recall,2021.2.3,59.96997903726789,
,DD004.jpg,0,FF004.jpg,0,,,,,0,41,41,3,imgFunc,1,NA,0.6907545000431128,406.3661929999944,407.1527333400445,2024-04-12 15:53:33.484454,2024-04-12 15:53:34.269427,DD004.jpg,0,10956,18-29,2024-04-12_15h47.01.873,Recall,2021.2.3,59.96997903726789,
,L_SD509.jpg,1,L_MF509.jpg,1,,,,,0,42,42,98,imgFunc,1,NA,1.1295573000097647,407.15926139999647,408.3783258399926,2024-04-12 15:53:34.276408,2024-04-12 15:53:35.487181,L_SD509.jpg,1,10956,18-29,2024-04-12_15h47.01.873,Recall,2021.2.3,59.96997903726789,
,SD003.jpg,0,MF003.jpg,0,,,,,0,43,43,52,imgFunc,0,NA,0.8673333000042476,408.3735829000361,409.32509643997764,2024-04-12 15:53:35.495181,2024-04-12 15:53:36.437644,SD003.jpg,0,10956,18-29,2024-04-12_15h47.01.873,Recall,2021.2.3,59.96997903726789,
,L_SD506.jpg,1,L_MF506.jpg,1,,,,,0,44,44,95,imgFunc,1,NA,1.6744006000226364,409.32645950000733,411.09588614001404,2024-04-12 15:53:36.444625,2024-04-12 15:53:38.205924,L_SD506.jpg,1,10956,18-29,2024-04-12_15h47.01.873,Recall,2021.2.3,59.96997903726789,
,DD006.jpg,0,FF006.jpg,0,,,,,0,45,45,5,imgFunc,0,NA,0.9826490000123158,411.10627400001977,412.1900440399768,2024-04-12 15:53:38.213902,2024-04-12 15:53:39.289753,DD006.jpg,0,10956,18-29,2024-04-12_15h47.01.873,Recall,2021.2.3,59.96997903726789,
,DD030.jpg,0,FF030.jpg,0,,,,,0,46,46,29,imgFunc,9,NA,2.524667399993632,412.17221869999776,414.79263043997344,2024-04-12 15:53:39.296764,2024-04-12 15:53:41.907793,DD030.jpg,0,10956,18-29,2024-04-12_15h47.01.873,Recall,2021.2.3,59.96997903726789,
,DD033.jpg,0,FF033.jpg,0,,,,,0,47,47,32,imgFunc,9,NA,1.451476999965962,414.7893567000283,416.32452824001666,2024-04-12 15:53:41.915775,2024-04-12 15:53:43.442672,DD033.jpg,0,10956,18-29,2024-04-12_15h47.01.873,Recall,2021.2.3,59.96997903726789,
,DD017.jpg,0,FF017.jpg,0,,,,,0,48,48,16,imgFunc,9,NA,1.3716163999633864,416.32529260002775,417.7769137400901,2024-04-12 15:53:43.450650,2024-04-12 15:53:44.893262,DD017.jpg,0,10956,18-29,2024-04-12_15h47.01.873,Recall,2021.2.3,59.96997903726789,
,L_SD507.jpg,1,L_MF507.jpg,1,,,,,0,49,49,96,imgFunc,9,NA,0.888052600028459,417.7769246000098,418.76231313997414,2024-04-12 15:53:44.901239,2024-04-12 15:53:45.877634,L_SD507.jpg,1,10956,18-29,2024-04-12_15h47.01.873,Recall,2021.2.3,59.96997903726789,
,DD040.jpg,0,FF040.jpg,0,,,,,0,50,50,39,imgFunc,1,NA,1.0031038000015542,418.7738108999911,419.8639821399702,2024-04-12 15:53:45.891596,2024-04-12 15:53:46.978698,DD040.jpg,0,10956,18-29,2024-04-12_15h47.01.873,Recall,2021.2.3,59.96997903726789,
,SD030.jpg,0,MF030.jpg,0,,,,,0,51,51,79,imgFunc,1,NA,0.9451814999920316,419.8636562000029,420.8991377399652,2024-04-12 15:53:46.985677,2024-04-12 15:53:48.012938,SD030.jpg,0,10956,18-29,2024-04-12_15h47.01.873,Recall,2021.2.3,59.96997903726789,
,SD031.jpg,0,MF031.jpg,0,,,,,0,52,52,80,imgFunc,9,NA,1.1001060999697074,420.8927238000324,422.0785244400613,2024-04-12 15:53:48.019946,2024-04-12 15:53:49.196528,SD031.jpg,0,10956,18-29,2024-04-12_15h47.01.873,Recall,2021.2.3,59.96997903726789,
,DD032.jpg,0,FF032.jpg,0,,,,,0,53,53,31,imgFunc,9,NA,1.0464994999929331,422.0823309000116,423.2165182399913,2024-04-12 15:53:49.204498,2024-04-12 15:53:50.330472,DD032.jpg,0,10956,18-29,2024-04-12_15h47.01.873,Recall,2021.2.3,59.96997903726789,
,SD032.jpg,0,MF032.jpg,0,,,,,0,54,54,81,imgFunc,0,NA,4.3625095000024885,423.2146817999892,427.6700199400075,2024-04-12 15:53:50.338448,2024-04-12 15:53:54.784601,SD032.jpg,0,10956,18-29,2024-04-12_15h47.01.873,Recall,2021.2.3,59.96997903726789,
,SD023.jpg,0,MF023.jpg,0,,,,,0,55,55,72,imgFunc,9,NA,1.6872892000246793,427.6819790000445,429.45145743998,2024-04-12 15:53:54.799563,2024-04-12 15:53:56.568850,SD023.jpg,0,10956,18-29,2024-04-12_15h47.01.873,Recall,2021.2.3,59.96997903726789,
,DD024.jpg,0,FF024.jpg,0,,,,,0,56,56,23,imgFunc,1,NA,0.9090072000399232,429.45183820003876,430.45349974004785,2024-04-12 15:53:56.576828,2024-04-12 15:53:57.569579,DD024.jpg,0,10956,18-29,2024-04-12_15h47.01.873,Recall,2021.2.3,59.96997903726789,
,L_DD503.jpg,1,L_FF503.jpg,1,,,,,0,57,57,42,imgFunc,0,NA,0.8281203000224195,430.45270270004403,431.3708782400936,2024-04-12 15:53:57.577586,2024-04-12 15:53:58.486488,L_DD503.jpg,1,10956,18-29,2024-04-12_15h47.01.873,Recall,2021.2.3,59.96997903726789,
,SD007.jpg,0,MF007.jpg,0,,,,,0,58,58,56,imgFunc,9,NA,2.1441524000256322,431.3690362999914,433.6047629400273,2024-04-12 15:53:58.494468,2024-04-12 15:54:00.722292,SD007.jpg,0,10956,18-29,2024-04-12_15h47.01.873,Recall,2021.2.3,59.96997903726789,
,SD038.jpg,0,MF038.jpg,0,,,,,0,59,59,87,imgFunc,0,NA,1.1133766999701038,433.60778060002485,434.810553640069,2024-04-12 15:54:00.729275,2024-04-12 15:54:01.923023,SD038.jpg,0,10956,18-29,2024-04-12_15h47.01.873,Recall,2021.2.3,59.96997903726789,
,DD021.jpg,0,FF021.jpg,0,,,,,0,60,60,20,imgFunc,9,NA,0.941459699999541,434.82740170002216,435.86477084003855,2024-04-12 15:54:01.937985,2024-04-12 15:54:02.973631,DD021.jpg,0,10956,18-29,2024-04-12_15h47.01.873,Recall,2021.2.3,59.96997903726789,
,L_SD505.jpg,1,L_MF505.jpg,1,,,,,0,61,61,94,imgFunc,1,NA,0.8638679000432603,435.86499160004314,436.83374223997816,2024-04-12 15:54:02.980612,2024-04-12 15:54:03.941100,L_SD505.jpg,1,10956,18-29,2024-04-12_15h47.01.873,Recall,2021.2.3,59.96997903726789,
,L_DD505.jpg,1,L_FF505.jpg,1,,,,,0,62,62,44,imgFunc,9,NA,0.8640102999634109,436.8248415000271,437.7757957400172,2024-04-12 15:54:03.949079,2024-04-12 15:54:04.891593,L_DD505.jpg,1,10956,18-29,2024-04-12_15h47.01.873,Recall,2021.2.3,59.96997903726789,
,L_DD508.jpg,1,L_FF508.jpg,1,,,,,0,63,63,47,imgFunc,9,NA,1.170312800037209,437.7745971000404,439.0271745400387,2024-04-12 15:54:04.898578,2024-04-12 15:54:06.142252,L_DD508.jpg,1,10956,18-29,2024-04-12_15h47.01.873,Recall,2021.2.3,59.96997903726789,
,SD013.jpg,0,MF013.jpg,0,,,,,0,64,64,62,imgFunc,0,NA,1.8317876000073738,439.0250878999941,440.94433714001207,2024-04-12 15:54:06.150233,2024-04-12 15:54:08.060136,SD013.jpg,0,10956,18-29,2024-04-12_15h47.01.873,Recall,2021.2.3,59.96997903726789,
,DD010.jpg,0,FF010.jpg,0,,,,,0,65,65,9,imgFunc,9,NA,1.1757479999796487,440.94507800001884,442.2130579400109,2024-04-12 15:54:08.068110,2024-04-12 15:54:09.327811,DD010.jpg,0,10956,18-29,2024-04-12_15h47.01.873,Recall,2021.2.3,59.96997903726789,
,L_SD510.jpg,1,L_MF510.jpg,1,,,,,0,66,66,99,imgFunc,9,NA,0.8950576999923214,442.20973870001035,443.1949204400298,2024-04-12 15:54:09.335789,2024-04-12 15:54:10.312186,L_SD510.jpg,1,10956,18-29,2024-04-12_15h47.01.873,Recall,2021.2.3,59.96997903726789,
,SD029.jpg,0,MF029.jpg,0,,,,,0,67,67,78,imgFunc,1,NA,1.2481841000262648,443.19263170001796,444.52816784003517,2024-04-12 15:54:10.319167,2024-04-12 15:54:11.645630,SD029.jpg,0,10956,18-29,2024-04-12_15h47.01.873,Recall,2021.2.3,59.96997903726789,
,SD005.jpg,0,MF005.jpg,0,,,,,0,68,68,54,imgFunc,9,NA,1.3207717000041157,444.52826700004516,445.9311389399809,2024-04-12 15:54:11.653606,2024-04-12 15:54:13.046891,SD005.jpg,0,10956,18-29,2024-04-12_15h47.01.873,Recall,2021.2.3,59.96997903726789,
,DD002.jpg,0,FF002.jpg,0,,,,,0,69,69,1,imgFunc,1,NA,0.9681719000218436,445.9447935000062,447.00128694000887,2024-04-12 15:54:13.060851,2024-04-12 15:54:14.114073,DD002.jpg,0,10956,18-29,2024-04-12_15h47.01.873,Recall,2021.2.3,59.96997903726789,
,DD022.jpg,0,FF022.jpg,0,,,,,0,70,70,21,imgFunc,1,NA,1.2743695999961346,446.9985616999911,448.36663934000535,2024-04-12 15:54:14.122018,2024-04-12 15:54:15.482391,DD022.jpg,0,10956,18-29,2024-04-12_15h47.01.873,Recall,2021.2.3,59.96997903726789,
,L_SD503.jpg,1,L_MF503.jpg,1,,,,,0,71,71,92,imgFunc,9,NA,0.8432409000233747,448.36558919999516,449.3002795400098,2024-04-12 15:54:15.490370,2024-04-12 15:54:16.415923,L_SD503.jpg,1,10956,18-29,2024-04-12_15h47.01.873,Recall,2021.2.3,59.96997903726789,
,DD035.jpg,0,FF035.jpg,0,,,,,0,72,72,34,imgFunc,1,NA,0.803896400029771,449.3009200000088,450.2027576400433,2024-04-12 15:54:16.423904,2024-04-12 15:54:17.317493,DD035.jpg,0,10956,18-29,2024-04-12_15h47.01.873,Recall,2021.2.3,59.96997903726789,
,SD034.jpg,0,MF034.jpg,0,,,,,0,73,73,83,imgFunc,9,NA,0.9341766000143252,450.20271610002965,451.22002224001335,2024-04-12 15:54:17.325472,2024-04-12 15:54:18.333870,SD034.jpg,0,10956,18-29,2024-04-12_15h47.01.873,Recall,2021.2.3,59.96997903726789,
,DD039.jpg,0,FF039.jpg,0,,,,,0,74,74,38,imgFunc,1,NA,0.9284897000179626,451.23233170004096,452.2529002400115,2024-04-12 15:54:18.348801,2024-04-12 15:54:19.368081,DD039.jpg,0,10956,18-29,2024-04-12_15h47.01.873,Recall,2021.2.3,59.96997903726789,
,L_SD504.jpg,1,L_MF504.jpg,1,,,,,0,75,75,93,imgFunc,2,NA,1.426947400032077,452.2538765000063,453.7716118399985,2024-04-12 15:54:19.376060,2024-04-12 15:54:20.886077,L_SD504.jpg,1,10956,18-29,2024-04-12_15h47.01.873,Recall,2021.2.3,59.96997903726789,
,DD031.jpg,0,FF031.jpg,0,,,,,0,76,76,30,imgFunc,1,NA,1.3069897000095807,453.77416490000905,455.1770463400171,2024-04-12 15:54:20.894038,2024-04-12 15:54:22.287714,DD031.jpg,0,10956,18-29,2024-04-12_15h47.01.873,Recall,2021.2.3,59.96997903726789,
,SD004.jpg,0,MF004.jpg,0,,,,,0,77,77,53,imgFunc,9,NA,0.8559608000214212,455.1689163999981,456.10477153997635,2024-04-12 15:54:22.294697,2024-04-12 15:54:23.221048,SD004.jpg,0,10956,18-29,2024-04-12_15h47.01.873,Recall,2021.2.3,59.96997903726789,
,SD020.jpg,0,MF020.jpg,0,,,,,0,78,78,69,imgFunc,0,NA,0.9205496999784373,456.12056380003924,457.13721994002117,2024-04-12 15:54:23.229992,2024-04-12 15:54:24.238907,SD020.jpg,0,10956,18-29,2024-04-12_15h47.01.873,Recall,2021.2.3,59.96997903726789,
,L_DD504.jpg,1,L_FF504.jpg,1,,,,,0,79,79,43,imgFunc,9,NA,1.116746899962891,457.14030790003017,458.3446042400319,2024-04-12 15:54:24.253893,2024-04-12 15:54:25.456701,L_DD504.jpg,1,10956,18-29,2024-04-12_15h47.01.873,Recall,2021.2.3,59.96997903726789,
,L_SD501.jpg,1,L_MF501.jpg,1,,,,,0,80,80,90,imgFunc,1,NA,1.0742837999714538,458.3426828000229,459.51091364002787,2024-04-12 15:54:25.464585,2024-04-12 15:54:26.623510,L_SD501.jpg,1,10956,18-29,2024-04-12_15h47.01.873,Recall,2021.2.3,59.96997903726789,
,SD017.jpg,0,MF017.jpg,0,,,,,0,81,81,66,imgFunc,9,NA,0.8880834999727085,459.5128310000291,460.49815594009124,2024-04-12 15:54:26.631467,2024-04-12 15:54:27.607547,SD017.jpg,0,10956,18-29,2024-04-12_15h47.01.873,Recall,2021.2.3,59.96997903726789,
,SD014.jpg,0,MF014.jpg,0,,,,,0,82,82,63,imgFunc,1,NA,0.7469006999745034,460.49415780004347,461.3289881400415,2024-04-12 15:54:27.615491,2024-04-12 15:54:28.441901,SD014.jpg,0,10956,18-29,2024-04-12_15h47.01.873,Recall,2021.2.3,59.96997903726789,
,L_DD501.jpg,1,L_FF501.jpg,1,,,,,0,83,83,40,imgFunc,9,NA,0.7889969000243582,461.33997920004185,462.22568504005903,2024-04-12 15:54:28.448884,2024-04-12 15:54:29.325378,L_DD501.jpg,1,10956,18-29,2024-04-12_15h47.01.873,Recall,2021.2.3,59.96997903726789,
,DD038.jpg,0,FF038.jpg,0,,,,,0,84,84,37,imgFunc,1,NA,0.8537148000323214,462.2111125999945,463.16303103999235,2024-04-12 15:54:29.333392,2024-04-12 15:54:30.275796,DD038.jpg,0,10956,18-29,2024-04-12_15h47.01.873,Recall,2021.2.3,59.96997903726789,
,DD028.jpg,0,FF028.jpg,0,,,,,0,85,85,27,imgFunc,9,NA,1.4855318000190891,463.1634739000001,464.74907854001503,2024-04-12 15:54:30.283750,2024-04-12 15:54:31.861100,DD028.jpg,0,10956,18-29,2024-04-12_15h47.01.873,Recall,2021.2.3,59.96997903726789,
,L_DD507.jpg,1,L_FF507.jpg,1,,,,,0,86,86,46,imgFunc,1,NA,1.2052355000050738,464.7476016000146,466.0498722399934,2024-04-12 15:54:31.868083,2024-04-12 15:54:33.161829,L_DD507.jpg,1,10956,18-29,2024-04-12_15h47.01.873,Recall,2021.2.3,59.96997903726789,
,SD036.jpg,0,MF036.jpg,0,,,,,0,87,87,85,imgFunc,0,NA,1.286136400012765,466.05067269998835,467.43653653998626,2024-04-12 15:54:33.168842,2024-04-12 15:54:34.545854,SD036.jpg,0,10956,18-29,2024-04-12_15h47.01.873,Recall,2021.2.3,59.96997903726789,
,DD008.jpg,0,FF008.jpg,0,,,,,0,88,88,7,imgFunc,1,NA,0.9865233000018634,467.45430050004506,468.5444807400345,2024-04-12 15:54:34.559785,2024-04-12 15:54:35.646884,DD008.jpg,0,10956,18-29,2024-04-12_15h47.01.873,Recall,2021.2.3,59.96997903726789,
,DD036.jpg,0,FF036.jpg,0,,,,,0,89,89,35,imgFunc,9,NA,1.1488720999914221,468.5324028999894,469.76858624001034,2024-04-12 15:54:35.653865,2024-04-12 15:54:36.881589,DD036.jpg,0,10956,18-29,2024-04-12_15h47.01.873,Recall,2021.2.3,59.96997903726789,
,SD039.jpg,0,MF039.jpg,0,,,,,0,90,90,88,imgFunc,2,NA,1.5370869999751449,469.7756211000378,471.4100157400826,2024-04-12 15:54:36.889568,2024-04-12 15:54:38.515246,SD039.jpg,0,10956,18-29,2024-04-12_15h47.01.873,Recall,2021.2.3,59.96997903726789,
,SD027.jpg,0,MF027.jpg,0,,,,,0,91,91,76,imgFunc,9,NA,0.9392760999617167,471.4055090000038,472.4395237400313,2024-04-12 15:54:38.523209,2024-04-12 15:54:39.549679,SD027.jpg,0,10956,18-29,2024-04-12_15h47.01.873,Recall,2021.2.3,59.96997903726789,
,DD015.jpg,0,FF015.jpg,0,,,,,0,92,92,14,imgFunc,2,NA,1.0239738999516703,472.43290360004175,473.5519115400384,2024-04-12 15:54:39.556660,2024-04-12 15:54:40.666670,DD015.jpg,0,10956,18-29,2024-04-12_15h47.01.873,Recall,2021.2.3,59.96997903726789,
,SD016.jpg,0,MF016.jpg,0,,,,,0,93,93,65,imgFunc,9,NA,0.7136539000202902,473.5671640000073,474.3699069399736,2024-04-12 15:54:40.682627,2024-04-12 15:54:41.483491,SD016.jpg,0,10956,18-29,2024-04-12_15h47.01.873,Recall,2021.2.3,59.96997903726789,
,SD035.jpg,0,MF035.jpg,0,,,,,0,94,94,84,imgFunc,0,NA,2.7469529999652877,474.3658745000139,477.2025327400188,2024-04-12 15:54:41.491468,2024-04-12 15:54:44.319467,SD035.jpg,0,10956,18-29,2024-04-12_15h47.01.873,Recall,2021.2.3,59.96997903726789,
,SD028.jpg,0,MF028.jpg,0,,,,,0,95,95,77,imgFunc,9,NA,1.0045033000060357,477.2043894000235,478.30657703999896,2024-04-12 15:54:44.326446,2024-04-12 15:54:45.420526,SD028.jpg,0,10956,18-29,2024-04-12_15h47.01.873,Recall,2021.2.3,59.96997903726789,
,DD016.jpg,0,FF016.jpg,0,,,,,0,96,96,15,imgFunc,0,NA,1.096804900036659,478.3201590999961,479.5217625400401,2024-04-12 15:54:45.427528,2024-04-12 15:54:46.621337,DD016.jpg,0,10956,18-29,2024-04-12_15h47.01.873,Recall,2021.2.3,59.96997903726789,
,SD010.jpg,0,MF010.jpg,0,,,,,0,97,97,59,imgFunc,1,NA,0.821367199998349,479.5154472000431,480.43202804005705,2024-04-12 15:54:46.629301,2024-04-12 15:54:47.537878,SD010.jpg,0,10956,18-29,2024-04-12_15h47.01.873,Recall,2021.2.3,59.96997903726789,
,DD007.jpg,0,FF007.jpg,0,,,,,0,98,98,6,imgFunc,1,NA,0.7243825000477955,480.4364285999909,481.2559165400453,2024-04-12 15:54:47.553834,2024-04-12 15:54:48.372688,DD007.jpg,0,10956,18-29,2024-04-12_15h47.01.873,Recall,2021.2.3,59.96997903726789,
,SD040.jpg,0,MF040.jpg,0,,,,,0,99,99,89,imgFunc,9,NA,0.9490279000019655,481.25985860003857,482.29574114002753,2024-04-12 15:54:48.379658,2024-04-12 15:54:49.407202,SD040.jpg,0,10956,18-29,2024-04-12_15h47.01.873,Recall,2021.2.3,59.96997903726789,
