TrialNumber,Trial,cLeft,cRight,Partner,Reciprocate,ISI,ITI,ran,order,onset,bpress,resp,resp_onset,highlow,rt,ISIpad,ISI_onset,ISI_offset,outcome_onset,outcome_offset,duration,ITI_onset,ITI_offset
1,1,4,0,2,1,2,8.075000e-01,1.0,0.0,4.1197023,1.0,4,5.760009,high,1.6403065,1.3596935,6.2797074,10.870437,10.87084,12.873776,8.754074,12.874169,13.677303
2,2,4,2,1,1,3.500000e+00,2.422500e+00,1.0,1.0,13.681798,2.0,2,15.193738,low,1.51194,1.48806,15.71395,21.931814,21.93387,23.936758,10.25496,23.937098,26.354856
3,3,8,2,2,0,2,2.422500e+00,1.0,2.0,26.475088,2.0,2,28.027025,low,1.5519364,1.4480636,28.547276,33.225376,33.227264,35.228893,8.753803,35.229237,37.648666
4,4,0,2,2,0,2,2.422500e+00,1.0,3.0,37.768528,2.0,2,39.36022,high,1.5916961,1.4083039,39.881058,44.519234,44.5196,46.522465,8.753939,46.522816,48.940754
5,5,8,2,3,0,2,8.075000e-01,1.0,4.0,48.95914,1.0,8,50.54336,high,1.5842178,1.4157822,51.06595,55.70938,55.711266,57.712845,8.753702,57.713184,58.516804
6,6,8,2,3,0,5.000000e-01,4.037500e+00,1.0,5.0,58.52705,1.0,8,60.61033,high,2.0832798,0.9167202,61.13012,63.777325,63.77773,65.7799,7.2528467,65.780235,69.81473
7,7,8,2,3,1,5.000000e-01,2.422500e+00,1.0,6.0,69.82475,2.0,2,71.89382,low,2.0690682,0.9309317,72.412796,75.07589,75.07786,77.08096,7.2562165,77.0813,79.49749
8,8,2,8,2,1,5.000000e-01,7.267500e+00,1.0,7.0,79.61296,1.0,2,81.79349,low,2.1805246,0.8194755,82.31486,84.86284,84.864845,86.867516,7.254551,86.867874,94.130714
9,9,2,4,1,0,2,5.652500e+00,1.0,8.0,94.13511,2.0,4,95.81057,high,1.6754675,1.3245325,96.32991,100.88574,100.88779,102.89119,8.756084,102.89155,108.5382
10,10,4,2,3,1,2,8.075000e-01,1.0,9.0,108.55269,1.0,4,110.04349,high,1.4908001,1.5091999,110.56417,115.30271,115.305,117.30769,8.755004,117.30803,118.11021
11,11,8,0,3,0,5.000000e-01,2.422500e+00,1.0,10.0,118.12336,1.0,8,119.593704,high,1.4703395,1.5296605,120.112495,123.374176,123.37608,125.37949,7.256134,125.379845,127.796814
12,12,4,2,2,0,5.000000e-01,2.422500e+00,1.0,11.0,127.91784,2.0,2,129.79362,low,1.8757807,1.1242193,130.31322,133.16776,133.16959,135.17235,7.2545004,135.17299,137.59084
13,13,0,2,1,0,3.500000e+00,8.075000e-01,1.0,12.0,137.59805,1.0,0,139.20985,low,1.611801,1.388199,139.7304,145.84837,145.84848,147.8507,10.252646,147.85106,148.65524
14,14,2,0,3,0,3.500000e+00,8.882500e+00,1.0,13.0,148.6697,1.0,2,150.29361,high,1.6239144,1.3760856,150.81256,156.9207,156.92259,158.92603,10.2563305,158.92636,167.80269
15,15,4,8,3,0,5.000000e-01,8.075000e-01,1.0,14.0,167.81575,2.0,8,169.2935,high,1.4777516,1.5222484,169.8123,173.0667,173.06706,175.06973,7.253981,175.07008,175.87384
16,16,4,2,2,1,5.000000e-01,2.422500e+00,1.0,15.0,175.99237,1.0,4,177.36009,high,1.3677278,1.6322722,177.87914,181.24261,181.24458,183.24727,7.2549076,183.24763,185.66473
17,17,2,8,1,1,5.000000e-01,8.075000e-01,1.0,16.0,185.67297,2.0,8,186.8934,high,1.2204263,1.7795737,187.41243,190.92366,190.92569,192.92816,7.2551785,192.9285,193.73064
18,18,0,2,3,1,5.000000e-01,2.422500e+00,1.0,17.0,193.74458,2.0,2,195.32683,high,1.5822401,1.4177599,195.84663,198.995,198.997,200.99939,7.254798,200.99974,203.41779
19,19,4,0,1,0,2,8.075000e-01,1.0,18.0,203.4237,1.0,4,205.19409,high,1.7703863,1.2296137,205.7133,210.1751,210.17715,212.17969,8.75597,212.18002,212.98172
20,20,0,8,1,0,5.000000e-01,8.075000e-01,1.0,19.0,212.98642,1.0,0,214.9267,low,1.9402707,1.0597293,215.44608,218.23778,218.23788,220.23953,7.253109,220.2399,221.04407
21,21,0,2,1,1,2,8.075000e-01,1.0,20.0,221.04747,2.0,2,222.84315,high,1.795681,1.204319,223.36325,227.79741,227.79947,229.802,8.754523,229.80235,230.60577
22,22,8,4,2,1,5.000000e-01,8.075000e-01,1.0,21.0,230.72534,1.0,8,232.14337,high,1.4180411,1.5819589,232.66202,235.976,235.97797,237.98051,7.2551847,237.98087,238.78369
23,23,0,4,2,0,5.000000e-01,8.075000e-01,1.0,22.0,238.90164,2.0,4,240.76001,high,1.8583692,1.1416308,241.27954,244.15213,244.15402,246.15564,7.2539973,246.15598,246.95915
24,24,4,2,3,0,2,8.075000e-01,1.0,23.0,246.97887,1.0,4,248.15977,high,1.1809075,1.8190925,248.67888,253.72865,253.73053,255.73318,8.754319,255.73354,256.53665
25,25,2,8,2,1,2,5.652500e+00,1.0,24.0,256.65518,2.0,8,258.02655,high,1.3713671,1.6286329,258.54706,263.4048,263.40674,265.4103,8.755131,265.41068,271.05774
26,26,4,8,2,0,5.000000e-01,4.037500e+00,1.0,25.0,271.18274,1.0,4,273.72607,low,2.543339,0.4566611,274.246,276.43274,276.43463,278.4363,7.253582,278.43668,282.4706
27,27,2,8,2,0,2,2.422500e+00,1.0,26.0,282.58945,2.0,8,284.52582,high,1.9363785,1.0636215,285.04703,289.3397,289.34006,291.3427,8.7532625,291.34305,293.76276
28,28,4,8,3,1,5.000000e-01,8.075000e-01,1.0,27.0,293.77512,1.0,4,295.37662,low,1.6015059,1.3984941,295.89636,299.0256,299.03027,301.0325,7.257413,301.03284,301.8337
29,29,2,8,1,0,3.500000e+00,4.037500e+00,1.0,28.0,301.83813,1.0,2,303.84238,low,2.0042543,0.9957456,304.36295,310.089,310.0912,312.09357,10.255447,312.0939,316.12598
30,30,8,2,3,1,2,2.422500e+00,1.0,29.0,316.14066,2.0,2,318.12585,low,1.9852077,1.0147923,318.64667,322.89127,322.8936,324.89575,8.755087,324.8961,327.31363
31,31,0,2,2,1,5.000000e-01,8.075000e-01,1.0,30.0,327.43057,2.0,2,329.0261,high,1.5955439,1.4044561,329.54688,332.6805,332.68246,334.68408,7.253508,334.68442,335.48776
32,32,4,0,3,1,5.000000e-01,8.075000e-01,1.0,31.0,335.5015,1.0,4,336.9426,high,1.4411052,1.5588948,337.46298,340.7517,340.7564,342.75833,7.256839,342.75867,343.55872
33,33,4,0,3,0,5.000000e-01,8.075000e-01,1.0,32.0,343.5692,1.0,4,345.07654,high,1.5073161,1.4926839,345.596,348.8196,348.8215,350.82425,7.255026,350.82462,351.62735
34,34,8,0,2,1,5.000000e-01,8.075000e-01,1.0,33.0,351.74347,1.0,8,353.4925,high,1.7490327,1.2509673,354.01288,356.99326,356.9952,358.99756,7.2540975,358.9979,359.8018
35,35,0,8,2,0,5.000000e-01,8.075000e-01,1.0,34.0,359.9244,1.0,0,362.0763,low,2.15188,0.84812,362.59695,365.17468,365.1748,367.17667,7.2522335,367.177,367.98218
36,36,8,2,1,1,5.000000e-01,8.075000e-01,1.0,35.0,367.98798,1.0,8,370.72604,high,2.7380774,0.2619225,371.24588,373.23868,373.2407,375.24332,7.255343,375.24365,376.04602
37,37,4,8,1,1,5.000000e-01,8.075000e-01,1.0,36.0,376.05072,1.0,4,377.20917,low,1.1584594,1.8415406,377.7288,381.3016,381.30215,383.30518,7.2544813,383.30554,384.10776
38,38,2,8,1,0,2,2.422500e+00,1.0,37.0,384.1111,1.0,2,385.3095,low,1.1983792,1.8016208,385.828,390.86176,390.8638,392.86636,8.755226,392.8667,395.28464
39,39,8,0,3,1,5.000000e-01,4.037500e+00,1.0,38.0,395.29837,1.0,8,396.62646,high,1.3280808,1.6719192,397.1459,400.54773,400.54974,402.55255,7.254179,402.55292,406.587
40,40,8,0,1,1,2,4.037500e+00,1.0,39.0,406.59006,1.0,8,407.92566,high,1.3356065,1.6643935,408.44626,413.34094,413.34302,415.34604,8.756,415.3464,419.37766
41,41,4,0,1,1,2,8.075000e-01,1.0,40.0,419.38092,1.0,4,420.72614,high,1.3452314,1.6547686,421.24606,426.1316,426.13196,428.13458,8.753661,428.1349,428.9387
42,42,8,4,1,0,5.000000e-01,7.267500e+00,1.0,41.0,428.94327,2.0,4,431.8927,low,2.9494233,0.0505767,432.41217,434.19342,434.19543,436.19794,7.2546544,436.19827,443.46057
