onset	duration	trial_type	response_time	Endowment	Endowment_pmod	Decision	Decision_pmod	Offer_pmod
4.509578	2	cue_nonsocial	n/a	32	6	n/a	n/a	n/a
4.509578	2	cue_nonsocial_high	n/a	32	9	n/a	n/a	n/a
11.343352	2	cue_nonsocial	n/a	32	6	n/a	n/a	n/a
11.343352	2	cue_nonsocial_high	n/a	32	9	n/a	n/a	n/a
18.993080	2	cue_nonsocial	n/a	16	-10	n/a	n/a	n/a
18.993080	2	cue_nonsocial_low	n/a	16	-7	n/a	n/a	n/a
25.864681	2	cue_social	n/a	16	-7	n/a	n/a	n/a
25.864681	2	cue_social_low	n/a	16	-10	n/a	n/a	n/a
32.703476	2	cue_social	n/a	16	-7	n/a	n/a	n/a
32.703476	2	cue_social_low	n/a	16	-10	n/a	n/a	n/a
41.926334	2	cue_nonsocial	n/a	32	6	n/a	n/a	n/a
41.926334	2	cue_nonsocial_high	n/a	32	9	n/a	n/a	n/a
49.576366	2	cue_nonsocial	n/a	32	6	n/a	n/a	n/a
49.576366	2	cue_nonsocial_high	n/a	32	9	n/a	n/a	n/a
56.409763	2	cue_nonsocial	n/a	16	-10	n/a	n/a	n/a
56.409763	2	cue_nonsocial_low	n/a	16	-7	n/a	n/a	n/a
65.710260	2	cue_social	n/a	16	-7	n/a	n/a	n/a
65.710260	2	cue_social_low	n/a	16	-10	n/a	n/a	n/a
73.332040	2	cue_social	n/a	32	9	n/a	n/a	n/a
73.332040	2	cue_social_high	n/a	32	6	n/a	n/a	n/a
82.665640	2	cue_social	n/a	16	-7	n/a	n/a	n/a
82.665640	2	cue_social_low	n/a	16	-10	n/a	n/a	n/a
89.392900	2	cue_nonsocial	n/a	32	6	n/a	n/a	n/a
89.392900	2	cue_nonsocial_high	n/a	32	9	n/a	n/a	n/a
96.226070	2	cue_nonsocial	n/a	32	6	n/a	n/a	n/a
96.226070	2	cue_nonsocial_high	n/a	32	9	n/a	n/a	n/a
105.476100	2	cue_nonsocial	n/a	32	6	n/a	n/a	n/a
105.476100	2	cue_nonsocial_high	n/a	32	9	n/a	n/a	n/a
112.309300	2	cue_nonsocial	n/a	32	6	n/a	n/a	n/a
112.309300	2	cue_nonsocial_high	n/a	32	9	n/a	n/a	n/a
121.590515	2	cue_social	n/a	16	-7	n/a	n/a	n/a
121.590515	2	cue_social_low	n/a	16	-10	n/a	n/a	n/a
128.392530	2	cue_nonsocial	n/a	16	-10	n/a	n/a	n/a
128.392530	2	cue_nonsocial_low	n/a	16	-7	n/a	n/a	n/a
139.294080	2	cue_social	n/a	16	-7	n/a	n/a	n/a
139.294080	2	cue_social_low	n/a	16	-10	n/a	n/a	n/a
146.116090	2	cue_social	n/a	32	9	n/a	n/a	n/a
146.116090	2	cue_social_high	n/a	32	6	n/a	n/a	n/a
152.925740	2	cue_nonsocial	n/a	32	6	n/a	n/a	n/a
152.925740	2	cue_nonsocial_high	n/a	32	9	n/a	n/a	n/a
160.600430	2	cue_social	n/a	16	-7	n/a	n/a	n/a
160.600430	2	cue_social_low	n/a	16	-10	n/a	n/a	n/a
168.225850	2	cue_nonsocial	n/a	16	-10	n/a	n/a	n/a
168.225850	2	cue_nonsocial_low	n/a	16	-7	n/a	n/a	n/a
175.144790	2	cue_social	n/a	32	9	n/a	n/a	n/a
175.144790	2	cue_social_high	n/a	32	6	n/a	n/a	n/a
181.913540	2	cue_social	n/a	32	9	n/a	n/a	n/a
181.913540	2	cue_social_high	n/a	32	6	n/a	n/a	n/a
188.758930	2	cue_social	n/a	32	9	n/a	n/a	n/a
188.758930	2	cue_social_high	n/a	32	6	n/a	n/a	n/a
199.592360	2	cue_nonsocial	n/a	32	6	n/a	n/a	n/a
199.592360	2	cue_nonsocial_high	n/a	32	9	n/a	n/a	n/a
207.257640	2	cue_social	n/a	32	9	n/a	n/a	n/a
207.257640	2	cue_social_high	n/a	32	6	n/a	n/a	n/a
214.892490	2	cue_nonsocial	n/a	32	6	n/a	n/a	n/a
214.892490	2	cue_nonsocial_high	n/a	32	9	n/a	n/a	n/a
221.743710	2	cue_social	n/a	16	-7	n/a	n/a	n/a
221.743710	2	cue_social_low	n/a	16	-10	n/a	n/a	n/a
228.600680	2	cue_social	n/a	16	-7	n/a	n/a	n/a
228.600680	2	cue_social_low	n/a	16	-10	n/a	n/a	n/a
235.392380	2	cue_nonsocial	n/a	16	-10	n/a	n/a	n/a
235.392380	2	cue_nonsocial_low	n/a	16	-7	n/a	n/a	n/a
242.259250	2	cue_social	n/a	32	9	n/a	n/a	n/a
242.259250	2	cue_social_high	n/a	32	6	n/a	n/a	n/a
249.911540	2	cue_social	n/a	32	9	n/a	n/a	n/a
249.911540	2	cue_social_high	n/a	32	6	n/a	n/a	n/a
256.733640	2	cue_social	n/a	32	9	n/a	n/a	n/a
256.733640	2	cue_social_high	n/a	32	6	n/a	n/a	n/a
263.542450	2	cue_nonsocial	n/a	32	6	n/a	n/a	n/a
263.542450	2	cue_nonsocial_high	n/a	32	9	n/a	n/a	n/a
272.828950	2	cue_social	n/a	16	-7	n/a	n/a	n/a
272.828950	2	cue_social_low	n/a	16	-10	n/a	n/a	n/a
279.625430	2	cue_nonsocial	n/a	16	-10	n/a	n/a	n/a
279.625430	2	cue_nonsocial_low	n/a	16	-7	n/a	n/a	n/a
286.477050	2	cue_social	n/a	32	9	n/a	n/a	n/a
286.477050	2	cue_social_high	n/a	32	6	n/a	n/a	n/a
294.187600	2	cue_social	n/a	32	9	n/a	n/a	n/a
294.187600	2	cue_social_high	n/a	32	6	n/a	n/a	n/a
306.592040	2	cue_nonsocial	n/a	16	-10	n/a	n/a	n/a
306.592040	2	cue_nonsocial_low	n/a	16	-7	n/a	n/a	n/a
313.425500	2	cue_nonsocial	n/a	16	-10	n/a	n/a	n/a
313.425500	2	cue_nonsocial_low	n/a	16	-7	n/a	n/a	n/a
320.311040	2	cue_social	n/a	16	-7	n/a	n/a	n/a
320.311040	2	cue_social_low	n/a	16	-10	n/a	n/a	n/a
327.908720	2	cue_nonsocial	n/a	16	-10	n/a	n/a	n/a
327.908720	2	cue_nonsocial_low	n/a	16	-7	n/a	n/a	n/a
334.742280	2	cue_nonsocial	n/a	32	6	n/a	n/a	n/a
334.742280	2	cue_nonsocial_high	n/a	32	9	n/a	n/a	n/a
344.008850	2	cue_nonsocial	n/a	32	6	n/a	n/a	n/a
344.008850	2	cue_nonsocial_high	n/a	32	9	n/a	n/a	n/a
354.875150	2	cue_nonsocial	n/a	32	6	n/a	n/a	n/a
354.875150	2	cue_nonsocial_high	n/a	32	9	n/a	n/a	n/a
362.570530	2	cue_social	n/a	16	-7	n/a	n/a	n/a
362.570530	2	cue_social_low	n/a	16	-10	n/a	n/a	n/a
370.202030	2	cue_social	n/a	16	-7	n/a	n/a	n/a
370.202030	2	cue_social_low	n/a	16	-10	n/a	n/a	n/a
6.517022	1.149932	dec_nonsocial_choice	1.149932	32.000000	n/a	16	2.682292e-01	2.682292e-01
6.517022	1.149932	dec_choice	1.149932	32.000000	n/a	16	2.682292e-01	2.682292e-01
6.517022	1.149932	dec_nonsocial_accept	1.149932	32.000000	n/a	16	2.053571e-01	2.053571e-01
6.517022	1.149932	dec_accept	1.149932	32.000000	n/a	16	2.613636e-01	2.613636e-01
6.517022	1.149932	dec_nonsocial_high	1.149932	32.000000	n/a	16	2.682292e-01	2.682292e-01
6.517022	1.149932	dec_nonsocial_accept_high	1.149932	32.000000	n/a	16	2.613636e-01	2.613636e-01
13.350018	1.483607	dec_nonsocial_choice	1.483607	32.000000	n/a	8	1.822917e-02	1.822917e-02
13.350018	1.483607	dec_choice	1.483607	32.000000	n/a	8	1.822917e-02	1.822917e-02
13.350018	1.483607	dec_nonsocial_accept	1.483607	32.000000	n/a	8	-4.464286e-02	-4.464286e-02
13.350018	1.483607	dec_accept	1.483607	32.000000	n/a	8	1.136364e-02	1.136364e-02
13.350018	1.483607	dec_nonsocial_accept_high	1.483607	32.000000	n/a	8	-2.500000e-01	-2.500000e-01
20.999050	0.950896	dec_nonsocial_choice	0.950896	16.000000	n/a	2	-1.067708e-01	-1.067708e-01
20.999050	0.950896	dec_choice	0.950896	16.000000	n/a	2	-1.067708e-01	-1.067708e-01
20.999050	0.950896	dec_nonsocial_accept	0.950896	16.000000	n/a	2	-1.696429e-01	-1.696429e-01
20.999050	0.950896	dec_accept	0.950896	16.000000	n/a	2	-1.136364e-01	-1.136364e-01
20.999050	0.950896	dec_nonsocial_low	0.950896	16.000000	n/a	2	-1.067708e-01	-1.067708e-01
20.999050	0.950896	dec_nonsocial_accept_low	0.950896	16.000000	n/a	2	-1.136364e-01	-1.136364e-01
27.833986	1.149031	dec_social_choice	1.149031	16.000000	n/a	8	2.682292e-01	2.682292e-01
27.833986	1.149031	dec_choice	1.149031	16.000000	n/a	8	2.682292e-01	2.682292e-01
27.833986	1.149031	dec_social_accept	1.149031	16.000000	n/a	8	2.053571e-01	2.053571e-01
27.833986	1.149031	dec_accept	1.149031	16.000000	n/a	8	0	0
27.833986	1.149031	dec_social_accept_high	1.149031	16.000000	n/a	8	2.682292e-01	2.682292e-01
34.667458	1.182974	dec_social_choice	1.182974	16.000000	n/a	8	2.682292e-01	2.682292e-01
34.667458	1.182974	dec_choice	1.182974	16.000000	n/a	8	2.682292e-01	2.682292e-01
34.667458	1.182974	dec_social_accept	1.182974	16.000000	n/a	8	2.053571e-01	2.053571e-01
34.667458	1.182974	dec_accept	1.182974	16.000000	n/a	8	0	0
34.667458	1.182974	dec_social_high	1.182974	16.000000	n/a	8	2.682292e-01	2.682292e-01
34.667458	1.182974	dec_social_accept_high	1.182974	16.000000	n/a	8	2.682292e-01	2.682292e-01
43.933980	1.299427	dec_nonsocial_choice	1.299427	32.000000	n/a	8	1.822917e-02	1.822917e-02
43.933980	1.299427	dec_choice	1.299427	32.000000	n/a	8	1.822917e-02	1.822917e-02
43.933980	1.299427	dec_nonsocial_accept	1.299427	32.000000	n/a	8	-4.464286e-02	-4.464286e-02
43.933980	1.299427	dec_accept	1.299427	32.000000	n/a	8	1.136364e-02	1.136364e-02
43.933980	1.299427	dec_nonsocial_high	1.299427	32.000000	n/a	8	1.822917e-02	1.822917e-02
43.933980	1.299427	dec_nonsocial_accept_high	1.299427	32.000000	n/a	8	1.136364e-02	1.136364e-02
51.583397	1.316047	dec_nonsocial_choice	1.316047	32.000000	n/a	16	2.682292e-01	2.682292e-01
51.583397	1.316047	dec_choice	1.316047	32.000000	n/a	16	2.682292e-01	2.682292e-01
51.583397	1.316047	dec_nonsocial_accept	1.316047	32.000000	n/a	16	2.053571e-01	2.053571e-01
51.583397	1.316047	dec_accept	1.316047	32.000000	n/a	16	2.613636e-01	2.613636e-01
51.583397	1.316047	dec_nonsocial_high	1.316047	32.000000	n/a	16	2.682292e-01	2.682292e-01
51.583397	1.316047	dec_nonsocial_accept_high	1.316047	32.000000	n/a	16	2.613636e-01	2.613636e-01
58.415900	1.484491	dec_nonsocial_choice	1.484491	16.000000	n/a	2	-1.067708e-01	-1.067708e-01
58.415900	1.484491	dec_choice	1.484491	16.000000	n/a	2	-1.067708e-01	-1.067708e-01
58.415900	1.484491	dec_nonsocial_accept	1.484491	16.000000	n/a	2	-1.696429e-01	-1.696429e-01
58.415900	1.484491	dec_accept	1.484491	16.000000	n/a	2	-1.136364e-01	-1.136364e-01
58.415900	1.484491	dec_nonsocial_low	1.484491	16.000000	n/a	2	-1.067708e-01	-1.067708e-01
58.415900	1.484491	dec_nonsocial_accept_low	1.484491	16.000000	n/a	2	-1.136364e-01	-1.136364e-01
67.665890	1.051398	dec_social_choice	1.051398	16.000000	n/a	0	0	-2.317708e-01
67.665890	1.051398	dec_choice	1.051398	16.000000	n/a	0	0	-2.317708e-01
67.665890	1.051398	dec_social_reject	1.051398	16.000000	n/a	0	0	-1.875000e-02
67.665890	1.051398	dec_reject	1.051398	16.000000	n/a	0	0	-1.736111e-02
67.665890	1.051398	dec_social_reject_low	1.051398	16.000000	n/a	2	-1.067708e-01	-2.317708e-01
75.300606	1.249322	dec_social_choice	1.249322	32.000000	n/a	0	0	-2.317708e-01
75.300606	1.249322	dec_choice	1.249322	32.000000	n/a	0	0	-2.317708e-01
75.300606	1.249322	dec_social_reject	1.249322	32.000000	n/a	0	0	1.062500e-01
75.300606	1.249322	dec_reject	1.249322	32.000000	n/a	0	0	1.076389e-01
75.300606	1.249322	dec_social_low	1.249322	32.000000	n/a	0	-2.317708e-01	-2.317708e-01
75.300606	1.249322	dec_social_reject_low	1.249322	32.000000	n/a	8	1.822917e-02	-2.317708e-01
84.565605	1.084593	dec_social_choice	1.084593	16.000000	n/a	0	0	-2.317708e-01
84.565605	1.084593	dec_choice	1.084593	16.000000	n/a	0	0	-2.317708e-01
84.565605	1.084593	dec_social_reject	1.084593	16.000000	n/a	0	0	-1.875000e-02
84.565605	1.084593	dec_reject	1.084593	16.000000	n/a	0	0	-1.736111e-02
84.565605	1.084593	dec_social_low	1.084593	16.000000	n/a	0	-2.317708e-01	-2.317708e-01
84.565605	1.084593	dec_social_reject_low	1.084593	16.000000	n/a	2	-1.067708e-01	-2.317708e-01
91.399820	0.766430	dec_nonsocial_choice	0.766430	32.000000	n/a	8	1.822917e-02	1.822917e-02
91.399820	0.766430	dec_choice	0.766430	32.000000	n/a	8	1.822917e-02	1.822917e-02
91.399820	0.766430	dec_nonsocial_accept	0.766430	32.000000	n/a	8	-4.464286e-02	-4.464286e-02
91.399820	0.766430	dec_accept	0.766430	32.000000	n/a	8	1.136364e-02	1.136364e-02
91.399820	0.766430	dec_nonsocial_accept_high	0.766430	32.000000	n/a	8	-2.500000e-01	-2.500000e-01
98.232960	0.733655	dec_nonsocial_choice	0.733655	32.000000	n/a	3	-1.380208e-01	-1.380208e-01
98.232960	0.733655	dec_choice	0.733655	32.000000	n/a	3	-1.380208e-01	-1.380208e-01
98.232960	0.733655	dec_nonsocial_accept	0.733655	32.000000	n/a	3	-2.008929e-01	-2.008929e-01
98.232960	0.733655	dec_accept	0.733655	32.000000	n/a	3	-1.448864e-01	-1.448864e-01
98.232960	0.733655	dec_nonsocial_low	0.733655	32.000000	n/a	3	-1.380208e-01	-1.380208e-01
98.232960	0.733655	dec_nonsocial_accept_low	0.733655	32.000000	n/a	3	-1.448864e-01	-1.448864e-01
107.483020	1.100022	dec_nonsocial_choice	1.100022	32.000000	n/a	8	1.822917e-02	1.822917e-02
107.483020	1.100022	dec_choice	1.100022	32.000000	n/a	8	1.822917e-02	1.822917e-02
107.483020	1.100022	dec_nonsocial_accept	1.100022	32.000000	n/a	8	-4.464286e-02	-4.464286e-02
107.483020	1.100022	dec_accept	1.100022	32.000000	n/a	8	1.136364e-02	1.136364e-02
107.483020	1.100022	dec_nonsocial_accept_high	1.100022	32.000000	n/a	8	-2.500000e-01	-2.500000e-01
114.316710	1.849402	dec_nonsocial_choice	1.849402	32.000000	n/a	2	-1.692708e-01	-1.692708e-01
114.316710	1.849402	dec_choice	1.849402	32.000000	n/a	2	-1.692708e-01	-1.692708e-01
114.316710	1.849402	dec_nonsocial_accept	1.849402	32.000000	n/a	2	-2.321429e-01	-2.321429e-01
114.316710	1.849402	dec_accept	1.849402	32.000000	n/a	2	-1.761364e-01	-1.761364e-01
114.316710	1.849402	dec_nonsocial_accept_low	1.849402	32.000000	n/a	2	-4.375000e-01	-4.375000e-01
123.565865	2.116954	dec_social_choice	2.116954	16.000000	n/a	8	2.682292e-01	2.682292e-01
123.565865	2.116954	dec_choice	2.116954	16.000000	n/a	8	2.682292e-01	2.682292e-01
123.565865	2.116954	dec_social_accept	2.116954	16.000000	n/a	8	2.053571e-01	2.053571e-01
123.565865	2.116954	dec_accept	2.116954	16.000000	n/a	8	0	0
123.565865	2.116954	dec_social_accept_high	2.116954	16.000000	n/a	8	2.682292e-01	2.682292e-01
130.399890	0.750041	dec_nonsocial_choice	0.750041	16.000000	n/a	8	2.682292e-01	2.682292e-01
130.399890	0.750041	dec_choice	0.750041	16.000000	n/a	8	2.682292e-01	2.682292e-01
130.399890	0.750041	dec_nonsocial_accept	0.750041	16.000000	n/a	8	2.053571e-01	2.053571e-01
130.399890	0.750041	dec_accept	0.750041	16.000000	n/a	8	2.613636e-01	2.613636e-01
130.399890	0.750041	dec_nonsocial_accept_high	0.750041	16.000000	n/a	8	0	0
141.265850	1.067154	dec_social_choice	1.067154	16.000000	n/a	0	0	-2.317708e-01
141.265850	1.067154	dec_choice	1.067154	16.000000	n/a	0	0	-2.317708e-01
141.265850	1.067154	dec_social_reject	1.067154	16.000000	n/a	0	0	-1.875000e-02
141.265850	1.067154	dec_reject	1.067154	16.000000	n/a	0	0	-1.736111e-02
141.265850	1.067154	dec_social_reject_low	1.067154	16.000000	n/a	2	-1.067708e-01	-2.317708e-01
148.098940	1.483417	dec_social_choice	1.483417	32.000000	n/a	0	0	-2.317708e-01
148.098940	1.483417	dec_choice	1.483417	32.000000	n/a	0	0	-2.317708e-01
148.098940	1.483417	dec_social_reject	1.483417	32.000000	n/a	0	0	1.062500e-01
148.098940	1.483417	dec_reject	1.483417	32.000000	n/a	0	0	1.076389e-01
148.098940	1.483417	dec_social_reject_low	1.483417	32.000000	n/a	8	1.822917e-02	-2.317708e-01
154.933850	1.365482	dec_nonsocial_choice	1.365482	32.000000	n/a	0	0	-2.317708e-01
154.933850	1.365482	dec_choice	1.365482	32.000000	n/a	0	0	-2.317708e-01
154.933850	1.365482	dec_nonsocial_reject	1.365482	32.000000	n/a	0	0	1.062500e-01
154.933850	1.365482	dec_reject	1.365482	32.000000	n/a	0	0	9.375000e-02
154.933850	1.365482	dec_nonsocial_low	1.365482	32.000000	n/a	0	-2.317708e-01	-2.317708e-01
154.933850	1.365482	dec_nonsocial_reject_low	1.365482	32.000000	n/a	8	9.375000e-02	-1.562500e-01
162.581990	1.167849	dec_social_choice	1.167849	16.000000	n/a	0	0	-2.317708e-01
162.581990	1.167849	dec_choice	1.167849	16.000000	n/a	0	0	-2.317708e-01
162.581990	1.167849	dec_social_reject	1.167849	16.000000	n/a	0	0	-8.125000e-02
162.581990	1.167849	dec_reject	1.167849	16.000000	n/a	0	0	-7.986111e-02
162.581990	1.167849	dec_social_reject_low	1.167849	16.000000	n/a	1	-1.692708e-01	-2.317708e-01
170.232880	0.816348	dec_nonsocial_choice	0.816348	16.000000	n/a	2	-1.067708e-01	-1.067708e-01
170.232880	0.816348	dec_choice	0.816348	16.000000	n/a	2	-1.067708e-01	-1.067708e-01
170.232880	0.816348	dec_nonsocial_accept	0.816348	16.000000	n/a	2	-1.696429e-01	-1.696429e-01
170.232880	0.816348	dec_accept	0.816348	16.000000	n/a	2	-1.136364e-01	-1.136364e-01
170.232880	0.816348	dec_nonsocial_low	0.816348	16.000000	n/a	2	-1.067708e-01	-1.067708e-01
170.232880	0.816348	dec_nonsocial_accept_low	0.816348	16.000000	n/a	2	-1.136364e-01	-1.136364e-01
177.065960	1.233294	dec_social_choice	1.233294	32.000000	n/a	0	0	-2.317708e-01
177.065960	1.233294	dec_choice	1.233294	32.000000	n/a	0	0	-2.317708e-01
177.065960	1.233294	dec_social_reject	1.233294	32.000000	n/a	0	0	-8.125000e-02
177.065960	1.233294	dec_reject	1.233294	32.000000	n/a	0	0	-7.986111e-02
177.065960	1.233294	dec_social_low	1.233294	32.000000	n/a	0	-2.317708e-01	-2.317708e-01
177.065960	1.233294	dec_social_reject_low	1.233294	32.000000	n/a	2	-1.692708e-01	-2.317708e-01
183.899840	1.299296	dec_social_choice	1.299296	32.000000	n/a	0	0	-2.317708e-01
183.899840	1.299296	dec_choice	1.299296	32.000000	n/a	0	0	-2.317708e-01
183.899840	1.299296	dec_social_reject	1.299296	32.000000	n/a	0	0	-8.125000e-02
183.899840	1.299296	dec_reject	1.299296	32.000000	n/a	0	0	-7.986111e-02
183.899840	1.299296	dec_social_low	1.299296	32.000000	n/a	0	-2.317708e-01	-2.317708e-01
183.899840	1.299296	dec_social_reject_low	1.299296	32.000000	n/a	2	-1.692708e-01	-2.317708e-01
190.733020	1.199813	dec_social_choice	1.199813	32.000000	n/a	16	2.682292e-01	2.682292e-01
190.733020	1.199813	dec_choice	1.199813	32.000000	n/a	16	2.682292e-01	2.682292e-01
190.733020	1.199813	dec_social_accept	1.199813	32.000000	n/a	16	2.053571e-01	2.053571e-01
190.733020	1.199813	dec_accept	1.199813	32.000000	n/a	16	0	0
190.733020	1.199813	dec_social_high	1.199813	32.000000	n/a	16	2.682292e-01	2.682292e-01
190.733020	1.199813	dec_social_accept_high	1.199813	32.000000	n/a	16	2.682292e-01	2.682292e-01
201.599820	0.715615	dec_nonsocial_choice	0.715615	32.000000	n/a	16	2.682292e-01	2.682292e-01
201.599820	0.715615	dec_choice	0.715615	32.000000	n/a	16	2.682292e-01	2.682292e-01
201.599820	0.715615	dec_nonsocial_accept	0.715615	32.000000	n/a	16	2.053571e-01	2.053571e-01
201.599820	0.715615	dec_accept	0.715615	32.000000	n/a	16	2.613636e-01	2.613636e-01
201.599820	0.715615	dec_nonsocial_high	0.715615	32.000000	n/a	16	2.682292e-01	2.682292e-01
201.599820	0.715615	dec_nonsocial_accept_high	0.715615	32.000000	n/a	16	2.613636e-01	2.613636e-01
209.249800	1.033394	dec_social_choice	1.033394	32.000000	n/a	0	0	-2.317708e-01
209.249800	1.033394	dec_choice	1.033394	32.000000	n/a	0	0	-2.317708e-01
209.249800	1.033394	dec_social_reject	1.033394	32.000000	n/a	0	0	-5.000000e-02
209.249800	1.033394	dec_reject	1.033394	32.000000	n/a	0	0	-4.861111e-02
209.249800	1.033394	dec_social_reject_low	1.033394	32.000000	n/a	3	-1.380208e-01	-2.317708e-01
216.899810	0.800087	dec_nonsocial_choice	0.800087	32.000000	n/a	2	-1.692708e-01	-1.692708e-01
216.899810	0.800087	dec_choice	0.800087	32.000000	n/a	2	-1.692708e-01	-1.692708e-01
216.899810	0.800087	dec_nonsocial_accept	0.800087	32.000000	n/a	2	-2.321429e-01	-2.321429e-01
216.899810	0.800087	dec_accept	0.800087	32.000000	n/a	2	-1.761364e-01	-1.761364e-01
216.899810	0.800087	dec_nonsocial_low	0.800087	32.000000	n/a	2	-1.692708e-01	-1.692708e-01
216.899810	0.800087	dec_nonsocial_accept_low	0.800087	32.000000	n/a	2	-1.761364e-01	-1.761364e-01
223.732850	1.183380	dec_social_choice	1.183380	16.000000	n/a	0	0	-2.317708e-01
223.732850	1.183380	dec_choice	1.183380	16.000000	n/a	0	0	-2.317708e-01
223.732850	1.183380	dec_social_reject	1.183380	16.000000	n/a	0	0	-1.875000e-02
223.732850	1.183380	dec_reject	1.183380	16.000000	n/a	0	0	-1.736111e-02
223.732850	1.183380	dec_social_low	1.183380	16.000000	n/a	0	-2.317708e-01	-2.317708e-01
223.732850	1.183380	dec_social_reject_low	1.183380	16.000000	n/a	2	-1.067708e-01	-2.317708e-01
230.565800	1.850708	dec_social_choice	1.850708	16.000000	n/a	8	2.682292e-01	2.682292e-01
230.565800	1.850708	dec_choice	1.850708	16.000000	n/a	8	2.682292e-01	2.682292e-01
230.565800	1.850708	dec_social_accept	1.850708	16.000000	n/a	8	2.053571e-01	2.053571e-01
230.565800	1.850708	dec_accept	1.850708	16.000000	n/a	8	0	0
230.565800	1.850708	dec_social_high	1.850708	16.000000	n/a	8	2.682292e-01	2.682292e-01
230.565800	1.850708	dec_social_accept_high	1.850708	16.000000	n/a	8	2.682292e-01	2.682292e-01
237.398760	1.184087	dec_nonsocial_choice	1.184087	16.000000	n/a	4	1.822917e-02	1.822917e-02
237.398760	1.184087	dec_choice	1.184087	16.000000	n/a	4	1.822917e-02	1.822917e-02
237.398760	1.184087	dec_nonsocial_accept	1.184087	16.000000	n/a	4	-4.464286e-02	-4.464286e-02
237.398760	1.184087	dec_accept	1.184087	16.000000	n/a	4	1.136364e-02	1.136364e-02
237.398760	1.184087	dec_nonsocial_accept_high	1.184087	16.000000	n/a	4	-2.500000e-01	-2.500000e-01
244.232710	1.082753	dec_social_choice	1.082753	32.000000	n/a	0	0	-2.317708e-01
244.232710	1.082753	dec_choice	1.082753	32.000000	n/a	0	0	-2.317708e-01
244.232710	1.082753	dec_social_reject	1.082753	32.000000	n/a	0	0	1.062500e-01
244.232710	1.082753	dec_reject	1.082753	32.000000	n/a	0	0	1.076389e-01
244.232710	1.082753	dec_social_low	1.082753	32.000000	n/a	0	-2.317708e-01	-2.317708e-01
244.232710	1.082753	dec_social_reject_low	1.082753	32.000000	n/a	8	1.822917e-02	-2.317708e-01
251.881790	2.017549	dec_social_choice	2.017549	32.000000	n/a	0	0	-2.317708e-01
251.881790	2.017549	dec_choice	2.017549	32.000000	n/a	0	0	-2.317708e-01
251.881790	2.017549	dec_social_reject	2.017549	32.000000	n/a	0	0	-8.125000e-02
251.881790	2.017549	dec_reject	2.017549	32.000000	n/a	0	0	-7.986111e-02
251.881790	2.017549	dec_social_reject_low	2.017549	32.000000	n/a	2	-1.692708e-01	-2.317708e-01
258.714750	0.783895	dec_social_choice	0.783895	32.000000	n/a	0	0	-2.317708e-01
258.714750	0.783895	dec_choice	0.783895	32.000000	n/a	0	0	-2.317708e-01
258.714750	0.783895	dec_social_reject	0.783895	32.000000	n/a	0	0	1.062500e-01
258.714750	0.783895	dec_reject	0.783895	32.000000	n/a	0	0	1.076389e-01
258.714750	0.783895	dec_social_low	0.783895	32.000000	n/a	0	-2.317708e-01	-2.317708e-01
258.714750	0.783895	dec_social_reject_low	0.783895	32.000000	n/a	8	1.822917e-02	-2.317708e-01
265.549840	1.099925	dec_nonsocial_choice	1.099925	32.000000	n/a	2	-1.692708e-01	-1.692708e-01
265.549840	1.099925	dec_choice	1.099925	32.000000	n/a	2	-1.692708e-01	-1.692708e-01
265.549840	1.099925	dec_nonsocial_accept	1.099925	32.000000	n/a	2	-2.321429e-01	-2.321429e-01
265.549840	1.099925	dec_accept	1.099925	32.000000	n/a	2	-1.761364e-01	-1.761364e-01
265.549840	1.099925	dec_nonsocial_low	1.099925	32.000000	n/a	2	-1.692708e-01	-1.692708e-01
265.549840	1.099925	dec_nonsocial_accept_low	1.099925	32.000000	n/a	2	-1.761364e-01	-1.761364e-01
274.799740	0.782642	dec_social_choice	0.782642	16.000000	n/a	0	0	-2.317708e-01
274.799740	0.782642	dec_choice	0.782642	16.000000	n/a	0	0	-2.317708e-01
274.799740	0.782642	dec_social_reject	0.782642	16.000000	n/a	0	0	1.062500e-01
274.799740	0.782642	dec_reject	0.782642	16.000000	n/a	0	0	1.076389e-01
274.799740	0.782642	dec_social_reject_low	0.782642	16.000000	n/a	4	1.822917e-02	-2.317708e-01
281.632750	0.549489	dec_nonsocial_choice	0.549489	16.000000	n/a	8	2.682292e-01	2.682292e-01
281.632750	0.549489	dec_choice	0.549489	16.000000	n/a	8	2.682292e-01	2.682292e-01
281.632750	0.549489	dec_nonsocial_accept	0.549489	16.000000	n/a	8	2.053571e-01	2.053571e-01
281.632750	0.549489	dec_accept	0.549489	16.000000	n/a	8	2.613636e-01	2.613636e-01
281.632750	0.549489	dec_nonsocial_high	0.549489	16.000000	n/a	8	2.682292e-01	2.682292e-01
281.632750	0.549489	dec_nonsocial_accept_high	0.549489	16.000000	n/a	8	2.613636e-01	2.613636e-01
288.465700	1.200291	dec_social_choice	1.200291	32.000000	n/a	0	0	-2.317708e-01
288.465700	1.200291	dec_choice	1.200291	32.000000	n/a	0	0	-2.317708e-01
288.465700	1.200291	dec_social_reject	1.200291	32.000000	n/a	0	0	-8.125000e-02
288.465700	1.200291	dec_reject	1.200291	32.000000	n/a	0	0	-7.986111e-02
288.465700	1.200291	dec_social_low	1.200291	32.000000	n/a	0	-2.317708e-01	-2.317708e-01
288.465700	1.200291	dec_social_reject_low	1.200291	32.000000	n/a	2	-1.692708e-01	-2.317708e-01
296.115200	0.867340	dec_social_choice	0.867340	32.000000	n/a	0	0	-2.317708e-01
296.115200	0.867340	dec_choice	0.867340	32.000000	n/a	0	0	-2.317708e-01
296.115200	0.867340	dec_social_reject	0.867340	32.000000	n/a	0	0	-5.000000e-02
296.115200	0.867340	dec_reject	0.867340	32.000000	n/a	0	0	-4.861111e-02
296.115200	0.867340	dec_social_low	0.867340	32.000000	n/a	0	-2.317708e-01	-2.317708e-01
296.115200	0.867340	dec_social_reject_low	0.867340	32.000000	n/a	3	-1.380208e-01	-2.317708e-01
308.599240	0.666246	dec_nonsocial_choice	0.666246	16.000000	n/a	8	2.682292e-01	2.682292e-01
308.599240	0.666246	dec_choice	0.666246	16.000000	n/a	8	2.682292e-01	2.682292e-01
308.599240	0.666246	dec_nonsocial_accept	0.666246	16.000000	n/a	8	2.053571e-01	2.053571e-01
308.599240	0.666246	dec_accept	0.666246	16.000000	n/a	8	2.613636e-01	2.613636e-01
308.599240	0.666246	dec_nonsocial_high	0.666246	16.000000	n/a	8	2.682292e-01	2.682292e-01
308.599240	0.666246	dec_nonsocial_accept_high	0.666246	16.000000	n/a	8	2.613636e-01	2.613636e-01
315.433230	0.615287	dec_nonsocial_choice	0.615287	16.000000	n/a	2	-1.067708e-01	-1.067708e-01
315.433230	0.615287	dec_choice	0.615287	16.000000	n/a	2	-1.067708e-01	-1.067708e-01
315.433230	0.615287	dec_nonsocial_accept	0.615287	16.000000	n/a	2	-1.696429e-01	-1.696429e-01
315.433230	0.615287	dec_accept	0.615287	16.000000	n/a	2	-1.136364e-01	-1.136364e-01
315.433230	0.615287	dec_nonsocial_low	0.615287	16.000000	n/a	2	-1.067708e-01	-1.067708e-01
315.433230	0.615287	dec_nonsocial_accept_low	0.615287	16.000000	n/a	2	-1.136364e-01	-1.136364e-01
322.265260	1.066818	dec_social_choice	1.066818	16.000000	n/a	8	2.682292e-01	2.682292e-01
322.265260	1.066818	dec_choice	1.066818	16.000000	n/a	8	2.682292e-01	2.682292e-01
322.265260	1.066818	dec_social_accept	1.066818	16.000000	n/a	8	2.053571e-01	2.053571e-01
322.265260	1.066818	dec_accept	1.066818	16.000000	n/a	8	0	0
322.265260	1.066818	dec_social_high	1.066818	16.000000	n/a	8	2.682292e-01	2.682292e-01
322.265260	1.066818	dec_social_accept_high	1.066818	16.000000	n/a	8	2.682292e-01	2.682292e-01
329.915700	1.233507	dec_nonsocial_choice	1.233507	16.000000	n/a	0	0	-2.317708e-01
329.915700	1.233507	dec_choice	1.233507	16.000000	n/a	0	0	-2.317708e-01
329.915700	1.233507	dec_nonsocial_reject	1.233507	16.000000	n/a	0	0	-8.125000e-02
329.915700	1.233507	dec_reject	1.233507	16.000000	n/a	0	0	-9.375000e-02
329.915700	1.233507	dec_nonsocial_low	1.233507	16.000000	n/a	0	-2.317708e-01	-2.317708e-01
329.915700	1.233507	dec_nonsocial_reject_low	1.233507	16.000000	n/a	1	-9.375000e-02	-1.562500e-01
336.749700	1.815335	dec_nonsocial_choice	1.815335	32.000000	n/a	2	-1.692708e-01	-1.692708e-01
336.749700	1.815335	dec_choice	1.815335	32.000000	n/a	2	-1.692708e-01	-1.692708e-01
336.749700	1.815335	dec_nonsocial_accept	1.815335	32.000000	n/a	2	-2.321429e-01	-2.321429e-01
336.749700	1.815335	dec_accept	1.815335	32.000000	n/a	2	-1.761364e-01	-1.761364e-01
336.749700	1.815335	dec_nonsocial_accept_low	1.815335	32.000000	n/a	2	-4.375000e-01	-4.375000e-01
346.016700	1.582385	dec_nonsocial_choice	1.582385	32.000000	n/a	3	-1.380208e-01	-1.380208e-01
346.016700	1.582385	dec_choice	1.582385	32.000000	n/a	3	-1.380208e-01	-1.380208e-01
346.016700	1.582385	dec_nonsocial_accept	1.582385	32.000000	n/a	3	-2.008929e-01	-2.008929e-01
346.016700	1.582385	dec_accept	1.582385	32.000000	n/a	3	-1.448864e-01	-1.448864e-01
346.016700	1.582385	dec_nonsocial_accept_low	1.582385	32.000000	n/a	3	-4.062500e-01	-4.062500e-01
356.882540	1.449981	dec_nonsocial_choice	1.449981	32.000000	n/a	2	-1.692708e-01	-1.692708e-01
356.882540	1.449981	dec_choice	1.449981	32.000000	n/a	2	-1.692708e-01	-1.692708e-01
356.882540	1.449981	dec_nonsocial_accept	1.449981	32.000000	n/a	2	-2.321429e-01	-2.321429e-01
356.882540	1.449981	dec_accept	1.449981	32.000000	n/a	2	-1.761364e-01	-1.761364e-01
356.882540	1.449981	dec_nonsocial_accept_low	1.449981	32.000000	n/a	2	-4.375000e-01	-4.375000e-01
364.531700	0.933887	dec_social_choice	0.933887	16.000000	n/a	0	0	-2.317708e-01
364.531700	0.933887	dec_choice	0.933887	16.000000	n/a	0	0	-2.317708e-01
364.531700	0.933887	dec_social_reject	0.933887	16.000000	n/a	0	0	1.062500e-01
364.531700	0.933887	dec_reject	0.933887	16.000000	n/a	0	0	1.076389e-01
364.531700	0.933887	dec_social_reject_low	0.933887	16.000000	n/a	4	1.822917e-02	-2.317708e-01
372.182000	1.850575	dec_social_choice	1.850575	16.000000	n/a	0	0	-2.317708e-01
372.182000	1.850575	dec_choice	1.850575	16.000000	n/a	0	0	-2.317708e-01
372.182000	1.850575	dec_social_reject	1.850575	16.000000	n/a	0	0	-8.125000e-02
372.182000	1.850575	dec_reject	1.850575	16.000000	n/a	0	0	-7.986111e-02
372.182000	1.850575	dec_social_low	1.850575	16.000000	n/a	0	-2.317708e-01	-2.317708e-01
372.182000	1.850575	dec_social_reject_low	1.850575	16.000000	n/a	1	-1.692708e-01	-2.317708e-01
