onset	duration	trial_type	response_time	Endowment	Endowment_pmod	Decision	Decision_pmod	Offer_pmod
4.559287	2	cue_social	n/a	32	8	n/a	n/a	n/a
4.559287	2	cue_social_high	n/a	32	7	n/a	n/a	n/a
13.865800	2	cue_social	n/a	32	8	n/a	n/a	n/a
13.865800	2	cue_social_high	n/a	32	7	n/a	n/a	n/a
20.610409	2	cue_nonsocial	n/a	16	-9	n/a	n/a	n/a
20.610409	2	cue_nonsocial_low	n/a	16	-8	n/a	n/a	n/a
27.496418	2	cue_social	n/a	16	-8	n/a	n/a	n/a
27.496418	2	cue_social_low	n/a	16	-9	n/a	n/a	n/a
34.330800	2	cue_social	n/a	32	8	n/a	n/a	n/a
34.330800	2	cue_social_high	n/a	32	7	n/a	n/a	n/a
41.926422	2	cue_nonsocial	n/a	32	7	n/a	n/a	n/a
41.926422	2	cue_nonsocial_high	n/a	32	8	n/a	n/a	n/a
52.876637	2	cue_social	n/a	32	8	n/a	n/a	n/a
52.876637	2	cue_social_high	n/a	32	7	n/a	n/a	n/a
59.626465	2	cue_nonsocial	n/a	16	-9	n/a	n/a	n/a
59.626465	2	cue_nonsocial_low	n/a	16	-8	n/a	n/a	n/a
68.876310	2	cue_nonsocial	n/a	32	7	n/a	n/a	n/a
68.876310	2	cue_nonsocial_high	n/a	32	8	n/a	n/a	n/a
75.766495	2	cue_social	n/a	32	8	n/a	n/a	n/a
75.766495	2	cue_social_high	n/a	32	7	n/a	n/a	n/a
84.976550	2	cue_nonsocial	n/a	16	-9	n/a	n/a	n/a
84.976550	2	cue_nonsocial_low	n/a	16	-8	n/a	n/a	n/a
91.810000	2	cue_nonsocial	n/a	16	-9	n/a	n/a	n/a
91.810000	2	cue_nonsocial_low	n/a	16	-8	n/a	n/a	n/a
98.691800	2	cue_social	n/a	32	8	n/a	n/a	n/a
98.691800	2	cue_social_high	n/a	32	7	n/a	n/a	n/a
107.909690	2	cue_nonsocial	n/a	32	7	n/a	n/a	n/a
107.909690	2	cue_nonsocial_high	n/a	32	8	n/a	n/a	n/a
115.559630	2	cue_nonsocial	n/a	32	7	n/a	n/a	n/a
115.559630	2	cue_nonsocial_high	n/a	32	8	n/a	n/a	n/a
122.492676	2	cue_social	n/a	32	8	n/a	n/a	n/a
122.492676	2	cue_social_high	n/a	32	7	n/a	n/a	n/a
130.085890	2	cue_social	n/a	16	-8	n/a	n/a	n/a
130.085890	2	cue_social_low	n/a	16	-9	n/a	n/a	n/a
137.713000	2	cue_social	n/a	32	8	n/a	n/a	n/a
137.713000	2	cue_social_high	n/a	32	7	n/a	n/a	n/a
144.509670	2	cue_nonsocial	n/a	32	7	n/a	n/a	n/a
144.509670	2	cue_nonsocial_high	n/a	32	8	n/a	n/a	n/a
151.343060	2	cue_nonsocial	n/a	32	7	n/a	n/a	n/a
151.343060	2	cue_nonsocial_high	n/a	32	8	n/a	n/a	n/a
158.176380	2	cue_nonsocial	n/a	32	7	n/a	n/a	n/a
158.176380	2	cue_nonsocial_high	n/a	32	8	n/a	n/a	n/a
169.098200	2	cue_social	n/a	16	-8	n/a	n/a	n/a
169.098200	2	cue_social_low	n/a	16	-9	n/a	n/a	n/a
176.725100	2	cue_social	n/a	16	-8	n/a	n/a	n/a
176.725100	2	cue_social_low	n/a	16	-9	n/a	n/a	n/a
183.563170	2	cue_social	n/a	32	8	n/a	n/a	n/a
183.563170	2	cue_social_high	n/a	32	7	n/a	n/a	n/a
191.159500	2	cue_nonsocial	n/a	16	-9	n/a	n/a	n/a
191.159500	2	cue_nonsocial_low	n/a	16	-8	n/a	n/a	n/a
198.043010	2	cue_social	n/a	16	-8	n/a	n/a	n/a
198.043010	2	cue_social_low	n/a	16	-9	n/a	n/a	n/a
205.643450	2	cue_nonsocial	n/a	32	7	n/a	n/a	n/a
205.643450	2	cue_nonsocial_high	n/a	32	8	n/a	n/a	n/a
212.552830	2	cue_social	n/a	16	-8	n/a	n/a	n/a
212.552830	2	cue_social_low	n/a	16	-9	n/a	n/a	n/a
219.309360	2	cue_nonsocial	n/a	16	-9	n/a	n/a	n/a
219.309360	2	cue_nonsocial_low	n/a	16	-8	n/a	n/a	n/a
231.792630	2	cue_nonsocial	n/a	16	-9	n/a	n/a	n/a
231.792630	2	cue_nonsocial_low	n/a	16	-8	n/a	n/a	n/a
241.059430	2	cue_nonsocial	n/a	32	7	n/a	n/a	n/a
241.059430	2	cue_nonsocial_high	n/a	32	8	n/a	n/a	n/a
248.709300	2	cue_nonsocial	n/a	16	-9	n/a	n/a	n/a
248.709300	2	cue_nonsocial_low	n/a	16	-8	n/a	n/a	n/a
255.542700	2	cue_nonsocial	n/a	32	7	n/a	n/a	n/a
255.542700	2	cue_nonsocial_high	n/a	32	8	n/a	n/a	n/a
262.375950	2	cue_nonsocial	n/a	32	7	n/a	n/a	n/a
262.375950	2	cue_nonsocial_high	n/a	32	8	n/a	n/a	n/a
270.054400	2	cue_social	n/a	32	8	n/a	n/a	n/a
270.054400	2	cue_social_high	n/a	32	7	n/a	n/a	n/a
276.859220	2	cue_nonsocial	n/a	16	-9	n/a	n/a	n/a
276.859220	2	cue_nonsocial_low	n/a	16	-8	n/a	n/a	n/a
283.736100	2	cue_social	n/a	16	-8	n/a	n/a	n/a
283.736100	2	cue_social_low	n/a	16	-9	n/a	n/a	n/a
292.949800	2	cue_social	n/a	16	-8	n/a	n/a	n/a
292.949800	2	cue_social_low	n/a	16	-9	n/a	n/a	n/a
299.775820	2	cue_nonsocial	n/a	16	-9	n/a	n/a	n/a
299.775820	2	cue_nonsocial_low	n/a	16	-8	n/a	n/a	n/a
310.718000	2	cue_social	n/a	16	-8	n/a	n/a	n/a
310.718000	2	cue_social_low	n/a	16	-9	n/a	n/a	n/a
317.492500	2	cue_nonsocial	n/a	32	7	n/a	n/a	n/a
317.492500	2	cue_nonsocial_high	n/a	32	8	n/a	n/a	n/a
326.767180	2	cue_social	n/a	32	8	n/a	n/a	n/a
326.767180	2	cue_social_high	n/a	32	7	n/a	n/a	n/a
334.409100	2	cue_nonsocial	n/a	32	7	n/a	n/a	n/a
334.409100	2	cue_nonsocial_high	n/a	32	8	n/a	n/a	n/a
342.082860	2	cue_social	n/a	32	8	n/a	n/a	n/a
342.082860	2	cue_social_high	n/a	32	7	n/a	n/a	n/a
348.907350	2	cue_social	n/a	16	-8	n/a	n/a	n/a
348.907350	2	cue_social_low	n/a	16	-9	n/a	n/a	n/a
355.708980	2	cue_nonsocial	n/a	32	7	n/a	n/a	n/a
355.708980	2	cue_nonsocial_high	n/a	32	8	n/a	n/a	n/a
363.384000	2	cue_social	n/a	16	-8	n/a	n/a	n/a
363.384000	2	cue_social_low	n/a	16	-9	n/a	n/a	n/a
370.228420	2	cue_social	n/a	16	-8	n/a	n/a	n/a
370.228420	2	cue_social_low	n/a	16	-9	n/a	n/a	n/a
6.517030	2.566397	dec_social_choice	2.566397	32.000000	n/a	16	2.682292e-01	2.682292e-01
6.517030	2.566397	dec_choice	2.566397	32.000000	n/a	16	2.682292e-01	2.682292e-01
6.517030	2.566397	dec_social_accept	2.566397	32.000000	n/a	16	1.076389e-01	1.076389e-01
6.517030	2.566397	dec_accept	2.566397	32.000000	n/a	16	1.145833e-01	1.145833e-01
6.517030	2.566397	dec_social_high	2.566397	32.000000	n/a	16	2.682292e-01	2.682292e-01
6.517030	2.566397	dec_social_accept_high	2.566397	32.000000	n/a	16	2.682292e-01	2.682292e-01
15.783518	2.116579	dec_social_choice	2.116579	32.000000	n/a	3	-1.380208e-01	-1.380208e-01
15.783518	2.116579	dec_choice	2.116579	32.000000	n/a	3	-1.380208e-01	-1.380208e-01
15.783518	2.116579	dec_social_accept	2.116579	32.000000	n/a	3	-2.986111e-01	-2.986111e-01
15.783518	2.116579	dec_accept	2.116579	32.000000	n/a	3	-2.916667e-01	-2.916667e-01
15.783518	2.116579	dec_social_low	2.116579	32.000000	n/a	3	-1.380208e-01	-1.380208e-01
15.783518	2.116579	dec_social_accept_low	2.116579	32.000000	n/a	3	-1.380208e-01	-1.380208e-01
22.617280	2.133240	dec_nonsocial_choice	2.133240	16.000000	n/a	8	2.682292e-01	2.682292e-01
22.617280	2.133240	dec_choice	2.133240	16.000000	n/a	8	2.682292e-01	2.682292e-01
22.617280	2.133240	dec_nonsocial_accept	2.133240	16.000000	n/a	8	1.076389e-01	1.076389e-01
22.617280	2.133240	dec_accept	2.133240	16.000000	n/a	8	1.006944e-01	1.006944e-01
22.617280	2.133240	dec_nonsocial_high	2.133240	16.000000	n/a	8	2.682292e-01	2.682292e-01
22.617280	2.133240	dec_nonsocial_accept_high	2.133240	16.000000	n/a	8	1.006944e-01	1.006944e-01
29.450975	2.114929	dec_social_choice	2.114929	16.000000	n/a	2	-1.067708e-01	-1.067708e-01
29.450975	2.114929	dec_choice	2.114929	16.000000	n/a	2	-1.067708e-01	-1.067708e-01
29.450975	2.114929	dec_social_accept	2.114929	16.000000	n/a	2	-2.673611e-01	-2.673611e-01
29.450975	2.114929	dec_accept	2.114929	16.000000	n/a	2	-2.604167e-01	-2.604167e-01
29.450975	2.114929	dec_social_low	2.114929	16.000000	n/a	2	-1.067708e-01	-1.067708e-01
29.450975	2.114929	dec_social_accept_low	2.114929	16.000000	n/a	2	-1.067708e-01	-1.067708e-01
36.283930	1.766113	dec_social_choice	1.766113	32.000000	n/a	16	2.682292e-01	2.682292e-01
36.283930	1.766113	dec_choice	1.766113	32.000000	n/a	16	2.682292e-01	2.682292e-01
36.283930	1.766113	dec_social_accept	1.766113	32.000000	n/a	16	1.076389e-01	1.076389e-01
36.283930	1.766113	dec_accept	1.766113	32.000000	n/a	16	1.145833e-01	1.145833e-01
36.283930	1.766113	dec_social_high	1.766113	32.000000	n/a	16	2.682292e-01	2.682292e-01
36.283930	1.766113	dec_social_accept_high	1.766113	32.000000	n/a	16	2.682292e-01	2.682292e-01
43.933260	1.516057	dec_nonsocial_choice	1.516057	32.000000	n/a	8	1.822917e-02	1.822917e-02
43.933260	1.516057	dec_choice	1.516057	32.000000	n/a	8	1.822917e-02	1.822917e-02
43.933260	1.516057	dec_nonsocial_accept	1.516057	32.000000	n/a	8	-1.423611e-01	-1.423611e-01
43.933260	1.516057	dec_accept	1.516057	32.000000	n/a	8	-1.493056e-01	-1.493056e-01
43.933260	1.516057	dec_nonsocial_high	1.516057	32.000000	n/a	8	1.822917e-02	1.822917e-02
43.933260	1.516057	dec_nonsocial_accept_high	1.516057	32.000000	n/a	8	-1.493056e-01	-1.493056e-01
54.800922	1.616152	dec_social_choice	1.616152	32.000000	n/a	16	2.682292e-01	2.682292e-01
54.800922	1.616152	dec_choice	1.616152	32.000000	n/a	16	2.682292e-01	2.682292e-01
54.800922	1.616152	dec_social_accept	1.616152	32.000000	n/a	16	1.076389e-01	1.076389e-01
54.800922	1.616152	dec_accept	1.616152	32.000000	n/a	16	1.145833e-01	1.145833e-01
54.800922	1.616152	dec_social_high	1.616152	32.000000	n/a	16	2.682292e-01	2.682292e-01
54.800922	1.616152	dec_social_accept_high	1.616152	32.000000	n/a	16	2.682292e-01	2.682292e-01
61.633938	1.249679	dec_nonsocial_choice	1.249679	16.000000	n/a	0	0	-2.317708e-01
61.633938	1.249679	dec_choice	1.249679	16.000000	n/a	0	0	-2.317708e-01
61.633938	1.249679	dec_nonsocial_reject	1.249679	16.000000	n/a	0	0	-1.041667e-02
61.633938	1.249679	dec_reject	1.249679	16.000000	n/a	0	0	-6.250000e-03
61.633938	1.249679	dec_nonsocial_reject_low	1.249679	16.000000	n/a	2	-1.458333e-02	-1.395833e-01
70.884600	1.449089	dec_nonsocial_choice	1.449089	32.000000	n/a	0	0	-2.317708e-01
70.884600	1.449089	dec_choice	1.449089	32.000000	n/a	0	0	-2.317708e-01
70.884600	1.449089	dec_nonsocial_reject	1.449089	32.000000	n/a	0	0	-7.291667e-02
70.884600	1.449089	dec_reject	1.449089	32.000000	n/a	0	0	-6.875000e-02
70.884600	1.449089	dec_nonsocial_reject_low	1.449089	32.000000	n/a	2	-7.708333e-02	-1.395833e-01
77.716950	2.066044	dec_social_choice	2.066044	32.000000	n/a	0	0	-2.317708e-01
77.716950	2.066044	dec_choice	2.066044	32.000000	n/a	0	0	-2.317708e-01
77.716950	2.066044	dec_social_reject	2.066044	32.000000	n/a	0	0	-4.166667e-02
77.716950	2.066044	dec_reject	2.066044	32.000000	n/a	0	0	-4.583333e-02
77.716950	2.066044	dec_social_low	2.066044	32.000000	n/a	0	-2.317708e-01	-2.317708e-01
77.716950	2.066044	dec_social_reject_low	2.066044	32.000000	n/a	3	-1.380208e-01	-2.317708e-01
86.983920	1.515764	dec_nonsocial_choice	1.515764	16.000000	n/a	0	0	-2.317708e-01
86.983920	1.515764	dec_choice	1.515764	16.000000	n/a	0	0	-2.317708e-01
86.983920	1.515764	dec_nonsocial_reject	1.515764	16.000000	n/a	0	0	-1.041667e-02
86.983920	1.515764	dec_reject	1.515764	16.000000	n/a	0	0	-6.250000e-03
86.983920	1.515764	dec_nonsocial_low	1.515764	16.000000	n/a	0	-2.317708e-01	-2.317708e-01
86.983920	1.515764	dec_nonsocial_reject_low	1.515764	16.000000	n/a	2	-6.250000e-03	-1.312500e-01
93.816925	1.433271	dec_nonsocial_choice	1.433271	16.000000	n/a	8	2.682292e-01	2.682292e-01
93.816925	1.433271	dec_choice	1.433271	16.000000	n/a	8	2.682292e-01	2.682292e-01
93.816925	1.433271	dec_nonsocial_accept	1.433271	16.000000	n/a	8	1.076389e-01	1.076389e-01
93.816925	1.433271	dec_accept	1.433271	16.000000	n/a	8	1.006944e-01	1.006944e-01
93.816925	1.433271	dec_nonsocial_accept_high	1.433271	16.000000	n/a	8	1.145833e-01	1.145833e-01
100.649956	2.016366	dec_social_choice	2.016366	32.000000	n/a	0	0	-2.317708e-01
100.649956	2.016366	dec_choice	2.016366	32.000000	n/a	0	0	-2.317708e-01
100.649956	2.016366	dec_social_reject	2.016366	32.000000	n/a	0	0	-7.291667e-02
100.649956	2.016366	dec_reject	2.016366	32.000000	n/a	0	0	-7.708333e-02
100.649956	2.016366	dec_social_low	2.016366	32.000000	n/a	0	-2.317708e-01	-2.317708e-01
100.649956	2.016366	dec_social_reject_low	2.016366	32.000000	n/a	2	-1.692708e-01	-2.317708e-01
109.916954	1.199704	dec_nonsocial_choice	1.199704	32.000000	n/a	0	0	-2.317708e-01
109.916954	1.199704	dec_choice	1.199704	32.000000	n/a	0	0	-2.317708e-01
109.916954	1.199704	dec_nonsocial_reject	1.199704	32.000000	n/a	0	0	-7.291667e-02
109.916954	1.199704	dec_reject	1.199704	32.000000	n/a	0	0	-6.875000e-02
109.916954	1.199704	dec_nonsocial_reject_low	1.199704	32.000000	n/a	2	-7.708333e-02	-1.395833e-01
117.566810	1.149985	dec_nonsocial_choice	1.149985	32.000000	n/a	16	2.682292e-01	2.682292e-01
117.566810	1.149985	dec_choice	1.149985	32.000000	n/a	16	2.682292e-01	2.682292e-01
117.566810	1.149985	dec_nonsocial_accept	1.149985	32.000000	n/a	16	1.076389e-01	1.076389e-01
117.566810	1.149985	dec_accept	1.149985	32.000000	n/a	16	1.006944e-01	1.006944e-01
117.566810	1.149985	dec_nonsocial_high	1.149985	32.000000	n/a	16	2.682292e-01	2.682292e-01
117.566810	1.149985	dec_nonsocial_accept_high	1.149985	32.000000	n/a	16	1.006944e-01	1.006944e-01
124.398990	2.434805	dec_social_choice	2.434805	32.000000	n/a	0	0	-2.317708e-01
124.398990	2.434805	dec_choice	2.434805	32.000000	n/a	0	0	-2.317708e-01
124.398990	2.434805	dec_social_reject	2.434805	32.000000	n/a	0	0	1.145833e-01
124.398990	2.434805	dec_reject	2.434805	32.000000	n/a	0	0	1.104167e-01
124.398990	2.434805	dec_social_low	2.434805	32.000000	n/a	0	-2.317708e-01	-2.317708e-01
124.398990	2.434805	dec_social_reject_low	2.434805	32.000000	n/a	8	1.822917e-02	-2.317708e-01
132.033720	1.799895	dec_social_choice	1.799895	16.000000	n/a	0	0	-2.317708e-01
132.033720	1.799895	dec_choice	1.799895	16.000000	n/a	0	0	-2.317708e-01
132.033720	1.799895	dec_social_reject	1.799895	16.000000	n/a	0	0	1.145833e-01
132.033720	1.799895	dec_reject	1.799895	16.000000	n/a	0	0	1.104167e-01
132.033720	1.799895	dec_social_reject_low	1.799895	16.000000	n/a	4	1.822917e-02	-2.317708e-01
139.683330	1.183131	dec_social_choice	1.183131	32.000000	n/a	16	2.682292e-01	2.682292e-01
139.683330	1.183131	dec_choice	1.183131	32.000000	n/a	16	2.682292e-01	2.682292e-01
139.683330	1.183131	dec_social_accept	1.183131	32.000000	n/a	16	1.076389e-01	1.076389e-01
139.683330	1.183131	dec_accept	1.183131	32.000000	n/a	16	1.145833e-01	1.145833e-01
139.683330	1.183131	dec_social_high	1.183131	32.000000	n/a	16	2.682292e-01	2.682292e-01
139.683330	1.183131	dec_social_accept_high	1.183131	32.000000	n/a	16	2.682292e-01	2.682292e-01
146.516890	1.200093	dec_nonsocial_choice	1.200093	32.000000	n/a	0	0	-2.317708e-01
146.516890	1.200093	dec_choice	1.200093	32.000000	n/a	0	0	-2.317708e-01
146.516890	1.200093	dec_nonsocial_reject	1.200093	32.000000	n/a	0	0	-7.291667e-02
146.516890	1.200093	dec_reject	1.200093	32.000000	n/a	0	0	-6.875000e-02
146.516890	1.200093	dec_nonsocial_low	1.200093	32.000000	n/a	0	-2.317708e-01	-2.317708e-01
146.516890	1.200093	dec_nonsocial_reject_low	1.200093	32.000000	n/a	2	-6.875000e-02	-1.312500e-01
153.350130	1.866249	dec_nonsocial_choice	1.866249	32.000000	n/a	8	1.822917e-02	1.822917e-02
153.350130	1.866249	dec_choice	1.866249	32.000000	n/a	8	1.822917e-02	1.822917e-02
153.350130	1.866249	dec_nonsocial_accept	1.866249	32.000000	n/a	8	-1.423611e-01	-1.423611e-01
153.350130	1.866249	dec_accept	1.866249	32.000000	n/a	8	-1.493056e-01	-1.493056e-01
153.350130	1.866249	dec_nonsocial_high	1.866249	32.000000	n/a	8	1.822917e-02	1.822917e-02
153.350130	1.866249	dec_nonsocial_accept_high	1.866249	32.000000	n/a	8	-1.493056e-01	-1.493056e-01
160.182890	1.149972	dec_nonsocial_choice	1.149972	32.000000	n/a	0	0	-2.317708e-01
160.182890	1.149972	dec_choice	1.149972	32.000000	n/a	0	0	-2.317708e-01
160.182890	1.149972	dec_nonsocial_reject	1.149972	32.000000	n/a	0	0	-4.166667e-02
160.182890	1.149972	dec_reject	1.149972	32.000000	n/a	0	0	-3.750000e-02
160.182890	1.149972	dec_nonsocial_low	1.149972	32.000000	n/a	0	-2.317708e-01	-2.317708e-01
160.182890	1.149972	dec_nonsocial_reject_low	1.149972	32.000000	n/a	3	-3.750000e-02	-1.312500e-01
171.049820	1.250176	dec_social_choice	1.250176	16.000000	n/a	0	0	-2.317708e-01
171.049820	1.250176	dec_choice	1.250176	16.000000	n/a	0	0	-2.317708e-01
171.049820	1.250176	dec_social_reject	1.250176	16.000000	n/a	0	0	-1.041667e-02
171.049820	1.250176	dec_reject	1.250176	16.000000	n/a	0	0	-1.458333e-02
171.049820	1.250176	dec_social_reject_low	1.250176	16.000000	n/a	2	-1.067708e-01	-2.317708e-01
178.683870	1.082796	dec_social_choice	1.082796	16.000000	n/a	8	2.682292e-01	2.682292e-01
178.683870	1.082796	dec_choice	1.082796	16.000000	n/a	8	2.682292e-01	2.682292e-01
178.683870	1.082796	dec_social_accept	1.082796	16.000000	n/a	8	1.076389e-01	1.076389e-01
178.683870	1.082796	dec_accept	1.082796	16.000000	n/a	8	1.145833e-01	1.145833e-01
178.683870	1.082796	dec_social_accept_high	1.082796	16.000000	n/a	8	2.682292e-01	2.682292e-01
185.516860	1.699866	dec_social_choice	1.699866	32.000000	n/a	0	0	-2.317708e-01
185.516860	1.699866	dec_choice	1.699866	32.000000	n/a	0	0	-2.317708e-01
185.516860	1.699866	dec_social_reject	1.699866	32.000000	n/a	0	0	-7.291667e-02
185.516860	1.699866	dec_reject	1.699866	32.000000	n/a	0	0	-7.708333e-02
185.516860	1.699866	dec_social_reject_low	1.699866	32.000000	n/a	2	-1.692708e-01	-2.317708e-01
193.167370	1.332287	dec_nonsocial_choice	1.332287	16.000000	n/a	0	0	-2.317708e-01
193.167370	1.332287	dec_choice	1.332287	16.000000	n/a	0	0	-2.317708e-01
193.167370	1.332287	dec_nonsocial_reject	1.332287	16.000000	n/a	0	0	1.145833e-01
193.167370	1.332287	dec_reject	1.332287	16.000000	n/a	0	0	1.187500e-01
193.167370	1.332287	dec_nonsocial_low	1.332287	16.000000	n/a	0	-2.317708e-01	-2.317708e-01
193.167370	1.332287	dec_nonsocial_reject_low	1.332287	16.000000	n/a	4	1.187500e-01	-1.312500e-01
200.000820	1.799101	dec_social_choice	1.799101	16.000000	n/a	0	0	-2.317708e-01
200.000820	1.799101	dec_choice	1.799101	16.000000	n/a	0	0	-2.317708e-01
200.000820	1.799101	dec_social_reject	1.799101	16.000000	n/a	0	0	-7.291667e-02
200.000820	1.799101	dec_reject	1.799101	16.000000	n/a	0	0	-7.708333e-02
200.000820	1.799101	dec_social_reject_low	1.799101	16.000000	n/a	1	-1.692708e-01	-2.317708e-01
207.650070	1.249719	dec_nonsocial_choice	1.249719	32.000000	n/a	16	2.682292e-01	2.682292e-01
207.650070	1.249719	dec_choice	1.249719	32.000000	n/a	16	2.682292e-01	2.682292e-01
207.650070	1.249719	dec_nonsocial_accept	1.249719	32.000000	n/a	16	1.076389e-01	1.076389e-01
207.650070	1.249719	dec_accept	1.249719	32.000000	n/a	16	1.006944e-01	1.006944e-01
207.650070	1.249719	dec_nonsocial_high	1.249719	32.000000	n/a	16	2.682292e-01	2.682292e-01
207.650070	1.249719	dec_nonsocial_accept_high	1.249719	32.000000	n/a	16	1.006944e-01	1.006944e-01
214.483100	0.949931	dec_social_choice	0.949931	16.000000	n/a	0	0	-2.317708e-01
214.483100	0.949931	dec_choice	0.949931	16.000000	n/a	0	0	-2.317708e-01
214.483100	0.949931	dec_social_reject	0.949931	16.000000	n/a	0	0	-1.041667e-02
214.483100	0.949931	dec_reject	0.949931	16.000000	n/a	0	0	-1.458333e-02
214.483100	0.949931	dec_social_low	0.949931	16.000000	n/a	0	-2.317708e-01	-2.317708e-01
214.483100	0.949931	dec_social_reject_low	0.949931	16.000000	n/a	2	-1.067708e-01	-2.317708e-01
221.317870	0.982134	dec_nonsocial_choice	0.982134	16.000000	n/a	0	0	-2.317708e-01
221.317870	0.982134	dec_choice	0.982134	16.000000	n/a	0	0	-2.317708e-01
221.317870	0.982134	dec_nonsocial_reject	0.982134	16.000000	n/a	0	0	-1.041667e-02
221.317870	0.982134	dec_reject	0.982134	16.000000	n/a	0	0	-6.250000e-03
221.317870	0.982134	dec_nonsocial_reject_low	0.982134	16.000000	n/a	2	-1.458333e-02	-1.395833e-01
233.800550	1.049339	dec_nonsocial_choice	1.049339	16.000000	n/a	0	0	-2.317708e-01
233.800550	1.049339	dec_choice	1.049339	16.000000	n/a	0	0	-2.317708e-01
233.800550	1.049339	dec_nonsocial_reject	1.049339	16.000000	n/a	0	0	-7.291667e-02
233.800550	1.049339	dec_reject	1.049339	16.000000	n/a	0	0	-6.875000e-02
233.800550	1.049339	dec_nonsocial_low	1.049339	16.000000	n/a	0	-2.317708e-01	-2.317708e-01
233.800550	1.049339	dec_nonsocial_reject_low	1.049339	16.000000	n/a	1	-6.875000e-02	-1.312500e-01
243.066070	0.783865	dec_nonsocial_choice	0.783865	32.000000	n/a	0	0	-2.317708e-01
243.066070	0.783865	dec_choice	0.783865	32.000000	n/a	0	0	-2.317708e-01
243.066070	0.783865	dec_nonsocial_reject	0.783865	32.000000	n/a	0	0	-7.291667e-02
243.066070	0.783865	dec_reject	0.783865	32.000000	n/a	0	0	-6.875000e-02
243.066070	0.783865	dec_nonsocial_low	0.783865	32.000000	n/a	0	-2.317708e-01	-2.317708e-01
243.066070	0.783865	dec_nonsocial_reject_low	0.783865	32.000000	n/a	2	-6.875000e-02	-1.312500e-01
250.716600	1.100132	dec_nonsocial_choice	1.100132	16.000000	n/a	0	0	-2.317708e-01
250.716600	1.100132	dec_choice	1.100132	16.000000	n/a	0	0	-2.317708e-01
250.716600	1.100132	dec_nonsocial_reject	1.100132	16.000000	n/a	0	0	-1.041667e-02
250.716600	1.100132	dec_reject	1.100132	16.000000	n/a	0	0	-6.250000e-03
250.716600	1.100132	dec_nonsocial_low	1.100132	16.000000	n/a	0	-2.317708e-01	-2.317708e-01
250.716600	1.100132	dec_nonsocial_reject_low	1.100132	16.000000	n/a	2	-6.250000e-03	-1.312500e-01
257.549650	0.850297	dec_nonsocial_choice	0.850297	32.000000	n/a	3	-1.380208e-01	-1.380208e-01
257.549650	0.850297	dec_choice	0.850297	32.000000	n/a	3	-1.380208e-01	-1.380208e-01
257.549650	0.850297	dec_nonsocial_accept	0.850297	32.000000	n/a	3	-2.986111e-01	-2.986111e-01
257.549650	0.850297	dec_accept	0.850297	32.000000	n/a	3	-3.055556e-01	-3.055556e-01
257.549650	0.850297	dec_nonsocial_low	0.850297	32.000000	n/a	3	-1.380208e-01	-1.380208e-01
257.549650	0.850297	dec_nonsocial_accept_low	0.850297	32.000000	n/a	3	-3.055556e-01	-3.055556e-01
264.382750	1.066634	dec_nonsocial_choice	1.066634	32.000000	n/a	0	0	-2.317708e-01
264.382750	1.066634	dec_choice	1.066634	32.000000	n/a	0	0	-2.317708e-01
264.382750	1.066634	dec_nonsocial_reject	1.066634	32.000000	n/a	0	0	-7.291667e-02
264.382750	1.066634	dec_reject	1.066634	32.000000	n/a	0	0	-6.875000e-02
264.382750	1.066634	dec_nonsocial_low	1.066634	32.000000	n/a	0	-2.317708e-01	-2.317708e-01
264.382750	1.066634	dec_nonsocial_reject_low	1.066634	32.000000	n/a	2	-6.875000e-02	-1.312500e-01
272.032650	1.133068	dec_social_choice	1.133068	32.000000	n/a	0	0	-2.317708e-01
272.032650	1.133068	dec_choice	1.133068	32.000000	n/a	0	0	-2.317708e-01
272.032650	1.133068	dec_social_reject	1.133068	32.000000	n/a	0	0	-7.291667e-02
272.032650	1.133068	dec_reject	1.133068	32.000000	n/a	0	0	-7.708333e-02
272.032650	1.133068	dec_social_reject_low	1.133068	32.000000	n/a	2	-1.692708e-01	-2.317708e-01
278.866730	1.849616	dec_nonsocial_choice	1.849616	16.000000	n/a	0	0	-2.317708e-01
278.866730	1.849616	dec_choice	1.849616	16.000000	n/a	0	0	-2.317708e-01
278.866730	1.849616	dec_nonsocial_reject	1.849616	16.000000	n/a	0	0	1.145833e-01
278.866730	1.849616	dec_reject	1.849616	16.000000	n/a	0	0	1.187500e-01
278.866730	1.849616	dec_nonsocial_low	1.849616	16.000000	n/a	0	-2.317708e-01	-2.317708e-01
278.866730	1.849616	dec_nonsocial_reject_low	1.849616	16.000000	n/a	4	1.187500e-01	-1.312500e-01
285.699770	1.799842	dec_social_choice	1.799842	16.000000	n/a	0	0	-2.317708e-01
285.699770	1.799842	dec_choice	1.799842	16.000000	n/a	0	0	-2.317708e-01
285.699770	1.799842	dec_social_reject	1.799842	16.000000	n/a	0	0	1.145833e-01
285.699770	1.799842	dec_reject	1.799842	16.000000	n/a	0	0	1.104167e-01
285.699770	1.799842	dec_social_low	1.799842	16.000000	n/a	0	-2.317708e-01	-2.317708e-01
285.699770	1.799842	dec_social_reject_low	1.799842	16.000000	n/a	4	1.822917e-02	-2.317708e-01
294.950350	1.482369	dec_social_choice	1.482369	16.000000	n/a	0	0	-2.317708e-01
294.950350	1.482369	dec_choice	1.482369	16.000000	n/a	0	0	-2.317708e-01
294.950350	1.482369	dec_social_reject	1.482369	16.000000	n/a	0	0	1.145833e-01
294.950350	1.482369	dec_reject	1.482369	16.000000	n/a	0	0	1.104167e-01
294.950350	1.482369	dec_social_low	1.482369	16.000000	n/a	0	-2.317708e-01	-2.317708e-01
294.950350	1.482369	dec_social_reject_low	1.482369	16.000000	n/a	4	1.822917e-02	-2.317708e-01
301.782530	1.383750	dec_nonsocial_choice	1.383750	16.000000	n/a	0	0	-2.317708e-01
301.782530	1.383750	dec_choice	1.383750	16.000000	n/a	0	0	-2.317708e-01
301.782530	1.383750	dec_nonsocial_reject	1.383750	16.000000	n/a	0	0	1.145833e-01
301.782530	1.383750	dec_reject	1.383750	16.000000	n/a	0	0	1.187500e-01
301.782530	1.383750	dec_nonsocial_reject_low	1.383750	16.000000	n/a	4	1.104167e-01	-1.395833e-01
312.666350	0.899963	dec_social_choice	0.899963	16.000000	n/a	0	0	-2.317708e-01
312.666350	0.899963	dec_choice	0.899963	16.000000	n/a	0	0	-2.317708e-01
312.666350	0.899963	dec_social_reject	0.899963	16.000000	n/a	0	0	-7.291667e-02
312.666350	0.899963	dec_reject	0.899963	16.000000	n/a	0	0	-7.708333e-02
312.666350	0.899963	dec_social_low	0.899963	16.000000	n/a	0	-2.317708e-01	-2.317708e-01
312.666350	0.899963	dec_social_reject_low	0.899963	16.000000	n/a	1	-1.692708e-01	-2.317708e-01
319.499730	2.283115	dec_nonsocial_choice	2.283115	32.000000	n/a	0	0	-2.317708e-01
319.499730	2.283115	dec_choice	2.283115	32.000000	n/a	0	0	-2.317708e-01
319.499730	2.283115	dec_nonsocial_reject	2.283115	32.000000	n/a	0	0	1.145833e-01
319.499730	2.283115	dec_reject	2.283115	32.000000	n/a	0	0	1.187500e-01
319.499730	2.283115	dec_nonsocial_low	2.283115	32.000000	n/a	0	-2.317708e-01	-2.317708e-01
319.499730	2.283115	dec_nonsocial_reject_low	2.283115	32.000000	n/a	8	1.187500e-01	-1.312500e-01
328.766600	1.349673	dec_social_choice	1.349673	32.000000	n/a	0	0	-2.317708e-01
328.766600	1.349673	dec_choice	1.349673	32.000000	n/a	0	0	-2.317708e-01
328.766600	1.349673	dec_social_reject	1.349673	32.000000	n/a	0	0	1.145833e-01
328.766600	1.349673	dec_reject	1.349673	32.000000	n/a	0	0	1.104167e-01
328.766600	1.349673	dec_social_low	1.349673	32.000000	n/a	0	-2.317708e-01	-2.317708e-01
328.766600	1.349673	dec_social_reject_low	1.349673	32.000000	n/a	8	1.822917e-02	-2.317708e-01
336.416050	1.000153	dec_nonsocial_choice	1.000153	32.000000	n/a	16	2.682292e-01	2.682292e-01
336.416050	1.000153	dec_choice	1.000153	32.000000	n/a	16	2.682292e-01	2.682292e-01
336.416050	1.000153	dec_nonsocial_accept	1.000153	32.000000	n/a	16	1.076389e-01	1.076389e-01
336.416050	1.000153	dec_accept	1.000153	32.000000	n/a	16	1.006944e-01	1.006944e-01
336.416050	1.000153	dec_nonsocial_accept_high	1.000153	32.000000	n/a	16	1.145833e-01	1.145833e-01
344.050020	0.832589	dec_social_choice	0.832589	32.000000	n/a	0	0	-2.317708e-01
344.050020	0.832589	dec_choice	0.832589	32.000000	n/a	0	0	-2.317708e-01
344.050020	0.832589	dec_social_reject	0.832589	32.000000	n/a	0	0	-7.291667e-02
344.050020	0.832589	dec_reject	0.832589	32.000000	n/a	0	0	-7.708333e-02
344.050020	0.832589	dec_social_low	0.832589	32.000000	n/a	0	-2.317708e-01	-2.317708e-01
344.050020	0.832589	dec_social_reject_low	0.832589	32.000000	n/a	2	-1.692708e-01	-2.317708e-01
350.882600	1.066384	dec_social_choice	1.066384	16.000000	n/a	4	1.822917e-02	1.822917e-02
350.882600	1.066384	dec_choice	1.066384	16.000000	n/a	4	1.822917e-02	1.822917e-02
350.882600	1.066384	dec_social_accept	1.066384	16.000000	n/a	4	-1.423611e-01	-1.423611e-01
350.882600	1.066384	dec_accept	1.066384	16.000000	n/a	4	-1.354167e-01	-1.354167e-01
350.882600	1.066384	dec_social_high	1.066384	16.000000	n/a	4	1.822917e-02	1.822917e-02
350.882600	1.066384	dec_social_accept_high	1.066384	16.000000	n/a	4	1.822917e-02	1.822917e-02
357.715880	1.066391	dec_nonsocial_choice	1.066391	32.000000	n/a	16	2.682292e-01	2.682292e-01
357.715880	1.066391	dec_choice	1.066391	32.000000	n/a	16	2.682292e-01	2.682292e-01
357.715880	1.066391	dec_nonsocial_accept	1.066391	32.000000	n/a	16	1.076389e-01	1.076389e-01
357.715880	1.066391	dec_accept	1.066391	32.000000	n/a	16	1.006944e-01	1.006944e-01
357.715880	1.066391	dec_nonsocial_high	1.066391	32.000000	n/a	16	2.682292e-01	2.682292e-01
357.715880	1.066391	dec_nonsocial_accept_high	1.066391	32.000000	n/a	16	1.006944e-01	1.006944e-01
365.365700	1.049952	dec_social_choice	1.049952	16.000000	n/a	0	0	-2.317708e-01
365.365700	1.049952	dec_choice	1.049952	16.000000	n/a	0	0	-2.317708e-01
365.365700	1.049952	dec_social_reject	1.049952	16.000000	n/a	0	0	-1.041667e-02
365.365700	1.049952	dec_reject	1.049952	16.000000	n/a	0	0	-1.458333e-02
365.365700	1.049952	dec_social_low	1.049952	16.000000	n/a	0	-2.317708e-01	-2.317708e-01
365.365700	1.049952	dec_social_reject_low	1.049952	16.000000	n/a	2	-1.067708e-01	-2.317708e-01
372.198400	1.367663	dec_social_choice	1.367663	16.000000	n/a	8	2.682292e-01	2.682292e-01
372.198400	1.367663	dec_choice	1.367663	16.000000	n/a	8	2.682292e-01	2.682292e-01
372.198400	1.367663	dec_social_accept	1.367663	16.000000	n/a	8	1.076389e-01	1.076389e-01
372.198400	1.367663	dec_accept	1.367663	16.000000	n/a	8	1.145833e-01	1.145833e-01
372.198400	1.367663	dec_social_accept_high	1.367663	16.000000	n/a	8	2.682292e-01	2.682292e-01
