instrText,stimDoor,stimDoorLure,stimFace,stimFaceLure,Instructions.thisRepN,Instructions.thisTrialN,Instructions.thisN,Instructions.thisIndex,Trials.thisRepN,Trials.thisTrialN,Trials.thisN,Trials.thisIndex,Func,Keys,Text,RespTime,Onset,Offset,SystemTime_Start,SystemTime_Stop,Stim,Lure,Participant*,Age,date,expName,psychopyVersion,frameRate,
"In the earlier Feedback Games, you chose which doors contained a prize, and which peers liked you. 

You then saw positive or negative feedback (green check mark or red X) from the door or peer you selected.

You will now see a series of doors and peers, some of which you saw during the earlier Feedback Games, and some that you have never seen before.

Please press the spacebar to continue.",,,,,0,0,0,0,,,,,instrFunc,space,"In the earlier Feedback Games, you chose which doors contained a prize, and which peers liked you. 

You then saw positive or negative feedback (green check mark or red X) from the door or peer you selected.

You will now see a series of doors and peers, some of which you saw during the earlier Feedback Games, and some that you have never seen before.

Please press the spacebar to continue.",19.49150370000001,29.94842460000001,49.50712488000022,2023-11-10 20:00:29.129676,2023-11-10 20:00:48.745368,,,10838,18-29,2023-11-10_20h00.24.863,Recall,2021.2.3,60.00661272873603,
"For doors/peers that you remember selecting and getting feedback from, your job is to RECALL what feedback you received. 

Press '1' if you recall positive feedback. 

Press '2' if you recall negative feedback

Press the spacebar to continue.",,,,,0,1,1,1,,,,,instrFunc,space,"For doors/peers that you remember selecting and getting feedback from, your job is to RECALL what feedback you received. 

Press '1' if you recall positive feedback. 

Press '2' if you recall negative feedback

Press the spacebar to continue.",5.936898399999961,49.48692399999999,55.48181493999999,2023-11-10 20:00:48.747369,2023-11-10 20:00:54.746996,,,10838,18-29,2023-11-10_20h00.24.863,Recall,2021.2.3,60.00661272873603,
"For doors/peers that you don't remember getting feedback from, your job is to PREDICT what feedback you WOULD HAVE received.

Press '9' if you predict positive feedback.

Press '0' if you predict negative feedback. 

Please press the spacebar to continue.",,,,,0,2,2,2,,,,,instrFunc,space,"For doors/peers that you don't remember getting feedback from, your job is to PREDICT what feedback you WOULD HAVE received.

Press '9' if you predict positive feedback.

Press '0' if you predict negative feedback. 

Please press the spacebar to continue.",7.153808999999967,55.470003099999985,62.68172023999995,2023-11-10 20:00:54.749029,2023-11-10 20:01:01.968435,,,10838,18-29,2023-11-10_20h00.24.863,Recall,2021.2.3,60.00661272873603,
"This task is self-paced, and the prompts will always stay on the screen so that you know which buttons to press.

On the next screen we will show you what those prompts look like, so that you know exactly what to expect. 

You will start with either doors or peers, and then switch halfway through. 

Please press the spacebar to continue.",,,,,0,3,3,3,,,,,instrFunc,space,"This task is self-paced, and the prompts will always stay on the screen so that you know which buttons to press.

On the next screen we will show you what those prompts look like, so that you know exactly what to expect. 

You will start with either doors or peers, and then switch halfway through. 

Please press the spacebar to continue.",1.438180099999954,62.65784400000001,64.13718714000004,2023-11-10 20:01:01.970410,2023-11-10 20:01:03.440114,,,10838,18-29,2023-11-10_20h00.24.863,Recall,2021.2.3,60.00661272873603,
,,,,,,,,,,,,,imgtextFunc,space,"Here is what the screen will look like while you make your ratings.
The green circles remind you to press 1 or 9 for positive feedback.
The red circles remind you to press 2 or 0 for negative feedback.









Please let the experimenter know if you have any questions.

Whenever you're ready, press the spacebar to start the task.",9.856344500000034,64.30368140000002,74.35876614,2023-11-10 20:01:03.454080,2023-11-10 20:01:13.537986,,,10838,18-29,2023-11-10_20h00.24.863,Recall,2021.2.3,60.00661272873603,
,SD014.jpg,0,MF014.jpg,0,,,,,0,0,0,63,imgFunc,9,NA,6.272970600000008,74.31901579999999,80.71197815999994,2023-11-10 20:01:13.590995,2023-11-10 20:01:19.989500,SD014.jpg,0,10838,18-29,2023-11-10_20h00.24.863,Recall,2021.2.3,60.00661272873603,
,DD002.jpg,0,FF002.jpg,0,,,,,0,1,1,1,imgFunc,9,NA,3.1526527999999985,80.73521669999997,84.02031873999994,2023-11-10 20:01:20.005529,2023-11-10 20:01:23.300009,DD002.jpg,0,10838,18-29,2023-11-10_20h00.24.863,Recall,2021.2.3,60.00661272873603,
,L_DD509.jpg,1,L_FF509.jpg,1,,,,,0,2,2,48,imgFunc,9,NA,1.87621340000004,84.01175059999997,85.99578993999995,2023-11-10 20:01:23.316013,2023-11-10 20:01:25.306748,L_DD509.jpg,1,10838,18-29,2023-11-10_20h00.24.863,Recall,2021.2.3,60.00661272873603,
,L_SD502.jpg,1,L_MF502.jpg,1,,,,,0,3,3,91,imgFunc,0,NA,1.4398922999999968,86.00015400000001,87.54124003999999,2023-11-10 20:01:25.318777,2023-11-10 20:01:26.860707,L_SD502.jpg,1,10838,18-29,2023-11-10_20h00.24.863,Recall,2021.2.3,60.00661272873603,
,SD028.jpg,0,MF028.jpg,0,,,,,0,4,4,77,imgFunc,2,NA,4.53922510000001,87.5565709,92.21341724000001,2023-11-10 20:01:26.873705,2023-11-10 20:01:31.541835,SD028.jpg,0,10838,18-29,2023-11-10_20h00.24.863,Recall,2021.2.3,60.00661272873603,
,DD018.jpg,0,FF018.jpg,0,,,,,0,5,5,17,imgFunc,2,NA,2.6700945999999703,92.24185419999998,95.02604513999995,2023-11-10 20:01:31.557838,2023-11-10 20:01:34.350379,DD018.jpg,0,10838,18-29,2023-11-10_20h00.24.863,Recall,2021.2.3,60.00661272873603,
,DD007.jpg,0,FF007.jpg,0,,,,,0,6,6,6,imgFunc,0,NA,1.3723514999999793,95.02764250000001,96.51761103999996,2023-11-10 20:01:34.363378,2023-11-10 20:01:35.854578,DD007.jpg,0,10838,18-29,2023-11-10_20h00.24.863,Recall,2021.2.3,60.00661272873603,
,DD025.jpg,0,FF025.jpg,0,,,,,0,7,7,24,imgFunc,0,NA,3.195343799999989,96.51642979999997,99.82503483999994,2023-11-10 20:01:35.866583,2023-11-10 20:01:39.181489,DD025.jpg,0,10838,18-29,2023-11-10_20h00.24.863,Recall,2021.2.3,60.00661272873603,
,DD016.jpg,0,FF016.jpg,0,,,,,0,8,8,15,imgFunc,0,NA,2.7919872999999598,99.84805999999998,102.75334383999996,2023-11-10 20:01:39.195470,2023-11-10 20:01:42.107458,DD016.jpg,0,10838,18-29,2023-11-10_20h00.24.863,Recall,2021.2.3,60.00661272873603,
,SD006.jpg,0,MF006.jpg,0,,,,,0,9,9,55,imgFunc,1,NA,1.7417212999999947,102.75408119999997,104.61142533999998,2023-11-10 20:01:42.119463,2023-11-10 20:01:43.978993,SD006.jpg,0,10838,18-29,2023-11-10_20h00.24.863,Recall,2021.2.3,60.00661272873603,
,L_DD506.jpg,1,L_FF506.jpg,1,,,,,0,10,10,45,imgFunc,2,NA,2.0955017999999654,104.6244484,106.83200063999999,2023-11-10 20:01:43.991998,2023-11-10 20:01:46.202768,L_DD506.jpg,1,10838,18-29,2023-11-10_20h00.24.863,Recall,2021.2.3,60.00661272873603,
,DD009.jpg,0,FF009.jpg,0,,,,,0,11,11,8,imgFunc,2,NA,2.143683699999997,106.84827789999997,109.11284437999996,2023-11-10 20:01:46.219773,2023-11-10 20:01:48.476171,DD009.jpg,0,10838,18-29,2023-11-10_20h00.24.863,Recall,2021.2.3,60.00661272873603,
,DD032.jpg,0,FF032.jpg,0,,,,,0,12,12,31,imgFunc,1,NA,1.0764010999999982,109.0994748,110.27314983999997,2023-11-10 20:01:48.489199,2023-11-10 20:01:49.663257,DD032.jpg,0,10838,18-29,2023-11-10_20h00.24.863,Recall,2021.2.3,60.00661272873603,
,DD019.jpg,0,FF019.jpg,0,,,,,0,13,13,18,imgFunc,1,NA,1.7596677999999883,110.288274,112.16156794,2023-11-10 20:01:49.676263,2023-11-10 20:01:51.552192,DD019.jpg,0,10838,18-29,2023-11-10_20h00.24.863,Recall,2021.2.3,60.00661272873603,
,DD039.jpg,0,FF039.jpg,0,,,,,0,14,14,38,imgFunc,9,NA,0.839803800000027,112.16829810000002,113.10800724,2023-11-10 20:01:51.565220,2023-11-10 20:01:52.505159,DD039.jpg,0,10838,18-29,2023-11-10_20h00.24.863,Recall,2021.2.3,60.00661272873603,
,DD036.jpg,0,FF036.jpg,0,,,,,0,15,15,35,imgFunc,9,NA,1.0143866999999887,113.1293875,114.27063074,2023-11-10 20:01:52.517148,2023-11-10 20:01:53.658317,DD036.jpg,0,10838,18-29,2023-11-10_20h00.24.863,Recall,2021.2.3,60.00661272873603,
,DD015.jpg,0,FF015.jpg,0,,,,,0,16,16,14,imgFunc,2,NA,1.0298076000000265,114.26596799999999,115.40488384000002,2023-11-10 20:01:53.672291,2023-11-10 20:01:54.811647,DD015.jpg,0,10838,18-29,2023-11-10_20h00.24.863,Recall,2021.2.3,60.00661272873603,
,L_SD508.jpg,1,L_MF508.jpg,1,,,,,0,17,17,97,imgFunc,1,NA,0.8550481000000332,115.41699089999997,116.37242923999997,2023-11-10 20:01:54.825652,2023-11-10 20:01:55.780982,L_SD508.jpg,1,10838,18-29,2023-11-10_20h00.24.863,Recall,2021.2.3,60.00661272873603,
,L_DD505.jpg,1,L_FF505.jpg,1,,,,,0,18,18,44,imgFunc,0,NA,0.7517197999999894,116.38405080000001,117.24112884000004,2023-11-10 20:01:55.793985,2023-11-10 20:01:56.650385,L_DD505.jpg,1,10838,18-29,2023-11-10_20h00.24.863,Recall,2021.2.3,60.00661272873603,
,SD002.jpg,0,MF002.jpg,0,,,,,0,19,19,51,imgFunc,2,NA,0.7037412999999901,117.24805609999999,118.05505784000007,2023-11-10 20:01:56.663363,2023-11-10 20:01:57.470253,SD002.jpg,0,10838,18-29,2023-11-10_20h00.24.863,Recall,2021.2.3,60.00661272873603,
,SD031.jpg,0,MF031.jpg,0,,,,,0,20,20,80,imgFunc,9,NA,0.726594700000021,118.07339259999998,118.92089307999998,2023-11-10 20:01:57.487287,2023-11-10 20:01:58.322838,SD031.jpg,0,10838,18-29,2023-11-10_20h00.24.863,Recall,2021.2.3,60.00661272873603,
,L_SD505.jpg,1,L_MF505.jpg,1,,,,,0,21,21,94,imgFunc,2,NA,0.6677808000000027,118.91603529999998,119.69063513999998,2023-11-10 20:01:58.334843,2023-11-10 20:01:59.108107,L_SD505.jpg,1,10838,18-29,2023-11-10_20h00.24.863,Recall,2021.2.3,60.00661272873603,
,DD038.jpg,0,FF038.jpg,0,,,,,0,22,22,37,imgFunc,0,NA,1.192502300000001,119.7032294,121.00917283999996,2023-11-10 20:01:59.122113,2023-11-10 20:02:00.428901,DD038.jpg,0,10838,18-29,2023-11-10_20h00.24.863,Recall,2021.2.3,60.00661272873603,
,SD003.jpg,0,MF003.jpg,0,,,,,0,23,23,52,imgFunc,2,NA,0.8230049000000008,121.01701989999998,121.93931654000005,2023-11-10 20:02:00.442842,2023-11-10 20:02:01.365659,SD003.jpg,0,10838,18-29,2023-11-10_20h00.24.863,Recall,2021.2.3,60.00661272873603,
,SD019.jpg,0,MF019.jpg,0,,,,,0,24,24,68,imgFunc,0,NA,2.242289400000004,121.9494755,124.30569654000004,2023-11-10 20:02:01.378662,2023-11-10 20:02:03.738580,SD019.jpg,0,10838,18-29,2023-11-10_20h00.24.863,Recall,2021.2.3,60.00661272873603,
,DD037.jpg,0,FF037.jpg,0,,,,,0,25,25,36,imgFunc,9,NA,0.9276274000000058,124.32031159999997,125.35816393999988,2023-11-10 20:02:03.752586,2023-11-10 20:02:04.792155,DD037.jpg,0,10838,18-29,2023-11-10_20h00.24.863,Recall,2021.2.3,60.00661272873603,
,L_SD504.jpg,1,L_MF504.jpg,1,,,,,0,26,26,93,imgFunc,9,NA,0.7712391000000025,125.37244989999999,126.25927053999999,2023-11-10 20:02:04.807192,2023-11-10 20:02:05.694576,L_SD504.jpg,1,10838,18-29,2023-11-10_20h00.24.863,Recall,2021.2.3,60.00661272873603,
,SD038.jpg,0,MF038.jpg,0,,,,,0,27,27,87,imgFunc,0,NA,0.6781556000000251,126.26576269999998,127.05617763999993,2023-11-10 20:02:05.707581,2023-11-10 20:02:06.496621,SD038.jpg,0,10838,18-29,2023-11-10_20h00.24.863,Recall,2021.2.3,60.00661272873603,
,DD001.jpg,0,FF001.jpg,0,,,,,0,28,28,0,imgFunc,2,NA,0.7421773000000371,127.06562909999997,127.90803674,2023-11-10 20:02:06.508624,2023-11-10 20:02:07.350017,DD001.jpg,0,10838,18-29,2023-11-10_20h00.24.863,Recall,2021.2.3,60.00661272873603,
,SD010.jpg,0,MF010.jpg,0,,,,,0,29,29,59,imgFunc,1,NA,1.7222494000000097,127.92550699999998,129.77182807999998,2023-11-10 20:02:07.368026,2023-11-10 20:02:09.205149,SD010.jpg,0,10838,18-29,2023-11-10_20h00.24.863,Recall,2021.2.3,60.00661272873603,
,DD012.jpg,0,FF012.jpg,0,,,,,0,30,30,11,imgFunc,1,NA,0.9563499000000206,129.7634117,130.81936173999998,2023-11-10 20:02:09.219125,2023-11-10 20:02:10.275192,DD012.jpg,0,10838,18-29,2023-11-10_20h00.24.863,Recall,2021.2.3,60.00661272873603,
,SD007.jpg,0,MF007.jpg,0,,,,,0,31,31,56,imgFunc,1,NA,0.8173271,130.83060639999997,131.75314153999994,2023-11-10 20:02:10.288198,2023-11-10 20:02:11.211467,SD007.jpg,0,10838,18-29,2023-11-10_20h00.24.863,Recall,2021.2.3,60.00661272873603,
,DD013.jpg,0,FF013.jpg,0,,,,,0,32,32,12,imgFunc,0,NA,0.7977708000000234,131.7620417,132.66904413999993,2023-11-10 20:02:11.224464,2023-11-10 20:02:12.130661,DD013.jpg,0,10838,18-29,2023-11-10_20h00.24.863,Recall,2021.2.3,60.00661272873603,
,DD004.jpg,0,FF004.jpg,0,,,,,0,33,33,3,imgFunc,2,NA,0.899118000000044,132.6847983,133.69154524000004,2023-11-10 20:02:12.143665,2023-11-10 20:02:13.150546,DD004.jpg,0,10838,18-29,2023-11-10_20h00.24.863,Recall,2021.2.3,60.00661272873603,
,SD032.jpg,0,MF032.jpg,0,,,,,0,34,34,81,imgFunc,1,NA,0.6263117999999963,133.69358239999997,134.41832133999992,2023-11-10 20:02:13.162538,2023-11-10 20:02:13.886376,SD032.jpg,0,10838,18-29,2023-11-10_20h00.24.863,Recall,2021.2.3,60.00661272873603,
,DD031.jpg,0,FF031.jpg,0,,,,,0,35,35,30,imgFunc,1,NA,0.747839200000044,134.4358697,135.29351693999996,2023-11-10 20:02:13.898360,2023-11-10 20:02:14.755130,DD031.jpg,0,10838,18-29,2023-11-10_20h00.24.863,Recall,2021.2.3,60.00661272873603,
,SD025.jpg,0,MF025.jpg,0,,,,,0,36,36,74,imgFunc,0,NA,0.6691397000000165,135.2987521,136.07058264000005,2023-11-10 20:02:14.769136,2023-11-10 20:02:15.541496,SD025.jpg,0,10838,18-29,2023-11-10_20h00.24.863,Recall,2021.2.3,60.00661272873603,
,SD016.jpg,0,MF016.jpg,0,,,,,0,37,37,65,imgFunc,1,NA,0.6234580000000278,136.08030680000002,136.80406574000006,2023-11-10 20:02:15.554524,2023-11-10 20:02:16.277144,SD016.jpg,0,10838,18-29,2023-11-10_20h00.24.863,Recall,2021.2.3,60.00661272873603,
,SD036.jpg,0,MF036.jpg,0,,,,,0,38,38,85,imgFunc,2,NA,1.0581829999999854,136.8298305,138.01001458000002,2023-11-10 20:02:16.295175,2023-11-10 20:02:17.464212,SD036.jpg,0,10838,18-29,2023-11-10_20h00.24.863,Recall,2021.2.3,60.00661272873603,
,L_DD510.jpg,1,L_FF510.jpg,1,,,,,0,39,39,49,imgFunc,9,NA,1.429699600000049,137.99404019999997,139.53549663999996,2023-11-10 20:02:17.476217,2023-11-10 20:02:19.017998,L_DD510.jpg,1,10838,18-29,2023-11-10_20h00.24.863,Recall,2021.2.3,60.00661272873603,
,L_SD503.jpg,1,L_MF503.jpg,1,,,,,0,40,40,92,imgFunc,9,NA,0.7937935000000493,139.5421842,140.43268454000003,2023-11-10 20:02:19.030994,2023-11-10 20:02:19.920892,L_SD503.jpg,1,10838,18-29,2023-11-10_20h00.24.863,Recall,2021.2.3,60.00661272873603,
,DD006.jpg,0,FF006.jpg,0,,,,,0,41,41,5,imgFunc,1,NA,1.0372322000000054,140.4509223,141.58913743999994,2023-11-10 20:02:19.934866,2023-11-10 20:02:21.075166,DD006.jpg,0,10838,18-29,2023-11-10_20h00.24.863,Recall,2021.2.3,60.00661272873603,
,SD008.jpg,0,MF008.jpg,0,,,,,0,42,42,57,imgFunc,9,NA,0.9163176999999791,141.59555109999997,142.62010753999994,2023-11-10 20:02:21.087171,2023-11-10 20:02:22.110589,SD008.jpg,0,10838,18-29,2023-11-10_20h00.24.863,Recall,2021.2.3,60.00661272873603,
,SD034.jpg,0,MF034.jpg,0,,,,,0,43,43,83,imgFunc,1,NA,0.8775250999999571,142.6263551,143.59883344000002,2023-11-10 20:02:22.124559,2023-11-10 20:02:23.097525,SD034.jpg,0,10838,18-29,2023-11-10_20h00.24.863,Recall,2021.2.3,60.00661272873603,
,DD034.jpg,0,FF034.jpg,0,,,,,0,44,44,33,imgFunc,1,NA,1.070848299999966,143.61716919999998,144.78854864,2023-11-10 20:02:23.111560,2023-11-10 20:02:24.284613,DD034.jpg,0,10838,18-29,2023-11-10_20h00.24.863,Recall,2021.2.3,60.00661272873603,
,SD020.jpg,0,MF020.jpg,0,,,,,0,45,45,69,imgFunc,9,NA,1.2288436000000047,144.80293,146.14498743999997,2023-11-10 20:02:24.296618,2023-11-10 20:02:25.638329,SD020.jpg,0,10838,18-29,2023-11-10_20h00.24.863,Recall,2021.2.3,60.00661272873603,
,SD012.jpg,0,MF012.jpg,0,,,,,0,46,46,61,imgFunc,1,NA,0.8487021999999911,146.15908459999997,147.13124023999995,2023-11-10 20:02:25.652336,2023-11-10 20:02:26.624361,SD012.jpg,0,10838,18-29,2023-11-10_20h00.24.863,Recall,2021.2.3,60.00661272873603,
,L_DD501.jpg,1,L_FF501.jpg,1,,,,,0,47,47,40,imgFunc,1,NA,0.9486699000000272,147.1472662,148.22422277999993,2023-11-10 20:02:26.644371,2023-11-10 20:02:27.711418,L_DD501.jpg,1,10838,18-29,2023-11-10_20h00.24.863,Recall,2021.2.3,60.00661272873603,
,SD001.jpg,0,MF001.jpg,0,,,,,0,48,48,50,imgFunc,1,NA,1.176746000000037,148.21512639999997,149.50571723999997,2023-11-10 20:02:27.723446,2023-11-10 20:02:29.015309,SD001.jpg,0,10838,18-29,2023-11-10_20h00.24.863,Recall,2021.2.3,60.00661272873603,
,SD037.jpg,0,MF037.jpg,0,,,,,0,49,49,86,imgFunc,0,NA,2.8525146000000063,149.5154043,152.46970333999997,2023-11-10 20:02:29.029316,2023-11-10 20:02:31.990814,SD037.jpg,0,10838,18-29,2023-11-10_20h00.24.863,Recall,2021.2.3,60.00661272873603,
,SD009.jpg,0,MF009.jpg,0,,,,,0,50,50,58,imgFunc,2,NA,1.2129206000000181,152.48285449999997,153.80698223999997,2023-11-10 20:02:32.003843,2023-11-10 20:02:33.328048,SD009.jpg,0,10838,18-29,2023-11-10_20h00.24.863,Recall,2021.2.3,60.00661272873603,
,DD027.jpg,0,FF027.jpg,0,,,,,0,51,51,26,imgFunc,1,NA,1.128126399999985,153.81566750000002,155.05555323999994,2023-11-10 20:02:33.341051,2023-11-10 20:02:34.581616,DD027.jpg,0,10838,18-29,2023-11-10_20h00.24.863,Recall,2021.2.3,60.00661272873603,
,L_DD503.jpg,1,L_FF503.jpg,1,,,,,0,52,52,42,imgFunc,0,NA,1.1626224999999977,155.0612749,156.33588484,2023-11-10 20:02:34.594596,2023-11-10 20:02:35.869230,L_DD503.jpg,1,10838,18-29,2023-11-10_20h00.24.863,Recall,2021.2.3,60.00661272873603,
,SD035.jpg,0,MF035.jpg,0,,,,,0,53,53,84,imgFunc,0,NA,0.7260384999999587,156.34563029999998,157.18712884,2023-11-10 20:02:35.881209,2023-11-10 20:02:36.722172,SD035.jpg,0,10838,18-29,2023-11-10_20h00.24.863,Recall,2021.2.3,60.00661272873603,
,DD022.jpg,0,FF022.jpg,0,,,,,0,54,54,21,imgFunc,9,NA,1.335453599999994,157.1924869,158.63355664,2023-11-10 20:02:36.734175,2023-11-10 20:02:38.175909,DD022.jpg,0,10838,18-29,2023-11-10_20h00.24.863,Recall,2021.2.3,60.00661272873603,
,DD035.jpg,0,FF035.jpg,0,,,,,0,55,55,34,imgFunc,9,NA,1.2156444999999962,158.6560467,159.99561303999997,2023-11-10 20:02:38.188909,2023-11-10 20:02:39.530170,DD035.jpg,0,10838,18-29,2023-11-10_20h00.24.863,Recall,2021.2.3,60.00661272873603,
,DD030.jpg,0,FF030.jpg,0,,,,,0,56,56,29,imgFunc,9,NA,0.9485736999999972,160.0113033,161.09093158000002,2023-11-10 20:02:39.548172,2023-11-10 20:02:40.616805,DD030.jpg,0,10838,18-29,2023-11-10_20h00.24.863,Recall,2021.2.3,60.00661272873603,
,L_SD510.jpg,1,L_MF510.jpg,1,,,,,0,57,57,99,imgFunc,0,NA,0.8875472999999943,161.08010380000002,162.07058194,2023-11-10 20:02:40.629802,2023-11-10 20:02:41.619924,L_SD510.jpg,1,10838,18-29,2023-11-10_20h00.24.863,Recall,2021.2.3,60.00661272873603,
,SD004.jpg,0,MF004.jpg,0,,,,,0,58,58,53,imgFunc,0,NA,1.7652436999999281,162.0745556,163.94669153999996,2023-11-10 20:02:41.632960,2023-11-10 20:02:43.509138,SD004.jpg,0,10838,18-29,2023-11-10_20h00.24.863,Recall,2021.2.3,60.00661272873603,
,DD026.jpg,0,FF026.jpg,0,,,,,0,59,59,25,imgFunc,0,NA,0.5999524000000065,163.959852,164.66623034000014,2023-11-10 20:02:43.522145,2023-11-10 20:02:44.227394,DD026.jpg,0,10838,18-29,2023-11-10_20h00.24.863,Recall,2021.2.3,60.00661272873603,
,DD008.jpg,0,FF008.jpg,0,,,,,0,60,60,7,imgFunc,2,NA,1.6057517000000416,164.68196210000002,166.40451023999987,2023-11-10 20:02:44.241362,2023-11-10 20:02:45.965990,DD008.jpg,0,10838,18-29,2023-11-10_20h00.24.863,Recall,2021.2.3,60.00661272873603,
,DD028.jpg,0,FF028.jpg,0,,,,,0,61,61,27,imgFunc,1,NA,0.9463371000000507,166.41340069999995,167.4702541399999,2023-11-10 20:02:45.978990,2023-11-10 20:02:47.035593,DD028.jpg,0,10838,18-29,2023-11-10_20h00.24.863,Recall,2021.2.3,60.00661272873603,
,DD024.jpg,0,FF024.jpg,0,,,,,0,62,62,23,imgFunc,0,NA,1.4679840000000013,167.47592549999996,169.04863804000007,2023-11-10 20:02:47.049599,2023-11-10 20:02:48.624562,DD024.jpg,0,10838,18-29,2023-11-10_20h00.24.863,Recall,2021.2.3,60.00661272873603,
,SD027.jpg,0,MF027.jpg,0,,,,,0,63,63,76,imgFunc,0,NA,0.7298041000000239,169.06190969999994,169.90212774000003,2023-11-10 20:02:48.637537,2023-11-10 20:02:49.476905,SD027.jpg,0,10838,18-29,2023-11-10_20h00.24.863,Recall,2021.2.3,60.00661272873603,
,L_SD509.jpg,1,L_MF509.jpg,1,,,,,0,64,64,98,imgFunc,1,NA,1.1426055999999107,169.91314889999995,171.17033013999998,2023-11-10 20:02:49.489910,2023-11-10 20:02:50.747336,L_SD509.jpg,1,10838,18-29,2023-11-10_20h00.24.863,Recall,2021.2.3,60.00661272873603,
,L_SD501.jpg,1,L_MF501.jpg,1,,,,,0,65,65,90,imgFunc,0,NA,0.7343253999999888,171.18549809999996,172.04996447999991,2023-11-10 20:02:50.765327,2023-11-10 20:02:51.617147,L_SD501.jpg,1,10838,18-29,2023-11-10_20h00.24.863,Recall,2021.2.3,60.00661272873603,
,SD040.jpg,0,MF040.jpg,0,,,,,0,66,66,89,imgFunc,9,NA,0.9200483999999278,172.0398194,173.06404533999984,2023-11-10 20:02:51.629159,2023-11-10 20:02:52.652918,SD040.jpg,0,10838,18-29,2023-11-10_20h00.24.863,Recall,2021.2.3,60.00661272873603,
,DD003.jpg,0,FF003.jpg,0,,,,,0,67,67,2,imgFunc,2,NA,0.7162978999999723,173.07564540000004,173.89930783999995,2023-11-10 20:02:52.665921,2023-11-10 20:02:53.488787,DD003.jpg,0,10838,18-29,2023-11-10_20h00.24.863,Recall,2021.2.3,60.00661272873603,
,L_DD508.jpg,1,L_FF508.jpg,1,,,,,0,68,68,47,imgFunc,9,NA,0.7635004999999637,173.90837870000001,174.78367394000003,2023-11-10 20:02:53.500792,2023-11-10 20:02:54.375401,L_DD508.jpg,1,10838,18-29,2023-11-10_20h00.24.863,Recall,2021.2.3,60.00661272873603,
,DD023.jpg,0,FF023.jpg,0,,,,,0,69,69,22,imgFunc,9,NA,0.601330599999983,174.79058059999994,175.49860103999998,2023-11-10 20:02:54.387406,2023-11-10 20:02:55.093483,DD023.jpg,0,10838,18-29,2023-11-10_20h00.24.863,Recall,2021.2.3,60.00661272873603,
,SD017.jpg,0,MF017.jpg,0,,,,,0,70,70,66,imgFunc,9,NA,0.5867198999999346,175.50921450000004,176.20105873999995,2023-11-10 20:02:55.106473,2023-11-10 20:02:55.796142,SD017.jpg,0,10838,18-29,2023-11-10_20h00.24.863,Recall,2021.2.3,60.00661272873603,
,SD022.jpg,0,MF022.jpg,0,,,,,0,71,71,71,imgFunc,2,NA,0.6229792000000316,176.2089934,176.93174084000003,2023-11-10 20:02:55.809146,2023-11-10 20:02:56.532010,SD022.jpg,0,10838,18-29,2023-11-10_20h00.24.863,Recall,2021.2.3,60.00661272873603,
,SD018.jpg,0,MF018.jpg,0,,,,,0,72,72,67,imgFunc,2,NA,0.770330700000045,176.9416336,177.81649174000012,2023-11-10 20:02:56.544037,2023-11-10 20:02:57.417504,SD018.jpg,0,10838,18-29,2023-11-10_20h00.24.863,Recall,2021.2.3,60.00661272873603,
,DD010.jpg,0,FF010.jpg,0,,,,,0,73,73,9,imgFunc,9,NA,1.1378159000000778,177.82205830000004,179.06424953999993,2023-11-10 20:02:57.429508,2023-11-10 20:02:58.670841,DD010.jpg,0,10838,18-29,2023-11-10_20h00.24.863,Recall,2021.2.3,60.00661272873603,
,L_SD507.jpg,1,L_MF507.jpg,1,,,,,0,74,74,96,imgFunc,2,NA,0.9173758000000589,179.08239629999997,180.11369187999986,2023-11-10 20:02:58.688845,2023-11-10 20:02:59.708151,L_SD507.jpg,1,10838,18-29,2023-11-10_20h00.24.863,Recall,2021.2.3,60.00661272873603,
,DD021.jpg,0,FF021.jpg,0,,,,,0,75,75,20,imgFunc,9,NA,1.3252613999999312,180.11447519999996,181.55057633999985,2023-11-10 20:02:59.723157,2023-11-10 20:03:01.162131,DD021.jpg,0,10838,18-29,2023-11-10_20h00.24.863,Recall,2021.2.3,60.00661272873603,
,DD029.jpg,0,FF029.jpg,0,,,,,0,76,76,28,imgFunc,9,NA,1.4465620000000854,181.56131139999997,183.11759834000014,2023-11-10 20:03:01.175137,2023-11-10 20:03:02.733224,DD029.jpg,0,10838,18-29,2023-11-10_20h00.24.863,Recall,2021.2.3,60.00661272873603,
,DD005.jpg,0,FF005.jpg,0,,,,,0,77,77,4,imgFunc,9,NA,0.7614948000000368,183.12629450000003,184.00035594000002,2023-11-10 20:03:02.746226,2023-11-10 20:03:03.620021,DD005.jpg,0,10838,18-29,2023-11-10_20h00.24.863,Recall,2021.2.3,60.00661272873603,
,SD023.jpg,0,MF023.jpg,0,,,,,0,78,78,72,imgFunc,9,NA,0.9835573000000295,184.00834649999996,185.09757613999994,2023-11-10 20:03:03.633055,2023-11-10 20:03:04.722594,SD023.jpg,0,10838,18-29,2023-11-10_20h00.24.863,Recall,2021.2.3,60.00661272873603,
,DD014.jpg,0,FF014.jpg,0,,,,,0,79,79,13,imgFunc,9,NA,1.0655828999999812,185.11031429999997,186.28476103999986,2023-11-10 20:03:04.735599,2023-11-10 20:03:05.909638,DD014.jpg,0,10838,18-29,2023-11-10_20h00.24.863,Recall,2021.2.3,60.00661272873603,
,DD011.jpg,0,FF011.jpg,0,,,,,0,80,80,10,imgFunc,9,NA,1.0044154000000844,186.29152249999999,187.39968104000008,2023-11-10 20:03:05.921642,2023-11-10 20:03:07.030290,DD011.jpg,0,10838,18-29,2023-11-10_20h00.24.863,Recall,2021.2.3,60.00661272873603,
,SD021.jpg,0,MF021.jpg,0,,,,,0,81,81,70,imgFunc,2,NA,0.7706889999999476,187.405194,188.27881453999993,2023-11-10 20:03:07.042318,2023-11-10 20:03:07.915808,SD021.jpg,0,10838,18-29,2023-11-10_20h00.24.863,Recall,2021.2.3,60.00661272873603,
,SD033.jpg,0,MF033.jpg,0,,,,,0,82,82,82,imgFunc,1,NA,1.6920936999999867,188.29184100000003,190.08162123999995,2023-11-10 20:03:07.928811,2023-11-10 20:03:09.720950,SD033.jpg,0,10838,18-29,2023-11-10_20h00.24.863,Recall,2021.2.3,60.00661272873603,
,DD040.jpg,0,FF040.jpg,0,,,,,0,83,83,39,imgFunc,1,NA,3.798206499999992,190.10570690000003,194.03673978,2023-11-10 20:03:09.738929,2023-11-10 20:03:13.666164,DD040.jpg,0,10838,18-29,2023-11-10_20h00.24.863,Recall,2021.2.3,60.00661272873603,
,SD026.jpg,0,MF026.jpg,0,,,,,0,84,84,75,imgFunc,9,NA,0.8942674999999554,194.0175992,195.00895494000002,2023-11-10 20:03:13.679170,2023-11-10 20:03:14.669708,SD026.jpg,0,10838,18-29,2023-11-10_20h00.24.863,Recall,2021.2.3,60.00661272873603,
,DD020.jpg,0,FF020.jpg,0,,,,,0,85,85,19,imgFunc,1,NA,0.7959609000000682,195.02781069999997,195.93488494000002,2023-11-10 20:03:14.682727,2023-11-10 20:03:15.589133,DD020.jpg,0,10838,18-29,2023-11-10_20h00.24.863,Recall,2021.2.3,60.00661272873603,
,SD024.jpg,0,MF024.jpg,0,,,,,0,86,86,73,imgFunc,9,NA,0.7809539999999515,195.93896420000004,196.83050364000013,2023-11-10 20:03:15.601131,2023-11-10 20:03:16.491790,SD024.jpg,0,10838,18-29,2023-11-10_20h00.24.863,Recall,2021.2.3,60.00661272873603,
,SD013.jpg,0,MF013.jpg,0,,,,,0,87,87,62,imgFunc,2,NA,0.8712878000000046,196.84053039999998,197.8150838399999,2023-11-10 20:03:16.503795,2023-11-10 20:03:17.477671,SD013.jpg,0,10838,18-29,2023-11-10_20h00.24.863,Recall,2021.2.3,60.00661272873603,
,L_DD504.jpg,1,L_FF504.jpg,1,,,,,0,88,88,43,imgFunc,2,NA,1.0012230999999474,197.83085309999996,198.9379327399999,2023-11-10 20:03:17.490673,2023-11-10 20:03:18.598633,L_DD504.jpg,1,10838,18-29,2023-11-10_20h00.24.863,Recall,2021.2.3,60.00661272873603,
,SD039.jpg,0,MF039.jpg,0,,,,,0,89,89,88,imgFunc,2,NA,0.6967246000000387,198.9351082,199.72520544000002,2023-11-10 20:03:18.611638,2023-11-10 20:03:19.400386,SD039.jpg,0,10838,18-29,2023-11-10_20h00.24.863,Recall,2021.2.3,60.00661272873603,
,SD005.jpg,0,MF005.jpg,0,,,,,0,90,90,54,imgFunc,9,NA,0.6462672999999768,199.73749300000003,200.49545483999992,2023-11-10 20:03:19.413387,2023-11-10 20:03:20.169392,SD005.jpg,0,10838,18-29,2023-11-10_20h00.24.863,Recall,2021.2.3,60.00661272873603,
,L_SD506.jpg,1,L_MF506.jpg,1,,,,,0,91,91,95,imgFunc,1,NA,0.9916589000000613,200.51202489999997,201.61899174,2023-11-10 20:03:20.182395,2023-11-10 20:03:21.289816,L_SD506.jpg,1,10838,18-29,2023-11-10_20h00.24.863,Recall,2021.2.3,60.00661272873603,
,DD033.jpg,0,FF033.jpg,0,,,,,0,92,92,32,imgFunc,1,NA,0.9143774999998868,201.62949929999996,202.65949947999997,2023-11-10 20:03:21.307854,2023-11-10 20:03:22.326208,DD033.jpg,0,10838,18-29,2023-11-10_20h00.24.863,Recall,2021.2.3,60.00661272873603,
,SD015.jpg,0,MF015.jpg,0,,,,,0,93,93,64,imgFunc,9,NA,0.7572813000000451,202.65058659999994,203.50733624000003,2023-11-10 20:03:22.339213,2023-11-10 20:03:23.194872,SD015.jpg,0,10838,18-29,2023-11-10_20h00.24.863,Recall,2021.2.3,60.00661272873603,
,SD030.jpg,0,MF030.jpg,0,,,,,0,94,94,79,imgFunc,1,NA,1.723574900000017,203.52417039999995,205.34787183999998,2023-11-10 20:03:23.207854,2023-11-10 20:03:25.034292,SD030.jpg,0,10838,18-29,2023-11-10_20h00.24.863,Recall,2021.2.3,60.00661272873603,
,L_DD502.jpg,1,L_FF502.jpg,1,,,,,0,95,95,41,imgFunc,1,NA,1.5912392000000182,205.35257199999995,207.04353453999983,2023-11-10 20:03:25.046299,2023-11-10 20:03:26.739208,L_DD502.jpg,1,10838,18-29,2023-11-10_20h00.24.863,Recall,2021.2.3,60.00661272873603,
,SD011.jpg,0,MF011.jpg,0,,,,,0,96,96,60,imgFunc,9,NA,0.9131651000000147,207.05471849999998,208.0793681400002,2023-11-10 20:03:26.752180,2023-11-10 20:03:27.775422,SD011.jpg,0,10838,18-29,2023-11-10_20h00.24.863,Recall,2021.2.3,60.00661272873603,
,L_DD507.jpg,1,L_FF507.jpg,1,,,,,0,97,97,46,imgFunc,2,NA,0.7610577000000376,208.08692019999995,208.94346153999987,2023-11-10 20:03:27.789417,2023-11-10 20:03:28.644859,L_DD507.jpg,1,10838,18-29,2023-11-10_20h00.24.863,Recall,2021.2.3,60.00661272873603,
,DD017.jpg,0,FF017.jpg,0,,,,,0,98,98,16,imgFunc,1,NA,0.7134971000000405,208.95048130000004,209.75834263999997,2023-11-10 20:03:28.657840,2023-11-10 20:03:29.463941,DD017.jpg,0,10838,18-29,2023-11-10_20h00.24.863,Recall,2021.2.3,60.00661272873603,
,SD029.jpg,0,MF029.jpg,0,,,,,0,99,99,78,imgFunc,9,NA,0.43676170000003367,209.77107970000003,210.31280254000006,2023-11-10 20:03:29.476946,2023-11-10 20:03:30.016237,SD029.jpg,0,10838,18-29,2023-11-10_20h00.24.863,Recall,2021.2.3,60.00661272873603,
,,,,,,,,,,,,,instrFunc,space,"Great work! 

 Now you will switch to the other image type.

 Press the spacebar whenever you are ready to start.",1.6357851999999866,210.23588990000002,211.9146174400001,2023-11-10 20:03:30.017238,2023-11-10 20:03:31.686937,,,10838,18-29,2023-11-10_20h00.24.863,Recall,2021.2.3,60.00661272873603,
,L_DD508.jpg,1,L_FF508.jpg,1,,,,,0,0,0,47,imgFunc,1,NA,2.1888783999999077,212.01897030000003,214.32144462000002,2023-11-10 20:03:31.726979,2023-11-10 20:03:34.027975,L_FF508.jpg,1,10838,18-29,2023-11-10_20h00.24.863,Recall,2021.2.3,60.00661272873603,
,SD020.jpg,0,MF020.jpg,0,,,,,0,1,1,69,imgFunc,0,NA,2.8577698000000282,214.3260886,217.29955534000004,2023-11-10 20:03:34.040981,2023-11-10 20:03:37.020064,MF020.jpg,0,10838,18-29,2023-11-10_20h00.24.863,Recall,2021.2.3,60.00661272873603,
,DD033.jpg,0,FF033.jpg,0,,,,,0,2,2,32,imgFunc,2,NA,1.6508471999999301,217.30891309999998,219.06611524,2023-11-10 20:03:37.033092,2023-11-10 20:03:38.792362,FF033.jpg,0,10838,18-29,2023-11-10_20h00.24.863,Recall,2021.2.3,60.00661272873603,
,L_SD502.jpg,1,L_MF502.jpg,1,,,,,0,3,3,91,imgFunc,1,NA,2.1831439000000046,219.08056040000002,221.38041407999987,2023-11-10 20:03:38.808367,2023-11-10 20:03:41.099738,L_MF502.jpg,1,10838,18-29,2023-11-10_20h00.24.863,Recall,2021.2.3,60.00661272873603,
,SD013.jpg,0,MF013.jpg,0,,,,,0,4,4,62,imgFunc,1,NA,1.388817300000028,221.3788123,222.88653074000007,2023-11-10 20:03:41.111765,2023-11-10 20:03:42.620047,MF013.jpg,0,10838,18-29,2023-11-10_20h00.24.863,Recall,2021.2.3,60.00661272873603,
,SD034.jpg,0,MF034.jpg,0,,,,,0,5,5,83,imgFunc,1,NA,1.1020203000000492,222.8978222,224.12197504,2023-11-10 20:03:42.633026,2023-11-10 20:03:43.857426,MF034.jpg,0,10838,18-29,2023-11-10_20h00.24.863,Recall,2021.2.3,60.00661272873603,
,SD039.jpg,0,MF039.jpg,0,,,,,0,6,6,88,imgFunc,2,NA,1.0697335999999495,224.13010609999998,225.32061503999995,2023-11-10 20:03:43.870453,2023-11-10 20:03:45.061023,MF039.jpg,0,10838,18-29,2023-11-10_20h00.24.863,Recall,2021.2.3,60.00661272873603,
,DD012.jpg,0,FF012.jpg,0,,,,,0,7,7,11,imgFunc,2,NA,1.0184845999999652,225.33340319999996,226.47393684000002,2023-11-10 20:03:45.074024,2023-11-10 20:03:46.214950,FF012.jpg,0,10838,18-29,2023-11-10_20h00.24.863,Recall,2021.2.3,60.00661272873603,
,DD034.jpg,0,FF034.jpg,0,,,,,0,8,8,33,imgFunc,1,NA,1.176019799999949,226.48761159999998,227.80102488000006,2023-11-10 20:03:46.232958,2023-11-10 20:03:47.535399,FF034.jpg,0,10838,18-29,2023-11-10_20h00.24.863,Recall,2021.2.3,60.00661272873603,
,L_DD502.jpg,1,L_FF502.jpg,1,,,,,0,9,9,41,imgFunc,1,NA,1.2351455000000442,227.78870079999996,229.13018793999987,2023-11-10 20:03:47.547422,2023-11-10 20:03:48.889103,L_FF502.jpg,1,10838,18-29,2023-11-10_20h00.24.863,Recall,2021.2.3,60.00661272873603,
,L_DD504.jpg,1,L_FF504.jpg,1,,,,,0,10,10,43,imgFunc,2,NA,0.9574477000001025,229.13846499999994,230.19642244000005,2023-11-10 20:03:48.902081,2023-11-10 20:03:49.959765,L_FF504.jpg,1,10838,18-29,2023-11-10_20h00.24.863,Recall,2021.2.3,60.00661272873603,
,DD024.jpg,0,FF024.jpg,0,,,,,0,11,11,23,imgFunc,1,NA,0.880414500000029,230.20744059999998,231.19912363999998,2023-11-10 20:03:49.971774,2023-11-10 20:03:50.962769,FF024.jpg,0,10838,18-29,2023-11-10_20h00.24.863,Recall,2021.2.3,60.00661272873603,
,SD022.jpg,0,MF022.jpg,0,,,,,0,12,12,71,imgFunc,2,NA,1.5075744999999188,231.2122946,232.84491027999997,2023-11-10 20:03:50.978776,2023-11-10 20:03:52.600325,MF022.jpg,0,10838,18-29,2023-11-10_20h00.24.863,Recall,2021.2.3,60.00661272873603,
,L_DD503.jpg,1,L_FF503.jpg,1,,,,,0,13,13,42,imgFunc,2,NA,0.875366299999996,232.83656379999996,233.81297714,2023-11-10 20:03:52.612330,2023-11-10 20:03:53.586773,L_FF503.jpg,1,10838,18-29,2023-11-10_20h00.24.863,Recall,2021.2.3,60.00661272873603,
,L_SD505.jpg,1,L_MF505.jpg,1,,,,,0,14,14,94,imgFunc,1,NA,1.7433212999999341,233.82455839999994,235.68176283999986,2023-11-10 20:03:53.599811,2023-11-10 20:03:55.459888,L_MF505.jpg,1,10838,18-29,2023-11-10_20h00.24.863,Recall,2021.2.3,60.00661272873603,
,SD032.jpg,0,MF032.jpg,0,,,,,0,15,15,81,imgFunc,2,NA,1.1685384999999542,235.6952395,236.98516583999998,2023-11-10 20:03:55.472892,2023-11-10 20:03:56.763717,MF032.jpg,0,10838,18-29,2023-11-10_20h00.24.863,Recall,2021.2.3,60.00661272873603,
,SD015.jpg,0,MF015.jpg,0,,,,,0,16,16,64,imgFunc,1,NA,0.8475535000000036,236.99225280000002,237.95007424,2023-11-10 20:03:56.775740,2023-11-10 20:03:57.733366,MF015.jpg,0,10838,18-29,2023-11-10_20h00.24.863,Recall,2021.2.3,60.00661272873603,
,SD018.jpg,0,MF018.jpg,0,,,,,0,17,17,67,imgFunc,2,NA,0.8653711000000612,237.96646549999997,238.9624355800001,2023-11-10 20:03:57.751396,2023-11-10 20:03:58.736286,MF018.jpg,0,10838,18-29,2023-11-10_20h00.24.863,Recall,2021.2.3,60.00661272873603,
,SD008.jpg,0,MF008.jpg,0,,,,,0,18,18,57,imgFunc,1,NA,0.7566033000000516,238.95518529999998,239.82909483999987,2023-11-10 20:03:58.748289,2023-11-10 20:03:59.621850,MF008.jpg,0,10838,18-29,2023-11-10_20h00.24.863,Recall,2021.2.3,60.00661272873603,
,SD033.jpg,0,MF033.jpg,0,,,,,0,19,19,82,imgFunc,2,NA,0.9138683999999557,239.83797399999997,240.86319683999994,2023-11-10 20:03:59.633804,2023-11-10 20:04:00.658178,MF033.jpg,0,10838,18-29,2023-11-10_20h00.24.863,Recall,2021.2.3,60.00661272873603,
,SD002.jpg,0,MF002.jpg,0,,,,,0,20,20,51,imgFunc,1,NA,0.7429214000000002,240.87289170000003,241.7303137400001,2023-11-10 20:04:00.671205,2023-11-10 20:04:01.527418,MF002.jpg,0,10838,18-29,2023-11-10_20h00.24.863,Recall,2021.2.3,60.00661272873603,
,SD016.jpg,0,MF016.jpg,0,,,,,0,21,21,65,imgFunc,1,NA,7.2332658000000265,241.74260439999995,249.09019487999996,2023-11-10 20:04:01.544447,2023-11-10 20:04:08.899968,MF016.jpg,0,10838,18-29,2023-11-10_20h00.24.863,Recall,2021.2.3,60.00661272873603,
,SD027.jpg,0,MF027.jpg,0,,,,,0,22,22,76,imgFunc,1,NA,1.7205506000000241,249.0952421,250.93036894000005,2023-11-10 20:04:08.914997,2023-11-10 20:04:10.755569,MF027.jpg,0,10838,18-29,2023-11-10_20h00.24.863,Recall,2021.2.3,60.00661272873603,
,SD019.jpg,0,MF019.jpg,0,,,,,0,23,23,68,imgFunc,2,NA,1.9899179999999888,250.93774490000004,253.04523734000014,2023-11-10 20:04:10.767585,2023-11-10 20:04:12.878866,MF019.jpg,0,10838,18-29,2023-11-10_20h00.24.863,Recall,2021.2.3,60.00661272873603,
,SD036.jpg,0,MF036.jpg,0,,,,,0,24,24,85,imgFunc,1,NA,0.9518410000000586,253.0638234,254.13779974000005,2023-11-10 20:04:12.890872,2023-11-10 20:04:13.965278,MF036.jpg,0,10838,18-29,2023-11-10_20h00.24.863,Recall,2021.2.3,60.00661272873603,
,SD007.jpg,0,MF007.jpg,0,,,,,0,25,25,56,imgFunc,2,NA,0.7867444000000887,254.1408641,255.04744223999995,2023-11-10 20:04:13.978279,2023-11-10 20:04:14.884382,MF007.jpg,0,10838,18-29,2023-11-10_20h00.24.863,Recall,2021.2.3,60.00661272873603,
,SD023.jpg,0,MF023.jpg,0,,,,,0,26,26,72,imgFunc,0,NA,1.8148255999999492,255.06499479999997,257.01127047999995,2023-11-10 20:04:14.902412,2023-11-10 20:04:16.840512,MF023.jpg,0,10838,18-29,2023-11-10_20h00.24.863,Recall,2021.2.3,60.00661272873603,
,DD011.jpg,0,FF011.jpg,0,,,,,0,27,27,10,imgFunc,1,NA,0.9459097000000156,257.0058668,258.0628625399999,2023-11-10 20:04:16.853541,2023-11-10 20:04:17.909857,FF011.jpg,0,10838,18-29,2023-11-10_20h00.24.863,Recall,2021.2.3,60.00661272873603,
,L_DD501.jpg,1,L_FF501.jpg,1,,,,,0,28,28,40,imgFunc,0,NA,1.6751822999999604,258.0685709,259.86006374000004,2023-11-10 20:04:17.922885,2023-11-10 20:04:19.716136,L_FF501.jpg,1,10838,18-29,2023-11-10_20h00.24.863,Recall,2021.2.3,60.00661272873603,
,SD028.jpg,0,MF028.jpg,0,,,,,0,29,29,77,imgFunc,0,NA,0.8916302999999743,259.8761811,260.8833998400001,2023-11-10 20:04:19.728162,2023-11-10 20:04:20.734816,MF028.jpg,0,10838,18-29,2023-11-10_20h00.24.863,Recall,2021.2.3,60.00661272873603,
,DD015.jpg,0,FF015.jpg,0,,,,,0,30,30,14,imgFunc,0,NA,0.865626900000052,260.89399299999997,261.8930136799998,2023-11-10 20:04:20.751822,2023-11-10 20:04:21.738702,FF015.jpg,0,10838,18-29,2023-11-10_20h00.24.863,Recall,2021.2.3,60.00661272873603,
,DD008.jpg,0,FF008.jpg,0,,,,,0,31,31,7,imgFunc,1,NA,0.6420234999999366,261.8856967,262.6439053399999,2023-11-10 20:04:21.750707,2023-11-10 20:04:22.507329,FF008.jpg,0,10838,18-29,2023-11-10_20h00.24.863,Recall,2021.2.3,60.00661272873603,
,DD013.jpg,0,FF013.jpg,0,,,,,0,32,32,12,imgFunc,0,NA,1.2195980999999847,262.6521776,263.9768957400001,2023-11-10 20:04:22.519330,2023-11-10 20:04:23.844870,FF013.jpg,0,10838,18-29,2023-11-10_20h00.24.863,Recall,2021.2.3,60.00661272873603,
,L_DD507.jpg,1,L_FF507.jpg,1,,,,,0,33,33,46,imgFunc,2,NA,1.6155943999999636,263.9842054,265.7093248400001,2023-11-10 20:04:23.856875,2023-11-10 20:04:25.583562,L_FF507.jpg,1,10838,18-29,2023-11-10_20h00.24.863,Recall,2021.2.3,60.00661272873603,
,SD006.jpg,0,MF006.jpg,0,,,,,0,34,34,55,imgFunc,2,NA,0.9784187000000202,265.72535109999995,266.81555994,2023-11-10 20:04:25.596564,2023-11-10 20:04:26.686484,MF006.jpg,0,10838,18-29,2023-11-10_20h00.24.863,Recall,2021.2.3,60.00661272873603,
,SD011.jpg,0,MF011.jpg,0,,,,,0,35,35,60,imgFunc,2,NA,0.7066525000000183,266.82913720000005,267.6599481800001,2023-11-10 20:04:26.704454,2023-11-10 20:04:27.522370,MF011.jpg,0,10838,18-29,2023-11-10_20h00.24.863,Recall,2021.2.3,60.00661272873603,
,SD038.jpg,0,MF038.jpg,0,,,,,0,36,36,87,imgFunc,2,NA,0.6042737999999872,267.6515281,268.36083434000005,2023-11-10 20:04:27.534374,2023-11-10 20:04:28.241651,MF038.jpg,0,10838,18-29,2023-11-10_20h00.24.863,Recall,2021.2.3,60.00661272873603,
,DD022.jpg,0,FF022.jpg,0,,,,,0,37,37,21,imgFunc,2,NA,1.0829744999999775,268.3730172,269.56394303999986,2023-11-10 20:04:28.254649,2023-11-10 20:04:29.445275,FF022.jpg,0,10838,18-29,2023-11-10_20h00.24.863,Recall,2021.2.3,60.00661272873603,
,DD010.jpg,0,FF010.jpg,0,,,,,0,38,38,9,imgFunc,1,NA,0.9751362000000654,269.5687125,270.65925414,2023-11-10 20:04:29.458279,2023-11-10 20:04:30.548831,FF010.jpg,0,10838,18-29,2023-11-10_20h00.24.863,Recall,2021.2.3,60.00661272873603,
,L_SD504.jpg,1,L_MF504.jpg,1,,,,,0,39,39,93,imgFunc,1,NA,0.8458022999999457,270.6738889,271.6393230800001,2023-11-10 20:04:30.565839,2023-11-10 20:04:31.517783,L_MF504.jpg,1,10838,18-29,2023-11-10_20h00.24.863,Recall,2021.2.3,60.00661272873603,
,L_SD507.jpg,1,L_MF507.jpg,1,,,,,0,40,40,96,imgFunc,2,NA,0.7942740999999387,271.6373888,272.5440915399999,2023-11-10 20:04:31.530777,2023-11-10 20:04:32.436855,L_MF507.jpg,1,10838,18-29,2023-11-10_20h00.24.863,Recall,2021.2.3,60.00661272873603,
,SD003.jpg,0,MF003.jpg,0,,,,,0,41,41,52,imgFunc,1,NA,1.3701167000000396,272.54960850000003,274.02448314,2023-11-10 20:04:32.449859,2023-11-10 20:04:33.925590,MF003.jpg,0,10838,18-29,2023-11-10_20h00.24.863,Recall,2021.2.3,60.00661272873603,
,DD007.jpg,0,FF007.jpg,0,,,,,0,42,42,6,imgFunc,2,NA,0.6702500999999756,274.03350099999994,274.80615403999985,2023-11-10 20:04:33.938595,2023-11-10 20:04:34.710789,FF007.jpg,0,10838,18-29,2023-11-10_20h00.24.863,Recall,2021.2.3,60.00661272873603,
,SD004.jpg,0,MF004.jpg,0,,,,,0,43,43,53,imgFunc,1,NA,1.111595100000045,274.8242125,276.04789224000007,2023-11-10 20:04:34.723819,2023-11-10 20:04:35.947476,MF004.jpg,0,10838,18-29,2023-11-10_20h00.24.863,Recall,2021.2.3,60.00661272873603,
,SD040.jpg,0,MF040.jpg,0,,,,,0,44,44,89,imgFunc,2,NA,0.6233827999999448,276.064334,276.8100565800001,2023-11-10 20:04:35.966447,2023-11-10 20:04:36.700090,MF040.jpg,0,10838,18-29,2023-11-10_20h00.24.863,Recall,2021.2.3,60.00661272873603,
,DD038.jpg,0,FF038.jpg,0,,,,,0,45,45,37,imgFunc,2,NA,0.4623348000000078,276.8015182,277.37646254,2023-11-10 20:04:36.713096,2023-11-10 20:04:37.285493,FF038.jpg,0,10838,18-29,2023-11-10_20h00.24.863,Recall,2021.2.3,60.00661272873603,
,SD001.jpg,0,MF001.jpg,0,,,,,0,46,46,50,imgFunc,2,NA,0.37179520000006505,277.3880353,277.87855294,2023-11-10 20:04:37.298490,2023-11-10 20:04:37.786996,MF001.jpg,0,10838,18-29,2023-11-10_20h00.24.863,Recall,2021.2.3,60.00661272873603,
,L_DD506.jpg,1,L_FF506.jpg,1,,,,,0,47,47,45,imgFunc,1,NA,0.33899700000006305,277.88477600000004,278.32628254,2023-11-10 20:04:37.799001,2023-11-10 20:04:38.238254,L_FF506.jpg,1,10838,18-29,2023-11-10_20h00.24.863,Recall,2021.2.3,60.00661272873603,
,SD005.jpg,0,MF005.jpg,0,,,,,0,48,48,54,imgFunc,2,NA,0.1501488999999765,278.345529,278.62744078,2023-11-10 20:04:38.256277,2023-11-10 20:04:38.523379,MF005.jpg,0,10838,18-29,2023-11-10_20h00.24.863,Recall,2021.2.3,60.00661272873603,
,SD025.jpg,0,MF025.jpg,0,,,,,0,49,49,74,imgFunc,2,NA,0.163947300000018,278.61967839999994,278.8904104399999,2023-11-10 20:04:38.537415,2023-11-10 20:04:38.806036,MF025.jpg,0,10838,18-29,2023-11-10_20h00.24.863,Recall,2021.2.3,60.00661272873603,
,DD018.jpg,0,FF018.jpg,0,,,,,0,50,50,17,imgFunc,1,NA,0.3933799999999792,278.90240309999996,279.4113727399999,2023-11-10 20:04:38.817997,2023-11-10 20:04:39.324791,FF018.jpg,0,10838,18-29,2023-11-10_20h00.24.863,Recall,2021.2.3,60.00661272873603,
,SD017.jpg,0,MF017.jpg,0,,,,,0,51,51,66,imgFunc,2,NA,0.17807920000007016,279.42172279999994,279.71343933999987,2023-11-10 20:04:39.336768,2023-11-10 20:04:39.625912,MF017.jpg,0,10838,18-29,2023-11-10_20h00.24.863,Recall,2021.2.3,60.00661272873603,
,L_SD506.jpg,1,L_MF506.jpg,1,,,,,0,52,52,95,imgFunc,0,NA,0.15267000000005737,279.71931449999994,279.9776321399999,2023-11-10 20:04:39.637908,2023-11-10 20:04:39.893292,L_MF506.jpg,1,10838,18-29,2023-11-10_20h00.24.863,Recall,2021.2.3,60.00661272873603,
,SD012.jpg,0,MF012.jpg,0,,,,,0,53,53,61,imgFunc,1,NA,0.07773450000001958,280.00203100000004,280.21432278000003,2023-11-10 20:04:39.912243,2023-11-10 20:04:40.110364,MF012.jpg,0,10838,18-29,2023-11-10_20h00.24.863,Recall,2021.2.3,60.00661272873603,
,L_DD505.jpg,1,L_FF505.jpg,1,,,,,0,54,54,44,imgFunc,9,NA,0.09835959999998067,280.20532080000004,280.41291434,2023-11-10 20:04:40.123365,2023-11-10 20:04:40.328309,L_FF505.jpg,1,10838,18-29,2023-11-10_20h00.24.863,Recall,2021.2.3,60.00661272873603,
,DD026.jpg,0,FF026.jpg,0,,,,,0,55,55,25,imgFunc,2,NA,0.02590250000002925,280.4218891,280.56130054,2023-11-10 20:04:40.341311,2023-11-10 20:04:40.479015,FF026.jpg,0,10838,18-29,2023-11-10_20h00.24.863,Recall,2021.2.3,60.00661272873603,
,DD031.jpg,0,FF031.jpg,0,,,,,0,56,56,30,imgFunc,0,NA,0.06583150000005844,280.573913,280.7480597400002,2023-11-10 20:04:40.491043,2023-11-10 20:04:40.662133,FF031.jpg,0,10838,18-29,2023-11-10_20h00.24.863,Recall,2021.2.3,60.00661272873603,
,L_SD508.jpg,1,L_MF508.jpg,1,,,,,0,57,57,97,imgFunc,1,NA,0.038756100000000515,280.76104289999995,280.92587378,2023-11-10 20:04:40.680131,2023-11-10 20:04:40.829216,L_MF508.jpg,1,10838,18-29,2023-11-10_20h00.24.863,Recall,2021.2.3,60.00661272873603,
,SD009.jpg,0,MF009.jpg,0,,,,,0,58,58,58,imgFunc,2,NA,0.00483719999999721,280.9228821,281.04687573999996,2023-11-10 20:04:40.842207,2023-11-10 20:04:40.963287,MF009.jpg,0,10838,18-29,2023-11-10_20h00.24.863,Recall,2021.2.3,60.00661272873603,
,DD006.jpg,0,FF006.jpg,0,,,,,0,59,59,5,imgFunc,1,NA,0.11143670000001293,281.05644320000005,281.28044694,2023-11-10 20:04:40.976268,2023-11-10 20:04:41.197055,FF006.jpg,0,10838,18-29,2023-11-10_20h00.24.863,Recall,2021.2.3,60.00661272873603,
,DD032.jpg,0,FF032.jpg,0,,,,,0,60,60,31,imgFunc,2,NA,0.03898100000003524,281.2887689,281.4449965400001,2023-11-10 20:04:41.210069,2023-11-10 20:04:41.364111,FF032.jpg,0,10838,18-29,2023-11-10_20h00.24.863,Recall,2021.2.3,60.00661272873603,
,SD035.jpg,0,MF035.jpg,0,,,,,0,61,61,84,imgFunc,1,NA,0.08047559999999976,281.4553589,281.6467122400001,2023-11-10 20:04:41.376116,2023-11-10 20:04:41.564367,MF035.jpg,0,10838,18-29,2023-11-10_20h00.24.863,Recall,2021.2.3,60.00661272873603,
,DD040.jpg,0,FF040.jpg,0,,,,,0,62,62,39,imgFunc,2,NA,0.005010200000015175,281.6586064,281.78821838000005,2023-11-10 20:04:41.583361,2023-11-10 20:04:41.698419,FF040.jpg,0,10838,18-29,2023-11-10_20h00.24.863,Recall,2021.2.3,60.00661272873603,
,L_SD510.jpg,1,L_MF510.jpg,1,,,,,0,63,63,99,imgFunc,1,NA,0.03179560000000947,281.7917792,281.9485005399999,2023-11-10 20:04:41.711418,2023-11-10 20:04:41.865503,L_MF510.jpg,1,10838,18-29,2023-11-10_20h00.24.863,Recall,2021.2.3,60.00661272873603,
,L_DD509.jpg,1,L_FF509.jpg,1,,,,,0,64,64,48,imgFunc,0,NA,0.09024909999993724,281.9574386,282.16368874000005,2023-11-10 20:04:41.879473,2023-11-10 20:04:42.082089,L_FF509.jpg,1,10838,18-29,2023-11-10_20h00.24.863,Recall,2021.2.3,60.00661272873603,
,DD001.jpg,0,FF001.jpg,0,,,,,0,65,65,0,imgFunc,1,NA,0.0357874000000038,282.17204180000004,282.32877804000003,2023-11-10 20:04:42.095016,2023-11-10 20:04:42.248606,FF001.jpg,0,10838,18-29,2023-11-10_20h00.24.863,Recall,2021.2.3,60.00661272873603,
,SD030.jpg,0,MF030.jpg,0,,,,,0,66,66,79,imgFunc,0,NA,0.05418069999996078,282.3454913,282.5275796800001,2023-11-10 20:04:42.266558,2023-11-10 20:04:42.432144,MF030.jpg,0,10838,18-29,2023-11-10_20h00.24.863,Recall,2021.2.3,60.00661272873603,
,DD004.jpg,0,FF004.jpg,0,,,,,0,67,67,3,imgFunc,1,NA,0.03307649999999285,282.52651940000004,282.68379634,2023-11-10 20:04:42.445104,2023-11-10 20:04:42.599673,FF004.jpg,0,10838,18-29,2023-11-10_20h00.24.863,Recall,2021.2.3,60.00661272873603,
,DD039.jpg,0,FF039.jpg,0,,,,,0,68,68,38,imgFunc,1,NA,0.22464700000000448,282.68710689999995,283.02762344,2023-11-10 20:04:42.611657,2023-11-10 20:04:42.949501,FF039.jpg,0,10838,18-29,2023-11-10_20h00.24.863,Recall,2021.2.3,60.00661272873603,
,SD021.jpg,0,MF021.jpg,0,,,,,0,69,69,70,imgFunc,1,NA,0.5255057999999053,283.04228299999994,283.6822087399998,2023-11-10 20:04:42.962467,2023-11-10 20:04:43.599221,MF021.jpg,0,10838,18-29,2023-11-10_20h00.24.863,Recall,2021.2.3,60.00661272873603,
,DD036.jpg,0,FF036.jpg,0,,,,,0,70,70,35,imgFunc,2,NA,0.5204472000000351,283.6872195,284.3333943400001,2023-11-10 20:04:43.612209,2023-11-10 20:04:44.254250,FF036.jpg,0,10838,18-29,2023-11-10_20h00.24.863,Recall,2021.2.3,60.00661272873603,
,DD016.jpg,0,FF016.jpg,0,,,,,0,71,71,15,imgFunc,1,NA,0.2814898000000312,284.34210720000004,284.7550050800001,2023-11-10 20:04:44.267192,2023-11-10 20:04:44.665784,FF016.jpg,0,10838,18-29,2023-11-10_20h00.24.863,Recall,2021.2.3,60.00661272873603,
,DD020.jpg,0,FF020.jpg,0,,,,,0,72,72,19,imgFunc,1,NA,0.2548318000000336,284.75289319999996,285.1265663399999,2023-11-10 20:04:44.678746,2023-11-10 20:04:45.048761,FF020.jpg,0,10838,18-29,2023-11-10_20h00.24.863,Recall,2021.2.3,60.00661272873603,
,SD026.jpg,0,MF026.jpg,0,,,,,0,73,73,75,imgFunc,2,NA,0.3824934999998959,285.1370593,285.62821554,2023-11-10 20:04:45.061722,2023-11-10 20:04:45.548719,MF026.jpg,0,10838,18-29,2023-11-10_20h00.24.863,Recall,2021.2.3,60.00661272873603,
,SD014.jpg,0,MF014.jpg,0,,,,,0,74,74,63,imgFunc,2,NA,0.3403054999999995,285.64336629999997,286.0939449400001,2023-11-10 20:04:45.564675,2023-11-10 20:04:46.015482,MF014.jpg,0,10838,18-29,2023-11-10_20h00.24.863,Recall,2021.2.3,60.00661272873603,
,L_SD501.jpg,1,L_MF501.jpg,1,,,,,0,75,75,90,imgFunc,2,NA,0.3853365999999596,286.1103373,286.62619068,2023-11-10 20:04:46.032407,2023-11-10 20:04:46.532393,L_MF501.jpg,1,10838,18-29,2023-11-10_20h00.24.863,Recall,2021.2.3,60.00661272873603,
,SD031.jpg,0,MF031.jpg,0,,,,,0,76,76,80,imgFunc,2,NA,0.4014412999999877,286.6221787,287.1454924399998,2023-11-10 20:04:46.545355,2023-11-10 20:04:47.065366,MF031.jpg,0,10838,18-29,2023-11-10_20h00.24.863,Recall,2021.2.3,60.00661272873603,
,SD024.jpg,0,MF024.jpg,0,,,,,0,77,77,73,imgFunc,2,NA,0.41444659999990563,287.1531028,287.67943164000013,2023-11-10 20:04:47.077333,2023-11-10 20:04:47.599860,MF024.jpg,0,10838,18-29,2023-11-10_20h00.24.863,Recall,2021.2.3,60.00661272873603,
,DD037.jpg,0,FF037.jpg,0,,,,,0,78,78,36,imgFunc,1,NA,0.37998349999998027,287.6838114,288.17263164,2023-11-10 20:04:47.612824,2023-11-10 20:04:48.098422,FF037.jpg,0,10838,18-29,2023-11-10_20h00.24.863,Recall,2021.2.3,60.00661272873603,
,DD021.jpg,0,FF021.jpg,0,,,,,0,79,79,20,imgFunc,1,NA,0.3343639999999368,288.19336979999997,288.65064453999986,2023-11-10 20:04:48.111382,2023-11-10 20:04:48.565714,FF021.jpg,0,10838,18-29,2023-11-10_20h00.24.863,Recall,2021.2.3,60.00661272873603,
,DD003.jpg,0,FF003.jpg,0,,,,,0,80,80,2,imgFunc,2,NA,0.32091330000002927,288.6549458,289.09572364,2023-11-10 20:04:48.577703,2023-11-10 20:04:49.015364,FF003.jpg,0,10838,18-29,2023-11-10_20h00.24.863,Recall,2021.2.3,60.00661272873603,
,DD027.jpg,0,FF027.jpg,0,,,,,0,81,81,26,imgFunc,1,NA,0.14419039999995675,289.10360039999995,289.3606796399999,2023-11-10 20:04:49.028326,2023-11-10 20:04:49.281652,FF027.jpg,0,10838,18-29,2023-11-10_20h00.24.863,Recall,2021.2.3,60.00661272873603,
,DD035.jpg,0,FF035.jpg,0,,,,,0,82,82,34,imgFunc,2,NA,0.2908731999999645,289.372858,289.77899224000004,2023-11-10 20:04:49.295588,2023-11-10 20:04:49.698723,FF035.jpg,0,10838,18-29,2023-11-10_20h00.24.863,Recall,2021.2.3,60.00661272873603,
,L_SD509.jpg,1,L_MF509.jpg,1,,,,,0,83,83,98,imgFunc,1,NA,0.5189845000001014,289.78479699999997,290.40862984000006,2023-11-10 20:04:49.711711,2023-11-10 20:04:50.331821,L_MF509.jpg,1,10838,18-29,2023-11-10_20h00.24.863,Recall,2021.2.3,60.00661272873603,
,SD010.jpg,0,MF010.jpg,0,,,,,0,84,84,59,imgFunc,1,NA,0.5468756999999869,290.42875669999995,291.10733467999984,2023-11-10 20:04:50.350792,2023-11-10 20:04:51.014560,MF010.jpg,0,10838,18-29,2023-11-10_20h00.24.863,Recall,2021.2.3,60.00661272873603,
,DD009.jpg,0,FF009.jpg,0,,,,,0,85,85,8,imgFunc,2,NA,0.4514791999999943,291.10018299999996,291.6564236399999,2023-11-10 20:04:51.028524,2023-11-10 20:04:51.581276,FF009.jpg,0,10838,18-29,2023-11-10_20h00.24.863,Recall,2021.2.3,60.00661272873603,
,DD019.jpg,0,FF019.jpg,0,,,,,0,86,86,18,imgFunc,1,NA,1.0949828999999909,291.67269630000004,292.87848574000003,2023-11-10 20:04:51.595208,2023-11-10 20:04:52.798159,FF019.jpg,0,10838,18-29,2023-11-10_20h00.24.863,Recall,2021.2.3,60.00661272873603,
,DD005.jpg,0,FF005.jpg,0,,,,,0,87,87,4,imgFunc,2,NA,1.3029097999999522,292.88891789999997,294.3134374400001,2023-11-10 20:04:52.811111,2023-11-10 20:04:54.231597,FF005.jpg,0,10838,18-29,2023-11-10_20h00.24.863,Recall,2021.2.3,60.00661272873603,
,SD037.jpg,0,MF037.jpg,0,,,,,0,88,88,86,imgFunc,2,NA,1.3293204999999944,294.31847669999996,295.7580668399999,2023-11-10 20:04:54.244562,2023-11-10 20:04:55.681772,MF037.jpg,0,10838,18-29,2023-11-10_20h00.24.863,Recall,2021.2.3,60.00661272873603,
,SD029.jpg,0,MF029.jpg,0,,,,,0,89,89,78,imgFunc,2,NA,1.4493088999998918,295.76637669999997,297.32347094000005,2023-11-10 20:04:55.693762,2023-11-10 20:04:57.247837,MF029.jpg,0,10838,18-29,2023-11-10_20h00.24.863,Recall,2021.2.3,60.00661272873603,
,DD025.jpg,0,FF025.jpg,0,,,,,0,90,90,24,imgFunc,2,NA,0.7642481999999973,297.3315448,298.2059114400001,2023-11-10 20:04:57.259788,2023-11-10 20:04:58.131158,FF025.jpg,0,10838,18-29,2023-11-10_20h00.24.863,Recall,2021.2.3,60.00661272873603,
,DD017.jpg,0,FF017.jpg,0,,,,,0,91,91,16,imgFunc,2,NA,0.4703038000000106,298.21748510000003,298.79230233999994,2023-11-10 20:04:58.143125,2023-11-10 20:04:58.714392,FF017.jpg,0,10838,18-29,2023-11-10_20h00.24.863,Recall,2021.2.3,60.00661272873603,
,DD028.jpg,0,FF028.jpg,0,,,,,0,92,92,27,imgFunc,2,NA,0.38013520000004064,298.80371669999994,299.2939145399999,2023-11-10 20:04:58.727373,2023-11-10 20:04:59.213354,FF028.jpg,0,10838,18-29,2023-11-10_20h00.24.863,Recall,2021.2.3,60.00661272873603,
,L_DD510.jpg,1,L_FF510.jpg,1,,,,,0,93,93,49,imgFunc,2,NA,0.3840513000000101,299.31164640000003,299.8261963800001,2023-11-10 20:04:59.231278,2023-11-10 20:04:59.730781,L_FF510.jpg,1,10838,18-29,2023-11-10_20h00.24.863,Recall,2021.2.3,60.00661272873603,
,DD029.jpg,0,FF029.jpg,0,,,,,0,94,94,28,imgFunc,2,NA,0.4240311999999449,299.81562460000004,300.35413804,2023-11-10 20:04:59.744742,2023-11-10 20:05:00.280552,FF029.jpg,0,10838,18-29,2023-11-10_20h00.24.863,Recall,2021.2.3,60.00661272873603,
,L_SD503.jpg,1,L_MF503.jpg,1,,,,,0,95,95,92,imgFunc,2,NA,1.0231820000000198,300.3686416,301.51038234000004,2023-11-10 20:05:00.293490,2023-11-10 20:05:01.430868,L_MF503.jpg,1,10838,18-29,2023-11-10_20h00.24.863,Recall,2021.2.3,60.00661272873603,
,DD002.jpg,0,FF002.jpg,0,,,,,0,96,96,1,imgFunc,2,NA,0.5066434999999956,301.52499099999994,302.1483557399999,2023-11-10 20:05:01.443832,2023-11-10 20:05:02.063786,FF002.jpg,0,10838,18-29,2023-11-10_20h00.24.863,Recall,2021.2.3,60.00661272873603,
,DD030.jpg,0,FF030.jpg,0,,,,,0,97,97,29,imgFunc,2,NA,1.0056461000000354,302.161988,303.28564424000007,2023-11-10 20:05:02.076749,2023-11-10 20:05:03.196464,FF030.jpg,0,10838,18-29,2023-11-10_20h00.24.863,Recall,2021.2.3,60.00661272873603,
,DD014.jpg,0,FF014.jpg,0,,,,,0,98,98,13,imgFunc,1,NA,2.128188899999941,303.279561,305.5220775400001,2023-11-10 20:05:03.208392,2023-11-10 20:05:05.447029,FF014.jpg,0,10838,18-29,2023-11-10_20h00.24.863,Recall,2021.2.3,60.00661272873603,
,DD023.jpg,0,FF023.jpg,0,,,,,0,99,99,22,imgFunc,2,NA,0.4200704999999516,305.5317405,306.05517303999994,2023-11-10 20:05:05.459993,2023-11-10 20:05:05.980456,FF023.jpg,0,10838,18-29,2023-11-10_20h00.24.863,Recall,2021.2.3,60.00661272873603,
