instrText,stimDoor,stimDoorLure,stimFace,stimFaceLure,Instructions.thisRepN,Instructions.thisTrialN,Instructions.thisN,Instructions.thisIndex,Trials.thisRepN,Trials.thisTrialN,Trials.thisN,Trials.thisIndex,Func,Keys,Text,RespTime,Onset,Offset,SystemTime_Start,SystemTime_Stop,Stim,Lure,Participant*,Age,date,expName,psychopyVersion,frameRate,
"In the earlier Feedback Games, you chose which doors contained a prize, and which peers liked you. 

You then saw positive or negative feedback (green check mark or red X) from the door or peer you selected.

You will now see a series of doors and peers, some of which you saw during the earlier Feedback Games, and some that you have never seen before.

Please press the spacebar to continue.",,,,,0,0,0,0,,,,,instrFunc,space,"In the earlier Feedback Games, you chose which doors contained a prize, and which peers liked you. 

You then saw positive or negative feedback (green check mark or red X) from the door or peer you selected.

You will now see a series of doors and peers, some of which you saw during the earlier Feedback Games, and some that you have never seen before.

Please press the spacebar to continue.",19.15605449990835,34.12090559990611,53.347276679473,2024-03-29 19:08:39.573912,2024-03-29 19:08:58.786688,,,10983,18-29,2024-03-29_19h08.35.379,Recall,2021.2.3,59.95196648162906,
"For doors/peers that you remember selecting and getting feedback from, your job is to RECALL what feedback you received. 

Press '1' if you recall positive feedback. 

Press '2' if you recall negative feedback

Press the spacebar to continue.",,,,,0,1,1,1,,,,,instrFunc,space,"For doors/peers that you remember selecting and getting feedback from, your job is to RECALL what feedback you received. 

Press '1' if you recall positive feedback. 

Press '2' if you recall negative feedback

Press the spacebar to continue.",11.88492820004467,53.31231979990844,65.25122131989338,2024-03-29 19:08:58.787676,2024-03-29 19:09:10.711248,,,10983,18-29,2024-03-29_19h08.35.379,Recall,2021.2.3,59.95196648162906,
"For doors/peers that you don't remember getting feedback from, your job is to PREDICT what feedback you WOULD HAVE received.

Press '9' if you predict positive feedback.

Press '0' if you predict negative feedback. 

Please press the spacebar to continue.",,,,,0,2,2,2,,,,,instrFunc,space,"For doors/peers that you don't remember getting feedback from, your job is to PREDICT what feedback you WOULD HAVE received.

Press '9' if you predict positive feedback.

Press '0' if you predict negative feedback. 

Please press the spacebar to continue.",14.83248639991507,65.23633310000878,80.1279069200391,2024-03-29 19:09:10.712248,2024-03-29 19:09:25.588329,,,10983,18-29,2024-03-29_19h08.35.379,Recall,2021.2.3,59.95196648162906,
"This task is self-paced, and the prompts will always stay on the screen so that you know which buttons to press.

On the next screen we will show you what those prompts look like, so that you know exactly what to expect. 

You will start with either doors or peers, and then switch halfway through. 

Please press the spacebar to continue.",,,,,0,3,3,3,,,,,instrFunc,space,"This task is self-paced, and the prompts will always stay on the screen so that you know which buttons to press.

On the next screen we will show you what those prompts look like, so that you know exactly what to expect. 

You will start with either doors or peers, and then switch halfway through. 

Please press the spacebar to continue.",12.22831000003498,80.1128198999213,92.40316731994972,2024-03-29 19:09:25.589305,2024-03-29 19:09:37.864493,,,10983,18-29,2024-03-29_19h08.35.379,Recall,2021.2.3,59.95196648162906,
,,,,,,,,,,,,,imgtextFunc,space,"Here is what the screen will look like while you make your ratings.
The green circles remind you to press 1 or 9 for positive feedback.
The red circles remind you to press 2 or 0 for negative feedback.









Please let the experimenter know if you have any questions.

Whenever you're ready, press the spacebar to start the task.",50.127710999920964,92.54904309997801,142.87924002006184,2024-03-29 19:09:37.875053,2024-03-29 19:10:28.201381,,,10983,18-29,2024-03-29_19h08.35.379,Recall,2021.2.3,59.95196648162906,
,SD017.jpg,0,MF017.jpg,0,,,,,0,0,0,66,imgFunc,2,NA,3.3514743999112397,142.8696626999881,146.36832896003034,2024-03-29 19:10:28.244254,2024-03-29 19:10:31.736824,MF017.jpg,0,10983,18-29,2024-03-29_19h08.35.379,Recall,2021.2.3,59.95196648162906,
,SD018.jpg,0,MF018.jpg,0,,,,,0,1,1,67,imgFunc,2,NA,2.0161770000122488,146.32475029991474,148.4440950199496,2024-03-29 19:10:31.744805,2024-03-29 19:10:33.855548,MF018.jpg,0,10983,18-29,2024-03-29_19h08.35.379,Recall,2021.2.3,59.95196648162906,
,SD009.jpg,0,MF009.jpg,0,,,,,0,2,2,58,imgFunc,2,NA,1.6938771000131965,148.4391956999898,150.24083262006752,2024-03-29 19:10:33.863529,2024-03-29 19:10:35.656308,MF009.jpg,0,10983,18-29,2024-03-29_19h08.35.379,Recall,2021.2.3,59.95196648162906,
,SD006.jpg,0,MF006.jpg,0,,,,,0,3,3,55,imgFunc,1,NA,1.1896989999804646,150.2473389999941,151.54071752005257,2024-03-29 19:10:35.668278,2024-03-29 19:10:36.957047,MF006.jpg,0,10983,18-29,2024-03-29_19h08.35.379,Recall,2021.2.3,59.95196648162906,
,DD021.jpg,0,FF021.jpg,0,,,,,0,4,4,20,imgFunc,2,NA,2.296996399993077,151.54003729997203,153.94233472004998,2024-03-29 19:10:36.965057,2024-03-29 19:10:39.359210,FF021.jpg,0,10983,18-29,2024-03-29_19h08.35.379,Recall,2021.2.3,59.95196648162906,
,L_SD501.jpg,1,L_MF501.jpg,1,,,,,0,5,5,90,imgFunc,1,NA,1.2953859000699595,153.94158669991884,155.34390151989646,2024-03-29 19:10:39.366193,2024-03-29 19:10:40.760085,L_MF501.jpg,1,10983,18-29,2024-03-29_19h08.35.379,Recall,2021.2.3,59.95196648162906,
,SD010.jpg,0,MF010.jpg,0,,,,,0,6,6,59,imgFunc,1,NA,1.135229600011371,155.3496486999793,156.58544152008835,2024-03-29 19:10:40.767068,2024-03-29 19:10:41.994504,MF010.jpg,0,10983,18-29,2024-03-29_19h08.35.379,Recall,2021.2.3,59.95196648162906,
,DD008.jpg,0,FF008.jpg,0,,,,,0,7,7,7,imgFunc,2,NA,1.5920891999267042,156.58859629998915,158.27788861992303,2024-03-29 19:10:42.008469,2024-03-29 19:10:43.695005,FF008.jpg,0,10983,18-29,2024-03-29_19h08.35.379,Recall,2021.2.3,59.95196648162906,
,L_SD504.jpg,1,L_MF504.jpg,1,,,,,0,8,8,93,imgFunc,1,NA,1.1426445000106469,158.27820469997823,159.53025721991435,2024-03-29 19:10:43.702958,2024-03-29 19:10:44.945681,L_MF504.jpg,1,10983,18-29,2024-03-29_19h08.35.379,Recall,2021.2.3,59.95196648162906,
,SD021.jpg,0,MF021.jpg,0,,,,,0,9,9,70,imgFunc,2,NA,1.0582967000082135,159.5385035999352,160.70774781994987,2024-03-29 19:10:44.953629,2024-03-29 19:10:46.113571,MF021.jpg,0,10983,18-29,2024-03-29_19h08.35.379,Recall,2021.2.3,59.95196648162906,
,SD036.jpg,0,MF036.jpg,0,,,,,0,10,10,85,imgFunc,1,NA,1.127623499953188,160.7010927000083,161.9367366200313,2024-03-29 19:10:46.120523,2024-03-29 19:10:47.347669,MF036.jpg,0,10983,18-29,2024-03-29_19h08.35.379,Recall,2021.2.3,59.95196648162906,
,SD025.jpg,0,MF025.jpg,0,,,,,0,11,11,74,imgFunc,1,NA,1.4247062999056652,161.9322274000151,163.46763042011298,2024-03-29 19:10:47.355619,2024-03-29 19:10:48.881589,MF025.jpg,0,10983,18-29,2024-03-29_19h08.35.379,Recall,2021.2.3,59.95196648162906,
,SD039.jpg,0,MF039.jpg,0,,,,,0,12,12,88,imgFunc,1,NA,0.8538645999506116,163.478849099949,164.43210831994656,2024-03-29 19:10:48.897550,2024-03-29 19:10:49.849989,MF039.jpg,0,10983,18-29,2024-03-29_19h08.35.379,Recall,2021.2.3,59.95196648162906,
,SD002.jpg,0,MF002.jpg,0,,,,,0,13,13,51,imgFunc,2,NA,1.0350959000643343,164.4256391999079,165.5598057198804,2024-03-29 19:10:49.857989,2024-03-29 19:10:50.983978,MF002.jpg,0,10983,18-29,2024-03-29_19h08.35.379,Recall,2021.2.3,59.95196648162906,
,SD004.jpg,0,MF004.jpg,0,,,,,0,14,14,53,imgFunc,2,NA,1.7622942000161856,165.5624683999922,167.41524262004532,2024-03-29 19:10:50.990944,2024-03-29 19:10:52.835672,MF004.jpg,0,10983,18-29,2024-03-29_19h08.35.379,Recall,2021.2.3,59.95196648162906,
,L_SD505.jpg,1,L_MF505.jpg,1,,,,,0,15,15,94,imgFunc,2,NA,0.8175681000575423,167.4192330999067,168.33707271993626,2024-03-29 19:10:52.842652,2024-03-29 19:10:53.752254,L_MF505.jpg,1,10983,18-29,2024-03-29_19h08.35.379,Recall,2021.2.3,59.95196648162906,
,SD016.jpg,0,MF016.jpg,0,,,,,0,16,16,65,imgFunc,1,NA,1.357676999992691,168.34301479998976,169.8117575199576,2024-03-29 19:10:53.760210,2024-03-29 19:10:55.220322,MF016.jpg,0,10983,18-29,2024-03-29_19h08.35.379,Recall,2021.2.3,59.95196648162906,
,SD028.jpg,0,MF028.jpg,0,,,,,0,17,17,77,imgFunc,1,NA,2.2416071000043303,169.80318549997173,172.14016621990595,2024-03-29 19:10:55.227303,2024-03-29 19:10:57.555599,MF028.jpg,0,10983,18-29,2024-03-29_19h08.35.379,Recall,2021.2.3,59.95196648162906,
,SD019.jpg,0,MF019.jpg,0,,,,,0,18,18,68,imgFunc,0,NA,5.61088509997353,172.1300885999808,177.83576361997984,2024-03-29 19:10:57.562606,2024-03-29 19:11:03.259666,MF019.jpg,0,10983,18-29,2024-03-29_19h08.35.379,Recall,2021.2.3,59.95196648162906,
,DD023.jpg,0,FF023.jpg,0,,,,,0,19,19,22,imgFunc,2,NA,4.131131400004961,177.84992740000598,182.08379011997022,2024-03-29 19:11:03.268644,2024-03-29 19:11:07.495882,FF023.jpg,0,10983,18-29,2024-03-29_19h08.35.379,Recall,2021.2.3,59.95196648162906,
,DD004.jpg,0,FF004.jpg,0,,,,,0,20,20,3,imgFunc,1,NA,2.783388400101103,182.08555710001383,184.97130292002112,2024-03-29 19:11:07.503885,2024-03-29 19:11:10.381620,FF004.jpg,0,10983,18-29,2024-03-29_19h08.35.379,Recall,2021.2.3,59.95196648162906,
,DD030.jpg,0,FF030.jpg,0,,,,,0,21,21,29,imgFunc,2,NA,1.4916115999221802,184.9774647000013,186.56586342002265,2024-03-29 19:11:10.395612,2024-03-29 19:11:11.982851,FF030.jpg,0,10983,18-29,2024-03-29_19h08.35.379,Recall,2021.2.3,59.95196648162906,
,DD035.jpg,0,FF035.jpg,0,,,,,0,22,22,34,imgFunc,1,NA,1.9464086999651045,186.5622963999631,188.61469652003143,2024-03-29 19:11:11.989834,2024-03-29 19:11:14.033637,FF035.jpg,0,10983,18-29,2024-03-29_19h08.35.379,Recall,2021.2.3,59.95196648162906,
,DD015.jpg,0,FF015.jpg,0,,,,,0,23,23,14,imgFunc,2,NA,1.4077638000017032,188.61300089990254,190.11532281979453,2024-03-29 19:11:14.041619,2024-03-29 19:11:15.534646,FF015.jpg,0,10983,18-29,2024-03-29_19h08.35.379,Recall,2021.2.3,59.95196648162906,
,DD017.jpg,0,FF017.jpg,0,,,,,0,24,24,16,imgFunc,2,NA,1.0371287999441847,190.119630399975,191.25499852001667,2024-03-29 19:11:15.542623,2024-03-29 19:11:16.669483,FF017.jpg,0,10983,18-29,2024-03-29_19h08.35.379,Recall,2021.2.3,59.95196648162906,
,L_DD502.jpg,1,L_FF502.jpg,1,,,,,0,25,25,41,imgFunc,1,NA,1.4877909000497311,191.2529574999353,192.8382625199156,2024-03-29 19:11:16.676464,2024-03-29 19:11:18.253264,L_FF502.jpg,1,10983,18-29,2024-03-29_19h08.35.379,Recall,2021.2.3,59.95196648162906,
,SD026.jpg,0,MF026.jpg,0,,,,,0,26,26,75,imgFunc,0,NA,3.8712214999832213,192.84548819996417,196.81760921992827,2024-03-29 19:11:18.268224,2024-03-29 19:11:22.238978,MF026.jpg,0,10983,18-29,2024-03-29_19h08.35.379,Recall,2021.2.3,59.95196648162906,
,DD011.jpg,0,FF011.jpg,0,,,,,0,27,27,10,imgFunc,2,NA,1.887561000068672,196.82109390001278,198.80742681992706,2024-03-29 19:11:22.246955,2024-03-29 19:11:24.224702,FF011.jpg,0,10983,18-29,2024-03-29_19h08.35.379,Recall,2021.2.3,59.95196648162906,
,DD027.jpg,0,FF027.jpg,0,,,,,0,28,28,26,imgFunc,2,NA,1.169111300026998,198.8035772999283,200.07188421988394,2024-03-29 19:11:24.231699,2024-03-29 19:11:25.491352,FF027.jpg,0,10983,18-29,2024-03-29_19h08.35.379,Recall,2021.2.3,59.95196648162906,
,L_SD509.jpg,1,L_MF509.jpg,1,,,,,0,29,29,98,imgFunc,9,NA,3.887585899909027,200.07749960001092,204.0647800200386,2024-03-29 19:11:25.499298,2024-03-29 19:11:29.478651,L_MF509.jpg,1,10983,18-29,2024-03-29_19h08.35.379,Recall,2021.2.3,59.95196648162906,
,SD024.jpg,0,MF024.jpg,0,,,,,0,30,30,73,imgFunc,9,NA,2.3499467000365257,204.0709460999351,206.53974972001743,2024-03-29 19:11:29.486628,2024-03-29 19:11:31.946969,MF024.jpg,0,10983,18-29,2024-03-29_19h08.35.379,Recall,2021.2.3,59.95196648162906,
,DD024.jpg,0,FF024.jpg,0,,,,,0,31,31,23,imgFunc,2,NA,3.3028242000145838,206.5260492999805,209.9288848200813,2024-03-29 19:11:31.954961,2024-03-29 19:11:35.349452,FF024.jpg,0,10983,18-29,2024-03-29_19h08.35.379,Recall,2021.2.3,59.95196648162906,
,L_DD504.jpg,1,L_FF504.jpg,1,,,,,0,32,32,43,imgFunc,2,NA,1.101203600061126,209.93594909994863,211.13832511997316,2024-03-29 19:11:35.356436,2024-03-29 19:11:36.550626,L_FF504.jpg,1,10983,18-29,2024-03-29_19h08.35.379,Recall,2021.2.3,59.95196648162906,
,DD018.jpg,0,FF018.jpg,0,,,,,0,33,33,17,imgFunc,1,NA,1.0312183999922127,211.14167689997703,212.27713951992337,2024-03-29 19:11:36.557608,2024-03-29 19:11:37.684715,FF018.jpg,0,10983,18-29,2024-03-29_19h08.35.379,Recall,2021.2.3,59.95196648162906,
,DD037.jpg,0,FF037.jpg,0,,,,,0,34,34,36,imgFunc,2,NA,1.1704091998981312,212.27467740001157,213.56052832014393,2024-03-29 19:11:37.691698,2024-03-29 19:11:38.968935,FF037.jpg,0,10983,18-29,2024-03-29_19h08.35.379,Recall,2021.2.3,59.95196648162906,
,L_DD510.jpg,1,L_FF510.jpg,1,,,,,0,35,35,49,imgFunc,1,NA,1.7808099000249058,213.56017269997392,215.43414021993522,2024-03-29 19:11:38.981902,2024-03-29 19:11:40.853522,L_FF510.jpg,1,10983,18-29,2024-03-29_19h08.35.379,Recall,2021.2.3,59.95196648162906,
,SD031.jpg,0,MF031.jpg,0,,,,,0,36,36,80,imgFunc,1,NA,2.3932110999012366,215.43542559992056,217.93492611998226,2024-03-29 19:11:40.862523,2024-03-29 19:11:43.354210,MF031.jpg,0,10983,18-29,2024-03-29_19h08.35.379,Recall,2021.2.3,59.95196648162906,
,SD008.jpg,0,MF008.jpg,0,,,,,0,37,37,57,imgFunc,1,NA,1.5170186000177637,217.93558169994503,219.55417621997185,2024-03-29 19:11:43.362190,2024-03-29 19:11:44.972874,MF008.jpg,0,10983,18-29,2024-03-29_19h08.35.379,Recall,2021.2.3,59.95196648162906,
,SD011.jpg,0,MF011.jpg,0,,,,,0,38,38,60,imgFunc,1,NA,1.008576099993661,219.5560281999642,220.67346811993048,2024-03-29 19:11:44.980881,2024-03-29 19:11:46.089930,MF011.jpg,0,10983,18-29,2024-03-29_19h08.35.379,Recall,2021.2.3,59.95196648162906,
,SD033.jpg,0,MF033.jpg,0,,,,,0,39,39,82,imgFunc,2,NA,1.0477671000408009,220.67688189994078,221.82843381993007,2024-03-29 19:11:46.097906,2024-03-29 19:11:47.240586,MF033.jpg,0,10983,18-29,2024-03-29_19h08.35.379,Recall,2021.2.3,59.95196648162906,
,DD006.jpg,0,FF006.jpg,0,,,,,0,40,40,5,imgFunc,2,NA,1.1575664000120014,221.83911950001493,223.0904707199661,2024-03-29 19:11:47.257515,2024-03-29 19:11:48.509184,FF006.jpg,0,10983,18-29,2024-03-29_19h08.35.379,Recall,2021.2.3,59.95196648162906,
,SD037.jpg,0,MF037.jpg,0,,,,,0,41,41,86,imgFunc,1,NA,1.0355396999511868,223.08910400001332,224.22360322007444,2024-03-29 19:11:48.516165,2024-03-29 19:11:49.643170,MF037.jpg,0,10983,18-29,2024-03-29_19h08.35.379,Recall,2021.2.3,59.95196648162906,
,SD040.jpg,0,MF040.jpg,0,,,,,0,42,42,89,imgFunc,1,NA,0.7282814000500366,224.2285595999565,225.06308781995904,2024-03-29 19:11:49.650175,2024-03-29 19:11:50.476947,MF040.jpg,0,10983,18-29,2024-03-29_19h08.35.379,Recall,2021.2.3,59.95196648162906,
,DD014.jpg,0,FF014.jpg,0,,,,,0,43,43,13,imgFunc,2,NA,1.0239813999505714,225.07670179998968,226.20291342015844,2024-03-29 19:11:50.488934,2024-03-29 19:11:51.611105,FF014.jpg,0,10983,18-29,2024-03-29_19h08.35.379,Recall,2021.2.3,59.95196648162906,
,DD019.jpg,0,FF019.jpg,0,,,,,0,44,44,18,imgFunc,1,NA,1.5349645999958739,226.20569430000614,227.85777222004253,2024-03-29 19:11:51.618111,2024-03-29 19:11:53.261750,FF019.jpg,0,10983,18-29,2024-03-29_19h08.35.379,Recall,2021.2.3,59.95196648162906,
,DD022.jpg,0,FF022.jpg,0,,,,,0,45,45,21,imgFunc,2,NA,1.0349364000139758,227.8417155999923,228.9771253200015,2024-03-29 19:11:53.269714,2024-03-29 19:11:54.395720,FF022.jpg,0,10983,18-29,2024-03-29_19h08.35.379,Recall,2021.2.3,59.95196648162906,
,DD040.jpg,0,FF040.jpg,0,,,,,0,46,46,39,imgFunc,2,NA,1.601914200000465,228.97074169991538,230.67324112006463,2024-03-29 19:11:54.403699,2024-03-29 19:11:56.097464,FF040.jpg,0,10983,18-29,2024-03-29_19h08.35.379,Recall,2021.2.3,59.95196648162906,
,SD030.jpg,0,MF030.jpg,0,,,,,0,47,47,79,imgFunc,0,NA,2.9154574000276625,230.67333459993824,233.6768819198478,2024-03-29 19:11:56.104443,2024-03-29 19:11:59.099469,MF030.jpg,0,10983,18-29,2024-03-29_19h08.35.379,Recall,2021.2.3,59.95196648162906,
,DD038.jpg,0,FF038.jpg,0,,,,,0,48,48,37,imgFunc,2,NA,2.564596900017932,233.68032229994424,236.34987551998347,2024-03-29 19:11:59.107421,2024-03-29 19:12:01.768594,FF038.jpg,0,10983,18-29,2024-03-29_19h08.35.379,Recall,2021.2.3,59.95196648162906,
,L_DD507.jpg,1,L_FF507.jpg,1,,,,,0,49,49,46,imgFunc,1,NA,6.115043499972671,236.3618770999601,242.57231641979888,2024-03-29 19:12:01.781561,2024-03-29 19:12:07.989806,L_FF507.jpg,1,10983,18-29,2024-03-29_19h08.35.379,Recall,2021.2.3,59.95196648162906,
,SD007.jpg,0,MF007.jpg,0,,,,,0,50,50,56,imgFunc,0,NA,2.2019476999994367,242.57099819998257,244.871295119985,2024-03-29 19:12:07.998783,2024-03-29 19:12:10.291815,MF007.jpg,0,10983,18-29,2024-03-29_19h08.35.379,Recall,2021.2.3,59.95196648162906,
,DD002.jpg,0,FF002.jpg,0,,,,,0,51,51,1,imgFunc,0,NA,1.5874111999291927,244.8733624999877,246.5588091199752,2024-03-29 19:12:10.298798,2024-03-29 19:12:11.976061,FF002.jpg,0,10983,18-29,2024-03-29_19h08.35.379,Recall,2021.2.3,59.95196648162906,
,SD020.jpg,0,MF020.jpg,0,,,,,0,52,52,69,imgFunc,1,NA,1.722605700022541,246.56998799997382,248.40496281988453,2024-03-29 19:12:11.984041,2024-03-29 19:12:13.809897,MF020.jpg,0,10983,18-29,2024-03-29_19h08.35.379,Recall,2021.2.3,59.95196648162906,
,DD013.jpg,0,FF013.jpg,0,,,,,0,53,53,12,imgFunc,2,NA,1.8888340999837965,248.4037511999486,250.40616241993848,2024-03-29 19:12:13.817875,2024-03-29 19:12:15.811568,FF013.jpg,0,10983,18-29,2024-03-29_19h08.35.379,Recall,2021.2.3,59.95196648162906,
,L_SD502.jpg,1,L_MF502.jpg,1,,,,,0,54,54,91,imgFunc,2,NA,1.2860858000349253,250.40653319994453,251.80739743984304,2024-03-29 19:12:15.827527,2024-03-29 19:12:17.212152,L_MF502.jpg,1,10983,18-29,2024-03-29_19h08.35.379,Recall,2021.2.3,59.95196648162906,
,DD012.jpg,0,FF012.jpg,0,,,,,0,55,55,11,imgFunc,2,NA,1.332719000056386,251.7999268999556,253.2328509199433,2024-03-29 19:12:17.221150,2024-03-29 19:12:18.647350,FF012.jpg,0,10983,18-29,2024-03-29_19h08.35.379,Recall,2021.2.3,59.95196648162906,
,SD022.jpg,0,MF022.jpg,0,,,,,0,56,56,71,imgFunc,2,NA,1.452758300001733,253.22384140000213,254.77565081999637,2024-03-29 19:12:18.654314,2024-03-29 19:12:20.198233,MF022.jpg,0,10983,18-29,2024-03-29_19h08.35.379,Recall,2021.2.3,59.95196648162906,
,SD029.jpg,0,MF029.jpg,0,,,,,0,57,57,78,imgFunc,1,NA,1.0019879000028595,254.77867059991695,255.87945551984012,2024-03-29 19:12:20.206210,2024-03-29 19:12:21.299237,MF029.jpg,0,10983,18-29,2024-03-29_19h08.35.379,Recall,2021.2.3,59.95196648162906,
,SD005.jpg,0,MF005.jpg,0,,,,,0,58,58,54,imgFunc,9,NA,3.9465100000379607,255.89016039995477,259.94425471988507,2024-03-29 19:12:21.306232,2024-03-29 19:12:25.352433,MF005.jpg,0,10983,18-29,2024-03-29_19h08.35.379,Recall,2021.2.3,59.95196648162906,
,L_DD506.jpg,1,L_FF506.jpg,1,,,,,0,59,59,45,imgFunc,9,NA,1.0652299000648782,259.9313592999242,261.0998180198949,2024-03-29 19:12:25.359440,2024-03-29 19:12:26.519106,L_FF506.jpg,1,10983,18-29,2024-03-29_19h08.35.379,Recall,2021.2.3,59.95196648162906,
,L_SD506.jpg,1,L_MF506.jpg,1,,,,,0,60,60,95,imgFunc,9,NA,2.653666600002907,261.0949120000005,263.8477831199998,2024-03-29 19:12:26.527056,2024-03-29 19:12:29.271760,L_MF506.jpg,1,10983,18-29,2024-03-29_19h08.35.379,Recall,2021.2.3,59.95196648162906,
,L_DD501.jpg,1,L_FF501.jpg,1,,,,,0,61,61,40,imgFunc,0,NA,2.277449099929072,263.84732599998824,266.2172360200202,2024-03-29 19:12:29.278730,2024-03-29 19:12:31.640355,L_FF501.jpg,1,10983,18-29,2024-03-29_19h08.35.379,Recall,2021.2.3,59.95196648162906,
,L_SD503.jpg,1,L_MF503.jpg,1,,,,,0,62,62,92,imgFunc,0,NA,1.46729239996057,266.21774270001333,267.7868755199015,2024-03-29 19:12:31.647338,2024-03-29 19:12:33.207894,L_MF503.jpg,1,10983,18-29,2024-03-29_19h08.35.379,Recall,2021.2.3,59.95196648162906,
,DD007.jpg,0,FF007.jpg,0,,,,,0,63,63,6,imgFunc,0,NA,2.4124021000461653,267.7925396999344,270.30020831990987,2024-03-29 19:12:33.221742,2024-03-29 19:12:35.726722,FF007.jpg,0,10983,18-29,2024-03-29_19h08.35.379,Recall,2021.2.3,59.95196648162906,
,DD003.jpg,0,FF003.jpg,0,,,,,0,64,64,2,imgFunc,2,NA,1.3961845999583602,270.30440349993296,271.8067910199752,2024-03-29 19:12:35.733705,2024-03-29 19:12:37.227457,FF003.jpg,0,10983,18-29,2024-03-29_19h08.35.379,Recall,2021.2.3,59.95196648162906,
,DD005.jpg,0,FF005.jpg,0,,,,,0,65,65,4,imgFunc,9,NA,3.13447669998277,271.80649559991434,275.0434177198913,2024-03-29 19:12:37.234440,2024-03-29 19:12:40.463115,FF005.jpg,0,10983,18-29,2024-03-29_19h08.35.379,Recall,2021.2.3,59.95196648162906,
,SD001.jpg,0,MF001.jpg,0,,,,,0,66,66,50,imgFunc,2,NA,1.7678007000358775,275.04483069991693,276.91214811988175,2024-03-29 19:12:40.471096,2024-03-29 19:12:42.330406,MF001.jpg,0,10983,18-29,2024-03-29_19h08.35.379,Recall,2021.2.3,59.95196648162906,
,L_DD508.jpg,1,L_FF508.jpg,1,,,,,0,67,67,47,imgFunc,0,NA,2.3103573999833316,276.9181891999906,279.33786502003204,2024-03-29 19:12:42.338384,2024-03-29 19:12:44.748991,L_FF508.jpg,1,10983,18-29,2024-03-29_19h08.35.379,Recall,2021.2.3,59.95196648162906,
,SD014.jpg,0,MF014.jpg,0,,,,,0,68,68,63,imgFunc,1,NA,2.302732400014065,279.3340805999469,281.7215115199797,2024-03-29 19:12:44.763955,2024-03-29 19:12:47.150370,MF014.jpg,0,10983,18-29,2024-03-29_19h08.35.379,Recall,2021.2.3,59.95196648162906,
,DD016.jpg,0,FF016.jpg,0,,,,,0,69,69,15,imgFunc,2,NA,1.0210556999081746,281.7275412000017,282.84630962007213,2024-03-29 19:12:47.158346,2024-03-29 19:12:48.268363,FF016.jpg,0,10983,18-29,2024-03-29_19h08.35.379,Recall,2021.2.3,59.95196648162906,
,DD028.jpg,0,FF028.jpg,0,,,,,0,70,70,27,imgFunc,1,NA,2.067736400058493,282.84095969994087,284.99418431986123,2024-03-29 19:12:48.275344,2024-03-29 19:12:50.419639,FF028.jpg,0,10983,18-29,2024-03-29_19h08.35.379,Recall,2021.2.3,59.95196648162906,
,DD025.jpg,0,FF025.jpg,0,,,,,0,71,71,24,imgFunc,0,NA,1.8651788999559358,284.99557979998644,286.96427872008644,2024-03-29 19:12:50.427645,2024-03-29 19:12:52.387488,FF025.jpg,0,10983,18-29,2024-03-29_19h08.35.379,Recall,2021.2.3,59.95196648162906,
,SD035.jpg,0,MF035.jpg,0,,,,,0,72,72,84,imgFunc,2,NA,1.4649160999106243,286.97166829998605,288.54046371998265,2024-03-29 19:12:52.395466,2024-03-29 19:12:53.956311,MF035.jpg,0,10983,18-29,2024-03-29_19h08.35.379,Recall,2021.2.3,59.95196648162906,
,DD031.jpg,0,FF031.jpg,0,,,,,0,73,73,30,imgFunc,2,NA,2.288627300062217,288.5319451999385,290.91836841998156,2024-03-29 19:12:53.963320,2024-03-29 19:12:56.341040,FF031.jpg,0,10983,18-29,2024-03-29_19h08.35.379,Recall,2021.2.3,59.95196648162906,
,SD013.jpg,0,MF013.jpg,0,,,,,0,74,74,62,imgFunc,2,NA,1.8783263000659645,290.9182691000169,292.88749082013965,2024-03-29 19:12:56.348991,2024-03-29 19:12:58.308797,MF013.jpg,0,10983,18-29,2024-03-29_19h08.35.379,Recall,2021.2.3,59.95196648162906,
,SD012.jpg,0,MF012.jpg,0,,,,,0,75,75,61,imgFunc,0,NA,4.558260999969207,292.88650329993106,297.5402454198338,2024-03-29 19:12:58.316752,2024-03-29 19:13:02.962725,MF012.jpg,0,10983,18-29,2024-03-29_19h08.35.379,Recall,2021.2.3,59.95196648162906,
,SD027.jpg,0,MF027.jpg,0,,,,,0,76,76,76,imgFunc,9,NA,1.8803901999490336,297.55632380000316,299.55580262001604,2024-03-29 19:13:02.971714,2024-03-29 19:13:04.964223,MF027.jpg,0,10983,18-29,2024-03-29_19h08.35.379,Recall,2021.2.3,59.95196648162906,
,L_SD510.jpg,1,L_MF510.jpg,1,,,,,0,77,77,99,imgFunc,9,NA,2.564174000057392,299.560562599916,302.2339355199365,2024-03-29 19:13:04.978188,2024-03-29 19:13:07.649701,L_MF510.jpg,1,10983,18-29,2024-03-29_19h08.35.379,Recall,2021.2.3,59.95196648162906,
,DD010.jpg,0,FF010.jpg,0,,,,,0,78,78,9,imgFunc,2,NA,1.6589913999196142,302.2339323000051,304.0030001200503,2024-03-29 19:13:07.656667,2024-03-29 19:13:09.417717,FF010.jpg,0,10983,18-29,2024-03-29_19h08.35.379,Recall,2021.2.3,59.95196648162906,
,SD003.jpg,0,MF003.jpg,0,,,,,0,79,79,52,imgFunc,9,NA,3.4873118000105023,303.99722289992496,307.5842939199647,2024-03-29 19:13:09.424703,2024-03-29 19:13:13.003361,MF003.jpg,0,10983,18-29,2024-03-29_19h08.35.379,Recall,2021.2.3,59.95196648162906,
,L_DD509.jpg,1,L_FF509.jpg,1,,,,,0,80,80,48,imgFunc,2,NA,1.6030370000516996,307.57758509996347,309.27652791992296,2024-03-29 19:13:13.012358,2024-03-29 19:13:14.703864,L_FF509.jpg,1,10983,18-29,2024-03-29_19h08.35.379,Recall,2021.2.3,59.95196648162906,
,DD020.jpg,0,FF020.jpg,0,,,,,0,81,81,19,imgFunc,2,NA,1.0609785000560805,309.2875666999025,310.45608911989257,2024-03-29 19:13:14.711840,2024-03-29 19:13:15.871724,FF020.jpg,0,10983,18-29,2024-03-29_19h08.35.379,Recall,2021.2.3,59.95196648162906,
,DD033.jpg,0,FF033.jpg,0,,,,,0,82,82,32,imgFunc,1,NA,1.0433060000650585,310.4572306999471,311.59428031998686,2024-03-29 19:13:15.886694,2024-03-29 19:13:17.022639,FF033.jpg,0,10983,18-29,2024-03-29_19h08.35.379,Recall,2021.2.3,59.95196648162906,
,L_DD505.jpg,1,L_FF505.jpg,1,,,,,0,83,83,44,imgFunc,2,NA,0.9184952999930829,311.59805579995736,312.61707212007605,2024-03-29 19:13:17.029620,2024-03-29 19:13:18.039931,L_FF505.jpg,1,10983,18-29,2024-03-29_19h08.35.379,Recall,2021.2.3,59.95196648162906,
,DD029.jpg,0,FF029.jpg,0,,,,,0,84,84,28,imgFunc,0,NA,2.2207497999770567,312.6158039999427,314.9351164199179,2024-03-29 19:13:18.046940,2024-03-29 19:13:20.357791,FF029.jpg,0,10983,18-29,2024-03-29_19h08.35.379,Recall,2021.2.3,59.95196648162906,
,SD038.jpg,0,MF038.jpg,0,,,,,0,85,85,87,imgFunc,1,NA,1.582355200080201,314.9341859999113,316.61990642000455,2024-03-29 19:13:20.365739,2024-03-29 19:13:22.042913,MF038.jpg,0,10983,18-29,2024-03-29_19h08.35.379,Recall,2021.2.3,59.95196648162906,
,SD023.jpg,0,MF023.jpg,0,,,,,0,86,86,72,imgFunc,9,NA,2.7314504000823945,316.6250658999197,319.4623179198243,2024-03-29 19:13:22.049921,2024-03-29 19:13:24.878400,MF023.jpg,0,10983,18-29,2024-03-29_19h08.35.379,Recall,2021.2.3,59.95196648162906,
,DD026.jpg,0,FF026.jpg,0,,,,,0,87,87,25,imgFunc,2,NA,1.9357607000274584,319.4527494999347,321.4890751200728,2024-03-29 19:13:24.885373,2024-03-29 19:13:26.913438,FF026.jpg,0,10983,18-29,2024-03-29_19h08.35.379,Recall,2021.2.3,59.95196648162906,
,SD032.jpg,0,MF032.jpg,0,,,,,0,88,88,81,imgFunc,2,NA,1.1361890999833122,321.49234749993775,322.72676761995535,2024-03-29 19:13:26.920419,2024-03-29 19:13:28.147154,MF032.jpg,0,10983,18-29,2024-03-29_19h08.35.379,Recall,2021.2.3,59.95196648162906,
,L_SD507.jpg,1,L_MF507.jpg,1,,,,,0,89,89,96,imgFunc,1,NA,1.3552331000100821,322.7213017999893,324.17344621999655,2024-03-29 19:13:28.154135,2024-03-29 19:13:29.598291,L_MF507.jpg,1,10983,18-29,2024-03-29_19h08.35.379,Recall,2021.2.3,59.95196648162906,
,L_DD503.jpg,1,L_FF503.jpg,1,,,,,0,90,90,42,imgFunc,2,NA,1.077266399981454,324.1755542999599,325.34450851997826,2024-03-29 19:13:29.606269,2024-03-29 19:13:30.766384,L_FF503.jpg,1,10983,18-29,2024-03-29_19h08.35.379,Recall,2021.2.3,59.95196648162906,
,DD032.jpg,0,FF032.jpg,0,,,,,0,91,91,31,imgFunc,2,NA,0.8585903000785038,325.3541347999126,326.3089547199197,2024-03-29 19:13:30.780348,2024-03-29 19:13:31.733497,FF032.jpg,0,10983,18-29,2024-03-29_19h08.35.379,Recall,2021.2.3,59.95196648162906,
,DD034.jpg,0,FF034.jpg,0,,,,,0,92,92,33,imgFunc,0,NA,2.2684731000335887,326.3123891999712,328.6817972200224,2024-03-29 19:13:31.740481,2024-03-29 19:13:34.101813,FF034.jpg,0,10983,18-29,2024-03-29_19h08.35.379,Recall,2021.2.3,59.95196648162906,
,DD039.jpg,0,FF039.jpg,0,,,,,0,93,93,38,imgFunc,0,NA,1.8885166000109166,328.68427869991865,330.67010521993507,2024-03-29 19:13:34.109816,2024-03-29 19:13:36.086829,FF039.jpg,0,10983,18-29,2024-03-29_19h08.35.379,Recall,2021.2.3,59.95196648162906,
,L_SD508.jpg,1,L_MF508.jpg,1,,,,,0,94,94,97,imgFunc,0,NA,2.203401800012216,330.66539679991547,332.96691551990807,2024-03-29 19:13:36.094810,2024-03-29 19:13:38.388165,L_MF508.jpg,1,10983,18-29,2024-03-29_19h08.35.379,Recall,2021.2.3,59.95196648162906,
,DD001.jpg,0,FF001.jpg,0,,,,,0,95,95,0,imgFunc,0,NA,1.7110011000186205,332.9739003999857,334.7923935200088,2024-03-29 19:13:38.396146,2024-03-29 19:13:40.206559,FF001.jpg,0,10983,18-29,2024-03-29_19h08.35.379,Recall,2021.2.3,59.95196648162906,
,SD034.jpg,0,MF034.jpg,0,,,,,0,96,96,83,imgFunc,1,NA,1.9023467000806704,334.8063429999165,336.8093791198917,2024-03-29 19:13:40.221549,2024-03-29 19:13:42.224507,MF034.jpg,0,10983,18-29,2024-03-29_19h08.35.379,Recall,2021.2.3,59.95196648162906,
,DD009.jpg,0,FF009.jpg,0,,,,,0,97,97,8,imgFunc,9,NA,1.950286400038749,336.8062385999365,338.8566862200387,2024-03-29 19:13:42.232508,2024-03-29 19:13:44.275051,FF009.jpg,0,10983,18-29,2024-03-29_19h08.35.379,Recall,2021.2.3,59.95196648162906,
,DD036.jpg,0,FF036.jpg,0,,,,,0,98,98,35,imgFunc,9,NA,1.4993335000472143,338.84943880001083,340.45206242008135,2024-03-29 19:13:44.283027,2024-03-29 19:13:45.876783,FF036.jpg,0,10983,18-29,2024-03-29_19h08.35.379,Recall,2021.2.3,59.95196648162906,
,SD015.jpg,0,MF015.jpg,0,,,,,0,99,99,64,imgFunc,2,NA,1.8801312000723556,340.45242350001354,342.4220145200379,2024-03-29 19:13:45.883792,2024-03-29 19:13:47.844501,MF015.jpg,0,10983,18-29,2024-03-29_19h08.35.379,Recall,2021.2.3,59.95196648162906,
,,,,,,,,,,,,,instrFunc,space,"Great work! 

 Now you will switch to the other image type.

 Press the spacebar whenever you are ready to start.",2.6663927999325097,342.35419159999583,345.06954492011573,2024-03-29 19:13:47.845527,2024-03-29 19:13:50.545335,,,10983,18-29,2024-03-29_19h08.35.379,Recall,2021.2.3,59.95196648162906,
,DD014.jpg,0,FF014.jpg,0,,,,,0,0,0,13,imgFunc,0,NA,3.6056863999692723,345.14282379997894,348.84625696006697,2024-03-29 19:13:50.579219,2024-03-29 19:13:54.266223,DD014.jpg,0,10983,18-29,2024-03-29_19h08.35.379,Recall,2021.2.3,59.95196648162906,
,DD019.jpg,0,FF019.jpg,0,,,,,0,1,1,18,imgFunc,1,NA,3.341963000013493,348.8385339999804,352.27413862000685,2024-03-29 19:13:54.274230,2024-03-29 19:13:57.702191,DD019.jpg,0,10983,18-29,2024-03-29_19h08.35.379,Recall,2021.2.3,59.95196648162906,
,SD038.jpg,0,MF038.jpg,0,,,,,0,2,2,87,imgFunc,1,NA,2.0739927999675274,352.2744871999603,354.44381452014204,2024-03-29 19:13:57.709172,2024-03-29 19:13:59.869422,SD038.jpg,0,10983,18-29,2024-03-29_19h08.35.379,Recall,2021.2.3,59.95196648162906,
,L_DD508.jpg,1,L_FF508.jpg,1,,,,,0,3,3,47,imgFunc,2,NA,1.7046115000266582,354.44419379998,356.23639821994584,2024-03-29 19:13:59.882388,2024-03-29 19:14:01.672003,L_DD508.jpg,1,10983,18-29,2024-03-29_19h08.35.379,Recall,2021.2.3,59.95196648162906,
,SD030.jpg,0,MF030.jpg,0,,,,,0,4,4,79,imgFunc,2,NA,2.8343644000124186,356.25041539990343,359.1874082199065,2024-03-29 19:14:01.678992,2024-03-29 19:14:04.607356,SD030.jpg,0,10983,18-29,2024-03-29_19h08.35.379,Recall,2021.2.3,59.95196648162906,
,SD025.jpg,0,MF025.jpg,0,,,,,0,5,5,74,imgFunc,0,NA,3.086880399961956,359.1740295999916,362.3446898200782,2024-03-29 19:14:04.614339,2024-03-29 19:14:07.776154,SD025.jpg,0,10983,18-29,2024-03-29_19h08.35.379,Recall,2021.2.3,59.95196648162906,
,DD013.jpg,0,FF013.jpg,0,,,,,0,6,6,12,imgFunc,1,NA,2.434295100043528,362.346321699908,364.8657738198526,2024-03-29 19:14:07.784157,2024-03-29 19:14:10.294415,DD013.jpg,0,10983,18-29,2024-03-29_19h08.35.379,Recall,2021.2.3,59.95196648162906,
,L_DD501.jpg,1,L_FF501.jpg,1,,,,,0,7,7,40,imgFunc,1,NA,2.612479400006123,364.87205859995447,367.5916976199951,2024-03-29 19:14:10.302388,2024-03-29 19:14:13.012886,L_DD501.jpg,1,10983,18-29,2024-03-29_19h08.35.379,Recall,2021.2.3,59.95196648162906,
,L_DD502.jpg,1,L_FF502.jpg,1,,,,,0,8,8,41,imgFunc,9,NA,4.30776960006915,367.57676630001515,371.9648695200449,2024-03-29 19:14:13.019867,2024-03-29 19:14:17.399520,L_DD502.jpg,1,10983,18-29,2024-03-29_19h08.35.379,Recall,2021.2.3,59.95196648162906,
,SD019.jpg,0,MF019.jpg,0,,,,,0,9,9,68,imgFunc,1,NA,2.2504826999502257,371.9700018999865,374.30539592006244,2024-03-29 19:14:17.407498,2024-03-29 19:14:19.734331,SD019.jpg,0,10983,18-29,2024-03-29_19h08.35.379,Recall,2021.2.3,59.95196648162906,
,SD005.jpg,0,MF005.jpg,0,,,,,0,10,10,54,imgFunc,0,NA,1.7284365000668913,374.2999829999171,376.1192149199778,2024-03-29 19:14:19.742312,2024-03-29 19:14:21.552616,SD005.jpg,0,10983,18-29,2024-03-29_19h08.35.379,Recall,2021.2.3,59.95196648162906,
,DD024.jpg,0,FF024.jpg,0,,,,,0,11,11,23,imgFunc,2,NA,4.09894960001111,376.12155279994477,380.30882681999356,2024-03-29 19:14:21.559595,2024-03-29 19:14:25.738906,DD024.jpg,0,10983,18-29,2024-03-29_19h08.35.379,Recall,2021.2.3,59.95196648162906,
,L_SD505.jpg,1,L_MF505.jpg,1,,,,,0,12,12,94,imgFunc,2,NA,1.9299668000312522,380.3147234999342,382.33830961980857,2024-03-29 19:14:25.751862,2024-03-29 19:14:27.773506,L_SD505.jpg,1,10983,18-29,2024-03-29_19h08.35.379,Recall,2021.2.3,59.95196648162906,
,SD018.jpg,0,MF018.jpg,0,,,,,0,13,13,67,imgFunc,9,NA,2.6816930000204593,382.3391256999457,385.10919541993644,2024-03-29 19:14:27.781499,2024-03-29 19:14:30.542694,SD018.jpg,0,10983,18-29,2024-03-29_19h08.35.379,Recall,2021.2.3,59.95196648162906,
,L_DD507.jpg,1,L_FF507.jpg,1,,,,,0,14,14,46,imgFunc,1,NA,1.4218181000323966,385.1107625999721,386.62986072001513,2024-03-29 19:14:30.549678,2024-03-29 19:14:32.060671,L_DD507.jpg,1,10983,18-29,2024-03-29_19h08.35.379,Recall,2021.2.3,59.95196648162906,
,DD040.jpg,0,FF040.jpg,0,,,,,0,15,15,39,imgFunc,1,NA,1.6824504000833258,386.6344069999177,388.42003151995596,2024-03-29 19:14:32.067657,2024-03-29 19:14:33.844956,DD040.jpg,0,10983,18-29,2024-03-29_19h08.35.379,Recall,2021.2.3,59.95196648162906,
,L_SD510.jpg,1,L_MF510.jpg,1,,,,,0,16,16,99,imgFunc,9,NA,2.614547700039111,388.421943299938,391.1414931198815,2024-03-29 19:14:33.852937,2024-03-29 19:14:36.563554,L_SD510.jpg,1,10983,18-29,2024-03-29_19h08.35.379,Recall,2021.2.3,59.95196648162906,
,DD020.jpg,0,FF020.jpg,0,,,,,0,17,17,19,imgFunc,2,NA,2.905913900001906,391.1469596999232,394.13562531978823,2024-03-29 19:14:36.578516,2024-03-29 19:14:39.565846,DD020.jpg,0,10983,18-29,2024-03-29_19h08.35.379,Recall,2021.2.3,59.95196648162906,
,SD015.jpg,0,MF015.jpg,0,,,,,0,18,18,64,imgFunc,2,NA,2.143836300005205,394.14110609993804,396.3769137200434,2024-03-29 19:14:39.573827,2024-03-29 19:14:41.800868,SD015.jpg,0,10983,18-29,2024-03-29_19h08.35.379,Recall,2021.2.3,59.95196648162906,
,DD034.jpg,0,FF034.jpg,0,,,,,0,19,19,33,imgFunc,1,NA,0.8494925999548286,396.3709462999832,397.3055250198813,2024-03-29 19:14:41.808849,2024-03-29 19:14:42.734001,DD034.jpg,0,10983,18-29,2024-03-29_19h08.35.379,Recall,2021.2.3,59.95196648162906,
,SD013.jpg,0,MF013.jpg,0,,,,,0,20,20,62,imgFunc,1,NA,0.9595824000425637,397.30084089993034,398.3526676198235,2024-03-29 19:14:42.741956,2024-03-29 19:14:43.785178,SD013.jpg,0,10983,18-29,2024-03-29_19h08.35.379,Recall,2021.2.3,59.95196648162906,
,DD027.jpg,0,FF027.jpg,0,,,,,0,21,21,26,imgFunc,2,NA,1.4830029999138787,398.35345779999625,399.9226309200749,2024-03-29 19:14:43.792187,2024-03-29 19:14:45.353004,DD027.jpg,0,10983,18-29,2024-03-29_19h08.35.379,Recall,2021.2.3,59.95196648162906,
,DD016.jpg,0,FF016.jpg,0,,,,,0,22,22,15,imgFunc,0,NA,2.6674722000025213,399.9369775999803,402.69271381990984,2024-03-29 19:14:45.366966,2024-03-29 19:14:48.121382,DD016.jpg,0,10983,18-29,2024-03-29_19h08.35.379,Recall,2021.2.3,59.95196648162906,
,SD016.jpg,0,MF016.jpg,0,,,,,0,23,23,65,imgFunc,9,NA,3.0776868999237195,402.68684370000847,405.85669512010645,2024-03-29 19:14:48.129360,2024-03-29 19:14:51.290751,SD016.jpg,0,10983,18-29,2024-03-29_19h08.35.379,Recall,2021.2.3,59.95196648162906,
,L_DD510.jpg,1,L_FF510.jpg,1,,,,,0,24,24,49,imgFunc,0,NA,2.5308892000466585,405.85756009991746,408.47660902002826,2024-03-29 19:14:51.298728,2024-03-29 19:14:53.908809,L_DD510.jpg,1,10983,18-29,2024-03-29_19h08.35.379,Recall,2021.2.3,59.95196648162906,
,SD039.jpg,0,MF039.jpg,0,,,,,0,25,25,88,imgFunc,1,NA,2.0562153999926522,408.47618589992635,410.62856901984196,2024-03-29 19:14:53.916785,2024-03-29 19:14:56.060224,SD039.jpg,0,10983,18-29,2024-03-29_19h08.35.379,Recall,2021.2.3,59.95196648162906,
,SD031.jpg,0,MF031.jpg,0,,,,,0,26,26,80,imgFunc,2,NA,2.224848599988036,410.6355629999889,412.95435961999465,2024-03-29 19:14:56.068202,2024-03-29 19:14:58.379052,SD031.jpg,0,10983,18-29,2024-03-29_19h08.35.379,Recall,2021.2.3,59.95196648162906,
,SD002.jpg,0,MF002.jpg,0,,,,,0,27,27,51,imgFunc,9,NA,3.2976333999540657,412.94699440000113,416.3252103199484,2024-03-29 19:14:58.391018,2024-03-29 19:15:01.765249,SD002.jpg,0,10983,18-29,2024-03-29_19h08.35.379,Recall,2021.2.3,59.95196648162906,
,SD027.jpg,0,MF027.jpg,0,,,,,0,28,28,76,imgFunc,9,NA,2.2470398999284953,416.33333799999673,418.6694257199997,2024-03-29 19:15:01.772232,2024-03-29 19:15:04.099856,SD027.jpg,0,10983,18-29,2024-03-29_19h08.35.379,Recall,2021.2.3,59.95196648162906,
,L_SD504.jpg,1,L_MF504.jpg,1,,,,,0,29,29,93,imgFunc,2,NA,5.12683039996773,418.6698706999887,423.89156721998006,2024-03-29 19:15:04.107836,2024-03-29 19:15:09.320097,L_SD504.jpg,1,10983,18-29,2024-03-29_19h08.35.379,Recall,2021.2.3,59.95196648162906,
,DD037.jpg,0,FF037.jpg,0,,,,,0,30,30,36,imgFunc,1,NA,1.5565562000265345,423.90383849991485,425.5691607199842,2024-03-29 19:15:09.329839,2024-03-29 19:15:10.988582,DD037.jpg,0,10983,18-29,2024-03-29_19h08.35.379,Recall,2021.2.3,59.95196648162906,
,SD024.jpg,0,MF024.jpg,0,,,,,0,31,31,73,imgFunc,9,NA,2.5178584000095725,425.57460849999916,428.18155062012374,2024-03-29 19:15:11.002547,2024-03-29 19:15:13.607029,SD024.jpg,0,10983,18-29,2024-03-29_19h08.35.379,Recall,2021.2.3,59.95196648162906,
,DD021.jpg,0,FF021.jpg,0,,,,,0,32,32,20,imgFunc,2,NA,2.750510699930601,428.1738834999269,431.01050242001656,2024-03-29 19:15:13.614038,2024-03-29 19:15:16.441507,DD021.jpg,0,10983,18-29,2024-03-29_19h08.35.379,Recall,2021.2.3,59.95196648162906,
,L_SD502.jpg,1,L_MF502.jpg,1,,,,,0,33,33,91,imgFunc,1,NA,1.0189693999709561,431.00948989996687,432.1113800199237,2024-03-29 19:15:16.449490,2024-03-29 19:15:17.542744,L_SD502.jpg,1,10983,18-29,2024-03-29_19h08.35.379,Recall,2021.2.3,59.95196648162906,
,SD032.jpg,0,MF032.jpg,0,,,,,0,34,34,81,imgFunc,9,NA,2.123035999946296,432.11336570000276,434.3326292198617,2024-03-29 19:15:17.550721,2024-03-29 19:15:19.760873,SD032.jpg,0,10983,18-29,2024-03-29_19h08.35.379,Recall,2021.2.3,59.95196648162906,
,SD012.jpg,0,MF012.jpg,0,,,,,0,35,35,61,imgFunc,0,NA,1.4971631000516936,434.3392436999129,435.9372656198684,2024-03-29 19:15:19.770838,2024-03-29 19:15:21.361503,SD012.jpg,0,10983,18-29,2024-03-29_19h08.35.379,Recall,2021.2.3,59.95196648162906,
,SD020.jpg,0,MF020.jpg,0,,,,,0,36,36,69,imgFunc,2,NA,2.5997282000025734,435.9566560999956,438.6698321400909,2024-03-29 19:15:21.381421,2024-03-29 19:15:24.080237,SD020.jpg,0,10983,18-29,2024-03-29_19h08.35.379,Recall,2021.2.3,59.95196648162906,
,SD036.jpg,0,MF036.jpg,0,,,,,0,37,37,85,imgFunc,1,NA,0.9321945999981835,438.64837959990837,439.6673373199301,2024-03-29 19:15:24.088215,2024-03-29 19:15:25.098526,SD036.jpg,0,10983,18-29,2024-03-29_19h08.35.379,Recall,2021.2.3,59.95196648162906,
,DD039.jpg,0,FF039.jpg,0,,,,,0,38,38,38,imgFunc,1,NA,1.4448070999933407,439.66359589993954,441.19884771993384,2024-03-29 19:15:25.105505,2024-03-29 19:15:26.632371,DD039.jpg,0,10983,18-29,2024-03-29_19h08.35.379,Recall,2021.2.3,59.95196648162906,
,DD009.jpg,0,FF009.jpg,0,,,,,0,39,39,8,imgFunc,0,NA,3.1818227999610826,441.19858349999413,444.4691674200585,2024-03-29 19:15:26.640349,2024-03-29 19:15:29.901691,DD009.jpg,0,10983,18-29,2024-03-29_19h08.35.379,Recall,2021.2.3,59.95196648162906,
,DD035.jpg,0,FF035.jpg,0,,,,,0,40,40,34,imgFunc,1,NA,1.5090678998967633,444.4716255000094,446.0738749199081,2024-03-29 19:15:29.909645,2024-03-29 19:15:31.503233,DD035.jpg,0,10983,18-29,2024-03-29_19h08.35.379,Recall,2021.2.3,59.95196648162906,
,L_DD509.jpg,1,L_FF509.jpg,1,,,,,0,41,41,48,imgFunc,1,NA,1.2185289000626653,446.0898726999294,447.41075832000934,2024-03-29 19:15:31.518195,2024-03-29 19:15:32.837513,L_DD509.jpg,1,10983,18-29,2024-03-29_19h08.35.379,Recall,2021.2.3,59.95196648162906,
,SD003.jpg,0,MF003.jpg,0,,,,,0,42,42,52,imgFunc,0,NA,2.7224546000361443,447.402192599955,450.20675511995796,2024-03-29 19:15:32.844496,2024-03-29 19:15:35.640687,SD003.jpg,0,10983,18-29,2024-03-29_19h08.35.379,Recall,2021.2.3,59.95196648162906,
,L_DD504.jpg,1,L_FF504.jpg,1,,,,,0,43,43,43,imgFunc,0,NA,0.9753895999165252,450.2133533000015,451.2812094199471,2024-03-29 19:15:35.647689,2024-03-29 19:15:36.707204,L_DD504.jpg,1,10983,18-29,2024-03-29_19h08.35.379,Recall,2021.2.3,59.95196648162906,
,DD004.jpg,0,FF004.jpg,0,,,,,0,44,44,3,imgFunc,1,NA,1.9297246999340132,451.2828657999635,453.31887961993925,2024-03-29 19:15:36.714188,2024-03-29 19:15:38.741643,DD004.jpg,0,10983,18-29,2024-03-29_19h08.35.379,Recall,2021.2.3,59.95196648162906,
,L_DD506.jpg,1,L_FF506.jpg,1,,,,,0,45,45,45,imgFunc,1,NA,1.2275932000484318,453.329044999904,454.66499442001805,2024-03-29 19:15:38.748627,2024-03-29 19:15:40.075456,L_DD506.jpg,1,10983,18-29,2024-03-29_19h08.35.379,Recall,2021.2.3,59.95196648162906,
,DD008.jpg,0,FF008.jpg,0,,,,,0,46,46,7,imgFunc,2,NA,0.9962455000495538,454.6404047999531,455.72629262006376,2024-03-29 19:15:40.083459,2024-03-29 19:15:41.160349,DD008.jpg,0,10983,18-29,2024-03-29_19h08.35.379,Recall,2021.2.3,59.95196648162906,
,SD033.jpg,0,MF033.jpg,0,,,,,0,47,47,82,imgFunc,1,NA,1.3173823000397533,455.72717889992055,457.12955661991145,2024-03-29 19:15:41.167354,2024-03-29 19:15:42.561023,SD033.jpg,0,10983,18-29,2024-03-29_19h08.35.379,Recall,2021.2.3,59.95196648162906,
,SD010.jpg,0,MF010.jpg,0,,,,,0,48,48,59,imgFunc,0,NA,3.0231659000273794,457.1331433999585,460.252861619927,2024-03-29 19:15:42.569025,2024-03-29 19:15:45.679730,SD010.jpg,0,10983,18-29,2024-03-29_19h08.35.379,Recall,2021.2.3,59.95196648162906,
,DD028.jpg,0,FF028.jpg,0,,,,,0,49,49,27,imgFunc,9,NA,5.3339442000724375,460.24639679992106,465.6675566199701,2024-03-29 19:15:45.687713,2024-03-29 19:15:51.099941,DD028.jpg,0,10983,18-29,2024-03-29_19h08.35.379,Recall,2021.2.3,59.95196648162906,
,DD032.jpg,0,FF032.jpg,0,,,,,0,50,50,31,imgFunc,0,NA,2.668291399953887,465.68004050001036,468.4323807199253,2024-03-29 19:15:51.116894,2024-03-29 19:15:53.868595,DD032.jpg,0,10983,18-29,2024-03-29_19h08.35.379,Recall,2021.2.3,59.95196648162906,
,L_DD505.jpg,1,L_FF505.jpg,1,,,,,0,51,51,44,imgFunc,9,NA,4.211848700069822,468.4325065999292,472.7373631199589,2024-03-29 19:15:53.876576,2024-03-29 19:15:58.172139,L_DD505.jpg,1,10983,18-29,2024-03-29_19h08.35.379,Recall,2021.2.3,59.95196648162906,
,DD030.jpg,0,FF030.jpg,0,,,,,0,52,52,29,imgFunc,1,NA,2.0165119000012055,472.7401608999353,474.84277351992205,2024-03-29 19:15:58.180120,2024-03-29 19:16:00.274529,DD030.jpg,0,10983,18-29,2024-03-29_19h08.35.379,Recall,2021.2.3,59.95196648162906,
,SD040.jpg,0,MF040.jpg,0,,,,,0,53,53,89,imgFunc,0,NA,3.1637916000327095,474.84084099996835,478.0935270199552,2024-03-29 19:16:00.282531,2024-03-29 19:16:03.526185,SD040.jpg,0,10983,18-29,2024-03-29_19h08.35.379,Recall,2021.2.3,59.95196648162906,
,SD028.jpg,0,MF028.jpg,0,,,,,0,54,54,77,imgFunc,0,NA,2.6594232000643387,478.1051013999386,480.8585640200181,2024-03-29 19:16:03.533168,2024-03-29 19:16:06.277760,SD028.jpg,0,10983,18-29,2024-03-29_19h08.35.379,Recall,2021.2.3,59.95196648162906,
,DD018.jpg,0,FF018.jpg,0,,,,,0,55,55,17,imgFunc,1,NA,2.6461116999853402,480.8543602999998,483.59267882001586,2024-03-29 19:16:06.292712,2024-03-29 19:16:09.030276,DD018.jpg,0,10983,18-29,2024-03-29_19h08.35.379,Recall,2021.2.3,59.95196648162906,
,DD006.jpg,0,FF006.jpg,0,,,,,0,56,56,5,imgFunc,2,NA,1.4199330999981612,483.60855809994973,485.1275716200471,2024-03-29 19:16:09.037259,2024-03-29 19:16:10.547911,DD006.jpg,0,10983,18-29,2024-03-29_19h08.35.379,Recall,2021.2.3,59.95196648162906,
,DD033.jpg,0,FF033.jpg,0,,,,,0,57,57,32,imgFunc,1,NA,1.1149209999712184,485.11373879993334,486.3161401199177,2024-03-29 19:16:10.554894,2024-03-29 19:16:11.748881,DD033.jpg,0,10983,18-29,2024-03-29_19h08.35.379,Recall,2021.2.3,59.95196648162906,
,SD004.jpg,0,MF004.jpg,0,,,,,0,58,58,53,imgFunc,9,NA,2.0010253000073135,486.31554689991754,488.4016336197965,2024-03-29 19:16:11.755864,2024-03-29 19:16:13.833628,SD004.jpg,0,10983,18-29,2024-03-29_19h08.35.379,Recall,2021.2.3,59.95196648162906,
,L_DD503.jpg,1,L_FF503.jpg,1,,,,,0,59,59,42,imgFunc,9,NA,1.5031126000685617,488.4052145999158,490.00742531986907,2024-03-29 19:16:13.840609,2024-03-29 19:16:15.434365,L_DD503.jpg,1,10983,18-29,2024-03-29_19h08.35.379,Recall,2021.2.3,59.95196648162906,
,L_SD506.jpg,1,L_MF506.jpg,1,,,,,0,60,60,95,imgFunc,1,NA,3.234367899945937,490.0023364999797,493.3226463198662,2024-03-29 19:16:15.442344,2024-03-29 19:16:18.753429,L_SD506.jpg,1,10983,18-29,2024-03-29_19h08.35.379,Recall,2021.2.3,59.95196648162906,
,SD014.jpg,0,MF014.jpg,0,,,,,0,61,61,63,imgFunc,2,NA,1.6533151000039652,493.3190470999107,495.0545158199966,2024-03-29 19:16:18.761409,2024-03-29 19:16:20.487815,SD014.jpg,0,10983,18-29,2024-03-29_19h08.35.379,Recall,2021.2.3,59.95196648162906,
,DD015.jpg,0,FF015.jpg,0,,,,,0,62,62,14,imgFunc,1,NA,0.981219399953261,495.0551741999807,496.12361891998444,2024-03-29 19:16:20.495764,2024-03-29 19:16:21.555116,DD015.jpg,0,10983,18-29,2024-03-29_19h08.35.379,Recall,2021.2.3,59.95196648162906,
,DD011.jpg,0,FF011.jpg,0,,,,,0,63,63,10,imgFunc,1,NA,0.8517901999875903,496.1284979999764,497.0800717199454,2024-03-29 19:16:21.563099,2024-03-29 19:16:22.506563,DD011.jpg,0,10983,18-29,2024-03-29_19h08.35.379,Recall,2021.2.3,59.95196648162906,
,SD006.jpg,0,MF006.jpg,0,,,,,0,64,64,55,imgFunc,1,NA,1.4257079000817612,497.0827468999196,498.59039011981804,2024-03-29 19:16:22.519551,2024-03-29 19:16:24.023551,SD006.jpg,0,10983,18-29,2024-03-29_19h08.35.379,Recall,2021.2.3,59.95196648162906,
,SD007.jpg,0,MF007.jpg,0,,,,,0,65,65,56,imgFunc,1,NA,0.7675991000141948,498.5887166999746,499.4404710199451,2024-03-29 19:16:24.031498,2024-03-29 19:16:24.874281,SD007.jpg,0,10983,18-29,2024-03-29_19h08.35.379,Recall,2021.2.3,59.95196648162906,
,SD017.jpg,0,MF017.jpg,0,,,,,0,66,66,66,imgFunc,0,NA,1.7926394999958575,499.4436803999124,501.32935441995505,2024-03-29 19:16:24.882233,2024-03-29 19:16:26.759705,SD017.jpg,0,10983,18-29,2024-03-29_19h08.35.379,Recall,2021.2.3,59.95196648162906,
,SD029.jpg,0,MF029.jpg,0,,,,,0,67,67,78,imgFunc,2,NA,3.166758199920878,501.3255451999139,504.57947571994737,2024-03-29 19:16:26.766707,2024-03-29 19:16:30.012043,SD029.jpg,0,10983,18-29,2024-03-29_19h08.35.379,Recall,2021.2.3,59.95196648162906,
,SD001.jpg,0,MF001.jpg,0,,,,,0,68,68,50,imgFunc,0,NA,2.222177100018598,504.5823533999501,506.902285919874,2024-03-29 19:16:30.019051,2024-03-29 19:16:32.330443,SD001.jpg,0,10983,18-29,2024-03-29_19h08.35.379,Recall,2021.2.3,59.95196648162906,
,DD005.jpg,0,FF005.jpg,0,,,,,0,69,69,4,imgFunc,9,NA,2.435400399961509,506.92117039998993,509.4591125199804,2024-03-29 19:16:32.345405,2024-03-29 19:16:34.882255,DD005.jpg,0,10983,18-29,2024-03-29_19h08.35.379,Recall,2021.2.3,59.95196648162906,
,DD038.jpg,0,FF038.jpg,0,,,,,0,70,70,37,imgFunc,1,NA,1.4864284000359476,509.4541678999085,511.04116561997216,2024-03-29 19:16:34.889238,2024-03-29 19:16:36.467726,DD038.jpg,0,10983,18-29,2024-03-29_19h08.35.379,Recall,2021.2.3,59.95196648162906,
,DD036.jpg,0,FF036.jpg,0,,,,,0,71,71,35,imgFunc,0,NA,2.8596845999127254,511.04086670000106,513.9936470200773,2024-03-29 19:16:36.474709,2024-03-29 19:16:39.418929,DD036.jpg,0,10983,18-29,2024-03-29_19h08.35.379,Recall,2021.2.3,59.95196648162906,
,DD001.jpg,0,FF001.jpg,0,,,,,0,72,72,0,imgFunc,2,NA,3.008751199929975,513.9875405000057,517.0909548200434,2024-03-29 19:16:39.425912,2024-03-29 19:16:42.520814,DD001.jpg,0,10983,18-29,2024-03-29_19h08.35.379,Recall,2021.2.3,59.95196648162906,
,SD022.jpg,0,MF022.jpg,0,,,,,0,73,73,71,imgFunc,1,NA,1.848920900025405,517.0913830999052,519.0270155199105,2024-03-29 19:16:42.527788,2024-03-29 19:16:44.455654,SD022.jpg,0,10983,18-29,2024-03-29_19h08.35.379,Recall,2021.2.3,59.95196648162906,
,SD009.jpg,0,MF009.jpg,0,,,,,0,74,74,58,imgFunc,1,NA,1.5921916000079364,519.0360898999497,520.724717319943,2024-03-29 19:16:44.469616,2024-03-29 19:16:46.157125,SD009.jpg,0,10983,18-29,2024-03-29_19h08.35.379,Recall,2021.2.3,59.95196648162906,
,L_SD501.jpg,1,L_MF501.jpg,1,,,,,0,75,75,90,imgFunc,1,NA,2.6766648000339046,520.7275323999347,523.4971498198574,2024-03-29 19:16:46.164134,2024-03-29 19:16:48.925385,L_SD501.jpg,1,10983,18-29,2024-03-29_19h08.35.379,Recall,2021.2.3,59.95196648162906,
,DD029.jpg,0,FF029.jpg,0,,,,,0,76,76,28,imgFunc,0,NA,2.399374600034207,523.4929597999435,525.9796152199851,2024-03-29 19:16:48.932366,2024-03-29 19:16:51.410084,DD029.jpg,0,10983,18-29,2024-03-29_19h08.35.379,Recall,2021.2.3,59.95196648162906,
,DD007.jpg,0,FF007.jpg,0,,,,,0,77,77,6,imgFunc,1,NA,1.9105617000022903,525.9817130999872,527.9837770200102,2024-03-29 19:16:51.418061,2024-03-29 19:16:53.411783,DD007.jpg,0,10983,18-29,2024-03-29_19h08.35.379,Recall,2021.2.3,59.95196648162906,
,SD021.jpg,0,MF021.jpg,0,,,,,0,78,78,70,imgFunc,2,NA,1.4022239999612793,527.9860530999722,529.4887117199833,2024-03-29 19:16:53.418763,2024-03-29 19:16:54.912783,SD021.jpg,0,10983,18-29,2024-03-29_19h08.35.379,Recall,2021.2.3,59.95196648162906,
,DD012.jpg,0,FF012.jpg,0,,,,,0,79,79,11,imgFunc,1,NA,0.8795606999192387,529.4767155000009,530.4454634200083,2024-03-29 19:16:54.920766,2024-03-29 19:16:55.880182,DD012.jpg,0,10983,18-29,2024-03-29_19h08.35.379,Recall,2021.2.3,59.95196648162906,
,SD035.jpg,0,MF035.jpg,0,,,,,0,80,80,84,imgFunc,0,NA,2.350998100009747,530.4453214999521,532.8813998199767,2024-03-29 19:16:55.888157,2024-03-29 19:16:58.315673,SD035.jpg,0,10983,18-29,2024-03-29_19h08.35.379,Recall,2021.2.3,59.95196648162906,
,DD010.jpg,0,FF010.jpg,0,,,,,0,81,81,9,imgFunc,1,NA,2.1783690000884235,532.8822943000123,535.1522757199127,2024-03-29 19:16:58.323651,2024-03-29 19:17:00.584382,DD010.jpg,0,10983,18-29,2024-03-29_19h08.35.379,Recall,2021.2.3,59.95196648162906,
,SD026.jpg,0,MF026.jpg,0,,,,,0,82,82,75,imgFunc,2,NA,1.2208170000230893,535.1597456999589,536.4784589200281,2024-03-29 19:17:00.591363,2024-03-29 19:17:01.901832,SD026.jpg,0,10983,18-29,2024-03-29_19h08.35.379,Recall,2021.2.3,59.95196648162906,
,SD008.jpg,0,MF008.jpg,0,,,,,0,83,83,57,imgFunc,1,NA,1.087532899924554,536.4769307000097,537.651168219978,2024-03-29 19:17:01.914799,2024-03-29 19:17:03.085925,SD008.jpg,0,10983,18-29,2024-03-29_19h08.35.379,Recall,2021.2.3,59.95196648162906,
,L_SD508.jpg,1,L_MF508.jpg,1,,,,,0,84,84,97,imgFunc,9,NA,1.879115500021726,537.653506899951,539.6231918199919,2024-03-29 19:17:03.092908,2024-03-29 19:17:05.054053,L_SD508.jpg,1,10983,18-29,2024-03-29_19h08.35.379,Recall,2021.2.3,59.95196648162906,
,DD026.jpg,0,FF026.jpg,0,,,,,0,85,85,25,imgFunc,0,NA,1.941480999928899,539.6231182999909,541.6596042199526,2024-03-29 19:17:05.061036,2024-03-29 19:17:07.088845,DD026.jpg,0,10983,18-29,2024-03-29_19h08.35.379,Recall,2021.2.3,59.95196648162906,
,L_SD507.jpg,1,L_MF507.jpg,1,,,,,0,86,86,96,imgFunc,1,NA,1.95784469996579,541.6627737999661,543.7156543199671,2024-03-29 19:17:07.095828,2024-03-29 19:17:09.140463,L_SD507.jpg,1,10983,18-29,2024-03-29_19h08.35.379,Recall,2021.2.3,59.95196648162906,
,SD011.jpg,0,MF011.jpg,0,,,,,0,87,87,60,imgFunc,1,NA,1.386686300043948,543.7138628999237,545.2001171199372,2024-03-29 19:17:09.147446,2024-03-29 19:17:10.624610,SD011.jpg,0,10983,18-29,2024-03-29_19h08.35.379,Recall,2021.2.3,59.95196648162906,
,SD023.jpg,0,MF023.jpg,0,,,,,0,88,88,72,imgFunc,1,NA,1.5895971999270841,545.2146938999649,546.9029090200784,2024-03-29 19:17:10.639572,2024-03-29 19:17:12.325569,SD023.jpg,0,10983,18-29,2024-03-29_19h08.35.379,Recall,2021.2.3,59.95196648162906,
,SD037.jpg,0,MF037.jpg,0,,,,,0,89,89,86,imgFunc,0,NA,2.763868000009097,546.9043785999529,549.7734422199428,2024-03-29 19:17:12.333546,2024-03-29 19:17:15.193963,SD037.jpg,0,10983,18-29,2024-03-29_19h08.35.379,Recall,2021.2.3,59.95196648162906,
,DD025.jpg,0,FF025.jpg,0,,,,,0,90,90,24,imgFunc,1,NA,2.8581840000115335,549.7620821999153,552.7153985199984,2024-03-29 19:17:15.201939,2024-03-29 19:17:18.145898,DD025.jpg,0,10983,18-29,2024-03-29_19h08.35.379,Recall,2021.2.3,59.95196648162906,
,DD031.jpg,0,FF031.jpg,0,,,,,0,91,91,30,imgFunc,1,NA,1.6404739998979494,552.7238573000068,554.4595074199606,2024-03-29 19:17:18.153876,2024-03-29 19:17:19.881297,DD031.jpg,0,10983,18-29,2024-03-29_19h08.35.379,Recall,2021.2.3,59.95196648162906,
,DD003.jpg,0,FF003.jpg,0,,,,,0,92,92,2,imgFunc,0,NA,2.280357399955392,554.4598802999826,556.845870019868,2024-03-29 19:17:19.888286,2024-03-29 19:17:22.266038,DD003.jpg,0,10983,18-29,2024-03-29_19h08.35.379,Recall,2021.2.3,59.95196648162906,
,DD002.jpg,0,FF002.jpg,0,,,,,0,93,93,1,imgFunc,1,NA,3.7445861999876797,556.8597136000171,560.7127641401021,2024-03-29 19:17:22.281995,2024-03-29 19:17:26.118529,DD002.jpg,0,10983,18-29,2024-03-29_19h08.35.379,Recall,2021.2.3,59.95196648162906,
,DD017.jpg,0,FF017.jpg,0,,,,,0,94,94,16,imgFunc,1,NA,1.6702967999735847,560.6859387999866,562.4549239198677,2024-03-29 19:17:26.126510,2024-03-29 19:17:27.886822,DD017.jpg,0,10983,18-29,2024-03-29_19h08.35.379,Recall,2021.2.3,59.95196648162906,
,L_SD509.jpg,1,L_MF509.jpg,1,,,,,0,95,95,98,imgFunc,1,NA,1.5984464000212029,562.4538093999727,564.139329320169,2024-03-29 19:17:27.894775,2024-03-29 19:17:29.571341,L_SD509.jpg,1,10983,18-29,2024-03-29_19h08.35.379,Recall,2021.2.3,59.95196648162906,
,DD022.jpg,0,FF022.jpg,0,,,,,0,96,96,21,imgFunc,1,NA,1.2849832000210881,564.1354663999518,565.5048263198696,2024-03-29 19:17:29.578320,2024-03-29 19:17:30.939265,DD022.jpg,0,10983,18-29,2024-03-29_19h08.35.379,Recall,2021.2.3,59.95196648162906,
,SD034.jpg,0,MF034.jpg,0,,,,,0,97,97,83,imgFunc,1,NA,1.1839026000816375,565.5085203999188,566.7932840198046,2024-03-29 19:17:30.947267,2024-03-29 19:17:32.223597,SD034.jpg,0,10983,18-29,2024-03-29_19h08.35.379,Recall,2021.2.3,59.95196648162906,
,L_SD503.jpg,1,L_MF503.jpg,1,,,,,0,98,98,92,imgFunc,2,NA,1.9978066999465227,566.7908005999634,568.877364719985,2024-03-29 19:17:32.230580,2024-03-29 19:17:34.308295,L_SD503.jpg,1,10983,18-29,2024-03-29_19h08.35.379,Recall,2021.2.3,59.95196648162906,
,DD023.jpg,0,FF023.jpg,0,,,,,0,99,99,22,imgFunc,2,NA,1.8593737999908626,568.8731695999159,570.8257854200201,2024-03-29 19:17:34.316308,2024-03-29 19:17:36.259795,DD023.jpg,0,10983,18-29,2024-03-29_19h08.35.379,Recall,2021.2.3,59.95196648162906,
