instrText,stimDoor,stimDoorLure,stimFace,stimFaceLure,Instructions.thisRepN,Instructions.thisTrialN,Instructions.thisN,Instructions.thisIndex,Trials.thisRepN,Trials.thisTrialN,Trials.thisN,Trials.thisIndex,Func,Keys,Text,RespTime,Onset,Offset,SystemTime_Start,SystemTime_Stop,Stim,Lure,Participant*,Age,date,expName,psychopyVersion,frameRate,
"In the earlier Feedback Games, you chose which doors contained a prize, and which peers liked you. 

You then saw positive or negative feedback (green check mark or red X) from the door or peer you selected.

You will now see a series of doors and peers, some of which you saw during the earlier Feedback Games, and some that you have never seen before.

Please press the spacebar to continue.",,,,,0,0,0,0,,,,,instrFunc,space,"In the earlier Feedback Games, you chose which doors contained a prize, and which peers liked you. 

You then saw positive or negative feedback (green check mark or red X) from the door or peer you selected.

You will now see a series of doors and peers, some of which you saw during the earlier Feedback Games, and some that you have never seen before.

Please press the spacebar to continue.",25.79574490012601,33.735923800151795,59.63553116982803,2023-09-26 12:29:21.564411,2023-09-26 12:29:47.460402,,,10668,30-49,2023_Sep_26_1229,Recall,2021.2.3,59.854899803723484,
"For doors/peers that you remember selecting and getting feedback from, your job is to RECALL what feedback you received. 

Press '1' if you recall positive feedback. 

Press '2' if you recall negative feedback

Press the spacebar to continue.",,,,,0,1,1,1,,,,,instrFunc,space,"For doors/peers that you remember selecting and getting feedback from, your job is to RECALL what feedback you received. 

Press '1' if you recall positive feedback. 

Press '2' if you recall negative feedback

Press the spacebar to continue.",16.06610370008275,59.58542520017363,75.70659439032897,2023-09-26 12:29:47.461400,2023-09-26 12:30:03.571886,,,10668,30-49,2023_Sep_26_1229,Recall,2021.2.3,59.854899803723484,
"For doors/peers that you don't remember getting feedback from, your job is to PREDICT what feedback you WOULD HAVE received.

Press '9' if you predict positive feedback.

Press '0' if you predict negative feedback. 

Please press the spacebar to continue.",,,,,0,2,2,2,,,,,instrFunc,space,"For doors/peers that you don't remember getting feedback from, your job is to PREDICT what feedback you WOULD HAVE received.

Press '9' if you predict positive feedback.

Press '0' if you predict negative feedback. 

Please press the spacebar to continue.",16.530447999946773,75.69687320012599,92.28432649024762,2023-09-26 12:30:03.572883,2023-09-26 12:30:20.150156,,,10668,30-49,2023_Sep_26_1229,Recall,2021.2.3,59.854899803723484,
"This task is self-paced, and the prompts will always stay on the screen so that you know which buttons to press.

On the next screen we will show you what those prompts look like, so that you know exactly what to expect. 

You will start with either doors or peers, and then switch halfway through. 

Please press the spacebar to continue.",,,,,0,3,3,3,,,,,instrFunc,space,"This task is self-paced, and the prompts will always stay on the screen so that you know which buttons to press.

On the next screen we will show you what those prompts look like, so that you know exactly what to expect. 

You will start with either doors or peers, and then switch halfway through. 

Please press the spacebar to continue.",15.582074200036004,92.26938470010646,107.90847269026563,2023-09-26 12:30:20.150943,2023-09-26 12:30:35.779399,,,10668,30-49,2023_Sep_26_1229,Recall,2021.2.3,59.854899803723484,
,,,,,,,,,,,,,imgtextFunc,space,"Here is what the screen will look like while you make your ratings.
The green circles remind you to press 1 or 9 for positive feedback.
The red circles remind you to press 2 or 0 for negative feedback.









Please let the experimenter know if you have any questions.

Whenever you're ready, press the spacebar to start the task.",24.460384899983183,108.07094920007512,132.75276938010938,2023-09-26 12:30:35.795344,2023-09-26 12:31:00.464891,,,10668,30-49,2023_Sep_26_1229,Recall,2021.2.3,59.854899803723484,
,SD034.jpg,0,MF034.jpg,0,,,,,0,0,0,83,imgFunc,1,NA,13.463931999867782,132.7237680000253,146.33122646017,2023-09-26 12:31:00.512743,2023-09-26 12:31:14.107337,SD034.jpg,0,10668,30-49,2023_Sep_26_1229,Recall,2021.2.3,59.854899803723484,
,SD002.jpg,0,MF002.jpg,0,,,,,0,1,1,51,imgFunc,9,NA,1.7570312998723239,146.31039410014637,148.1879275899846,2023-09-26 12:31:14.115892,2023-09-26 12:31:15.991987,SD002.jpg,0,10668,30-49,2023_Sep_26_1229,Recall,2021.2.3,59.854899803723484,
,DD001.jpg,0,FF001.jpg,0,,,,,0,2,2,0,imgFunc,1,NA,0.41507290001027286,148.17249380005524,148.68496819003485,2023-09-26 12:31:15.999968,2023-09-26 12:31:16.509439,DD001.jpg,0,10668,30-49,2023_Sep_26_1229,Recall,2021.2.3,59.854899803723484,
,L_DD508.jpg,1,L_FF508.jpg,1,,,,,0,3,3,47,imgFunc,9,NA,0.288854300044477,148.6905209000688,149.08397269016132,2023-09-26 12:31:16.517396,2023-09-26 12:31:16.909133,L_DD508.jpg,1,10668,30-49,2023_Sep_26_1229,Recall,2021.2.3,59.854899803723484,
,SD036.jpg,0,MF036.jpg,0,,,,,0,4,4,85,imgFunc,1,NA,0.29375019995495677,149.08572660014033,149.482570390217,2023-09-26 12:31:16.916123,2023-09-26 12:31:17.310049,SD036.jpg,0,10668,30-49,2023_Sep_26_1229,Recall,2021.2.3,59.854899803723484,
,DD025.jpg,0,FF025.jpg,0,,,,,0,5,5,24,imgFunc,9,NA,0.14201409998349845,149.48544030007906,149.72980869025923,2023-09-26 12:31:17.317031,2023-09-26 12:31:17.559421,DD025.jpg,0,10668,30-49,2023_Sep_26_1229,Recall,2021.2.3,59.854899803723484,
,DD019.jpg,0,FF019.jpg,0,,,,,0,6,6,18,imgFunc,1,NA,0.2506893000099808,149.73673400003463,150.08309528999962,2023-09-26 12:31:17.567390,2023-09-26 12:31:17.910491,DD019.jpg,0,10668,30-49,2023_Sep_26_1229,Recall,2021.2.3,59.854899803723484,
,SD033.jpg,0,MF033.jpg,0,,,,,0,7,7,82,imgFunc,0,NA,0.6650372999720275,150.09049260010943,150.85266208997928,2023-09-26 12:31:17.917440,2023-09-26 12:31:18.677426,SD033.jpg,0,10668,30-49,2023_Sep_26_1229,Recall,2021.2.3,59.854899803723484,
,DD004.jpg,0,FF004.jpg,0,,,,,0,8,8,3,imgFunc,1,NA,0.33686559996567667,150.85081030009314,151.28043209039606,2023-09-26 12:31:18.684407,2023-09-26 12:31:19.111277,DD004.jpg,0,10668,30-49,2023_Sep_26_1229,Recall,2021.2.3,59.854899803723484,
,L_SD510.jpg,1,L_MF510.jpg,1,,,,,0,9,9,99,imgFunc,2,NA,0.19778429996222258,151.2855659001507,151.5809495903086,2023-09-26 12:31:19.118259,2023-09-26 12:31:19.411482,L_SD510.jpg,1,10668,30-49,2023_Sep_26_1229,Recall,2021.2.3,59.854899803723484,
,DD034.jpg,0,FF034.jpg,0,,,,,0,10,10,33,imgFunc,1,NA,0.3686013000551611,151.58686590008438,152.04856799007393,2023-09-26 12:31:19.419461,2023-09-26 12:31:19.878245,DD034.jpg,0,10668,30-49,2023_Sep_26_1229,Recall,2021.2.3,59.854899803723484,
,SD022.jpg,0,MF022.jpg,0,,,,,0,11,11,71,imgFunc,2,NA,0.16797279985621572,152.0514340000227,152.31453769025393,2023-09-26 12:31:19.885227,2023-09-26 12:31:20.145571,SD022.jpg,0,10668,30-49,2023_Sep_26_1229,Recall,2021.2.3,59.854899803723484,
,DD033.jpg,0,FF033.jpg,0,,,,,0,12,12,32,imgFunc,0,NA,0.7407004998531193,152.31909510004334,153.14840559009463,2023-09-26 12:31:20.152547,2023-09-26 12:31:20.979095,DD033.jpg,0,10668,30-49,2023_Sep_26_1229,Recall,2021.2.3,59.854899803723484,
,SD009.jpg,0,MF009.jpg,0,,,,,0,13,13,58,imgFunc,1,NA,0.3428547000512481,153.1565670000855,153.6023329901509,2023-09-26 12:31:20.986864,2023-09-26 12:31:21.429275,SD009.jpg,0,10668,30-49,2023_Sep_26_1229,Recall,2021.2.3,59.854899803723484,
,DD026.jpg,0,FF026.jpg,0,,,,,0,14,14,25,imgFunc,9,NA,0.2568363999016583,153.6026883001905,153.94801939022727,2023-09-26 12:31:21.437231,2023-09-26 12:31:21.779346,DD026.jpg,0,10668,30-49,2023_Sep_26_1229,Recall,2021.2.3,59.854899803723484,
,DD035.jpg,0,FF035.jpg,0,,,,,0,15,15,34,imgFunc,1,NA,0.25443840003572404,153.95698870019987,154.30396709032357,2023-09-26 12:31:21.786306,2023-09-26 12:31:22.130428,DD035.jpg,0,10668,30-49,2023_Sep_26_1229,Recall,2021.2.3,59.854899803723484,
,L_SD503.jpg,1,L_MF503.jpg,1,,,,,0,16,16,92,imgFunc,0,NA,0.15659509995020926,154.303103600163,154.5471119901631,2023-09-26 12:31:22.138374,2023-09-26 12:31:22.380209,L_SD503.jpg,1,10668,30-49,2023_Sep_26_1229,Recall,2021.2.3,59.854899803723484,
,SD026.jpg,0,MF026.jpg,0,,,,,0,17,17,75,imgFunc,1,NA,0.7764161000959575,154.5550493001938,155.43408139026724,2023-09-26 12:31:22.387986,2023-09-26 12:31:23.263961,SD026.jpg,0,10668,30-49,2023_Sep_26_1229,Recall,2021.2.3,59.854899803723484,
,L_DD501.jpg,1,L_FF501.jpg,1,,,,,0,18,18,40,imgFunc,2,NA,0.5816918001510203,155.437859200174,156.11753459018655,2023-09-26 12:31:23.271736,2023-09-26 12:31:23.947879,L_DD501.jpg,1,10668,30-49,2023_Sep_26_1229,Recall,2021.2.3,59.854899803723484,
,DD009.jpg,0,FF009.jpg,0,,,,,0,19,19,8,imgFunc,1,NA,0.41799600003287196,156.1213458001148,156.63361089024693,2023-09-26 12:31:23.955657,2023-09-26 12:31:24.464750,DD009.jpg,0,10668,30-49,2023_Sep_26_1229,Recall,2021.2.3,59.854899803723484,
,L_SD507.jpg,1,L_MF507.jpg,1,,,,,0,20,20,96,imgFunc,2,NA,0.4192336001433432,156.6402085002046,157.15247799037024,2023-09-26 12:31:24.472700,2023-09-26 12:31:24.982346,L_SD507.jpg,1,10668,30-49,2023_Sep_26_1229,Recall,2021.2.3,59.854899803723484,
,SD038.jpg,0,MF038.jpg,0,,,,,0,21,21,87,imgFunc,1,NA,0.5847439998760819,157.1549970000051,157.83317928994074,2023-09-26 12:31:24.990325,2023-09-26 12:31:25.665900,SD038.jpg,0,10668,30-49,2023_Sep_26_1229,Recall,2021.2.3,59.854899803723484,
,DD008.jpg,0,FF008.jpg,0,,,,,0,22,22,7,imgFunc,0,NA,0.42186590004712343,157.83789610001259,158.35121688991785,2023-09-26 12:31:25.672683,2023-09-26 12:31:26.182902,DD008.jpg,0,10668,30-49,2023_Sep_26_1229,Recall,2021.2.3,59.854899803723484,
,SD018.jpg,0,MF018.jpg,0,,,,,0,23,23,67,imgFunc,9,NA,0.3247557000722736,158.35082809999585,158.76442229002714,2023-09-26 12:31:26.189680,2023-09-26 12:31:26.600091,SD018.jpg,0,10668,30-49,2023_Sep_26_1229,Recall,2021.2.3,59.854899803723484,
,SD035.jpg,0,MF035.jpg,0,,,,,0,24,24,84,imgFunc,1,NA,0.2662683001253754,158.76906910003163,159.13224258995615,2023-09-26 12:31:26.606867,2023-09-26 12:31:26.966558,SD035.jpg,0,10668,30-49,2023_Sep_26_1229,Recall,2021.2.3,59.854899803723484,
,DD016.jpg,0,FF016.jpg,0,,,,,0,25,25,15,imgFunc,9,NA,0.3391710000578314,159.15212470013648,159.59825899009593,2023-09-26 12:31:26.974538,2023-09-26 12:31:27.417589,DD016.jpg,0,10668,30-49,2023_Sep_26_1229,Recall,2021.2.3,59.854899803723484,
,DD012.jpg,0,FF012.jpg,0,,,,,0,26,26,11,imgFunc,2,NA,0.2087896999437362,159.602670900058,159.91264839028008,2023-09-26 12:31:27.426548,2023-09-26 12:31:27.734507,DD012.jpg,0,10668,30-49,2023_Sep_26_1229,Recall,2021.2.3,59.854899803723484,
,L_SD501.jpg,1,L_MF501.jpg,1,,,,,0,27,27,90,imgFunc,0,NA,0.1013181998860091,159.91019230009988,160.10391789022833,2023-09-26 12:31:27.742462,2023-09-26 12:31:27.934058,L_SD501.jpg,1,10668,30-49,2023_Sep_26_1229,Recall,2021.2.3,59.854899803723484,
,L_DD510.jpg,1,L_FF510.jpg,1,,,,,0,28,28,49,imgFunc,1,NA,0.3565604998730123,160.1111251001712,160.57233699015342,2023-09-26 12:31:27.942009,2023-09-26 12:31:28.401083,L_DD510.jpg,1,10668,30-49,2023_Sep_26_1229,Recall,2021.2.3,59.854899803723484,
,DD029.jpg,0,FF029.jpg,0,,,,,0,29,29,28,imgFunc,9,NA,0.16883690003305674,160.5709071001038,160.83515869034454,2023-09-26 12:31:28.407872,2023-09-26 12:31:28.668097,DD029.jpg,0,10668,30-49,2023_Sep_26_1229,Recall,2021.2.3,59.854899803723484,
,SD012.jpg,0,MF012.jpg,0,,,,,0,30,30,61,imgFunc,0,NA,0.19998599984683096,160.84352920018137,161.13964929012582,2023-09-26 12:31:28.675860,2023-09-26 12:31:28.968304,SD012.jpg,0,10668,30-49,2023_Sep_26_1229,Recall,2021.2.3,59.854899803723484,
,DD036.jpg,0,FF036.jpg,0,,,,,0,31,31,35,imgFunc,1,NA,0.3173481998965144,161.14257700019516,161.55678829038516,2023-09-26 12:31:28.975076,2023-09-26 12:31:29.385120,DD036.jpg,0,10668,30-49,2023_Sep_26_1229,Recall,2021.2.3,59.854899803723484,
,DD006.jpg,0,FF006.jpg,0,,,,,0,32,32,5,imgFunc,9,NA,0.07022259989753366,161.55726800020784,161.72178869019262,2023-09-26 12:31:29.392887,2023-09-26 12:31:29.553761,DD006.jpg,0,10668,30-49,2023_Sep_26_1229,Recall,2021.2.3,59.854899803723484,
,DD032.jpg,0,FF032.jpg,0,,,,,0,33,33,31,imgFunc,2,NA,0.12090239999815822,161.73040690016933,161.95657858997583,2023-09-26 12:31:29.561741,2023-09-26 12:31:29.785518,DD032.jpg,0,10668,30-49,2023_Sep_26_1229,Recall,2021.2.3,59.854899803723484,
,SD008.jpg,0,MF008.jpg,0,,,,,0,34,34,57,imgFunc,0,NA,0.07454419997520745,161.96075110021047,162.1392773904372,2023-09-26 12:31:29.793497,2023-09-26 12:31:29.969147,SD008.jpg,0,10668,30-49,2023_Sep_26_1229,Recall,2021.2.3,59.854899803723484,
,DD024.jpg,0,FF024.jpg,0,,,,,0,35,35,23,imgFunc,1,NA,0.04390170006081462,162.14354389999062,162.28731208993122,2023-09-26 12:31:29.977104,2023-09-26 12:31:30.119475,DD024.jpg,0,10668,30-49,2023_Sep_26_1229,Recall,2021.2.3,59.854899803723484,
,SD030.jpg,0,MF030.jpg,0,,,,,0,36,36,79,imgFunc,9,NA,0.055569699965417385,162.2997598000802,162.46069549000822,2023-09-26 12:31:30.127462,2023-09-26 12:31:30.286213,SD030.jpg,0,10668,30-49,2023_Sep_26_1229,Recall,2021.2.3,59.854899803723484,
,DD017.jpg,0,FF017.jpg,0,,,,,0,37,37,16,imgFunc,2,NA,0.13536610011942685,162.468079400016,162.71167409000918,2023-09-26 12:31:30.294192,2023-09-26 12:31:30.536182,DD017.jpg,0,10668,30-49,2023_Sep_26_1229,Recall,2021.2.3,59.854899803723484,
,DD038.jpg,0,FF038.jpg,0,,,,,0,38,38,37,imgFunc,0,NA,0.052559199975803494,162.7108682000544,162.85574299027212,2023-09-26 12:31:30.544161,2023-09-26 12:31:30.686976,DD038.jpg,0,10668,30-49,2023_Sep_26_1229,Recall,2021.2.3,59.854899803723484,
,L_DD507.jpg,1,L_FF507.jpg,1,,,,,0,39,39,46,imgFunc,1,NA,0.011800100095570087,162.86354689998552,162.96627539000474,2023-09-26 12:31:30.694928,2023-09-26 12:31:30.795444,L_DD507.jpg,1,10668,30-49,2023_Sep_26_1229,Recall,2021.2.3,59.854899803723484,
,DD018.jpg,0,FF018.jpg,0,,,,,0,40,40,17,imgFunc,9,NA,0.07303750002756715,162.97068010014482,163.14071009028703,2023-09-26 12:31:30.803425,2023-09-26 12:31:30.969898,DD018.jpg,0,10668,30-49,2023_Sep_26_1229,Recall,2021.2.3,59.854899803723484,
,L_DD506.jpg,1,L_FF506.jpg,1,,,,,0,41,41,45,imgFunc,2,NA,0.037589099956676364,163.14220180013217,163.27114598988555,2023-09-26 12:31:30.977665,2023-09-26 12:31:31.103349,L_DD506.jpg,1,10668,30-49,2023_Sep_26_1229,Recall,2021.2.3,59.854899803723484,
,L_SD504.jpg,1,L_MF504.jpg,1,,,,,0,42,42,93,imgFunc,0,NA,0.059328499948605895,163.27233100007288,163.41897319001146,2023-09-26 12:31:31.110122,2023-09-26 12:31:31.253548,L_SD504.jpg,1,10668,30-49,2023_Sep_26_1229,Recall,2021.2.3,59.854899803723484,
,DD037.jpg,0,FF037.jpg,0,,,,,0,43,43,36,imgFunc,1,NA,0.05103400000371039,163.42436020006426,163.57058189017698,2023-09-26 12:31:31.260324,2023-09-26 12:31:31.403173,DD037.jpg,0,10668,30-49,2023_Sep_26_1229,Recall,2021.2.3,59.854899803723484,
,SD021.jpg,0,MF021.jpg,0,,,,,0,44,44,70,imgFunc,1,NA,0.23591300006955862,163.575886500068,163.90489899017848,2023-09-26 12:31:31.410951,2023-09-26 12:31:31.736842,SD021.jpg,0,10668,30-49,2023_Sep_26_1229,Recall,2021.2.3,59.854899803723484,
,SD019.jpg,0,MF019.jpg,0,,,,,0,45,45,68,imgFunc,1,NA,0.12137919990345836,163.90635260008276,164.12050509010442,2023-09-26 12:31:31.743618,2023-09-26 12:31:31.954811,SD019.jpg,0,10668,30-49,2023_Sep_26_1229,Recall,2021.2.3,59.854899803723484,
,SD029.jpg,0,MF029.jpg,0,,,,,0,46,46,78,imgFunc,9,NA,0.10464959987439215,164.12277660006657,164.3177161901258,2023-09-26 12:31:31.961584,2023-09-26 12:31:32.154097,SD029.jpg,0,10668,30-49,2023_Sep_26_1229,Recall,2021.2.3,59.854899803723484,
,SD025.jpg,0,MF025.jpg,0,,,,,0,47,47,74,imgFunc,0,NA,0.4065353001933545,164.324990299996,164.821665789932,2023-09-26 12:31:32.161055,2023-09-26 12:31:32.654747,SD025.jpg,0,10668,30-49,2023_Sep_26_1229,Recall,2021.2.3,59.854899803723484,
,SD003.jpg,0,MF003.jpg,0,,,,,0,48,48,52,imgFunc,1,NA,0.08282449981197715,164.8326582000591,165.00905069010332,2023-09-26 12:31:32.663724,2023-09-26 12:31:32.838261,SD003.jpg,0,10668,30-49,2023_Sep_26_1229,Recall,2021.2.3,59.854899803723484,
,SD023.jpg,0,MF023.jpg,0,,,,,0,49,49,72,imgFunc,9,NA,0.119904899969697,165.01164620020427,165.22150319023058,2023-09-26 12:31:32.846263,2023-09-26 12:31:33.054717,SD023.jpg,0,10668,30-49,2023_Sep_26_1229,Recall,2021.2.3,59.854899803723484,
,SD007.jpg,0,MF007.jpg,0,,,,,0,50,50,56,imgFunc,2,NA,0.008910899981856346,165.2345565999858,165.338650689926,2023-09-26 12:31:33.063665,2023-09-26 12:31:33.166393,SD007.jpg,0,10668,30-49,2023_Sep_26_1229,Recall,2021.2.3,59.854899803723484,
,L_SD509.jpg,1,L_MF509.jpg,1,,,,,0,51,51,98,imgFunc,0,NA,0.08936109999194741,165.34608390019275,165.52907679020427,2023-09-26 12:31:33.174371,2023-09-26 12:31:33.354893,L_SD509.jpg,1,10668,30-49,2023_Sep_26_1229,Recall,2021.2.3,59.854899803723484,
,DD003.jpg,0,FF003.jpg,0,,,,,0,52,52,2,imgFunc,0,NA,0.12259600008837879,165.53685520007275,165.75599048985168,2023-09-26 12:31:33.366861,2023-09-26 12:31:33.588274,DD003.jpg,0,10668,30-49,2023_Sep_26_1229,Recall,2021.2.3,59.854899803723484,
,DD030.jpg,0,FF030.jpg,0,,,,,0,53,53,29,imgFunc,1,NA,0.025526899844408035,165.76215030020103,165.8806523901876,2023-09-26 12:31:33.596253,2023-09-26 12:31:33.711947,DD030.jpg,0,10668,30-49,2023_Sep_26_1229,Recall,2021.2.3,59.854899803723484,
,L_SD506.jpg,1,L_MF506.jpg,1,,,,,0,54,54,95,imgFunc,9,NA,0.3569881001021713,165.88643220020458,166.3422338902019,2023-09-26 12:31:33.718928,2023-09-26 12:31:34.172519,L_SD506.jpg,1,10668,30-49,2023_Sep_26_1229,Recall,2021.2.3,59.854899803723484,
,SD010.jpg,0,MF010.jpg,0,,,,,0,55,55,59,imgFunc,2,NA,0.03763139992952347,166.341734000016,166.4696176899597,2023-09-26 12:31:34.179472,2023-09-26 12:31:34.305160,SD010.jpg,0,10668,30-49,2023_Sep_26_1229,Recall,2021.2.3,59.854899803723484,
,L_DD502.jpg,1,L_FF502.jpg,1,,,,,0,56,56,41,imgFunc,0,NA,0.16524160001426935,166.47031230013818,166.71591448993422,2023-09-26 12:31:34.313147,2023-09-26 12:31:34.555498,L_DD502.jpg,1,10668,30-49,2023_Sep_26_1229,Recall,2021.2.3,59.854899803723484,
,SD016.jpg,0,MF016.jpg,0,,,,,0,57,57,65,imgFunc,1,NA,0.124995700083673,166.72655100002885,166.93930059019476,2023-09-26 12:31:34.563486,2023-09-26 12:31:34.772218,SD016.jpg,0,10668,30-49,2023_Sep_26_1229,Recall,2021.2.3,59.854899803723484,
,DD011.jpg,0,FF011.jpg,0,,,,,0,58,58,10,imgFunc,9,NA,0.11748670018278062,166.9422733001411,167.1562845900189,2023-09-26 12:31:34.779201,2023-09-26 12:31:34.989976,DD011.jpg,0,10668,30-49,2023_Sep_26_1229,Recall,2021.2.3,59.854899803723484,
,DD005.jpg,0,FF005.jpg,0,,,,,0,59,59,4,imgFunc,9,NA,0.6928393000271171,167.16648040013388,167.9597830902785,2023-09-26 12:31:34.998951,2023-09-26 12:31:35.790530,DD005.jpg,0,10668,30-49,2023_Sep_26_1229,Recall,2021.2.3,59.854899803723484,
,DD021.jpg,0,FF021.jpg,0,,,,,0,60,60,20,imgFunc,1,NA,0.2622703998349607,167.97315910016187,168.33395819016732,2023-09-26 12:31:35.798483,2023-09-26 12:31:36.157574,DD021.jpg,0,10668,30-49,2023_Sep_26_1229,Recall,2021.2.3,59.854899803723484,
,SD032.jpg,0,MF032.jpg,0,,,,,0,61,61,81,imgFunc,0,NA,0.29238639981485903,168.34299190016463,168.73333939001895,2023-09-26 12:31:36.167549,2023-09-26 12:31:36.557519,SD032.jpg,0,10668,30-49,2023_Sep_26_1229,Recall,2021.2.3,59.854899803723484,
,SD017.jpg,0,MF017.jpg,0,,,,,0,62,62,66,imgFunc,1,NA,1.2438882999122143,168.7435658001341,170.0827750901226,2023-09-26 12:31:36.568485,2023-09-26 12:31:37.908324,SD017.jpg,0,10668,30-49,2023_Sep_26_1229,Recall,2021.2.3,59.854899803723484,
,SD031.jpg,0,MF031.jpg,0,,,,,0,63,63,80,imgFunc,9,NA,0.4930223999544978,170.09443420008756,170.68633849010803,2023-09-26 12:31:37.918296,2023-09-26 12:31:38.508728,SD031.jpg,0,10668,30-49,2023_Sep_26_1229,Recall,2021.2.3,59.854899803723484,
,DD039.jpg,0,FF039.jpg,0,,,,,0,64,64,38,imgFunc,1,NA,0.6139547000639141,170.6856192999985,171.39715088973753,2023-09-26 12:31:38.516679,2023-09-26 12:31:39.225987,DD039.jpg,0,10668,30-49,2023_Sep_26_1229,Recall,2021.2.3,59.854899803723484,
,L_DD509.jpg,1,L_FF509.jpg,1,,,,,0,65,65,48,imgFunc,1,NA,1.0093033998273313,171.4181025000289,172.54502729000524,2023-09-26 12:31:39.234963,2023-09-26 12:31:40.360208,L_DD509.jpg,1,10668,30-49,2023_Sep_26_1229,Recall,2021.2.3,59.854899803723484,
,DD023.jpg,0,FF023.jpg,0,,,,,0,66,66,22,imgFunc,0,NA,0.4194813999347389,172.5283458000049,173.04066309006885,2023-09-26 12:31:40.367190,2023-09-26 12:31:40.877155,DD023.jpg,0,10668,30-49,2023_Sep_26_1229,Recall,2021.2.3,59.854899803723484,
,SD028.jpg,0,MF028.jpg,0,,,,,0,67,67,77,imgFunc,1,NA,1.0299229000229388,173.05339510017075,174.18087229016237,2023-09-26 12:31:40.885927,2023-09-26 12:31:42.011031,SD028.jpg,0,10668,30-49,2023_Sep_26_1229,Recall,2021.2.3,59.854899803723484,
,SD027.jpg,0,MF027.jpg,0,,,,,0,68,68,76,imgFunc,9,NA,0.30716369999572635,174.20020210021175,174.61030859011225,2023-09-26 12:31:42.019975,2023-09-26 12:31:42.428503,SD027.jpg,0,10668,30-49,2023_Sep_26_1229,Recall,2021.2.3,59.854899803723484,
,L_DD503.jpg,1,L_FF503.jpg,1,,,,,0,69,69,42,imgFunc,9,NA,0.6975287001114339,174.60219240002334,175.3968201901298,2023-09-26 12:31:42.436484,2023-09-26 12:31:43.228667,L_DD503.jpg,1,10668,30-49,2023_Sep_26_1229,Recall,2021.2.3,59.854899803723484,
,DD022.jpg,0,FF022.jpg,0,,,,,0,70,70,21,imgFunc,1,NA,0.31150830001570284,175.39613880007528,175.79261118988506,2023-09-26 12:31:43.235448,2023-09-26 12:31:43.628771,DD022.jpg,0,10668,30-49,2023_Sep_26_1229,Recall,2021.2.3,59.854899803723484,
,SD020.jpg,0,MF020.jpg,0,,,,,0,71,71,69,imgFunc,9,NA,0.7764673000201583,175.8112914999947,176.69184048986062,2023-09-26 12:31:43.635751,2023-09-26 12:31:44.513235,SD020.jpg,0,10668,30-49,2023_Sep_26_1229,Recall,2021.2.3,59.854899803723484,
,SD015.jpg,0,MF015.jpg,0,,,,,0,72,72,64,imgFunc,2,NA,0.3855248000472784,176.68182000005618,177.16270459024236,2023-09-26 12:31:44.520015,2023-09-26 12:31:44.997561,SD015.jpg,0,10668,30-49,2023_Sep_26_1229,Recall,2021.2.3,59.854899803723484,
,SD006.jpg,0,MF006.jpg,0,,,,,0,73,73,55,imgFunc,2,NA,1.096380200004205,177.1791088001337,178.37277008988895,2023-09-26 12:31:45.005571,2023-09-26 12:31:46.197651,SD006.jpg,0,10668,30-49,2023_Sep_26_1229,Recall,2021.2.3,59.854899803723484,
,DD014.jpg,0,FF014.jpg,0,,,,,0,74,74,13,imgFunc,9,NA,0.1619520999956876,178.3694607000798,178.6322014897596,2023-09-26 12:31:46.204606,2023-09-26 12:31:46.464948,DD014.jpg,0,10668,30-49,2023_Sep_26_1229,Recall,2021.2.3,59.854899803723484,
,DD020.jpg,0,FF020.jpg,0,,,,,0,75,75,19,imgFunc,0,NA,0.09369749994948506,178.63770050019957,178.8318860901054,2023-09-26 12:31:46.472895,2023-09-26 12:31:46.664388,DD020.jpg,0,10668,30-49,2023_Sep_26_1229,Recall,2021.2.3,59.854899803723484,
,DD013.jpg,0,FF013.jpg,0,,,,,0,76,76,12,imgFunc,1,NA,0.6381035000085831,178.8373401002027,179.565287290141,2023-09-26 12:31:46.672388,2023-09-26 12:31:47.398464,DD013.jpg,0,10668,30-49,2023_Sep_26_1229,Recall,2021.2.3,59.854899803723484,
,SD037.jpg,0,MF037.jpg,0,,,,,0,77,77,86,imgFunc,9,NA,1.3700493001379073,179.56940710009076,181.03339369012974,2023-09-26 12:31:47.405425,2023-09-26 12:31:48.866575,SD037.jpg,0,10668,30-49,2023_Sep_26_1229,Recall,2021.2.3,59.854899803723484,
,DD040.jpg,0,FF040.jpg,0,,,,,0,78,78,39,imgFunc,0,NA,1.6076364000327885,181.03613020014018,182.73266289033927,2023-09-26 12:31:48.873536,2023-09-26 12:31:50.568081,DD040.jpg,0,10668,30-49,2023_Sep_26_1229,Recall,2021.2.3,59.854899803723484,
,DD031.jpg,0,FF031.jpg,0,,,,,0,79,79,30,imgFunc,1,NA,0.5383953000418842,182.73698410019279,183.36493099015206,2023-09-26 12:31:50.576026,2023-09-26 12:31:51.201369,DD031.jpg,0,10668,30-49,2023_Sep_26_1229,Recall,2021.2.3,59.854899803723484,
,L_DD505.jpg,1,L_FF505.jpg,1,,,,,0,80,80,44,imgFunc,9,NA,1.0731589999049902,183.37032010010444,184.53373449016362,2023-09-26 12:31:51.208351,2023-09-26 12:31:52.369300,L_DD505.jpg,1,10668,30-49,2023_Sep_26_1229,Recall,2021.2.3,59.854899803723484,
,DD007.jpg,0,FF007.jpg,0,,,,,0,81,81,6,imgFunc,2,NA,0.8069208001252264,184.54081130004488,185.4376825899817,2023-09-26 12:31:52.376276,2023-09-26 12:31:53.270592,DD007.jpg,0,10668,30-49,2023_Sep_26_1229,Recall,2021.2.3,59.854899803723484,
,DD028.jpg,0,FF028.jpg,0,,,,,0,82,82,27,imgFunc,2,NA,0.8097492998931557,185.43402620009147,186.3299272900913,2023-09-26 12:31:53.277576,2023-09-26 12:31:54.170873,DD028.jpg,0,10668,30-49,2023_Sep_26_1229,Recall,2021.2.3,59.854899803723484,
,L_SD505.jpg,1,L_MF505.jpg,1,,,,,0,83,83,94,imgFunc,0,NA,2.6694515000563115,186.34236220014282,189.10126888984814,2023-09-26 12:31:54.180846,2023-09-26 12:31:56.939322,L_SD505.jpg,1,10668,30-49,2023_Sep_26_1229,Recall,2021.2.3,59.854899803723484,
,SD024.jpg,0,MF024.jpg,0,,,,,0,84,84,73,imgFunc,0,NA,0.9920751999597996,189.1152649000287,190.2092157898005,2023-09-26 12:31:56.947300,2023-09-26 12:31:58.039652,SD024.jpg,0,10668,30-49,2023_Sep_26_1229,Recall,2021.2.3,59.854899803723484,
,DD027.jpg,0,FF027.jpg,0,,,,,0,85,85,26,imgFunc,2,NA,3.482357499888167,190.20898680016398,193.7899682901334,2023-09-26 12:31:58.047631,2023-09-26 12:32:01.625475,DD027.jpg,0,10668,30-49,2023_Sep_26_1229,Recall,2021.2.3,59.854899803723484,
,SD039.jpg,0,MF039.jpg,0,,,,,0,86,86,88,imgFunc,2,NA,1.0797543001826853,193.80362000013702,194.98341339011677,2023-09-26 12:32:01.633448,2023-09-26 12:32:02.809711,SD039.jpg,0,10668,30-49,2023_Sep_26_1229,Recall,2021.2.3,59.854899803723484,
,DD015.jpg,0,FF015.jpg,0,,,,,0,87,87,14,imgFunc,1,NA,2.272173199802637,194.97957970015705,197.34411549009383,2023-09-26 12:32:02.816667,2023-09-26 12:32:05.177297,DD015.jpg,0,10668,30-49,2023_Sep_26_1229,Recall,2021.2.3,59.854899803723484,
,DD002.jpg,0,FF002.jpg,0,,,,,0,88,88,1,imgFunc,2,NA,1.3069215000141412,197.34438820020296,198.7440590900369,2023-09-26 12:32:05.184067,2023-09-26 12:32:06.579682,DD002.jpg,0,10668,30-49,2023_Sep_26_1229,Recall,2021.2.3,59.854899803723484,
,SD013.jpg,0,MF013.jpg,0,,,,,0,89,89,62,imgFunc,0,NA,2.7261332001071423,198.7494940001052,201.56158389011398,2023-09-26 12:32:06.587660,2023-09-26 12:32:09.397984,SD013.jpg,0,10668,30-49,2023_Sep_26_1229,Recall,2021.2.3,59.854899803723484,
,SD040.jpg,0,MF040.jpg,0,,,,,0,90,90,89,imgFunc,9,NA,1.3745244999881834,201.56519590015523,203.0302254902199,2023-09-26 12:32:09.404760,2023-09-26 12:32:10.866548,SD040.jpg,0,10668,30-49,2023_Sep_26_1229,Recall,2021.2.3,59.854899803723484,
,SD001.jpg,0,MF001.jpg,0,,,,,0,91,91,50,imgFunc,1,NA,1.4982547000981867,203.03346529998817,204.62896099011414,2023-09-26 12:32:10.873507,2023-09-26 12:32:12.466802,SD001.jpg,0,10668,30-49,2023_Sep_26_1229,Recall,2021.2.3,59.854899803723484,
,L_SD502.jpg,1,L_MF502.jpg,1,,,,,0,92,92,91,imgFunc,0,NA,2.7240267999004573,204.6316309000831,207.4464252900798,2023-09-26 12:32:12.473581,2023-09-26 12:32:15.285410,L_SD502.jpg,1,10668,30-49,2023_Sep_26_1229,Recall,2021.2.3,59.854899803723484,
,SD014.jpg,0,MF014.jpg,0,,,,,0,93,93,63,imgFunc,0,NA,0.7887971999589354,207.47102560009807,208.36751019000076,2023-09-26 12:32:15.293183,2023-09-26 12:32:16.186024,SD014.jpg,0,10668,30-49,2023_Sep_26_1229,Recall,2021.2.3,59.854899803723484,
,DD010.jpg,0,FF010.jpg,0,,,,,0,94,94,9,imgFunc,1,NA,0.20762720005586743,208.35603979998268,208.6531949902419,2023-09-26 12:32:16.192793,2023-09-26 12:32:16.486664,DD010.jpg,0,10668,30-49,2023_Sep_26_1229,Recall,2021.2.3,59.854899803723484,
,SD004.jpg,0,MF004.jpg,0,,,,,0,95,95,53,imgFunc,9,NA,0.07787169981747866,208.65382560016587,208.8176988903433,2023-09-26 12:32:16.493456,2023-09-26 12:32:16.654177,SD004.jpg,0,10668,30-49,2023_Sep_26_1229,Recall,2021.2.3,59.854899803723484,
,SD011.jpg,0,MF011.jpg,0,,,,,0,96,96,60,imgFunc,1,NA,0.1274478998966515,208.82026870013215,209.03207679023035,2023-09-26 12:32:16.661022,2023-09-26 12:32:16.870985,SD011.jpg,0,10668,30-49,2023_Sep_26_1229,Recall,2021.2.3,59.854899803723484,
,SD005.jpg,0,MF005.jpg,0,,,,,0,97,97,54,imgFunc,0,NA,0.1223728999029845,209.04134570015594,209.25205599027686,2023-09-26 12:32:16.878834,2023-09-26 12:32:17.086957,SD005.jpg,0,10668,30-49,2023_Sep_26_1229,Recall,2021.2.3,59.854899803723484,
,L_DD504.jpg,1,L_FF504.jpg,1,,,,,0,98,98,43,imgFunc,2,NA,0.11328050005249679,209.25841530016623,209.47013268992305,2023-09-26 12:32:17.094779,2023-09-26 12:32:17.303748,L_DD504.jpg,1,10668,30-49,2023_Sep_26_1229,Recall,2021.2.3,59.854899803723484,
,L_SD508.jpg,1,L_MF508.jpg,1,,,,,0,99,99,97,imgFunc,9,NA,0.07792500010691583,209.4694833001122,209.63313269009814,2023-09-26 12:32:17.310528,2023-09-26 12:32:17.470771,L_SD508.jpg,1,10668,30-49,2023_Sep_26_1229,Recall,2021.2.3,59.854899803723484,
,,,,,,,,,,,,,instrFunc,space,"Great work! 

 Now you will switch to the other image type.

 Press the spacebar whenever you are ready to start.",3.1746106001082808,209.572881200118,212.78379339026287,2023-09-26 12:32:17.471775,2023-09-26 12:32:20.671656,,,10668,30-49,2023_Sep_26_1229,Recall,2021.2.3,59.854899803723484,
,SD007.jpg,0,MF007.jpg,0,,,,,0,0,0,56,imgFunc,1,NA,9.6058275999967,212.88583929999731,222.5924279699102,2023-09-26 12:32:20.711294,2023-09-26 12:32:30.413695,MF007.jpg,0,10668,30-49,2023_Sep_26_1229,Recall,2021.2.3,59.854899803723484,
,SD002.jpg,0,MF002.jpg,0,,,,,0,1,1,51,imgFunc,0,NA,13.71366410003975,222.6020200001076,236.42023689020425,2023-09-26 12:32:30.423461,2023-09-26 12:32:44.240385,MF002.jpg,0,10668,30-49,2023_Sep_26_1229,Recall,2021.2.3,59.854899803723484,
,SD020.jpg,0,MF020.jpg,0,,,,,0,2,2,69,imgFunc,9,NA,2.689414900029078,236.44987240014598,239.27039218996651,2023-09-26 12:32:44.253147,2023-09-26 12:32:47.075240,MF020.jpg,0,10668,30-49,2023_Sep_26_1229,Recall,2021.2.3,59.854899803723484,
,L_SD509.jpg,1,L_MF509.jpg,1,,,,,0,3,3,98,imgFunc,1,NA,2.4092597998678684,239.25016320007853,241.7644190902356,2023-09-26 12:32:47.082250,2023-09-26 12:32:49.593848,L_MF509.jpg,1,10668,30-49,2023_Sep_26_1229,Recall,2021.2.3,59.854899803723484,
,L_DD510.jpg,1,L_FF510.jpg,1,,,,,0,4,4,49,imgFunc,2,NA,2.0974123999476433,241.77035080012865,243.96849598991685,2023-09-26 12:32:49.600631,2023-09-26 12:32:51.795646,L_FF510.jpg,1,10668,30-49,2023_Sep_26_1229,Recall,2021.2.3,59.854899803723484,
,DD023.jpg,0,FF023.jpg,0,,,,,0,5,5,22,imgFunc,0,NA,2.1441398998722434,243.97150200000033,246.21941178990528,2023-09-26 12:32:51.802427,2023-09-26 12:32:54.047346,FF023.jpg,0,10668,30-49,2023_Sep_26_1229,Recall,2021.2.3,59.854899803723484,
,L_DD505.jpg,1,L_FF505.jpg,1,,,,,0,6,6,44,imgFunc,1,NA,2.9813864999450743,246.22235090006143,249.30412799003534,2023-09-26 12:32:54.054120,2023-09-26 12:32:57.132893,L_FF505.jpg,1,10668,30-49,2023_Sep_26_1229,Recall,2021.2.3,59.854899803723484,
,DD022.jpg,0,FF022.jpg,0,,,,,0,7,7,21,imgFunc,1,NA,1.9123990000225604,249.30736980005167,251.32183799007908,2023-09-26 12:32:57.139672,2023-09-26 12:32:59.151076,FF022.jpg,0,10668,30-49,2023_Sep_26_1229,Recall,2021.2.3,59.854899803723484,
,SD010.jpg,0,MF010.jpg,0,,,,,0,8,8,59,imgFunc,1,NA,2.175072900019586,251.3246836999897,253.60577199002728,2023-09-26 12:32:59.158847,2023-09-26 12:33:01.436458,MF010.jpg,0,10668,30-49,2023_Sep_26_1229,Recall,2021.2.3,59.854899803723484,
,DD029.jpg,0,FF029.jpg,0,,,,,0,9,9,28,imgFunc,9,NA,1.8321287999860942,253.6113464999944,255.54198948992416,2023-09-26 12:33:01.443238,2023-09-26 12:33:03.370608,FF029.jpg,0,10668,30-49,2023_Sep_26_1229,Recall,2021.2.3,59.854899803723484,
,L_SD505.jpg,1,L_MF505.jpg,1,,,,,0,10,10,94,imgFunc,9,NA,2.3889883998781443,255.54270089999773,258.02432839013636,2023-09-26 12:33:03.377567,2023-09-26 12:33:05.856280,L_MF505.jpg,1,10668,30-49,2023_Sep_26_1229,Recall,2021.2.3,59.854899803723484,
,DD016.jpg,0,FF016.jpg,0,,,,,0,11,11,15,imgFunc,2,NA,1.981203499948606,258.03047450003214,260.11190779018216,2023-09-26 12:33:05.864056,2023-09-26 12:33:07.941078,FF016.jpg,0,10668,30-49,2023_Sep_26_1229,Recall,2021.2.3,59.854899803723484,
,SD028.jpg,0,MF028.jpg,0,,,,,0,12,12,77,imgFunc,1,NA,1.5252461000345647,260.11839230009355,261.7489712901879,2023-09-26 12:33:07.947851,2023-09-26 12:33:09.575274,MF028.jpg,0,10668,30-49,2023_Sep_26_1229,Recall,2021.2.3,59.854899803723484,
,DD028.jpg,0,FF028.jpg,0,,,,,0,13,13,27,imgFunc,2,NA,1.4175256001763046,261.7462069001049,263.26063889008947,2023-09-26 12:33:09.582254,2023-09-26 12:33:11.093251,FF028.jpg,0,10668,30-49,2023_Sep_26_1229,Recall,2021.2.3,59.854899803723484,
,DD033.jpg,0,FF033.jpg,0,,,,,0,14,14,32,imgFunc,9,NA,0.749963799957186,263.2696860001888,264.11593049019575,2023-09-26 12:33:11.101087,2023-09-26 12:33:11.944525,FF033.jpg,0,10668,30-49,2023_Sep_26_1229,Recall,2021.2.3,59.854899803723484,
,L_SD502.jpg,1,L_MF502.jpg,1,,,,,0,15,15,91,imgFunc,0,NA,0.35008860006928444,264.11760530015454,264.56274099019356,2023-09-26 12:33:11.951509,2023-09-26 12:33:12.394262,L_MF502.jpg,1,10668,30-49,2023_Sep_26_1229,Recall,2021.2.3,59.854899803723484,
,DD005.jpg,0,FF005.jpg,0,,,,,0,16,16,4,imgFunc,1,NA,0.3617684000637382,264.5776529000141,265.04113888996653,2023-09-26 12:33:12.402042,2023-09-26 12:33:12.861274,FF005.jpg,0,10668,30-49,2023_Sep_26_1229,Recall,2021.2.3,59.854899803723484,
,L_SD507.jpg,1,L_MF507.jpg,1,,,,,0,17,17,96,imgFunc,9,NA,0.3508374001830816,265.0368280999828,265.48331558983773,2023-09-26 12:33:12.868046,2023-09-26 12:33:13.311679,L_MF507.jpg,1,10668,30-49,2023_Sep_26_1229,Recall,2021.2.3,59.854899803723484,
,DD031.jpg,0,FF031.jpg,0,,,,,0,18,18,30,imgFunc,1,NA,0.6062077998649329,265.4855181002058,266.1985224902164,2023-09-26 12:33:13.319459,2023-09-26 12:33:14.028843,FF031.jpg,0,10668,30-49,2023_Sep_26_1229,Recall,2021.2.3,59.854899803723484,
,L_SD508.jpg,1,L_MF508.jpg,1,,,,,0,19,19,97,imgFunc,1,NA,2.3472121998202056,266.20033530006185,268.6491060904227,2023-09-26 12:33:14.035617,2023-09-26 12:33:16.481300,L_MF508.jpg,1,10668,30-49,2023_Sep_26_1229,Recall,2021.2.3,59.854899803723484,
,SD036.jpg,0,MF036.jpg,0,,,,,0,20,20,85,imgFunc,1,NA,1.8121388000436127,268.65567780006677,270.56784179015085,2023-09-26 12:33:16.489075,2023-09-26 12:33:18.398446,MF036.jpg,0,10668,30-49,2023_Sep_26_1229,Recall,2021.2.3,59.854899803723484,
,SD027.jpg,0,MF027.jpg,0,,,,,0,21,21,76,imgFunc,1,NA,2.3500703999307007,270.57343910005875,273.02154469001107,2023-09-26 12:33:18.405235,2023-09-26 12:33:20.850404,MF027.jpg,0,10668,30-49,2023_Sep_26_1229,Recall,2021.2.3,59.854899803723484,
,SD006.jpg,0,MF006.jpg,0,,,,,0,22,22,55,imgFunc,1,NA,0.9948034000117332,273.02465530019253,274.12284148996696,2023-09-26 12:33:20.857203,2023-09-26 12:33:21.951335,MF006.jpg,0,10668,30-49,2023_Sep_26_1229,Recall,2021.2.3,59.854899803723484,
,SD033.jpg,0,MF033.jpg,0,,,,,0,23,23,82,imgFunc,1,NA,1.4852656999137253,274.1263399000745,275.70547159039415,2023-09-26 12:33:21.959105,2023-09-26 12:33:23.535780,MF033.jpg,0,10668,30-49,2023_Sep_26_1229,Recall,2021.2.3,59.854899803723484,
,DD039.jpg,0,FF039.jpg,0,,,,,0,24,24,38,imgFunc,0,NA,3.22219659993425,275.70954320020974,279.02500219037756,2023-09-26 12:33:23.542563,2023-09-26 12:33:26.855074,FF039.jpg,0,10668,30-49,2023_Sep_26_1229,Recall,2021.2.3,59.854899803723484,
,DD035.jpg,0,FF035.jpg,0,,,,,0,25,25,34,imgFunc,9,NA,2.1200537998229265,279.02768290019594,281.2414315904025,2023-09-26 12:33:26.862850,2023-09-26 12:33:29.073143,FF035.jpg,0,10668,30-49,2023_Sep_26_1229,Recall,2021.2.3,59.854899803723484,
,SD012.jpg,0,MF012.jpg,0,,,,,0,26,26,61,imgFunc,2,NA,4.091466299956664,281.2480066001881,285.44637408992276,2023-09-26 12:33:29.080916,2023-09-26 12:33:33.276133,MF012.jpg,0,10668,30-49,2023_Sep_26_1229,Recall,2021.2.3,59.854899803723484,
,SD003.jpg,0,MF003.jpg,0,,,,,0,27,27,52,imgFunc,2,NA,3.0525527999270707,285.4472910000477,288.59448409010656,2023-09-26 12:33:33.284090,2023-09-26 12:33:36.428297,MF003.jpg,0,10668,30-49,2023_Sep_26_1229,Recall,2021.2.3,59.854899803723484,
,SD009.jpg,0,MF009.jpg,0,,,,,0,28,28,58,imgFunc,0,NA,0.6154711998533458,288.6043479000218,289.3180640900973,2023-09-26 12:33:36.435074,2023-09-26 12:33:37.145817,MF009.jpg,0,10668,30-49,2023_Sep_26_1229,Recall,2021.2.3,59.854899803723484,
,L_SD501.jpg,1,L_MF501.jpg,1,,,,,0,29,29,90,imgFunc,9,NA,2.688571299891919,289.3230364001356,292.12067039031535,2023-09-26 12:33:37.153595,2023-09-26 12:33:39.947759,L_MF501.jpg,1,10668,30-49,2023_Sep_26_1229,Recall,2021.2.3,59.854899803723484,
,DD018.jpg,0,FF018.jpg,0,,,,,0,30,30,17,imgFunc,9,NA,0.9345747001934797,292.1171122000087,293.14839289011434,2023-09-26 12:33:39.954535,2023-09-26 12:33:40.981972,FF018.jpg,0,10668,30-49,2023_Sep_26_1229,Recall,2021.2.3,59.854899803723484,
,SD021.jpg,0,MF021.jpg,0,,,,,0,31,31,70,imgFunc,9,NA,4.740946799982339,293.15850340016186,298.0077876902651,2023-09-26 12:33:40.989743,2023-09-26 12:33:45.835366,MF021.jpg,0,10668,30-49,2023_Sep_26_1229,Recall,2021.2.3,59.854899803723484,
,DD009.jpg,0,FF009.jpg,0,,,,,0,32,32,8,imgFunc,9,NA,4.094118000008166,298.01371080009267,302.2093682901468,2023-09-26 12:33:45.844141,2023-09-26 12:33:50.038270,FF009.jpg,0,10668,30-49,2023_Sep_26_1229,Recall,2021.2.3,59.854899803723484,
,SD014.jpg,0,MF014.jpg,0,,,,,0,33,33,63,imgFunc,9,NA,0.7730178001802415,302.21476270002313,303.0944397901185,2023-09-26 12:33:50.046041,2023-09-26 12:33:50.922523,MF014.jpg,0,10668,30-49,2023_Sep_26_1229,Recall,2021.2.3,59.854899803723484,
,DD025.jpg,0,FF025.jpg,0,,,,,0,34,34,24,imgFunc,1,NA,2.403714600019157,303.09601190011017,305.594054490095,2023-09-26 12:33:50.930295,2023-09-26 12:33:53.424497,FF025.jpg,0,10668,30-49,2023_Sep_26_1229,Recall,2021.2.3,59.854899803723484,
,SD001.jpg,0,MF001.jpg,0,,,,,0,35,35,50,imgFunc,9,NA,1.732241699937731,305.59943850012496,307.43004018999636,2023-09-26 12:33:53.432283,2023-09-26 12:33:55.259087,MF001.jpg,0,10668,30-49,2023_Sep_26_1229,Recall,2021.2.3,59.854899803723484,
,SD022.jpg,0,MF022.jpg,0,,,,,0,36,36,71,imgFunc,2,NA,1.9209265001118183,307.4346923001576,309.4655106901191,2023-09-26 12:33:55.265868,2023-09-26 12:33:57.293790,MF022.jpg,0,10668,30-49,2023_Sep_26_1229,Recall,2021.2.3,59.854899803723484,
,DD020.jpg,0,FF020.jpg,0,,,,,0,37,37,19,imgFunc,2,NA,1.8772940000053495,309.4705488001928,311.45170269021764,2023-09-26 12:33:57.300565,2023-09-26 12:33:59.278705,FF020.jpg,0,10668,30-49,2023_Sep_26_1229,Recall,2021.2.3,59.854899803723484,
,SD024.jpg,0,MF024.jpg,0,,,,,0,38,38,73,imgFunc,2,NA,2.0468728998675942,311.45298780011944,313.60089359013364,2023-09-26 12:33:59.285483,2023-09-26 12:34:01.430394,MF024.jpg,0,10668,30-49,2023_Sep_26_1229,Recall,2021.2.3,59.854899803723484,
,DD007.jpg,0,FF007.jpg,0,,,,,0,39,39,6,imgFunc,2,NA,2.184805499855429,313.6030952001456,315.885294490261,2023-09-26 12:34:01.437169,2023-09-26 12:34:03.716082,FF007.jpg,0,10668,30-49,2023_Sep_26_1229,Recall,2021.2.3,59.854899803723484,
,DD037.jpg,0,FF037.jpg,0,,,,,0,40,40,36,imgFunc,2,NA,1.1723386999219656,315.887257500086,317.14830498979427,2023-09-26 12:34:03.723932,2023-09-26 12:34:04.983785,FF037.jpg,0,10668,30-49,2023_Sep_26_1229,Recall,2021.2.3,59.854899803723484,
,SD017.jpg,0,MF017.jpg,0,,,,,0,41,41,66,imgFunc,1,NA,1.975592799950391,317.1559147001244,319.2348433902953,2023-09-26 12:34:04.991564,2023-09-26 12:34:07.067629,MF017.jpg,0,10668,30-49,2023_Sep_26_1229,Recall,2021.2.3,59.854899803723484,
,SD030.jpg,0,MF030.jpg,0,,,,,0,42,42,79,imgFunc,1,NA,0.5170637001283467,319.23877870012075,319.8515596901998,2023-09-26 12:34:07.075409,2023-09-26 12:34:07.684633,MF030.jpg,0,10668,30-49,2023_Sep_26_1229,Recall,2021.2.3,59.854899803723484,
,L_DD508.jpg,1,L_FF508.jpg,1,,,,,0,43,43,47,imgFunc,9,NA,0.38625119999051094,319.85747739998624,320.33832378988154,2023-09-26 12:34:07.692409,2023-09-26 12:34:08.169317,L_FF508.jpg,1,10668,30-49,2023_Sep_26_1229,Recall,2021.2.3,59.854899803723484,
,DD030.jpg,0,FF030.jpg,0,,,,,0,44,44,29,imgFunc,1,NA,0.47770469984970987,320.34204440005124,320.9205942901317,2023-09-26 12:34:08.176298,2023-09-26 12:34:08.752194,FF030.jpg,0,10668,30-49,2023_Sep_26_1229,Recall,2021.2.3,59.854899803723484,
,SD004.jpg,0,MF004.jpg,0,,,,,0,45,45,53,imgFunc,9,NA,0.27983630006201565,320.92387609998696,321.30287029012106,2023-09-26 12:34:08.759966,2023-09-26 12:34:09.135583,MF004.jpg,0,10668,30-49,2023_Sep_26_1229,Recall,2021.2.3,59.854899803723484,
,L_SD503.jpg,1,L_MF503.jpg,1,,,,,0,46,46,92,imgFunc,1,NA,0.35470989998430014,321.3131186000537,321.7760407899041,2023-09-26 12:34:09.143356,2023-09-26 12:34:09.602838,L_MF503.jpg,1,10668,30-49,2023_Sep_26_1229,Recall,2021.2.3,59.854899803723484,
,DD008.jpg,0,FF008.jpg,0,,,,,0,47,47,7,imgFunc,9,NA,0.3889776000287384,321.77460970007814,322.25566359004006,2023-09-26 12:34:09.609617,2023-09-26 12:34:10.087478,FF008.jpg,0,10668,30-49,2023_Sep_26_1229,Recall,2021.2.3,59.854899803723484,
,SD016.jpg,0,MF016.jpg,0,,,,,0,48,48,65,imgFunc,0,NA,0.46786239999346435,322.2637598000001,322.8410242900718,2023-09-26 12:34:10.095289,2023-09-26 12:34:10.671248,MF016.jpg,0,10668,30-49,2023_Sep_26_1229,Recall,2021.2.3,59.854899803723484,
,DD040.jpg,0,FF040.jpg,0,,,,,0,49,49,39,imgFunc,1,NA,0.38503440003842115,322.84263630001806,323.3214438899886,2023-09-26 12:34:10.679209,2023-09-26 12:34:11.154965,FF040.jpg,0,10668,30-49,2023_Sep_26_1229,Recall,2021.2.3,59.854899803723484,
,DD001.jpg,0,FF001.jpg,0,,,,,0,50,50,0,imgFunc,1,NA,0.5408326000906527,323.33489440009,323.97751159011386,2023-09-26 12:34:11.163918,2023-09-26 12:34:11.804625,FF001.jpg,0,10668,30-49,2023_Sep_26_1229,Recall,2021.2.3,59.854899803723484,
,DD038.jpg,0,FF038.jpg,0,,,,,0,51,51,37,imgFunc,1,NA,0.6665426001418382,323.97710180003196,324.74060159013607,2023-09-26 12:34:11.811401,2023-09-26 12:34:12.571805,FF038.jpg,0,10668,30-49,2023_Sep_26_1229,Recall,2021.2.3,59.854899803723484,
,SD023.jpg,0,MF023.jpg,0,,,,,0,52,52,72,imgFunc,9,NA,0.2110365000553429,324.7445955001749,325.0576845903415,2023-09-26 12:34:12.578585,2023-09-26 12:34:12.888575,MF023.jpg,0,10668,30-49,2023_Sep_26_1229,Recall,2021.2.3,59.854899803723484,
,DD003.jpg,0,FF003.jpg,0,,,,,0,53,53,2,imgFunc,9,NA,0.3100513000972569,325.06177830020897,325.47492979024537,2023-09-26 12:34:12.896349,2023-09-26 12:34:13.305633,FF003.jpg,0,10668,30-49,2023_Sep_26_1229,Recall,2021.2.3,59.854899803723484,
,DD027.jpg,0,FF027.jpg,0,,,,,0,54,54,26,imgFunc,9,NA,0.1420481998939067,325.4775830002036,325.7237040901091,2023-09-26 12:34:13.313407,2023-09-26 12:34:13.555728,FF027.jpg,0,10668,30-49,2023_Sep_26_1229,Recall,2021.2.3,59.854899803723484,
,SD031.jpg,0,MF031.jpg,0,,,,,0,55,55,80,imgFunc,1,NA,0.06671459996141493,325.72894160007127,325.8915467900224,2023-09-26 12:34:13.563509,2023-09-26 12:34:13.722775,MF031.jpg,0,10668,30-49,2023_Sep_26_1229,Recall,2021.2.3,59.854899803723484,
,DD021.jpg,0,FF021.jpg,0,,,,,0,56,56,20,imgFunc,9,NA,0.1965471999719739,325.8951882000547,326.1915624900721,2023-09-26 12:34:13.729551,2023-09-26 12:34:14.022739,FF021.jpg,0,10668,30-49,2023_Sep_26_1229,Recall,2021.2.3,59.854899803723484,
,DD036.jpg,0,FF036.jpg,0,,,,,0,57,57,35,imgFunc,1,NA,0.11895509995520115,326.1965291001834,326.4099821902346,2023-09-26 12:34:14.029520,2023-09-26 12:34:14.239852,FF036.jpg,0,10668,30-49,2023_Sep_26_1229,Recall,2021.2.3,59.854899803723484,
,SD008.jpg,0,MF008.jpg,0,,,,,0,58,58,57,imgFunc,0,NA,0.38083370006643236,326.4227378000505,326.9156758899335,2023-09-26 12:34:14.248843,2023-09-26 12:34:14.739729,MF008.jpg,0,10668,30-49,2023_Sep_26_1229,Recall,2021.2.3,59.854899803723484,
,L_SD506.jpg,1,L_MF506.jpg,1,,,,,0,59,59,95,imgFunc,1,NA,0.33011090010404587,326.91338070016354,327.34305869042873,2023-09-26 12:34:14.747508,2023-09-26 12:34:15.173505,L_MF506.jpg,1,10668,30-49,2023_Sep_26_1229,Recall,2021.2.3,59.854899803723484,
,DD026.jpg,0,FF026.jpg,0,,,,,0,60,60,25,imgFunc,9,NA,0.31253240001387894,327.3470288000535,327.76017899019644,2023-09-26 12:34:15.181484,2023-09-26 12:34:15.591439,FF026.jpg,0,10668,30-49,2023_Sep_26_1229,Recall,2021.2.3,59.854899803723484,
,DD034.jpg,0,FF034.jpg,0,,,,,0,61,61,33,imgFunc,2,NA,0.3057514999527484,327.7699522001203,328.18102319026366,2023-09-26 12:34:15.599213,2023-09-26 12:34:16.007142,FF034.jpg,0,10668,30-49,2023_Sep_26_1229,Recall,2021.2.3,59.854899803723484,
,DD012.jpg,0,FF012.jpg,0,,,,,0,62,62,11,imgFunc,0,NA,0.3959568999707699,328.18364340020344,328.679179090308,2023-09-26 12:34:16.015120,2023-09-26 12:34:16.508081,FF012.jpg,0,10668,30-49,2023_Sep_26_1229,Recall,2021.2.3,59.854899803723484,
,DD013.jpg,0,FF013.jpg,0,,,,,0,63,63,12,imgFunc,1,NA,0.2948676999658346,328.684614200145,329.0812033901457,2023-09-26 12:34:16.516047,2023-09-26 12:34:16.908203,FF013.jpg,0,10668,30-49,2023_Sep_26_1229,Recall,2021.2.3,59.854899803723484,
,L_DD501.jpg,1,L_FF501.jpg,1,,,,,0,64,64,40,imgFunc,9,NA,0.16981459991075099,329.08178410003893,329.34521758998744,2023-09-26 12:34:16.914972,2023-09-26 12:34:17.175049,L_FF501.jpg,1,10668,30-49,2023_Sep_26_1229,Recall,2021.2.3,59.854899803723484,
,L_DD509.jpg,1,L_FF509.jpg,1,,,,,0,65,65,48,imgFunc,1,NA,0.14886529999785125,329.35078980005346,329.5969309899956,2023-09-26 12:34:17.183017,2023-09-26 12:34:17.425533,L_FF509.jpg,1,10668,30-49,2023_Sep_26_1229,Recall,2021.2.3,59.854899803723484,
,SD018.jpg,0,MF018.jpg,0,,,,,0,66,66,67,imgFunc,1,NA,0.4975189999677241,329.6022311002016,330.19938349025324,2023-09-26 12:34:17.433305,2023-09-26 12:34:18.026807,MF018.jpg,0,10668,30-49,2023_Sep_26_1229,Recall,2021.2.3,59.854899803723484,
,SD032.jpg,0,MF032.jpg,0,,,,,0,67,67,81,imgFunc,1,NA,0.5381142999976873,330.2012519000564,330.8460257900879,2023-09-26 12:34:18.033586,2023-09-26 12:34:18.676006,MF032.jpg,0,10668,30-49,2023_Sep_26_1229,Recall,2021.2.3,59.854899803723484,
,DD017.jpg,0,FF017.jpg,0,,,,,0,68,68,16,imgFunc,9,NA,0.43363950005732477,330.8580687001813,331.40162209025584,2023-09-26 12:34:18.684981,2023-09-26 12:34:19.227333,FF017.jpg,0,10668,30-49,2023_Sep_26_1229,Recall,2021.2.3,59.854899803723484,
,DD006.jpg,0,FF006.jpg,0,,,,,0,69,69,5,imgFunc,9,NA,0.3947342000901699,331.40079420013353,331.8960861901287,2023-09-26 12:34:19.234177,2023-09-26 12:34:19.727087,FF006.jpg,0,10668,30-49,2023_Sep_26_1229,Recall,2021.2.3,59.854899803723484,
,SD040.jpg,0,MF040.jpg,0,,,,,0,70,70,89,imgFunc,9,NA,0.3529602000489831,331.90638700011186,332.3674032902345,2023-09-26 12:34:19.735058,2023-09-26 12:34:20.193596,MF040.jpg,0,10668,30-49,2023_Sep_26_1229,Recall,2021.2.3,59.854899803723484,
,SD005.jpg,0,MF005.jpg,0,,,,,0,71,71,54,imgFunc,9,NA,0.40989589993841946,332.36985770007595,332.88130139023997,2023-09-26 12:34:20.201572,2023-09-26 12:34:20.710443,MF005.jpg,0,10668,30-49,2023_Sep_26_1229,Recall,2021.2.3,59.854899803723484,
,SD039.jpg,0,MF039.jpg,0,,,,,0,72,72,88,imgFunc,9,NA,0.31418420001864433,332.88924250006676,333.30312619009055,2023-09-26 12:34:20.718251,2023-09-26 12:34:21.128179,MF039.jpg,0,10668,30-49,2023_Sep_26_1229,Recall,2021.2.3,59.854899803723484,
,L_DD506.jpg,1,L_FF506.jpg,1,,,,,0,73,73,45,imgFunc,9,NA,0.283999000210315,333.30358320008963,333.68128778995015,2023-09-26 12:34:21.136126,2023-09-26 12:34:21.511525,L_FF506.jpg,1,10668,30-49,2023_Sep_26_1229,Recall,2021.2.3,59.854899803723484,
,SD015.jpg,0,MF015.jpg,0,,,,,0,74,74,64,imgFunc,9,NA,0.31718840007670224,333.70239270012826,334.12391769024543,2023-09-26 12:34:21.523494,2023-09-26 12:34:21.945568,MF015.jpg,0,10668,30-49,2023_Sep_26_1229,Recall,2021.2.3,59.854899803723484,
,SD026.jpg,0,MF026.jpg,0,,,,,0,75,75,75,imgFunc,9,NA,0.5212105000391603,334.12223770003766,334.74915379006416,2023-09-26 12:34:21.954531,2023-09-26 12:34:22.579596,MF026.jpg,0,10668,30-49,2023_Sep_26_1229,Recall,2021.2.3,59.854899803723484,
,SD013.jpg,0,MF013.jpg,0,,,,,0,76,76,62,imgFunc,9,NA,0.36230919999070466,334.7531619002111,335.21443979023024,2023-09-26 12:34:22.587607,2023-09-26 12:34:23.046247,MF013.jpg,0,10668,30-49,2023_Sep_26_1229,Recall,2021.2.3,59.854899803723484,
,DD015.jpg,0,FF015.jpg,0,,,,,0,77,77,14,imgFunc,1,NA,3.255864200182259,335.23557120002806,338.5953493900597,2023-09-26 12:34:23.056219,2023-09-26 12:34:26.415988,FF015.jpg,0,10668,30-49,2023_Sep_26_1229,Recall,2021.2.3,59.854899803723484,
,DD024.jpg,0,FF024.jpg,0,,,,,0,78,78,23,imgFunc,1,NA,1.0783861998934299,338.5970012000762,339.7736180901993,2023-09-26 12:34:26.423938,2023-09-26 12:34:27.599690,FF024.jpg,0,10668,30-49,2023_Sep_26_1229,Recall,2021.2.3,59.854899803723484,
,SD034.jpg,0,MF034.jpg,0,,,,,0,79,79,83,imgFunc,9,NA,1.6751427000854164,339.79256840003654,341.5917104801629,2023-09-26 12:34:27.614652,2023-09-26 12:34:29.400028,MF034.jpg,0,10668,30-49,2023_Sep_26_1229,Recall,2021.2.3,59.854899803723484,
,SD011.jpg,0,MF011.jpg,0,,,,,0,80,80,60,imgFunc,9,NA,0.7636943999677896,341.5760666001588,342.44130378984846,2023-09-26 12:34:29.406798,2023-09-26 12:34:30.268202,MF011.jpg,0,10668,30-49,2023_Sep_26_1229,Recall,2021.2.3,59.854899803723484,
,L_DD502.jpg,1,L_FF502.jpg,1,,,,,0,81,81,41,imgFunc,9,NA,0.6469701000023633,342.4367940002121,343.1836346904747,2023-09-26 12:34:30.275002,2023-09-26 12:34:31.017870,L_FF502.jpg,1,10668,30-49,2023_Sep_26_1229,Recall,2021.2.3,59.854899803723484,
,L_DD507.jpg,1,L_FF507.jpg,1,,,,,0,82,82,46,imgFunc,9,NA,0.6422357000410557,343.19363270001486,343.94158099009655,2023-09-26 12:34:31.025632,2023-09-26 12:34:31.769192,L_FF507.jpg,1,10668,30-49,2023_Sep_26_1229,Recall,2021.2.3,59.854899803723484,
,SD037.jpg,0,MF037.jpg,0,,,,,0,83,83,86,imgFunc,9,NA,1.2597889001481235,343.94369430001825,345.3072700900957,2023-09-26 12:34:31.776971,2023-09-26 12:34:33.136913,MF037.jpg,0,10668,30-49,2023_Sep_26_1229,Recall,2021.2.3,59.854899803723484,
,DD014.jpg,0,FF014.jpg,0,,,,,0,84,84,13,imgFunc,0,NA,0.8327319999225438,345.30671530007385,346.2356584898662,2023-09-26 12:34:33.143867,2023-09-26 12:34:34.070354,FF014.jpg,0,10668,30-49,2023_Sep_26_1229,Recall,2021.2.3,59.854899803723484,
,SD025.jpg,0,MF025.jpg,0,,,,,0,85,85,74,imgFunc,9,NA,0.7677843000274152,346.24398840009235,347.10893469001167,2023-09-26 12:34:34.077336,2023-09-26 12:34:34.938489,MF025.jpg,0,10668,30-49,2023_Sep_26_1229,Recall,2021.2.3,59.854899803723484,
,L_SD510.jpg,1,L_MF510.jpg,1,,,,,0,86,86,99,imgFunc,9,NA,0.6619413997977972,347.10981550021097,347.873096490046,2023-09-26 12:34:34.945265,2023-09-26 12:34:35.705472,L_MF510.jpg,1,10668,30-49,2023_Sep_26_1229,Recall,2021.2.3,59.854899803723484,
,SD038.jpg,0,MF038.jpg,0,,,,,0,87,87,87,imgFunc,0,NA,0.3562796001788229,347.8792352001183,348.3426488903351,2023-09-26 12:34:35.712246,2023-09-26 12:34:36.172471,MF038.jpg,0,10668,30-49,2023_Sep_26_1229,Recall,2021.2.3,59.854899803723484,
,SD019.jpg,0,MF019.jpg,0,,,,,0,88,88,68,imgFunc,9,NA,0.5063259000889957,348.3451823000796,348.9588005898986,2023-09-26 12:34:36.179253,2023-09-26 12:34:36.789801,MF019.jpg,0,10668,30-49,2023_Sep_26_1229,Recall,2021.2.3,59.854899803723484,
,DD011.jpg,0,FF011.jpg,0,,,,,0,89,89,10,imgFunc,2,NA,1.9090009999927133,348.9584712001961,350.95495478995144,2023-09-26 12:34:36.797751,2023-09-26 12:34:38.791443,FF011.jpg,0,10668,30-49,2023_Sep_26_1229,Recall,2021.2.3,59.854899803723484,
,DD019.jpg,0,FF019.jpg,0,,,,,0,90,90,18,imgFunc,1,NA,0.5706169998738915,350.9689726000652,351.6456928900443,2023-09-26 12:34:38.799422,2023-09-26 12:34:39.474393,FF019.jpg,0,10668,30-49,2023_Sep_26_1229,Recall,2021.2.3,59.854899803723484,
,DD032.jpg,0,FF032.jpg,0,,,,,0,91,91,31,imgFunc,9,NA,0.6892866999842227,351.65026610018685,352.44772169017233,2023-09-26 12:34:39.482372,2023-09-26 12:34:40.276186,FF032.jpg,0,10668,30-49,2023_Sep_26_1229,Recall,2021.2.3,59.854899803723484,
,L_SD504.jpg,1,L_MF504.jpg,1,,,,,0,92,92,93,imgFunc,0,NA,0.5297779000829905,352.44995550019667,353.0780719902832,2023-09-26 12:34:40.284029,2023-09-26 12:34:40.909311,L_MF504.jpg,1,10668,30-49,2023_Sep_26_1229,Recall,2021.2.3,59.854899803723484,
,DD010.jpg,0,FF010.jpg,0,,,,,0,93,93,9,imgFunc,9,NA,1.9985571999568492,353.08516400004737,355.18301719008014,2023-09-26 12:34:40.916078,2023-09-26 12:34:43.010924,FF010.jpg,0,10668,30-49,2023_Sep_26_1229,Recall,2021.2.3,59.854899803723484,
,L_DD504.jpg,1,L_FF504.jpg,1,,,,,0,94,94,43,imgFunc,9,NA,0.8274899001698941,355.1844292001333,356.1146848902572,2023-09-26 12:34:43.017699,2023-09-26 12:34:43.944699,L_FF504.jpg,1,10668,30-49,2023_Sep_26_1229,Recall,2021.2.3,59.854899803723484,
,DD004.jpg,0,FF004.jpg,0,,,,,0,95,95,3,imgFunc,9,NA,1.4120010999031365,356.1197152000386,357.6338723900262,2023-09-26 12:34:43.951481,2023-09-26 12:34:45.462636,FF004.jpg,0,10668,30-49,2023_Sep_26_1229,Recall,2021.2.3,59.854899803723484,
,SD029.jpg,0,MF029.jpg,0,,,,,0,96,96,78,imgFunc,9,NA,3.171176299918443,357.63271280005574,360.8991660901811,2023-09-26 12:34:45.469416,2023-09-26 12:34:48.731976,MF029.jpg,0,10668,30-49,2023_Sep_26_1229,Recall,2021.2.3,59.854899803723484,
,DD002.jpg,0,FF002.jpg,0,,,,,0,97,97,1,imgFunc,0,NA,1.4163422998972237,360.90744010009803,362.42130819009617,2023-09-26 12:34:48.738748,2023-09-26 12:34:50.249620,FF002.jpg,0,10668,30-49,2023_Sep_26_1229,Recall,2021.2.3,59.854899803723484,
,SD035.jpg,0,MF035.jpg,0,,,,,0,98,98,84,imgFunc,9,NA,3.4141752999275923,362.42159030004404,365.9362229902763,2023-09-26 12:34:50.257412,2023-09-26 12:34:53.768622,MF035.jpg,0,10668,30-49,2023_Sep_26_1229,Recall,2021.2.3,59.854899803723484,
,L_DD503.jpg,1,L_FF503.jpg,1,,,,,0,99,99,42,imgFunc,9,NA,0.6339062000624835,365.94581840001047,366.69223509007134,2023-09-26 12:34:53.776392,2023-09-26 12:34:54.519128,L_FF503.jpg,1,10668,30-49,2023_Sep_26_1229,Recall,2021.2.3,59.854899803723484,
