onset	duration	trial_type	rt	resp	gender	image_left	image_right
0.6434723999991547	3.000555999999051	decision	2.800523500001873	right	M	MF001.jpg	MF002.jpg
4.193130700004986	1.0166931999992812	win	n/a	n/a	n/a	MF001.jpg	MF002.jpg
11.176595100012491	3.0016616999928374	decision	2.2835055999894394	right	M	MF003.jpg	MF004.jpg
14.726867000004859	1.0163594000041485	loss	n/a	n/a	n/a	MF003.jpg	MF004.jpg
17.493424400003278	3.0014037000073586	decision	2.2822193000029074	left	M	MF005.jpg	MF006.jpg
21.04322150000371	1.0165783999982523	win	n/a	n/a	n/a	MF005.jpg	MF006.jpg
23.809760700009065	3.001402900001267	decision	2.282881199993426	left	F	FF001.jpg	FF002.jpg
27.35986060000141	1.0000265999988187	win	n/a	n/a	n/a	FF001.jpg	FF002.jpg
32.20988860000216	3.299820800006273	decision	3.2992729999969015	left	F	FF003.jpg	FF004.jpg
36.05988549999893	1.0165991000103531	loss	n/a	n/a	n/a	FF003.jpg	FF004.jpg
43.02646970000933	3.0498798999906285	decision	3.0493478999997023	left	M	MF007.jpg	MF008.jpg
46.62652840001101	1.0003037999995286	loss	n/a	n/a	n/a	MF007.jpg	MF008.jpg
51.47657360001176	3.0014016999921296	decision	1.5323785999935353	right	M	MF009.jpg	MF010.jpg
55.02648030000273	1.000330800001393	win	n/a	n/a	n/a	MF009.jpg	MF010.jpg
59.87644180000643	3.0014899999951012	decision	2.282855199999176	right	F	FF005.jpg	FF006.jpg
63.426433900007396	1.0164179999992484	loss	n/a	n/a	n/a	FF005.jpg	FF006.jpg
66.19315010000719	3.00230969999393	decision	2.0327955999964615	right	F	FF007.jpg	FF008.jpg
69.74310479999986	1.000299300008919	win	n/a	n/a	n/a	FF007.jpg	FF008.jpg
72.49314530000265	3.0013566999987233	decision	1.7826739000011003	right	F	FF009.jpg	FF010.jpg
76.04301580000902	1.000352799994289	win	n/a	n/a	n/a	FF009.jpg	FF010.jpg
78.79313350000302	3.0006759999960195	decision	2.5331039000011515	right	F	FF011.jpg	FF012.jpg
82.34308990000864	1.0165688999986742	loss	n/a	n/a	n/a	FF011.jpg	FF012.jpg
87.20970640001178	3.0007286999898497	decision	2.7831069999956526	right	M	MF011.jpg	MF012.jpg
90.7597356000042	1.016662099995301	loss	n/a	n/a	n/a	MF011.jpg	MF012.jpg
93.52648900001077	3.300677099992754	decision	3.3001863999961643	left	M	MF013.jpg	MF014.jpg
97.37646060000407	1.016589799997746	win	n/a	n/a	n/a	MF013.jpg	MF014.jpg
104.34336370001256	3.00208739998925	decision	1.7827931999927387	left	M	MF015.jpg	MF016.jpg
107.8929563999991	1.0166704000002937	win	n/a	n/a	n/a	MF015.jpg	MF016.jpg
110.65965040000447	3.2997335999971256	decision	3.299203700007638	right	F	FF013.jpg	FF014.jpg
114.5096377000009	1.0001966999989236	win	n/a	n/a	n/a	FF013.jpg	FF014.jpg
121.4596392000094	3.001158899991424	decision	2.5331166999967536	left	M	MF017.jpg	MF018.jpg
125.0094711999991	1.0001684000017121	win	n/a	n/a	n/a	MF017.jpg	MF018.jpg
129.8596183000045	3.002303999994183	decision	1.533916300002602	left	F	FF015.jpg	FF016.jpg
133.40955440000107	1.0002490000042599	win	n/a	n/a	n/a	FF015.jpg	FF016.jpg
138.25960840001062	3.0356249999895226	decision-missed	n/a	n/a	M	MF019.jpg	MF020.jpg
141.84316899999976	1.016391900004237	win	n/a	n/a	n/a	MF019.jpg	MF020.jpg
146.70952260000922	3.001136699997005	decision	1.2827225999935763	left	F	FF017.jpg	FF018.jpg
150.25951020000502	1.016650200006552	win	n/a	n/a	n/a	FF017.jpg	FF018.jpg
163.5262064999988	3.0015538000006927	decision	1.033576300003915	left	M	MF021.jpg	MF022.jpg
167.07622290001018	1.0000654999894323	loss	n/a	n/a	n/a	MF021.jpg	MF022.jpg
174.02626310000778	3.0014975999947637	decision	1.032526199996937	right	M	MF023.jpg	MF024.jpg
177.57624350000697	1.0165492999949493	win	n/a	n/a	n/a	MF023.jpg	MF024.jpg
184.5428336000041	3.001995300000999	decision	1.0338631000049645	right	M	MF025.jpg	MF026.jpg
188.092890800006	1.0165695000032429	loss	n/a	n/a	n/a	MF025.jpg	MF026.jpg
192.9595229000115	3.001023399992846	decision	1.7825784999877214	left	M	MF027.jpg	MF028.jpg
196.50945370001136	1.0001010999985738	loss	n/a	n/a	n/a	MF027.jpg	MF028.jpg
199.25947090001137	3.0009961999894585	decision	1.7832968000002438	left	F	FF019.jpg	FF020.jpg
202.80977800000983	1.016414799989434	loss	n/a	n/a	n/a	FF019.jpg	FF020.jpg
205.5771281000052	3.0015724999975646	decision	2.532598899997538	right	F	FF021.jpg	FF022.jpg
209.12611710000783	1.016622399998596	win	n/a	n/a	n/a	FF021.jpg	FF022.jpg
216.0929957000044	3.001745999994455	decision	2.0327665000077104	left	M	MF029.jpg	MF030.jpg
219.64268360000278	1.000021400002879	loss	n/a	n/a	n/a	MF029.jpg	MF030.jpg
226.59270470000047	3.0011436000058893	decision	1.5325754000077723	left	M	MF031.jpg	MF032.jpg
230.14286240001093	1.01653449999867	win	n/a	n/a	n/a	MF031.jpg	MF032.jpg
235.0094434000057	3.000711800006684	decision	2.034222799993586	right	F	FF023.jpg	FF024.jpg
238.55936759999895	1.0166500000050291	loss	n/a	n/a	n/a	FF023.jpg	FF024.jpg
241.34287230001064	3.0018596000008984	decision	1.782459199996083	right	F	FF025.jpg	FF026.jpg
244.8927878000104	1.0172038999880897	win	n/a	n/a	n/a	FF025.jpg	FF026.jpg
249.77607180000632	3.00130089999584	decision	1.7825641999952495	right	F	FF027.jpg	FF028.jpg
253.3259825999994	1.0000232000020333	loss	n/a	n/a	n/a	FF027.jpg	FF028.jpg
256.09262870000384	3.00094060000265	decision	1.7832569000020158	left	M	MF033.jpg	MF034.jpg
259.6425589999999	1.0169227000005776	loss	n/a	n/a	n/a	MF033.jpg	MF034.jpg
262.40939159999834	3.0013113000022713	decision	2.282866200010176	right	M	MF035.jpg	MF036.jpg
265.9595391000039	1.0161235999985365	loss	n/a	n/a	n/a	MF035.jpg	MF036.jpg
268.7261118000024	3.001672400001553	decision	1.7834904000046663	left	M	MF037.jpg	MF038.jpg
272.276260300001	1.016245999999228	win	n/a	n/a	n/a	MF037.jpg	MF038.jpg
279.2425607000041	3.001000300006126	decision	2.0333057999960147	left	F	FF029.jpg	FF030.jpg
282.7924953000038	1.0000096000003396	loss	n/a	n/a	n/a	FF029.jpg	FF030.jpg
285.5425724000088	3.001144199995906	decision	2.0325935000000754	left	F	FF031.jpg	FF032.jpg
289.0924803000089	1.0167231999948854	loss	n/a	n/a	n/a	FF031.jpg	FF032.jpg
293.95929590000014	3.0008309000113513	decision	2.0331315000075847	left	F	FF033.jpg	FF034.jpg
297.50920700001006	1.0165629999974044	win	n/a	n/a	n/a	FF033.jpg	FF034.jpg
304.47606640000595	3.001041900002747	decision	1.7833226999937324	left	M	MF039.jpg	MF040.jpg
308.0259647000057	1.0162677000043914	loss	n/a	n/a	n/a	MF039.jpg	MF040.jpg
314.99257950000174	3.0021111000096425	decision	1.5326231000071857	right	F	FF035.jpg	FF036.jpg
318.5425346999982	1.0001824000064516	win	n/a	n/a	n/a	FF035.jpg	FF036.jpg
321.3092114000028	3.001140399996075	decision	2.0334717000077944	left	F	FF037.jpg	FF038.jpg
324.85920070001157	1.0165016999962972	loss	n/a	n/a	n/a	FF037.jpg	FF038.jpg
327.62562030000845	3.001050699996995	decision	2.533600099995965	left	F	FF039.jpg	FF040.jpg
331.17580160000944	1.0003403000009712	loss	n/a	n/a	n/a	FF039.jpg	FF040.jpg
