TrialNumber,Trialn,TrialType,Partner,Feedback,ITI,ISI,ran,order,studyStart,InitFixOnset,decision_onset,resp,resp_onset,rt,ISI_onset,isi_for_trial,ISI_offset,outcome_val,outcome_onset,outcome_offset,trialDuration,ITIonset,ITIoffset,final_fix_offset
1,1,4,2,1,8.075000e-01,8.075000e-01,1.0,0.0,2.6000198e-06,0.0095609,4.0245743,1.0,4.8615446,0.8369701,4.961963,2.6705298,7.6337347,7.0,7.633885,8.241006,4.2164316,8.241196,9.051444,--
2,2,9,3,3,8.075000e-01,2.422500e+00,1.0,1.0,--,--,9.062464,2.0,9.478441,0.4159776,9.578839,4.7065225,14.287577,7.0,14.287695,14.893774,5.8313103,14.893921,15.703866,--
3,3,1,1,1,8.075000e-01,2.422500e+00,1.0,2.0,--,--,15.709092,1.0,16.12842,0.4193279,16.228817,4.703172,20.935242,9.0,20.93537,21.548857,5.8397655,21.54901,22.35858,--
4,4,6,2,3,8.075000e-01,1.615000e+00,1.0,3.0,--,--,22.371986,2.0,22.695143,0.3231562,22.795498,3.9918437,26.788881,7.0,26.788998,27.394379,5.0223937,27.394533,28.204731,--
5,5,4,2,1,8.075000e-01,2.422500e+00,1.0,4.0,--,--,28.215248,1.0,28.644976,0.4297269,28.745317,4.692773,33.43973,8.0,33.43985,34.053886,5.838638,34.054035,34.863968,--
6,6,2,1,2,8.075000e-01,2.422500e+00,1.0,5.0,--,--,34.866966,2.0,35.294914,0.4279449,35.39528,4.6945553,40.09084,5.0,40.090958,40.698208,5.8312387,40.698357,41.507946,--
7,7,4,2,1,8.075000e-01,2.422500e+00,1.0,6.0,--,--,41.519115,1.0,41.944733,0.4256137,42.045097,4.696886,46.743076,7.0,46.743195,47.34767,5.828556,47.34782,48.157726,--
8,8,8,3,2,8.075000e-01,8.075000e-01,1.0,7.0,--,--,48.17396,2.0,48.69455,0.5205886,48.794903,2.9869113,51.78269,5.0,51.782806,52.387848,4.213888,52.388,53.19732,--
9,9,6,2,3,5.652500e+00,1.615000e+00,1.0,8.0,--,--,53.208496,1.0,53.62806,0.419566,53.72842,3.895434,57.62579,3.0,57.62591,58.231033,5.0225377,58.231182,63.88551,--
10,10,7,3,1,8.075000e-01,1.615000e+00,1.0,9.0,--,--,63.894768,2.0,64.42826,0.5334942,64.52862,3.7815058,68.31144,3.0,68.31156,68.9159,5.0211334,68.91605,69.72581,--
11,11,3,1,3,8.075000e-01,2.422500e+00,1.0,10.0,--,--,69.72868,1.0,70.144485,0.4158026,70.24484,4.7066975,74.95397,2.0,74.954094,75.559746,5.8310623,75.559906,76.36951,--
12,12,3,1,3,2.422500e+00,2.422500e+00,1.0,11.0,--,--,76.37133,2.0,76.79443,0.4231058,76.89483,4.699394,81.59656,6.0,81.59668,82.201096,5.8297687,82.201256,84.62608,--
13,13,7,3,1,7.267500e+00,8.075000e-01,1.0,12.0,--,--,84.63524,1.0,85.06153,0.4262917,85.161934,3.0812082,88.24557,9.0,88.24569,88.849815,4.214582,88.84997,96.119354,--
14,14,3,1,3,8.075000e-01,2.422500e+00,1.0,13.0,--,--,96.12224,2.0,96.54443,0.4221952,96.644844,4.700305,101.34788,8.0,101.34801,101.95296,5.8307223,101.95312,102.76337,--
15,15,6,2,3,8.075000e-01,8.075000e-01,1.0,14.0,--,--,102.77488,1.0,103.29444,0.5195583,103.39483,2.9879417,106.3842,3.0,106.384315,106.989136,4.2142563,106.98929,107.79863,--
16,16,9,3,3,4.037500e+00,2.422500e+00,1.0,15.0,--,--,107.80795,2.0,108.32773,0.5197762,108.42807,4.6027236,113.032715,7.0,113.03283,113.637276,5.829319,113.63742,117.677505,--
17,17,3,1,3,2.422500e+00,8.075000e-01,1.0,16.0,--,--,117.68039,1.0,118.11137,0.4309776,118.2117,3.0765224,121.29036,2.0,121.290474,121.89424,4.213853,121.894394,124.31958,--
18,18,1,1,1,8.882500e+00,1.615000e+00,1.0,17.0,--,--,124.3214,2.0,124.74431,0.4228998,124.84465,3.8921,128.73859,2.0,128.73871,129.34364,5.0222383,129.3438,138.22797,--
19,19,1,1,1,8.075000e-01,8.075000e-01,1.0,18.0,--,--,138.22975,1.0,138.76097,0.5312259,138.86136,2.976274,141.8407,6.0,141.84082,142.4444,4.2146406,142.44453,143.25414,--
20,20,7,3,1,4.037500e+00,1.615000e+00,1.0,19.0,--,--,143.2633,2.0,143.89426,0.630959,143.99464,3.684041,147.68056,3.0,147.68066,148.28513,5.021825,148.28528,152.32518,--
21,21,9,3,3,4.037500e+00,2.422500e+00,1.0,20.0,--,--,152.33325,1.0,152.66125,0.3280004,152.76163,4.7944994,157.55803,1.0,157.55815,158.16367,5.8304048,158.16382,162.20312,--
22,22,7,3,1,2.422500e+00,1.615000e+00,1.0,21.0,--,--,162.21127,2.0,162.74435,0.5330823,162.8447,3.7819178,166.62816,2.0,166.62828,167.23363,5.022347,167.23378,169.65805,--
23,23,6,2,3,2.422500e+00,1.615000e+00,1.0,22.0,--,--,169.66919,1.0,170.0944,0.4252259,170.19476,3.889774,174.08711,2.0,174.08723,174.6921,5.022911,174.69225,177.11745,--
24,24,9,3,3,8.075000e-01,2.422500e+00,1.0,23.0,--,--,177.12668,2.0,177.64423,0.5175421,177.74457,4.604958,182.35025,7.0,182.35036,182.95467,5.8279796,182.95482,183.76523,--
25,25,6,2,3,2.422500e+00,2.422500e+00,1.0,24.0,--,--,183.77643,1.0,184.41098,0.6345516,184.51132,4.4879484,189.00056,2.0,189.00069,189.60466,5.8282366,189.60481,192.02959,--
26,26,6,2,3,8.075000e-01,1.615000e+00,1.0,25.0,--,--,192.03995,2.0,192.4609,0.4209514,192.56125,3.8940487,196.4576,9.0,196.45772,197.0613,5.0213466,197.06145,197.87144,--
27,27,5,2,2,2.422500e+00,8.075000e-01,1.0,26.0,--,--,197.88185,1.0,198.31105,0.4291969,198.41139,3.078303,201.4911,5.0,201.49123,202.09605,4.214202,202.0962,204.52048,--
28,28,1,1,1,8.075000e-01,1.615000e+00,1.0,27.0,--,--,204.52351,2.0,205.04407,0.5205609,205.14444,3.794439,208.94054,3.0,208.94066,209.54527,5.02176,209.54543,210.3555,--
29,29,1,1,1,5.652500e+00,1.615000e+00,1.0,28.0,--,--,210.3573,1.0,211.09424,0.7369338,211.19463,3.578066,214.77525,7.0,214.77538,215.37947,5.022173,215.37962,221.0342,--
30,30,7,3,1,4.037500e+00,8.075000e-01,1.0,29.0,--,--,221.04343,2.0,221.5774,0.533967,221.6778,2.973533,224.6532,2.0,224.65332,225.25766,4.2142243,225.2578,229.29736,--
31,31,4,2,1,8.075000e-01,2.422500e+00,1.0,30.0,--,--,229.3084,1.0,229.72751,0.4191135,229.82785,4.7033863,234.53444,7.0,234.53456,235.13805,5.8296537,235.1382,235.94743,--
32,32,1,1,1,2.422500e+00,1.615000e+00,1.0,31.0,--,--,235.9503,2.0,236.47737,0.5270749,236.57773,3.787925,240.36742,3.0,240.36752,240.97514,5.0248423,240.9753,243.39944,--
33,33,9,3,3,8.075000e-01,1.615000e+00,1.0,32.0,--,--,243.4086,1.0,243.8273,0.4187004,243.92764,3.8962996,247.82544,4.0,247.82556,248.43098,5.0223985,248.43115,249.24141,--
34,34,3,1,3,8.075000e-01,1.615000e+00,1.0,33.0,--,--,249.24431,1.0,249.87749,0.6331723,249.97781,3.6818278,253.66144,3.0,253.66154,254.26498,5.020674,254.26514,255.07542,--
35,35,6,2,3,8.075000e-01,8.075000e-01,1.0,34.0,--,--,255.08665,2.0,255.61053,0.5238775,255.71088,2.9836226,258.6964,7.0,258.69653,259.301,4.21435,259.30115,260.11023,--
36,36,4,2,1,8.075000e-01,1.615000e+00,1.0,35.0,--,--,260.1208,1.0,260.64374,0.5229547,260.74408,3.7920454,264.5381,6.0,264.5382,265.14276,5.0219665,265.14288,265.95303,--
37,37,4,2,1,8.075000e-01,2.422500e+00,1.0,36.0,--,--,265.9635,2.0,266.39413,0.430645,266.4945,4.691855,271.1892,1.0,271.18933,271.79935,5.835851,271.7995,272.60895,--
38,38,1,1,1,2.422500e+00,2.422500e+00,1.0,37.0,--,--,272.6124,1.0,273.14386,0.5314705,273.2442,4.5910296,277.83813,9.0,277.83826,278.4416,5.8292117,278.44174,280.8661,--
39,39,8,3,2,2.422500e+00,2.422500e+00,1.0,38.0,--,--,280.8752,2.0,281.39468,0.5194445,281.49503,4.6030555,286.1,5.0,286.10013,286.7046,5.8293505,286.70474,289.12906,--
40,40,4,2,1,8.075000e-01,1.615000e+00,1.0,39.0,--,--,289.14062,1.0,289.66135,0.5207427,289.76172,3.7942574,293.55893,6.0,293.55905,294.16376,5.023153,294.1639,294.97336,--
41,41,2,1,2,5.652500e+00,8.075000e-01,1.0,40.0,--,--,294.97632,2.0,295.49487,0.5185645,295.5952,2.9889355,298.5854,5.0,298.5855,299.18997,4.2136607,299.19012,304.84534,--
42,42,7,3,1,8.075000e-01,8.075000e-01,1.0,41.0,--,--,304.85446,1.0,305.277,0.4225305,305.37735,3.0849695,308.46454,9.0,308.46466,309.0696,4.215154,309.06976,309.87964,--
43,43,3,1,3,7.267500e+00,1.615000e+00,1.0,42.0,--,--,309.88254,2.0,310.41037,0.5278519,310.51074,3.787148,314.29977,8.0,314.2999,314.90436,5.0218453,314.9045,322.17407,--
44,44,4,2,1,8.075000e-01,8.075000e-01,1.0,43.0,--,--,322.18533,1.0,322.81046,0.6251001,322.9108,2.8823998,325.79495,7.0,325.79507,326.39957,4.2142205,326.39972,327.20984,--
45,45,9,3,3,2.422500e+00,8.075000e-01,1.0,44.0,--,--,327.21915,2.0,327.7439,0.5247441,327.84424,2.982756,330.8293,9.0,330.82944,331.43448,4.2153416,331.43463,333.85892,--
46,46,9,3,3,8.075000e-01,8.075000e-01,1.0,45.0,--,--,333.86703,1.0,334.2938,0.4267655,334.39413,3.0807345,337.4767,3.0,337.47684,338.0804,4.213372,338.08057,338.88995,--
47,47,1,1,1,4.037500e+00,2.422500e+00,1.0,46.0,--,--,338.89282,2.0,339.5269,0.6340662,339.6273,4.488434,344.11755,1.0,344.11768,344.7226,5.8297696,344.72275,348.76282,--
48,48,5,2,2,2.422500e+00,8.075000e-01,1.0,47.0,--,--,348.77524,1.0,349.19345,0.4182239,349.29385,3.089276,352.38513,5.0,352.38528,352.9901,4.214891,352.99026,355.415,--
49,49,6,2,3,2.422500e+00,1.615000e+00,1.0,48.0,--,--,355.42627,2.0,355.96036,0.5340877,356.06076,3.7809124,359.84277,9.0,359.8429,360.4483,5.0220485,360.44846,362.8727,--
50,50,3,1,3,5.652500e+00,8.075000e-01,1.0,49.0,--,--,362.87567,1.0,363.29352,0.4178207,363.39392,3.0896792,366.4856,4.0,366.48572,367.0893,4.213601,367.08945,372.74457,--
51,51,7,3,1,4.037500e+00,8.075000e-01,1.0,50.0,--,--,372.7541,2.0,373.19373,0.4396304,373.29413,3.0678697,376.36328,2.0,376.3634,376.96848,4.214383,376.96863,381.00854,--
52,52,9,3,3,8.075000e-01,8.075000e-01,1.0,51.0,--,--,381.0167,1.0,381.54373,0.5270577,381.64417,2.9804423,384.62665,3.0,384.62677,385.2315,4.2148247,385.23166,386.0419,--
53,53,3,1,3,2.422500e+00,2.422500e+00,1.0,52.0,--,--,386.0449,2.0,386.97665,0.9317606,387.077,4.1907396,391.26996,9.0,391.27008,391.87378,5.828891,391.87393,394.29825,--
54,54,7,3,1,4.037500e+00,1.615000e+00,1.0,53.0,--,--,394.30734,1.0,394.7267,0.4193687,394.8271,3.8956313,398.72418,9.0,398.7243,399.32977,5.0224485,399.32993,403.3698,412.00122
