onset	duration	trial_type	response_time	Endowment	Endowment_pmod	Decision	Decision_pmod	Offer_pmod
4.567792	2	cue_social	n/a	32	8	n/a	n/a	n/a
4.567792	2	cue_social_high	n/a	32	7	n/a	n/a	n/a
13.830957	2	cue_social	n/a	32	8	n/a	n/a	n/a
13.830957	2	cue_social_high	n/a	32	7	n/a	n/a	n/a
20.604115	2	cue_nonsocial	n/a	16	-9	n/a	n/a	n/a
20.604115	2	cue_nonsocial_low	n/a	16	-8	n/a	n/a	n/a
27.502985	2	cue_social	n/a	16	-8	n/a	n/a	n/a
27.502985	2	cue_social_low	n/a	16	-9	n/a	n/a	n/a
34.341824	2	cue_social	n/a	32	8	n/a	n/a	n/a
34.341824	2	cue_social_high	n/a	32	7	n/a	n/a	n/a
41.920433	2	cue_nonsocial	n/a	32	7	n/a	n/a	n/a
41.920433	2	cue_nonsocial_high	n/a	32	8	n/a	n/a	n/a
52.860400	2	cue_social	n/a	32	8	n/a	n/a	n/a
52.860400	2	cue_social_high	n/a	32	7	n/a	n/a	n/a
59.620865	2	cue_nonsocial	n/a	16	-9	n/a	n/a	n/a
59.620865	2	cue_nonsocial_low	n/a	16	-8	n/a	n/a	n/a
68.887310	2	cue_nonsocial	n/a	32	7	n/a	n/a	n/a
68.887310	2	cue_nonsocial_high	n/a	32	8	n/a	n/a	n/a
75.787740	2	cue_social	n/a	32	8	n/a	n/a	n/a
75.787740	2	cue_social_high	n/a	32	7	n/a	n/a	n/a
84.970550	2	cue_nonsocial	n/a	16	-9	n/a	n/a	n/a
84.970550	2	cue_nonsocial_low	n/a	16	-8	n/a	n/a	n/a
91.803276	2	cue_nonsocial	n/a	16	-9	n/a	n/a	n/a
91.803276	2	cue_nonsocial_low	n/a	16	-8	n/a	n/a	n/a
98.705010	2	cue_social	n/a	32	8	n/a	n/a	n/a
98.705010	2	cue_social_high	n/a	32	7	n/a	n/a	n/a
107.886930	2	cue_nonsocial	n/a	32	7	n/a	n/a	n/a
107.886930	2	cue_nonsocial_high	n/a	32	8	n/a	n/a	n/a
115.537120	2	cue_nonsocial	n/a	32	7	n/a	n/a	n/a
115.537120	2	cue_nonsocial_high	n/a	32	8	n/a	n/a	n/a
122.476740	2	cue_social	n/a	32	8	n/a	n/a	n/a
122.476740	2	cue_social_high	n/a	32	7	n/a	n/a	n/a
130.078120	2	cue_social	n/a	16	-8	n/a	n/a	n/a
130.078120	2	cue_social_low	n/a	16	-9	n/a	n/a	n/a
137.712950	2	cue_social	n/a	32	8	n/a	n/a	n/a
137.712950	2	cue_social_high	n/a	32	7	n/a	n/a	n/a
144.503310	2	cue_nonsocial	n/a	32	7	n/a	n/a	n/a
144.503310	2	cue_nonsocial_high	n/a	32	8	n/a	n/a	n/a
151.336430	2	cue_nonsocial	n/a	32	7	n/a	n/a	n/a
151.336430	2	cue_nonsocial_high	n/a	32	8	n/a	n/a	n/a
158.170180	2	cue_nonsocial	n/a	32	7	n/a	n/a	n/a
158.170180	2	cue_nonsocial_high	n/a	32	8	n/a	n/a	n/a
169.115070	2	cue_social	n/a	16	-8	n/a	n/a	n/a
169.115070	2	cue_social_low	n/a	16	-9	n/a	n/a	n/a
176.733080	2	cue_social	n/a	16	-8	n/a	n/a	n/a
176.733080	2	cue_social_low	n/a	16	-9	n/a	n/a	n/a
183.570850	2	cue_social	n/a	32	8	n/a	n/a	n/a
183.570850	2	cue_social_high	n/a	32	7	n/a	n/a	n/a
191.170120	2	cue_nonsocial	n/a	16	-9	n/a	n/a	n/a
191.170120	2	cue_nonsocial_low	n/a	16	-8	n/a	n/a	n/a
198.059920	2	cue_social	n/a	16	-8	n/a	n/a	n/a
198.059920	2	cue_social_low	n/a	16	-9	n/a	n/a	n/a
205.653490	2	cue_nonsocial	n/a	32	7	n/a	n/a	n/a
205.653490	2	cue_nonsocial_high	n/a	32	8	n/a	n/a	n/a
212.585830	2	cue_social	n/a	16	-8	n/a	n/a	n/a
212.585830	2	cue_social_low	n/a	16	-9	n/a	n/a	n/a
219.319990	2	cue_nonsocial	n/a	16	-9	n/a	n/a	n/a
219.319990	2	cue_nonsocial_low	n/a	16	-8	n/a	n/a	n/a
231.803440	2	cue_nonsocial	n/a	16	-9	n/a	n/a	n/a
231.803440	2	cue_nonsocial_low	n/a	16	-8	n/a	n/a	n/a
241.053680	2	cue_nonsocial	n/a	32	7	n/a	n/a	n/a
241.053680	2	cue_nonsocial_high	n/a	32	8	n/a	n/a	n/a
248.686800	2	cue_nonsocial	n/a	16	-9	n/a	n/a	n/a
248.686800	2	cue_nonsocial_low	n/a	16	-8	n/a	n/a	n/a
255.519940	2	cue_nonsocial	n/a	32	7	n/a	n/a	n/a
255.519940	2	cue_nonsocial_high	n/a	32	8	n/a	n/a	n/a
262.353500	2	cue_nonsocial	n/a	32	7	n/a	n/a	n/a
262.353500	2	cue_nonsocial_high	n/a	32	8	n/a	n/a	n/a
270.067170	2	cue_social	n/a	32	8	n/a	n/a	n/a
270.067170	2	cue_social_high	n/a	32	7	n/a	n/a	n/a
276.836580	2	cue_nonsocial	n/a	16	-9	n/a	n/a	n/a
276.836580	2	cue_nonsocial_low	n/a	16	-8	n/a	n/a	n/a
283.734470	2	cue_social	n/a	16	-8	n/a	n/a	n/a
283.734470	2	cue_social_low	n/a	16	-9	n/a	n/a	n/a
292.988130	2	cue_social	n/a	16	-8	n/a	n/a	n/a
292.988130	2	cue_social_low	n/a	16	-9	n/a	n/a	n/a
299.753570	2	cue_nonsocial	n/a	16	-9	n/a	n/a	n/a
299.753570	2	cue_nonsocial_low	n/a	16	-8	n/a	n/a	n/a
310.669770	2	cue_social	n/a	16	-8	n/a	n/a	n/a
310.669770	2	cue_social_low	n/a	16	-9	n/a	n/a	n/a
317.453250	2	cue_nonsocial	n/a	32	7	n/a	n/a	n/a
317.453250	2	cue_nonsocial_high	n/a	32	8	n/a	n/a	n/a
326.755400	2	cue_social	n/a	32	8	n/a	n/a	n/a
326.755400	2	cue_social_high	n/a	32	7	n/a	n/a	n/a
334.353670	2	cue_nonsocial	n/a	32	7	n/a	n/a	n/a
334.353670	2	cue_nonsocial_high	n/a	32	8	n/a	n/a	n/a
342.043330	2	cue_social	n/a	32	8	n/a	n/a	n/a
342.043330	2	cue_social_high	n/a	32	7	n/a	n/a	n/a
348.898400	2	cue_social	n/a	16	-8	n/a	n/a	n/a
348.898400	2	cue_social_low	n/a	16	-9	n/a	n/a	n/a
355.669650	2	cue_nonsocial	n/a	32	7	n/a	n/a	n/a
355.669650	2	cue_nonsocial_high	n/a	32	8	n/a	n/a	n/a
363.360050	2	cue_social	n/a	16	-8	n/a	n/a	n/a
363.360050	2	cue_social_low	n/a	16	-9	n/a	n/a	n/a
370.207700	2	cue_social	n/a	16	-8	n/a	n/a	n/a
370.207700	2	cue_social_low	n/a	16	-9	n/a	n/a	n/a
6.511151	1.899443	dec_social_choice	1.899443	32.000000	n/a	16	2.682292e-01	2.682292e-01
6.511151	1.899443	dec_choice	1.899443	32.000000	n/a	16	2.682292e-01	2.682292e-01
6.511151	1.899443	dec_social_accept	1.899443	32.000000	n/a	16	1.895161e-01	1.895161e-01
6.511151	1.899443	dec_accept	1.899443	32.000000	n/a	16	2.187500e-01	2.187500e-01
6.511151	1.899443	dec_social_high	1.899443	32.000000	n/a	16	2.682292e-01	2.682292e-01
6.511151	1.899443	dec_social_accept_high	1.899443	32.000000	n/a	16	2.682292e-01	2.682292e-01
15.777042	3.216440	dec_social_choice	3.216440	32.000000	n/a	3	-1.380208e-01	-1.380208e-01
15.777042	3.216440	dec_choice	3.216440	32.000000	n/a	3	-1.380208e-01	-1.380208e-01
15.777042	3.216440	dec_social_accept	3.216440	32.000000	n/a	3	-2.167339e-01	-2.167339e-01
15.777042	3.216440	dec_accept	3.216440	32.000000	n/a	3	-1.875000e-01	-1.875000e-01
15.777042	3.216440	dec_social_low	3.216440	32.000000	n/a	3	-1.380208e-01	-1.380208e-01
15.777042	3.216440	dec_social_accept_low	3.216440	32.000000	n/a	3	-1.380208e-01	-1.380208e-01
22.611027	2.599624	dec_nonsocial_choice	2.599624	16.000000	n/a	8	2.682292e-01	2.682292e-01
22.611027	2.599624	dec_choice	2.599624	16.000000	n/a	8	2.682292e-01	2.682292e-01
22.611027	2.599624	dec_nonsocial_accept	2.599624	16.000000	n/a	8	1.895161e-01	1.895161e-01
22.611027	2.599624	dec_accept	2.599624	16.000000	n/a	8	1.490385e-01	1.490385e-01
22.611027	2.599624	dec_nonsocial_high	2.599624	16.000000	n/a	8	2.682292e-01	2.682292e-01
22.611027	2.599624	dec_nonsocial_accept_high	2.599624	16.000000	n/a	8	1.490385e-01	1.490385e-01
29.443954	1.549974	dec_social_choice	1.549974	16.000000	n/a	0	0	-2.317708e-01
29.443954	1.549974	dec_choice	1.549974	16.000000	n/a	0	0	-2.317708e-01
29.443954	1.549974	dec_social_reject	1.549974	16.000000	n/a	0	0	3.676471e-02
29.443954	1.549974	dec_reject	1.549974	16.000000	n/a	0	0	4.166667e-02
29.443954	1.549974	dec_social_reject_low	1.549974	16.000000	n/a	2	-1.067708e-01	-2.317708e-01
36.277020	1.349910	dec_social_choice	1.349910	32.000000	n/a	16	2.682292e-01	2.682292e-01
36.277020	1.349910	dec_choice	1.349910	32.000000	n/a	16	2.682292e-01	2.682292e-01
36.277020	1.349910	dec_social_accept	1.349910	32.000000	n/a	16	1.895161e-01	1.895161e-01
36.277020	1.349910	dec_accept	1.349910	32.000000	n/a	16	2.187500e-01	2.187500e-01
36.277020	1.349910	dec_social_high	1.349910	32.000000	n/a	16	2.682292e-01	2.682292e-01
36.277020	1.349910	dec_social_accept_high	1.349910	32.000000	n/a	16	2.682292e-01	2.682292e-01
43.926537	1.900631	dec_nonsocial_choice	1.900631	32.000000	n/a	8	1.822917e-02	1.822917e-02
43.926537	1.900631	dec_choice	1.900631	32.000000	n/a	8	1.822917e-02	1.822917e-02
43.926537	1.900631	dec_nonsocial_accept	1.900631	32.000000	n/a	8	-6.048387e-02	-6.048387e-02
43.926537	1.900631	dec_accept	1.900631	32.000000	n/a	8	-1.009615e-01	-1.009615e-01
43.926537	1.900631	dec_nonsocial_high	1.900631	32.000000	n/a	8	1.822917e-02	1.822917e-02
43.926537	1.900631	dec_nonsocial_accept_high	1.900631	32.000000	n/a	8	-1.009615e-01	-1.009615e-01
54.793090	1.417336	dec_social_choice	1.417336	32.000000	n/a	16	2.682292e-01	2.682292e-01
54.793090	1.417336	dec_choice	1.417336	32.000000	n/a	16	2.682292e-01	2.682292e-01
54.793090	1.417336	dec_social_accept	1.417336	32.000000	n/a	16	1.895161e-01	1.895161e-01
54.793090	1.417336	dec_accept	1.417336	32.000000	n/a	16	2.187500e-01	2.187500e-01
54.793090	1.417336	dec_social_high	1.417336	32.000000	n/a	16	2.682292e-01	2.682292e-01
54.793090	1.417336	dec_social_accept_high	1.417336	32.000000	n/a	16	2.682292e-01	2.682292e-01
61.626530	1.167187	dec_nonsocial_choice	1.167187	16.000000	n/a	0	0	-2.317708e-01
61.626530	1.167187	dec_choice	1.167187	16.000000	n/a	0	0	-2.317708e-01
61.626530	1.167187	dec_nonsocial_reject	1.167187	16.000000	n/a	0	0	3.676471e-02
61.626530	1.167187	dec_reject	1.167187	16.000000	n/a	0	0	3.409091e-02
61.626530	1.167187	dec_nonsocial_reject_low	1.167187	16.000000	n/a	2	4.166667e-02	-8.333333e-02
70.894100	1.183092	dec_nonsocial_choice	1.183092	32.000000	n/a	0	0	-2.317708e-01
70.894100	1.183092	dec_choice	1.183092	32.000000	n/a	0	0	-2.317708e-01
70.894100	1.183092	dec_nonsocial_reject	1.183092	32.000000	n/a	0	0	-2.573529e-02
70.894100	1.183092	dec_reject	1.183092	32.000000	n/a	0	0	-2.840909e-02
70.894100	1.183092	dec_nonsocial_reject_low	1.183092	32.000000	n/a	2	-2.083333e-02	-8.333333e-02
77.728050	1.883103	dec_social_choice	1.883103	32.000000	n/a	3	-1.380208e-01	-1.380208e-01
77.728050	1.883103	dec_choice	1.883103	32.000000	n/a	3	-1.380208e-01	-1.380208e-01
77.728050	1.883103	dec_social_accept	1.883103	32.000000	n/a	3	-2.167339e-01	-2.167339e-01
77.728050	1.883103	dec_accept	1.883103	32.000000	n/a	3	-1.875000e-01	-1.875000e-01
77.728050	1.883103	dec_social_accept_low	1.883103	32.000000	n/a	3	-1.380208e-01	-1.380208e-01
86.977040	1.866083	dec_nonsocial_choice	1.866083	16.000000	n/a	0	0	-2.317708e-01
86.977040	1.866083	dec_choice	1.866083	16.000000	n/a	0	0	-2.317708e-01
86.977040	1.866083	dec_nonsocial_reject	1.866083	16.000000	n/a	0	0	3.676471e-02
86.977040	1.866083	dec_reject	1.866083	16.000000	n/a	0	0	3.409091e-02
86.977040	1.866083	dec_nonsocial_low	1.866083	16.000000	n/a	0	-2.317708e-01	-2.317708e-01
86.977040	1.866083	dec_nonsocial_reject_low	1.866083	16.000000	n/a	2	3.409091e-02	-9.090909e-02
93.810800	1.782967	dec_nonsocial_choice	1.782967	16.000000	n/a	8	2.682292e-01	2.682292e-01
93.810800	1.782967	dec_choice	1.782967	16.000000	n/a	8	2.682292e-01	2.682292e-01
93.810800	1.782967	dec_nonsocial_accept	1.782967	16.000000	n/a	8	1.895161e-01	1.895161e-01
93.810800	1.782967	dec_accept	1.782967	16.000000	n/a	8	1.490385e-01	1.490385e-01
93.810800	1.782967	dec_nonsocial_accept_high	1.782967	16.000000	n/a	8	2.187500e-01	2.187500e-01
100.643135	1.517117	dec_social_choice	1.517117	32.000000	n/a	0	0	-2.317708e-01
100.643135	1.517117	dec_choice	1.517117	32.000000	n/a	0	0	-2.317708e-01
100.643135	1.517117	dec_social_reject	1.517117	32.000000	n/a	0	0	-2.573529e-02
100.643135	1.517117	dec_reject	1.517117	32.000000	n/a	0	0	-2.083333e-02
100.643135	1.517117	dec_social_low	1.517117	32.000000	n/a	0	-2.317708e-01	-2.317708e-01
100.643135	1.517117	dec_social_reject_low	1.517117	32.000000	n/a	2	-1.692708e-01	-2.317708e-01
109.893000	2.167087	dec_nonsocial_choice	2.167087	32.000000	n/a	0	0	-2.317708e-01
109.893000	2.167087	dec_choice	2.167087	32.000000	n/a	0	0	-2.317708e-01
109.893000	2.167087	dec_nonsocial_reject	2.167087	32.000000	n/a	0	0	-2.573529e-02
109.893000	2.167087	dec_reject	2.167087	32.000000	n/a	0	0	-2.840909e-02
109.893000	2.167087	dec_nonsocial_reject_low	2.167087	32.000000	n/a	2	-2.083333e-02	-8.333333e-02
117.544010	1.533157	dec_nonsocial_choice	1.533157	32.000000	n/a	16	2.682292e-01	2.682292e-01
117.544010	1.533157	dec_choice	1.533157	32.000000	n/a	16	2.682292e-01	2.682292e-01
117.544010	1.533157	dec_nonsocial_accept	1.533157	32.000000	n/a	16	1.895161e-01	1.895161e-01
117.544010	1.533157	dec_accept	1.533157	32.000000	n/a	16	1.490385e-01	1.490385e-01
117.544010	1.533157	dec_nonsocial_high	1.533157	32.000000	n/a	16	2.682292e-01	2.682292e-01
117.544010	1.533157	dec_nonsocial_accept_high	1.533157	32.000000	n/a	16	1.490385e-01	1.490385e-01
124.377045	1.616307	dec_social_choice	1.616307	32.000000	n/a	8	1.822917e-02	1.822917e-02
124.377045	1.616307	dec_choice	1.616307	32.000000	n/a	8	1.822917e-02	1.822917e-02
124.377045	1.616307	dec_social_accept	1.616307	32.000000	n/a	8	-6.048387e-02	-6.048387e-02
124.377045	1.616307	dec_accept	1.616307	32.000000	n/a	8	-3.125000e-02	-3.125000e-02
124.377045	1.616307	dec_social_accept_high	1.616307	32.000000	n/a	8	1.822917e-02	1.822917e-02
132.027020	1.416356	dec_social_choice	1.416356	16.000000	n/a	4	1.822917e-02	1.822917e-02
132.027020	1.416356	dec_choice	1.416356	16.000000	n/a	4	1.822917e-02	1.822917e-02
132.027020	1.416356	dec_social_accept	1.416356	16.000000	n/a	4	-6.048387e-02	-6.048387e-02
132.027020	1.416356	dec_accept	1.416356	16.000000	n/a	4	-3.125000e-02	-3.125000e-02
132.027020	1.416356	dec_social_high	1.416356	16.000000	n/a	4	1.822917e-02	1.822917e-02
132.027020	1.416356	dec_social_accept_high	1.416356	16.000000	n/a	4	1.822917e-02	1.822917e-02
139.678070	1.398928	dec_social_choice	1.398928	32.000000	n/a	16	2.682292e-01	2.682292e-01
139.678070	1.398928	dec_choice	1.398928	32.000000	n/a	16	2.682292e-01	2.682292e-01
139.678070	1.398928	dec_social_accept	1.398928	32.000000	n/a	16	1.895161e-01	1.895161e-01
139.678070	1.398928	dec_accept	1.398928	32.000000	n/a	16	2.187500e-01	2.187500e-01
139.678070	1.398928	dec_social_high	1.398928	32.000000	n/a	16	2.682292e-01	2.682292e-01
139.678070	1.398928	dec_social_accept_high	1.398928	32.000000	n/a	16	2.682292e-01	2.682292e-01
146.510670	1.449814	dec_nonsocial_choice	1.449814	32.000000	n/a	0	0	-2.317708e-01
146.510670	1.449814	dec_choice	1.449814	32.000000	n/a	0	0	-2.317708e-01
146.510670	1.449814	dec_nonsocial_reject	1.449814	32.000000	n/a	0	0	-2.573529e-02
146.510670	1.449814	dec_reject	1.449814	32.000000	n/a	0	0	-2.840909e-02
146.510670	1.449814	dec_nonsocial_low	1.449814	32.000000	n/a	0	-2.317708e-01	-2.317708e-01
146.510670	1.449814	dec_nonsocial_reject_low	1.449814	32.000000	n/a	2	-2.840909e-02	-9.090909e-02
153.343080	1.583701	dec_nonsocial_choice	1.583701	32.000000	n/a	8	1.822917e-02	1.822917e-02
153.343080	1.583701	dec_choice	1.583701	32.000000	n/a	8	1.822917e-02	1.822917e-02
153.343080	1.583701	dec_nonsocial_accept	1.583701	32.000000	n/a	8	-6.048387e-02	-6.048387e-02
153.343080	1.583701	dec_accept	1.583701	32.000000	n/a	8	-1.009615e-01	-1.009615e-01
153.343080	1.583701	dec_nonsocial_high	1.583701	32.000000	n/a	8	1.822917e-02	1.822917e-02
153.343080	1.583701	dec_nonsocial_accept_high	1.583701	32.000000	n/a	8	-1.009615e-01	-1.009615e-01
160.177050	1.399895	dec_nonsocial_choice	1.399895	32.000000	n/a	0	0	-2.317708e-01
160.177050	1.399895	dec_choice	1.399895	32.000000	n/a	0	0	-2.317708e-01
160.177050	1.399895	dec_nonsocial_reject	1.399895	32.000000	n/a	0	0	5.514706e-03
160.177050	1.399895	dec_reject	1.399895	32.000000	n/a	0	0	2.840909e-03
160.177050	1.399895	dec_nonsocial_low	1.399895	32.000000	n/a	0	-2.317708e-01	-2.317708e-01
160.177050	1.399895	dec_nonsocial_reject_low	1.399895	32.000000	n/a	3	2.840909e-03	-9.090909e-02
171.044050	1.832366	dec_social_choice	1.832366	16.000000	n/a	0	0	-2.317708e-01
171.044050	1.832366	dec_choice	1.832366	16.000000	n/a	0	0	-2.317708e-01
171.044050	1.832366	dec_social_reject	1.832366	16.000000	n/a	0	0	3.676471e-02
171.044050	1.832366	dec_reject	1.832366	16.000000	n/a	0	0	4.166667e-02
171.044050	1.832366	dec_social_reject_low	1.832366	16.000000	n/a	2	-1.067708e-01	-2.317708e-01
178.694050	1.432695	dec_social_choice	1.432695	16.000000	n/a	8	2.682292e-01	2.682292e-01
178.694050	1.432695	dec_choice	1.432695	16.000000	n/a	8	2.682292e-01	2.682292e-01
178.694050	1.432695	dec_social_accept	1.432695	16.000000	n/a	8	1.895161e-01	1.895161e-01
178.694050	1.432695	dec_accept	1.432695	16.000000	n/a	8	2.187500e-01	2.187500e-01
178.694050	1.432695	dec_social_accept_high	1.432695	16.000000	n/a	8	2.682292e-01	2.682292e-01
185.527080	1.566001	dec_social_choice	1.566001	32.000000	n/a	0	0	-2.317708e-01
185.527080	1.566001	dec_choice	1.566001	32.000000	n/a	0	0	-2.317708e-01
185.527080	1.566001	dec_social_reject	1.566001	32.000000	n/a	0	0	-2.573529e-02
185.527080	1.566001	dec_reject	1.566001	32.000000	n/a	0	0	-2.083333e-02
185.527080	1.566001	dec_social_reject_low	1.566001	32.000000	n/a	2	-1.692708e-01	-2.317708e-01
193.176120	1.584169	dec_nonsocial_choice	1.584169	16.000000	n/a	4	1.822917e-02	1.822917e-02
193.176120	1.584169	dec_choice	1.584169	16.000000	n/a	4	1.822917e-02	1.822917e-02
193.176120	1.584169	dec_nonsocial_accept	1.584169	16.000000	n/a	4	-6.048387e-02	-6.048387e-02
193.176120	1.584169	dec_accept	1.584169	16.000000	n/a	4	-1.009615e-01	-1.009615e-01
193.176120	1.584169	dec_nonsocial_accept_high	1.584169	16.000000	n/a	4	-3.125000e-02	-3.125000e-02
200.010130	1.366448	dec_social_choice	1.366448	16.000000	n/a	0	0	-2.317708e-01
200.010130	1.366448	dec_choice	1.366448	16.000000	n/a	0	0	-2.317708e-01
200.010130	1.366448	dec_social_reject	1.366448	16.000000	n/a	0	0	-2.573529e-02
200.010130	1.366448	dec_reject	1.366448	16.000000	n/a	0	0	-2.083333e-02
200.010130	1.366448	dec_social_reject_low	1.366448	16.000000	n/a	1	-1.692708e-01	-2.317708e-01
207.659580	1.234045	dec_nonsocial_choice	1.234045	32.000000	n/a	16	2.682292e-01	2.682292e-01
207.659580	1.234045	dec_choice	1.234045	32.000000	n/a	16	2.682292e-01	2.682292e-01
207.659580	1.234045	dec_nonsocial_accept	1.234045	32.000000	n/a	16	1.895161e-01	1.895161e-01
207.659580	1.234045	dec_accept	1.234045	32.000000	n/a	16	1.490385e-01	1.490385e-01
207.659580	1.234045	dec_nonsocial_high	1.234045	32.000000	n/a	16	2.682292e-01	2.682292e-01
207.659580	1.234045	dec_nonsocial_accept_high	1.234045	32.000000	n/a	16	1.490385e-01	1.490385e-01
214.494060	1.999535	dec_social_choice	1.999535	16.000000	n/a	2	-1.067708e-01	-1.067708e-01
214.494060	1.999535	dec_choice	1.999535	16.000000	n/a	2	-1.067708e-01	-1.067708e-01
214.494060	1.999535	dec_social_accept	1.999535	16.000000	n/a	2	-1.854839e-01	-1.854839e-01
214.494060	1.999535	dec_accept	1.999535	16.000000	n/a	2	-1.562500e-01	-1.562500e-01
214.494060	1.999535	dec_social_accept_low	1.999535	16.000000	n/a	2	-1.067708e-01	-1.067708e-01
221.328050	2.198605	dec_nonsocial_choice	2.198605	16.000000	n/a	0	0	-2.317708e-01
221.328050	2.198605	dec_choice	2.198605	16.000000	n/a	0	0	-2.317708e-01
221.328050	2.198605	dec_nonsocial_reject	2.198605	16.000000	n/a	0	0	3.676471e-02
221.328050	2.198605	dec_reject	2.198605	16.000000	n/a	0	0	3.409091e-02
221.328050	2.198605	dec_nonsocial_reject_low	2.198605	16.000000	n/a	2	4.166667e-02	-8.333333e-02
233.811070	1.449301	dec_nonsocial_choice	1.449301	16.000000	n/a	0	0	-2.317708e-01
233.811070	1.449301	dec_choice	1.449301	16.000000	n/a	0	0	-2.317708e-01
233.811070	1.449301	dec_nonsocial_reject	1.449301	16.000000	n/a	0	0	-2.573529e-02
233.811070	1.449301	dec_reject	1.449301	16.000000	n/a	0	0	-2.840909e-02
233.811070	1.449301	dec_nonsocial_low	1.449301	16.000000	n/a	0	-2.317708e-01	-2.317708e-01
233.811070	1.449301	dec_nonsocial_reject_low	1.449301	16.000000	n/a	1	-2.840909e-02	-9.090909e-02
243.059880	1.384240	dec_nonsocial_choice	1.384240	32.000000	n/a	0	0	-2.317708e-01
243.059880	1.384240	dec_choice	1.384240	32.000000	n/a	0	0	-2.317708e-01
243.059880	1.384240	dec_nonsocial_reject	1.384240	32.000000	n/a	0	0	-2.573529e-02
243.059880	1.384240	dec_reject	1.384240	32.000000	n/a	0	0	-2.840909e-02
243.059880	1.384240	dec_nonsocial_low	1.384240	32.000000	n/a	0	-2.317708e-01	-2.317708e-01
243.059880	1.384240	dec_nonsocial_reject_low	1.384240	32.000000	n/a	2	-2.840909e-02	-9.090909e-02
250.693280	1.400886	dec_nonsocial_choice	1.400886	16.000000	n/a	0	0	-2.317708e-01
250.693280	1.400886	dec_choice	1.400886	16.000000	n/a	0	0	-2.317708e-01
250.693280	1.400886	dec_nonsocial_reject	1.400886	16.000000	n/a	0	0	3.676471e-02
250.693280	1.400886	dec_reject	1.400886	16.000000	n/a	0	0	3.409091e-02
250.693280	1.400886	dec_nonsocial_low	1.400886	16.000000	n/a	0	-2.317708e-01	-2.317708e-01
250.693280	1.400886	dec_nonsocial_reject_low	1.400886	16.000000	n/a	2	3.409091e-02	-9.090909e-02
257.526060	1.484098	dec_nonsocial_choice	1.484098	32.000000	n/a	0	0	-2.317708e-01
257.526060	1.484098	dec_choice	1.484098	32.000000	n/a	0	0	-2.317708e-01
257.526060	1.484098	dec_nonsocial_reject	1.484098	32.000000	n/a	0	0	5.514706e-03
257.526060	1.484098	dec_reject	1.484098	32.000000	n/a	0	0	2.840909e-03
257.526060	1.484098	dec_nonsocial_reject_low	1.484098	32.000000	n/a	3	1.041667e-02	-8.333333e-02
264.360260	1.599816	dec_nonsocial_choice	1.599816	32.000000	n/a	2	-1.692708e-01	-1.692708e-01
264.360260	1.599816	dec_choice	1.599816	32.000000	n/a	2	-1.692708e-01	-1.692708e-01
264.360260	1.599816	dec_nonsocial_accept	1.599816	32.000000	n/a	2	-2.479839e-01	-2.479839e-01
264.360260	1.599816	dec_accept	1.599816	32.000000	n/a	2	-2.884615e-01	-2.884615e-01
264.360260	1.599816	dec_nonsocial_accept_low	1.599816	32.000000	n/a	2	-2.187500e-01	-2.187500e-01
272.010200	1.283297	dec_social_choice	1.283297	32.000000	n/a	2	-1.692708e-01	-1.692708e-01
272.010200	1.283297	dec_choice	1.283297	32.000000	n/a	2	-1.692708e-01	-1.692708e-01
272.010200	1.283297	dec_social_accept	1.283297	32.000000	n/a	2	-2.479839e-01	-2.479839e-01
272.010200	1.283297	dec_accept	1.283297	32.000000	n/a	2	-2.187500e-01	-2.187500e-01
272.010200	1.283297	dec_social_low	1.283297	32.000000	n/a	2	-1.692708e-01	-1.692708e-01
272.010200	1.283297	dec_social_accept_low	1.283297	32.000000	n/a	2	-1.692708e-01	-1.692708e-01
278.842680	1.350807	dec_nonsocial_choice	1.350807	16.000000	n/a	4	1.822917e-02	1.822917e-02
278.842680	1.350807	dec_choice	1.350807	16.000000	n/a	4	1.822917e-02	1.822917e-02
278.842680	1.350807	dec_nonsocial_accept	1.350807	16.000000	n/a	4	-6.048387e-02	-6.048387e-02
278.842680	1.350807	dec_accept	1.350807	16.000000	n/a	4	-1.009615e-01	-1.009615e-01
278.842680	1.350807	dec_nonsocial_accept_high	1.350807	16.000000	n/a	4	-3.125000e-02	-3.125000e-02
285.677100	1.065766	dec_social_choice	1.065766	16.000000	n/a	4	1.822917e-02	1.822917e-02
285.677100	1.065766	dec_choice	1.065766	16.000000	n/a	4	1.822917e-02	1.822917e-02
285.677100	1.065766	dec_social_accept	1.065766	16.000000	n/a	4	-6.048387e-02	-6.048387e-02
285.677100	1.065766	dec_accept	1.065766	16.000000	n/a	4	-3.125000e-02	-3.125000e-02
285.677100	1.065766	dec_social_accept_high	1.065766	16.000000	n/a	4	1.822917e-02	1.822917e-02
294.926100	0.984076	dec_social_choice	0.984076	16.000000	n/a	4	1.822917e-02	1.822917e-02
294.926100	0.984076	dec_choice	0.984076	16.000000	n/a	4	1.822917e-02	1.822917e-02
294.926100	0.984076	dec_social_accept	0.984076	16.000000	n/a	4	-6.048387e-02	-6.048387e-02
294.926100	0.984076	dec_accept	0.984076	16.000000	n/a	4	-3.125000e-02	-3.125000e-02
294.926100	0.984076	dec_social_accept_high	0.984076	16.000000	n/a	4	1.822917e-02	1.822917e-02
301.761050	1.398685	dec_nonsocial_choice	1.398685	16.000000	n/a	4	1.822917e-02	1.822917e-02
301.761050	1.398685	dec_choice	1.398685	16.000000	n/a	4	1.822917e-02	1.822917e-02
301.761050	1.398685	dec_nonsocial_accept	1.398685	16.000000	n/a	4	-6.048387e-02	-6.048387e-02
301.761050	1.398685	dec_accept	1.398685	16.000000	n/a	4	-1.009615e-01	-1.009615e-01
301.761050	1.398685	dec_nonsocial_high	1.398685	16.000000	n/a	4	1.822917e-02	1.822917e-02
301.761050	1.398685	dec_nonsocial_accept_high	1.398685	16.000000	n/a	4	-1.009615e-01	-1.009615e-01
312.627040	1.383176	dec_social_choice	1.383176	16.000000	n/a	0	0	-2.317708e-01
312.627040	1.383176	dec_choice	1.383176	16.000000	n/a	0	0	-2.317708e-01
312.627040	1.383176	dec_social_reject	1.383176	16.000000	n/a	0	0	-2.573529e-02
312.627040	1.383176	dec_reject	1.383176	16.000000	n/a	0	0	-2.083333e-02
312.627040	1.383176	dec_social_low	1.383176	16.000000	n/a	0	-2.317708e-01	-2.317708e-01
312.627040	1.383176	dec_social_reject_low	1.383176	16.000000	n/a	1	-1.692708e-01	-2.317708e-01
319.460080	1.316131	dec_nonsocial_choice	1.316131	32.000000	n/a	8	1.822917e-02	1.822917e-02
319.460080	1.316131	dec_choice	1.316131	32.000000	n/a	8	1.822917e-02	1.822917e-02
319.460080	1.316131	dec_nonsocial_accept	1.316131	32.000000	n/a	8	-6.048387e-02	-6.048387e-02
319.460080	1.316131	dec_accept	1.316131	32.000000	n/a	8	-1.009615e-01	-1.009615e-01
319.460080	1.316131	dec_nonsocial_accept_high	1.316131	32.000000	n/a	8	-3.125000e-02	-3.125000e-02
328.710080	0.966298	dec_social_choice	0.966298	32.000000	n/a	8	1.822917e-02	1.822917e-02
328.710080	0.966298	dec_choice	0.966298	32.000000	n/a	8	1.822917e-02	1.822917e-02
328.710080	0.966298	dec_social_accept	0.966298	32.000000	n/a	8	-6.048387e-02	-6.048387e-02
328.710080	0.966298	dec_accept	0.966298	32.000000	n/a	8	-3.125000e-02	-3.125000e-02
328.710080	0.966298	dec_social_accept_high	0.966298	32.000000	n/a	8	1.822917e-02	1.822917e-02
336.360050	1.266187	dec_nonsocial_choice	1.266187	32.000000	n/a	16	2.682292e-01	2.682292e-01
336.360050	1.266187	dec_choice	1.266187	32.000000	n/a	16	2.682292e-01	2.682292e-01
336.360050	1.266187	dec_nonsocial_accept	1.266187	32.000000	n/a	16	1.895161e-01	1.895161e-01
336.360050	1.266187	dec_accept	1.266187	32.000000	n/a	16	1.490385e-01	1.490385e-01
336.360050	1.266187	dec_nonsocial_accept_high	1.266187	32.000000	n/a	16	2.187500e-01	2.187500e-01
344.009100	1.667105	dec_social_choice	1.667105	32.000000	n/a	2	-1.692708e-01	-1.692708e-01
344.009100	1.667105	dec_choice	1.667105	32.000000	n/a	2	-1.692708e-01	-1.692708e-01
344.009100	1.667105	dec_social_accept	1.667105	32.000000	n/a	2	-2.479839e-01	-2.479839e-01
344.009100	1.667105	dec_accept	1.667105	32.000000	n/a	2	-2.187500e-01	-2.187500e-01
344.009100	1.667105	dec_social_accept_low	1.667105	32.000000	n/a	2	-1.692708e-01	-1.692708e-01
350.843960	1.382623	dec_social_choice	1.382623	16.000000	n/a	4	1.822917e-02	1.822917e-02
350.843960	1.382623	dec_choice	1.382623	16.000000	n/a	4	1.822917e-02	1.822917e-02
350.843960	1.382623	dec_social_accept	1.382623	16.000000	n/a	4	-6.048387e-02	-6.048387e-02
350.843960	1.382623	dec_accept	1.382623	16.000000	n/a	4	-3.125000e-02	-3.125000e-02
350.843960	1.382623	dec_social_high	1.382623	16.000000	n/a	4	1.822917e-02	1.822917e-02
350.843960	1.382623	dec_social_accept_high	1.382623	16.000000	n/a	4	1.822917e-02	1.822917e-02
357.675960	1.266861	dec_nonsocial_choice	1.266861	32.000000	n/a	16	2.682292e-01	2.682292e-01
357.675960	1.266861	dec_choice	1.266861	32.000000	n/a	16	2.682292e-01	2.682292e-01
357.675960	1.266861	dec_nonsocial_accept	1.266861	32.000000	n/a	16	1.895161e-01	1.895161e-01
357.675960	1.266861	dec_accept	1.266861	32.000000	n/a	16	1.490385e-01	1.490385e-01
357.675960	1.266861	dec_nonsocial_high	1.266861	32.000000	n/a	16	2.682292e-01	2.682292e-01
357.675960	1.266861	dec_nonsocial_accept_high	1.266861	32.000000	n/a	16	1.490385e-01	1.490385e-01
365.326080	1.733865	dec_social_choice	1.733865	16.000000	n/a	2	-1.067708e-01	-1.067708e-01
365.326080	1.733865	dec_choice	1.733865	16.000000	n/a	2	-1.067708e-01	-1.067708e-01
365.326080	1.733865	dec_social_accept	1.733865	16.000000	n/a	2	-1.854839e-01	-1.854839e-01
365.326080	1.733865	dec_accept	1.733865	16.000000	n/a	2	-1.562500e-01	-1.562500e-01
365.326080	1.733865	dec_social_accept_low	1.733865	16.000000	n/a	2	-1.067708e-01	-1.067708e-01
372.160060	1.266128	dec_social_choice	1.266128	16.000000	n/a	8	2.682292e-01	2.682292e-01
372.160060	1.266128	dec_choice	1.266128	16.000000	n/a	8	2.682292e-01	2.682292e-01
372.160060	1.266128	dec_social_accept	1.266128	16.000000	n/a	8	1.895161e-01	1.895161e-01
372.160060	1.266128	dec_accept	1.266128	16.000000	n/a	8	2.187500e-01	2.187500e-01
372.160060	1.266128	dec_social_accept_high	1.266128	16.000000	n/a	8	2.682292e-01	2.682292e-01
