instrText,stimDoor,stimDoorLure,stimFace,stimFaceLure,Instructions.thisRepN,Instructions.thisTrialN,Instructions.thisN,Instructions.thisIndex,Trials.thisRepN,Trials.thisTrialN,Trials.thisN,Trials.thisIndex,Func,Keys,Text,RespTime,Onset,Offset,SystemTime_Start,SystemTime_Stop,Stim,Lure,Participant*,Age,date,expName,psychopyVersion,frameRate,
"In the earlier Feedback Games, you chose which doors contained a prize, and which peers liked you. 

You then saw positive or negative feedback (green check mark or red X) from the door or peer you selected.

You will now see a series of doors and peers, some of which you saw during the earlier Feedback Games, and some that you have never seen before.

Please press the spacebar to continue.",,,,,0,0,0,0,,,,,instrFunc,space,"In the earlier Feedback Games, you chose which doors contained a prize, and which peers liked you. 

You then saw positive or negative feedback (green check mark or red X) from the door or peer you selected.

You will now see a series of doors and peers, some of which you saw during the earlier Feedback Games, and some that you have never seen before.

Please press the spacebar to continue.",40.729043500032276,15.066334699979052,55.8499438498402,2023-03-18 14:33:39.175721,2023-03-18 14:34:19.949754,,,10596,18-29,2023-03-18_14h33.35.996,Recall,2021.2.3,59.98112990456961,
"For doors/peers that you remember selecting and getting feedback from, your job is to RECALL what feedback you received. 

Press '1' if you recall positive feedback. 

Press '2' if you recall negative feedback

Press the spacebar to continue.",,,,,0,1,1,1,,,,,instrFunc,space,"For doors/peers that you remember selecting and getting feedback from, your job is to RECALL what feedback you received. 

Press '1' if you recall positive feedback. 

Press '2' if you recall negative feedback

Press the spacebar to continue.",17.32887650001794,55.82681259990204,73.20384660980199,2023-03-18 14:34:19.950779,2023-03-18 14:34:37.312386,,,10596,18-29,2023-03-18_14h33.35.996,Recall,2021.2.3,59.98112990456961,
"For doors/peers that you don't remember getting feedback from, your job is to PREDICT what feedback you WOULD HAVE received.

Press '9' if you predict positive feedback.

Press '0' if you predict negative feedback. 

Please press the spacebar to continue.",,,,,0,2,2,2,,,,,instrFunc,space,"For doors/peers that you don't remember getting feedback from, your job is to PREDICT what feedback you WOULD HAVE received.

Press '9' if you predict positive feedback.

Press '0' if you predict negative feedback. 

Please press the spacebar to continue.",17.152893899939954,73.18686129990965,90.38012030988466,2023-03-18 14:34:37.313268,2023-03-18 14:34:54.492126,,,10596,18-29,2023-03-18_14h33.35.996,Recall,2021.2.3,59.98112990456961,
"This task is self-paced, and the prompts will always stay on the screen so that you know which buttons to press.

On the next screen we will show you what those prompts look like, so that you know exactly what to expect. 

You will start with either doors or peers, and then switch halfway through. 

Please press the spacebar to continue.",,,,,0,3,3,3,,,,,instrFunc,space,"This task is self-paced, and the prompts will always stay on the screen so that you know which buttons to press.

On the next screen we will show you what those prompts look like, so that you know exactly what to expect. 

You will start with either doors or peers, and then switch halfway through. 

Please press the spacebar to continue.",4.588180899969302,90.36735549999867,95.00212720991112,2023-03-18 14:34:54.493126,2023-03-18 14:34:59.112344,,,10596,18-29,2023-03-18_14h33.35.996,Recall,2021.2.3,59.98112990456961,
,,,,,,,,,,,,,imgtextFunc,space,"Here is what the screen will look like while you make your ratings.
The green circles remind you to press 1 or 9 for positive feedback.
The red circles remind you to press 2 or 0 for positive feedback.









Please let the experimenter know if you have any questions.

Whenever you're ready, press the spacebar to start the task.",11.84942320000846,95.13033919990994,107.15505100984592,2023-03-18 14:34:59.121322,2023-03-18 14:35:11.138472,,,10596,18-29,2023-03-18_14h33.35.996,Recall,2021.2.3,59.98112990456961,
,DD034.jpg,0,FF034.jpg,0,,,,,0,0,0,33,imgFunc,1,NA,3.7492351999972016,107.1505680999253,111.04609732993413,2023-03-18 14:35:11.174662,2023-03-18 14:35:15.057633,DD034.jpg,0,10596,18-29,2023-03-18_14h33.35.996,Recall,2021.2.3,59.98112990456961,
,L_SD505.jpg,1,L_MF505.jpg,1,,,,,0,1,1,94,imgFunc,2,NA,6.091475800029002,111.00032879994251,117.18887000984978,2023-03-18 14:35:15.065614,2023-03-18 14:35:21.245776,L_SD505.jpg,1,10596,18-29,2023-03-18_14h33.35.996,Recall,2021.2.3,59.98112990456961,
,SD026.jpg,0,MF026.jpg,0,,,,,0,2,2,75,imgFunc,2,NA,1.491179300006479,117.20850900001824,118.80119311006274,2023-03-18 14:35:21.257768,2023-03-18 14:35:22.846604,SD026.jpg,0,10596,18-29,2023-03-18_14h33.35.996,Recall,2021.2.3,59.98112990456961,
,SD035.jpg,0,MF035.jpg,0,,,,,0,3,3,84,imgFunc,9,NA,4.1685171000426635,118.779314699932,123.03461860993411,2023-03-18 14:35:22.853587,2023-03-18 14:35:27.099940,SD035.jpg,0,10596,18-29,2023-03-18_14h33.35.996,Recall,2021.2.3,59.98112990456961,
,SD017.jpg,0,MF017.jpg,0,,,,,0,4,4,66,imgFunc,9,NA,5.229220799985342,123.03850639995653,128.35974400991108,2023-03-18 14:35:27.107943,2023-03-18 14:35:32.420497,SD017.jpg,0,10596,18-29,2023-03-18_14h33.35.996,Recall,2021.2.3,59.98112990456961,
,SD034.jpg,0,MF034.jpg,0,,,,,0,5,5,83,imgFunc,2,NA,3.4059260999783874,128.38188120000996,131.8993022100767,2023-03-18 14:35:32.429475,2023-03-18 14:35:35.939782,SD034.jpg,0,10596,18-29,2023-03-18_14h33.35.996,Recall,2021.2.3,59.98112990456961,
,DD027.jpg,0,FF027.jpg,0,,,,,0,6,6,26,imgFunc,2,NA,2.8014025000156835,131.89035339991096,134.79313440981787,2023-03-18 14:35:35.947762,2023-03-18 14:35:38.841969,DD027.jpg,0,10596,18-29,2023-03-18_14h33.35.996,Recall,2021.2.3,59.98112990456961,
,SD005.jpg,0,MF005.jpg,0,,,,,0,7,7,54,imgFunc,9,NA,2.4934628000482917,134.79830429994036,137.3851654099999,2023-03-18 14:35:38.857928,2023-03-18 14:35:41.443870,SD005.jpg,0,10596,18-29,2023-03-18_14h33.35.996,Recall,2021.2.3,59.98112990456961,
,L_SD507.jpg,1,L_MF507.jpg,1,,,,,0,8,8,96,imgFunc,9,NA,1.2763409999897704,137.37537429993972,138.74546060990542,2023-03-18 14:35:41.450853,2023-03-18 14:35:42.811806,L_SD507.jpg,1,10596,18-29,2023-03-18_14h33.35.996,Recall,2021.2.3,59.98112990456961,
,SD022.jpg,0,MF022.jpg,0,,,,,0,9,9,71,imgFunc,9,NA,1.2683277999749407,138.75113769993186,140.12034120992757,2023-03-18 14:35:42.818789,2023-03-18 14:35:44.178815,SD022.jpg,0,10596,18-29,2023-03-18_14h33.35.996,Recall,2021.2.3,59.98112990456961,
,SD014.jpg,0,MF014.jpg,0,,,,,0,10,10,63,imgFunc,1,NA,3.6596093999687582,140.1119192999322,143.86607161001302,2023-03-18 14:35:44.185760,2023-03-18 14:35:47.931855,SD014.jpg,0,10596,18-29,2023-03-18_14h33.35.996,Recall,2021.2.3,59.98112990456961,
,SD007.jpg,0,MF007.jpg,0,,,,,0,11,11,56,imgFunc,2,NA,1.3731078000273556,143.87039349996485,145.33947500993963,2023-03-18 14:35:47.938836,2023-03-18 14:35:49.398976,SD007.jpg,0,10596,18-29,2023-03-18_14h33.35.996,Recall,2021.2.3,59.98112990456961,
,L_SD502.jpg,1,L_MF502.jpg,1,,,,,0,12,12,91,imgFunc,1,NA,1.651008400018327,145.32864929991774,147.06498520984314,2023-03-18 14:35:49.406954,2023-03-18 14:35:51.134274,L_SD502.jpg,1,10596,18-29,2023-03-18_14h33.35.996,Recall,2021.2.3,59.98112990456961,
,SD021.jpg,0,MF021.jpg,0,,,,,0,13,13,70,imgFunc,9,NA,1.576979500008747,147.07455369993113,148.74395030993037,2023-03-18 14:35:51.141257,2023-03-18 14:35:52.802017,SD021.jpg,0,10596,18-29,2023-03-18_14h33.35.996,Recall,2021.2.3,59.98112990456961,
,DD040.jpg,0,FF040.jpg,0,,,,,0,14,14,39,imgFunc,1,NA,5.163277600076981,148.74459139991086,154.00003040989395,2023-03-18 14:35:52.809023,2023-03-18 14:35:58.055939,DD040.jpg,0,10596,18-29,2023-03-18_14h33.35.996,Recall,2021.2.3,59.98112990456961,
,L_DD509.jpg,1,L_FF509.jpg,1,,,,,0,15,15,48,imgFunc,9,NA,2.56943599996157,154.01008779997937,156.69375230988953,2023-03-18 14:35:58.064917,2023-03-18 14:36:00.741348,L_DD509.jpg,1,10596,18-29,2023-03-18_14h33.35.996,Recall,2021.2.3,59.98112990456961,
,SD039.jpg,0,MF039.jpg,0,,,,,0,16,16,88,imgFunc,1,NA,2.118393099983223,156.69346009998117,158.90181780979037,2023-03-18 14:36:00.754348,2023-03-18 14:36:02.959695,SD039.jpg,0,10596,18-29,2023-03-18_14h33.35.996,Recall,2021.2.3,59.98112990456961,
,DD016.jpg,0,FF016.jpg,0,,,,,0,17,17,15,imgFunc,9,NA,2.389599599991925,158.90223669994157,161.38949321000837,2023-03-18 14:36:02.966678,2023-03-18 14:36:05.444844,DD016.jpg,0,10596,18-29,2023-03-18_14h33.35.996,Recall,2021.2.3,59.98112990456961,
,SD029.jpg,0,MF029.jpg,0,,,,,0,18,18,78,imgFunc,2,NA,2.2676396999740973,161.38401439995505,163.75394680991303,2023-03-18 14:36:05.451827,2023-03-18 14:36:07.813346,SD029.jpg,0,10596,18-29,2023-03-18_14h33.35.996,Recall,2021.2.3,59.98112990456961,
,L_SD510.jpg,1,L_MF510.jpg,1,,,,,0,19,19,99,imgFunc,0,NA,1.6331222000299022,163.76264639990404,165.4989899098873,2023-03-18 14:36:07.820329,2023-03-18 14:36:09.547985,L_SD510.jpg,1,10596,18-29,2023-03-18_14h33.35.996,Recall,2021.2.3,59.98112990456961,
,SD040.jpg,0,MF040.jpg,0,,,,,0,20,20,89,imgFunc,9,NA,2.5466081999475136,165.48886689997744,168.12595380994026,2023-03-18 14:36:09.554968,2023-03-18 14:36:12.183140,SD040.jpg,0,10596,18-29,2023-03-18_14h33.35.996,Recall,2021.2.3,59.98112990456961,
,DD009.jpg,0,FF009.jpg,0,,,,,0,21,21,8,imgFunc,9,NA,1.8214461000170559,168.14245739998296,170.0644203099655,2023-03-18 14:36:12.197985,2023-03-18 14:36:14.118224,DD009.jpg,0,10596,18-29,2023-03-18_14h33.35.996,Recall,2021.2.3,59.98112990456961,
,SD031.jpg,0,MF031.jpg,0,,,,,0,22,22,80,imgFunc,2,NA,2.5549794000107795,170.05694729997776,172.7097575099906,2023-03-18 14:36:14.125209,2023-03-18 14:36:16.770133,SD031.jpg,0,10596,18-29,2023-03-18_14h33.35.996,Recall,2021.2.3,59.98112990456961,
,DD014.jpg,0,FF014.jpg,0,,,,,0,23,23,13,imgFunc,2,NA,1.0590143000008538,172.71268289990257,173.86513650987763,2023-03-18 14:36:16.777116,2023-03-18 14:36:17.920891,DD014.jpg,0,10596,18-29,2023-03-18_14h33.35.996,Recall,2021.2.3,59.98112990456961,
,SD015.jpg,0,MF015.jpg,0,,,,,0,24,24,64,imgFunc,9,NA,1.6483645000262186,173.8593363999389,175.59582700987812,2023-03-18 14:36:17.927874,2023-03-18 14:36:19.655563,SD015.jpg,0,10596,18-29,2023-03-18_14h33.35.996,Recall,2021.2.3,59.98112990456961,
,L_SD504.jpg,1,L_MF504.jpg,1,,,,,0,25,25,93,imgFunc,9,NA,1.307034199940972,175.60073750000447,177.00345361011568,2023-03-18 14:36:19.662546,2023-03-18 14:36:21.056489,L_SD504.jpg,1,10596,18-29,2023-03-18_14h33.35.996,Recall,2021.2.3,59.98112990456961,
,DD001.jpg,0,FF001.jpg,0,,,,,0,26,26,0,imgFunc,1,NA,1.8577032999601215,177.01009719993453,178.9651607098058,2023-03-18 14:36:21.070476,2023-03-18 14:36:23.024575,DD001.jpg,0,10596,18-29,2023-03-18_14h33.35.996,Recall,2021.2.3,59.98112990456961,
,L_SD509.jpg,1,L_MF509.jpg,1,,,,,0,27,27,98,imgFunc,9,NA,1.9964620000682771,178.9593840999296,181.04604350985028,2023-03-18 14:36:23.031558,2023-03-18 14:36:25.109440,L_SD509.jpg,1,10596,18-29,2023-03-18_14h33.35.996,Recall,2021.2.3,59.98112990456961,
,DD022.jpg,0,FF022.jpg,0,,,,,0,28,28,21,imgFunc,9,NA,3.5212743999436498,181.05028229998425,184.67091151012573,2023-03-18 14:36:25.116423,2023-03-18 14:36:28.728788,DD022.jpg,0,10596,18-29,2023-03-18_14h33.35.996,Recall,2021.2.3,59.98112990456961,
,DD039.jpg,0,FF039.jpg,0,,,,,0,29,29,38,imgFunc,1,NA,1.1502943999366835,184.66127619997133,185.8963180099381,2023-03-18 14:36:28.735799,2023-03-18 14:36:29.962565,DD039.jpg,0,10596,18-29,2023-03-18_14h33.35.996,Recall,2021.2.3,59.98112990456961,
,DD024.jpg,0,FF024.jpg,0,,,,,0,30,30,23,imgFunc,9,NA,2.7243325000163168,185.89534289995208,188.71541830978822,2023-03-18 14:36:29.970504,2023-03-18 14:36:32.781840,DD024.jpg,0,10596,18-29,2023-03-18_14h33.35.996,Recall,2021.2.3,59.98112990456961,
,SD009.jpg,0,MF009.jpg,0,,,,,0,31,31,58,imgFunc,9,NA,3.849729000008665,188.71410829992965,192.65238120988943,2023-03-18 14:36:32.788823,2023-03-18 14:36:36.718070,SD009.jpg,0,10596,18-29,2023-03-18_14h33.35.996,Recall,2021.2.3,59.98112990456961,
,DD035.jpg,0,FF035.jpg,0,,,,,0,32,32,34,imgFunc,2,NA,3.300973100005649,192.6546432999894,196.04184611001983,2023-03-18 14:36:36.725054,2023-03-18 14:36:40.104029,DD035.jpg,0,10596,18-29,2023-03-18_14h33.35.996,Recall,2021.2.3,59.98112990456961,
,SD012.jpg,0,MF012.jpg,0,,,,,0,33,33,61,imgFunc,1,NA,1.3433708999073133,196.05251579999458,197.50545070995577,2023-03-18 14:36:40.111012,2023-03-18 14:36:41.554991,SD012.jpg,0,10596,18-29,2023-03-18_14h33.35.996,Recall,2021.2.3,59.98112990456961,
,SD038.jpg,0,MF038.jpg,0,,,,,0,34,34,87,imgFunc,9,NA,1.5274531999602914,197.50042599998415,199.13633580994792,2023-03-18 14:36:41.561974,2023-03-18 14:36:43.189502,SD038.jpg,0,10596,18-29,2023-03-18_14h33.35.996,Recall,2021.2.3,59.98112990456961,
,SD011.jpg,0,MF011.jpg,0,,,,,0,35,35,60,imgFunc,9,NA,1.4127169999992475,199.13521360000595,200.64377390989102,2023-03-18 14:36:43.202470,2023-03-18 14:36:44.707339,SD011.jpg,0,10596,18-29,2023-03-18_14h33.35.996,Recall,2021.2.3,59.98112990456961,
,DD019.jpg,0,FF019.jpg,0,,,,,0,36,36,18,imgFunc,0,NA,2.127524000010453,200.6443940999452,202.8642887098249,2023-03-18 14:36:44.714324,2023-03-18 14:36:46.925610,DD019.jpg,0,10596,18-29,2023-03-18_14h33.35.996,Recall,2021.2.3,59.98112990456961,
,SD025.jpg,0,MF025.jpg,0,,,,,0,37,37,74,imgFunc,1,NA,1.8635042000096291,202.86834859999362,204.83807551010977,2023-03-18 14:36:46.932593,2023-03-18 14:36:48.893768,SD025.jpg,0,10596,18-29,2023-03-18_14h33.35.996,Recall,2021.2.3,59.98112990456961,
,SD024.jpg,0,MF024.jpg,0,,,,,0,38,38,73,imgFunc,0,NA,1.754086000029929,204.83384239999577,206.6868698099861,2023-03-18 14:36:48.900752,2023-03-18 14:36:50.745121,SD024.jpg,0,10596,18-29,2023-03-18_14h33.35.996,Recall,2021.2.3,59.98112990456961,
,SD032.jpg,0,MF032.jpg,0,,,,,0,39,39,81,imgFunc,9,NA,1.7839314000448212,206.6839297999395,208.57045940984972,2023-03-18 14:36:50.752105,2023-03-18 14:36:52.629831,SD032.jpg,0,10596,18-29,2023-03-18_14h33.35.996,Recall,2021.2.3,59.98112990456961,
,DD038.jpg,0,FF038.jpg,0,,,,,0,40,40,37,imgFunc,9,NA,1.5038352000992745,208.57212009991053,210.16172070987523,2023-03-18 14:36:52.643796,2023-03-18 14:36:54.231143,DD038.jpg,0,10596,18-29,2023-03-18_14h33.35.996,Recall,2021.2.3,59.98112990456961,
,SD016.jpg,0,MF016.jpg,0,,,,,0,41,41,65,imgFunc,9,NA,1.2899518000194803,210.1616917999927,211.5467286099447,2023-03-18 14:36:54.239124,2023-03-18 14:36:55.615185,SD016.jpg,0,10596,18-29,2023-03-18_14h33.35.996,Recall,2021.2.3,59.98112990456961,
,DD030.jpg,0,FF030.jpg,0,,,,,0,42,42,29,imgFunc,9,NA,1.240057099959813,211.555939199985,212.89202740998007,2023-03-18 14:36:55.622168,2023-03-18 14:36:56.949497,DD030.jpg,0,10596,18-29,2023-03-18_14h33.35.996,Recall,2021.2.3,59.98112990456961,
,DD018.jpg,0,FF018.jpg,0,,,,,0,43,43,17,imgFunc,1,NA,1.359168800059706,212.8846972999163,214.33787700987887,2023-03-18 14:36:56.956480,2023-03-18 14:36:58.400680,DD018.jpg,0,10596,18-29,2023-03-18_14h33.35.996,Recall,2021.2.3,59.98112990456961,
,DD005.jpg,0,FF005.jpg,0,,,,,0,44,44,4,imgFunc,0,NA,1.3139542000135407,214.3380385999335,215.74096290988382,2023-03-18 14:36:58.407663,2023-03-18 14:36:59.801551,DD005.jpg,0,10596,18-29,2023-03-18_14h33.35.996,Recall,2021.2.3,59.98112990456961,
,SD001.jpg,0,MF001.jpg,0,,,,,0,45,45,50,imgFunc,0,NA,0.9233124000020325,215.75253489997704,216.7743477099575,2023-03-18 14:36:59.815539,2023-03-18 14:37:00.835881,SD001.jpg,0,10596,18-29,2023-03-18_14h33.35.996,Recall,2021.2.3,59.98112990456961,
,SD019.jpg,0,MF019.jpg,0,,,,,0,46,46,68,imgFunc,0,NA,1.5789529999019578,216.76891360001173,218.4387492099777,2023-03-18 14:37:00.842864,2023-03-18 14:37:02.503797,SD019.jpg,0,10596,18-29,2023-03-18_14h33.35.996,Recall,2021.2.3,59.98112990456961,
,SD006.jpg,0,MF006.jpg,0,,,,,0,47,47,55,imgFunc,1,NA,1.596473400015384,218.4314366999315,220.11799360986333,2023-03-18 14:37:02.510780,2023-03-18 14:37:04.188358,SD006.jpg,0,10596,18-29,2023-03-18_14h33.35.996,Recall,2021.2.3,59.98112990456961,
,DD004.jpg,0,FF004.jpg,0,,,,,0,48,48,3,imgFunc,9,NA,1.9900280999718234,220.12597809999716,222.21267110994086,2023-03-18 14:37:04.195341,2023-03-18 14:37:06.273045,DD004.jpg,0,10596,18-29,2023-03-18_14h33.35.996,Recall,2021.2.3,59.98112990456961,
,SD003.jpg,0,MF003.jpg,0,,,,,0,49,49,52,imgFunc,9,NA,1.5398198999464512,222.21567429997958,223.8518642099807,2023-03-18 14:37:06.280028,2023-03-18 14:37:07.907558,SD003.jpg,0,10596,18-29,2023-03-18_14h33.35.996,Recall,2021.2.3,59.98112990456961,
,DD026.jpg,0,FF026.jpg,0,,,,,0,50,50,25,imgFunc,0,NA,1.6957126000197604,223.85188939992804,225.6529929098906,2023-03-18 14:37:07.915536,2023-03-18 14:37:09.708840,DD026.jpg,0,10596,18-29,2023-03-18_14h33.35.996,Recall,2021.2.3,59.98112990456961,
,SD002.jpg,0,MF002.jpg,0,,,,,0,51,51,51,imgFunc,0,NA,0.10348039993550628,225.63614119996782,225.82076330995187,2023-03-18 14:37:09.715804,2023-03-18 14:37:09.892311,SD002.jpg,0,10596,18-29,2023-03-18_14h33.35.996,Recall,2021.2.3,59.98112990456961,
,DD020.jpg,0,FF020.jpg,0,,,,,0,52,52,19,imgFunc,2,NA,3.112038300023414,225.82759389991406,229.0317773098359,2023-03-18 14:37:09.899292,2023-03-18 14:37:13.094841,DD020.jpg,0,10596,18-29,2023-03-18_14h33.35.996,Recall,2021.2.3,59.98112990456961,
,DD011.jpg,0,FF011.jpg,0,,,,,0,53,53,10,imgFunc,2,NA,1.2019040000159293,229.02596429991536,230.3119396099355,2023-03-18 14:37:13.101853,2023-03-18 14:37:14.379152,DD011.jpg,0,10596,18-29,2023-03-18_14h33.35.996,Recall,2021.2.3,59.98112990456961,
,L_DD505.jpg,1,L_FF505.jpg,1,,,,,0,54,54,44,imgFunc,9,NA,1.556286899955012,230.31969689996913,231.96129860996734,2023-03-18 14:37:14.392119,2023-03-18 14:37:16.030393,L_DD505.jpg,1,10596,18-29,2023-03-18_14h33.35.996,Recall,2021.2.3,59.98112990456961,
,DD002.jpg,0,FF002.jpg,0,,,,,0,55,55,1,imgFunc,9,NA,1.0598500000778586,231.96011529990938,233.1124326098943,2023-03-18 14:37:16.037399,2023-03-18 14:37:17.181336,DD002.jpg,0,10596,18-29,2023-03-18_14h33.35.996,Recall,2021.2.3,59.98112990456961,
,DD031.jpg,0,FF031.jpg,0,,,,,0,56,56,30,imgFunc,0,NA,0.8568776999600232,233.11496419995092,234.06743790989276,2023-03-18 14:37:17.188319,2023-03-18 14:37:18.132033,DD031.jpg,0,10596,18-29,2023-03-18_14h33.35.996,Recall,2021.2.3,59.98112990456961,
,SD027.jpg,0,MF027.jpg,0,,,,,0,57,57,76,imgFunc,2,NA,3.3861538999481127,234.06561910000164,237.53567761008162,2023-03-18 14:37:18.140044,2023-03-18 14:37:21.601393,SD027.jpg,0,10596,18-29,2023-03-18_14h33.35.996,Recall,2021.2.3,59.98112990456961,
,SD030.jpg,0,MF030.jpg,0,,,,,0,58,58,79,imgFunc,2,NA,0.17738910007756203,237.5544923999114,237.83782470982987,2023-03-18 14:37:21.609370,2023-03-18 14:37:21.884819,SD030.jpg,0,10596,18-29,2023-03-18_14h33.35.996,Recall,2021.2.3,59.98112990456961,
,DD003.jpg,0,FF003.jpg,0,,,,,0,59,59,2,imgFunc,9,NA,1.3201324000256136,237.82762549992185,239.23315220989753,2023-03-18 14:37:21.898784,2023-03-18 14:37:23.302488,DD003.jpg,0,10596,18-29,2023-03-18_14h33.35.996,Recall,2021.2.3,59.98112990456961,
,DD023.jpg,0,FF023.jpg,0,,,,,0,60,60,22,imgFunc,9,NA,1.4117349999723956,239.23213719995692,240.73536560987122,2023-03-18 14:37:23.309472,2023-03-18 14:37:24.803544,DD023.jpg,0,10596,18-29,2023-03-18_14h33.35.996,Recall,2021.2.3,59.98112990456961,
,SD036.jpg,0,MF036.jpg,0,,,,,0,61,61,85,imgFunc,1,NA,1.336969199939631,240.74692119995598,242.18276630993932,2023-03-18 14:37:24.810527,2023-03-18 14:37:26.237776,SD036.jpg,0,10596,18-29,2023-03-18_14h33.35.996,Recall,2021.2.3,59.98112990456961,
,L_SD506.jpg,1,L_MF506.jpg,1,,,,,0,62,62,95,imgFunc,1,NA,1.5222793000284582,242.18569989991374,243.82269520987757,2023-03-18 14:37:26.244760,2023-03-18 14:37:27.872522,L_SD506.jpg,1,10596,18-29,2023-03-18_14h33.35.996,Recall,2021.2.3,59.98112990456961,
,SD033.jpg,0,MF033.jpg,0,,,,,0,63,63,82,imgFunc,1,NA,1.3788613999495283,243.80907690001186,245.27878080995288,2023-03-18 14:37:27.879505,2023-03-18 14:37:29.340327,SD033.jpg,0,10596,18-29,2023-03-18_14h33.35.996,Recall,2021.2.3,59.98112990456961,
,DD012.jpg,0,FF012.jpg,0,,,,,0,64,64,11,imgFunc,0,NA,2.467581299948506,245.28867969999555,247.85630521993153,2023-03-18 14:37:29.357284,2023-03-18 14:37:31.908134,DD012.jpg,0,10596,18-29,2023-03-18_14h33.35.996,Recall,2021.2.3,59.98112990456961,
,SD013.jpg,0,MF013.jpg,0,,,,,0,65,65,62,imgFunc,2,NA,2.7062570999842137,247.84166659996845,250.64476090995595,2023-03-18 14:37:31.916140,2023-03-18 14:37:34.710860,SD013.jpg,0,10596,18-29,2023-03-18_14h33.35.996,Recall,2021.2.3,59.98112990456961,
,SD028.jpg,0,MF028.jpg,0,,,,,0,66,66,77,imgFunc,9,NA,2.549232800025493,250.6547710999148,253.30857550981455,2023-03-18 14:37:34.717843,2023-03-18 14:37:37.362884,SD028.jpg,0,10596,18-29,2023-03-18_14h33.35.996,Recall,2021.2.3,59.98112990456961,
,L_DD508.jpg,1,L_FF508.jpg,1,,,,,0,67,67,47,imgFunc,9,NA,12.874568699975498,253.31311170000117,266.2883438100107,2023-03-18 14:37:37.370865,2023-03-18 14:37:50.338776,L_DD508.jpg,1,10596,18-29,2023-03-18_14h33.35.996,Recall,2021.2.3,59.98112990456961,
,DD025.jpg,0,FF025.jpg,0,,,,,0,68,68,24,imgFunc,0,NA,1.2730166000546888,266.3066547999624,267.7064357100753,2023-03-18 14:37:50.347714,2023-03-18 14:37:51.740033,DD025.jpg,0,10596,18-29,2023-03-18_14h33.35.996,Recall,2021.2.3,59.98112990456961,
,DD029.jpg,0,FF029.jpg,0,,,,,0,69,69,28,imgFunc,0,NA,1.624323100084439,267.6674141999101,269.3699458098272,2023-03-18 14:37:51.747014,2023-03-18 14:37:53.440537,DD029.jpg,0,10596,18-29,2023-03-18_14h33.35.996,Recall,2021.2.3,59.98112990456961,
,L_SD503.jpg,1,L_MF503.jpg,1,,,,,0,70,70,92,imgFunc,0,NA,1.8997675999999046,269.36797099991236,271.3543603097787,2023-03-18 14:37:53.448515,2023-03-18 14:37:55.425327,L_SD503.jpg,1,10596,18-29,2023-03-18_14h33.35.996,Recall,2021.2.3,59.98112990456961,
,DD013.jpg,0,FF013.jpg,0,,,,,0,71,71,12,imgFunc,1,NA,1.561009999946691,271.3550012999913,273.0075566099258,2023-03-18 14:37:55.433267,2023-03-18 14:37:57.077631,DD013.jpg,0,10596,18-29,2023-03-18_14h33.35.996,Recall,2021.2.3,59.98112990456961,
,SD020.jpg,0,MF020.jpg,0,,,,,0,72,72,69,imgFunc,1,NA,1.6155270000454038,273.0203542999225,274.73674610990565,2023-03-18 14:37:57.086609,2023-03-18 14:37:58.795420,SD020.jpg,0,10596,18-29,2023-03-18_14h33.35.996,Recall,2021.2.3,59.98112990456961,
,DD033.jpg,0,FF033.jpg,0,,,,,0,73,73,32,imgFunc,9,NA,1.208426299970597,274.73127019999083,276.0227889100788,2023-03-18 14:37:58.808387,2023-03-18 14:38:00.095586,DD033.jpg,0,10596,18-29,2023-03-18_14h33.35.996,Recall,2021.2.3,59.98112990456961,
,L_DD502.jpg,1,L_FF502.jpg,1,,,,,0,74,74,41,imgFunc,1,NA,1.6951851999619976,276.02891230001114,277.8155390099855,2023-03-18 14:38:00.103561,2023-03-18 14:38:01.880995,L_DD502.jpg,1,10596,18-29,2023-03-18_14h33.35.996,Recall,2021.2.3,59.98112990456961,
,SD010.jpg,0,MF010.jpg,0,,,,,0,75,75,59,imgFunc,1,NA,1.0045188000658527,277.8152206999948,278.9168866100954,2023-03-18 14:38:01.887978,2023-03-18 14:38:02.981531,SD010.jpg,0,10596,18-29,2023-03-18_14h33.35.996,Recall,2021.2.3,59.98112990456961,
,DD017.jpg,0,FF017.jpg,0,,,,,0,76,76,16,imgFunc,1,NA,1.1370465999934822,278.9225704999408,280.15387580986135,2023-03-18 14:38:02.991504,2023-03-18 14:38:04.215867,DD017.jpg,0,10596,18-29,2023-03-18_14h33.35.996,Recall,2021.2.3,59.98112990456961,
,SD018.jpg,0,MF018.jpg,0,,,,,0,77,77,67,imgFunc,1,NA,2.202663499978371,280.1533537999494,282.4552443099674,2023-03-18 14:38:04.223845,2023-03-18 14:38:06.517772,SD018.jpg,0,10596,18-29,2023-03-18_14h33.35.996,Recall,2021.2.3,59.98112990456961,
,DD021.jpg,0,FF021.jpg,0,,,,,0,78,78,20,imgFunc,9,NA,1.3401228000875562,282.4558953999076,283.8774253097363,2023-03-18 14:38:06.531737,2023-03-18 14:38:07.952181,DD021.jpg,0,10596,18-29,2023-03-18_14h33.35.996,Recall,2021.2.3,59.98112990456961,
,DD036.jpg,0,FF036.jpg,0,,,,,0,79,79,35,imgFunc,9,NA,2.25635419995524,283.88363799999934,286.23690061003435,2023-03-18 14:38:07.959164,2023-03-18 14:38:10.303925,DD036.jpg,0,10596,18-29,2023-03-18_14h33.35.996,Recall,2021.2.3,59.98112990456961,
,L_DD501.jpg,1,L_FF501.jpg,1,,,,,0,80,80,40,imgFunc,1,NA,1.2284438000060618,286.23159149999265,287.551067209919,2023-03-18 14:38:10.310908,2023-03-18 14:38:11.621576,L_DD501.jpg,1,10596,18-29,2023-03-18_14h33.35.996,Recall,2021.2.3,59.98112990456961,
,L_DD504.jpg,1,L_FF504.jpg,1,,,,,0,81,81,43,imgFunc,9,NA,2.1807508999481797,287.55927490000613,289.82966040994506,2023-03-18 14:38:11.628559,2023-03-18 14:38:13.890143,L_DD504.jpg,1,10596,18-29,2023-03-18_14h33.35.996,Recall,2021.2.3,59.98112990456961,
,SD004.jpg,0,MF004.jpg,0,,,,,0,82,82,53,imgFunc,9,NA,2.3413028999930248,289.8307818999747,292.2673797099851,2023-03-18 14:38:13.897126,2023-03-18 14:38:16.324955,SD004.jpg,0,10596,18-29,2023-03-18_14h33.35.996,Recall,2021.2.3,59.98112990456961,
,DD008.jpg,0,FF008.jpg,0,,,,,0,83,83,7,imgFunc,1,NA,1.2962169999955222,292.2597767999396,293.6322940099053,2023-03-18 14:38:16.338920,2023-03-18 14:38:17.709427,DD008.jpg,0,10596,18-29,2023-03-18_14h33.35.996,Recall,2021.2.3,59.98112990456961,
,L_DD506.jpg,1,L_FF506.jpg,1,,,,,0,84,84,45,imgFunc,0,NA,1.606234300066717,293.6456889999099,295.3457252099179,2023-03-18 14:38:17.718405,2023-03-18 14:38:19.410641,L_DD506.jpg,1,10596,18-29,2023-03-18_14h33.35.996,Recall,2021.2.3,59.98112990456961,
,DD010.jpg,0,FF010.jpg,0,,,,,0,85,85,9,imgFunc,1,NA,1.5179223999148235,295.3421567999758,296.94533001002856,2023-03-18 14:38:19.417625,2023-03-18 14:38:21.011725,DD010.jpg,0,10596,18-29,2023-03-18_14h33.35.996,Recall,2021.2.3,59.98112990456961,
,L_DD503.jpg,1,L_FF503.jpg,1,,,,,0,86,86,42,imgFunc,9,NA,1.5993944999063388,296.94840210000984,298.6515777099412,2023-03-18 14:38:21.018708,2023-03-18 14:38:22.713168,L_DD503.jpg,1,10596,18-29,2023-03-18_14h33.35.996,Recall,2021.2.3,59.98112990456961,
,DD037.jpg,0,FF037.jpg,0,,,,,0,87,87,36,imgFunc,9,NA,2.0448358999565244,298.65516219998244,300.8023204099154,2023-03-18 14:38:22.723143,2023-03-18 14:38:24.864598,DD037.jpg,0,10596,18-29,2023-03-18_14h33.35.996,Recall,2021.2.3,59.98112990456961,
,DD015.jpg,0,FF015.jpg,0,,,,,0,88,88,14,imgFunc,0,NA,1.8386976999463513,300.7971669000108,302.7342775100842,2023-03-18 14:38:24.871581,2023-03-18 14:38:26.799461,DD015.jpg,0,10596,18-29,2023-03-18_14h33.35.996,Recall,2021.2.3,59.98112990456961,
,L_DD510.jpg,1,L_FF510.jpg,1,,,,,0,89,89,49,imgFunc,1,NA,1.6568533000536263,302.7309594999533,304.4806470100302,2023-03-18 14:38:26.808439,2023-03-18 14:38:28.550748,L_DD510.jpg,1,10596,18-29,2023-03-18_14h33.35.996,Recall,2021.2.3,59.98112990456961,
,SD023.jpg,0,MF023.jpg,0,,,,,0,90,90,72,imgFunc,1,NA,2.539825599989854,304.47991699993145,307.11695420986507,2023-03-18 14:38:28.557731,2023-03-18 14:38:31.186133,SD023.jpg,0,10596,18-29,2023-03-18_14h33.35.996,Recall,2021.2.3,59.98112990456961,
,DD032.jpg,0,FF032.jpg,0,,,,,0,91,91,31,imgFunc,1,NA,1.113937999936752,307.12189569999464,308.3245225100545,2023-03-18 14:38:31.193116,2023-03-18 14:38:32.386078,DD032.jpg,0,10596,18-29,2023-03-18_14h33.35.996,Recall,2021.2.3,59.98112990456961,
,DD007.jpg,0,FF007.jpg,0,,,,,0,92,92,6,imgFunc,2,NA,1.1004511999199167,308.32728119997773,309.5175683100242,2023-03-18 14:38:32.400039,2023-03-18 14:38:33.586904,DD007.jpg,0,10596,18-29,2023-03-18_14h33.35.996,Recall,2021.2.3,59.98112990456961,
,DD028.jpg,0,FF028.jpg,0,,,,,0,93,93,27,imgFunc,1,NA,1.2037290000589564,309.51205229992047,310.79753460991196,2023-03-18 14:38:33.594880,2023-03-18 14:38:34.871506,DD028.jpg,0,10596,18-29,2023-03-18_14h33.35.996,Recall,2021.2.3,59.98112990456961,
,SD008.jpg,0,MF008.jpg,0,,,,,0,94,94,57,imgFunc,9,NA,1.5354476999491453,310.7963080999907,312.4158319099806,2023-03-18 14:38:34.878485,2023-03-18 14:38:36.489264,SD008.jpg,0,10596,18-29,2023-03-18_14h33.35.996,Recall,2021.2.3,59.98112990456961,
,SD037.jpg,0,MF037.jpg,0,,,,,0,95,95,86,imgFunc,0,NA,2.392361000063829,312.4196440000087,314.90608511003666,2023-03-18 14:38:36.497206,2023-03-18 14:38:38.975019,SD037.jpg,0,10596,18-29,2023-03-18_14h33.35.996,Recall,2021.2.3,59.98112990456961,
,L_SD501.jpg,1,L_MF501.jpg,1,,,,,0,96,96,90,imgFunc,0,NA,0.934695600066334,314.9093616999453,315.94487260992173,2023-03-18 14:38:38.982029,2023-03-18 14:38:40.009218,L_SD501.jpg,1,10596,18-29,2023-03-18_14h33.35.996,Recall,2021.2.3,59.98112990456961,
,DD006.jpg,0,FF006.jpg,0,,,,,0,97,97,5,imgFunc,9,NA,1.934314800077118,315.9497642999049,317.97320510982536,2023-03-18 14:38:40.023183,2023-03-18 14:38:42.044124,DD006.jpg,0,10596,18-29,2023-03-18_14h33.35.996,Recall,2021.2.3,59.98112990456961,
,L_SD508.jpg,1,L_MF508.jpg,1,,,,,0,98,98,97,imgFunc,9,NA,1.9024422999937087,317.9736095999833,319.95711811003275,2023-03-18 14:38:42.053103,2023-03-18 14:38:44.028661,L_SD508.jpg,1,10596,18-29,2023-03-18_14h33.35.996,Recall,2021.2.3,59.98112990456961,
,L_DD507.jpg,1,L_FF507.jpg,1,,,,,0,99,99,46,imgFunc,1,NA,1.1809463000390679,319.9591667999048,321.2287482098909,2023-03-18 14:38:44.035645,2023-03-18 14:38:45.296658,L_DD507.jpg,1,10596,18-29,2023-03-18_14h33.35.996,Recall,2021.2.3,59.98112990456961,
,,,,,,,,,,,,,instrFunc,space,"Great work! 

 Now you will switch to the other image type.

 Press the spacebar whenever you are ready to start.",1.8175031000282615,321.1623408999294,323.0113936099224,2023-03-18 14:38:45.296658,2023-03-18 14:38:47.130742,,,10596,18-29,2023-03-18_14h33.35.996,Recall,2021.2.3,59.98112990456961,
,DD038.jpg,0,FF038.jpg,0,,,,,0,0,0,37,imgFunc,1,NA,2.3703917999519035,323.0897839999525,325.5547091199551,2023-03-18 14:38:47.157672,2023-03-18 14:38:49.616244,FF038.jpg,0,10596,18-29,2023-03-18_14h33.35.996,Recall,2021.2.3,59.98112990456961,
,SD025.jpg,0,MF025.jpg,0,,,,,0,1,1,74,imgFunc,9,NA,1.4452341999858618,325.5589310999494,327.11200590990484,2023-03-18 14:38:49.623249,2023-03-18 14:38:51.167441,MF025.jpg,0,10596,18-29,2023-03-18_14h33.35.996,Recall,2021.2.3,59.98112990456961,
,SD020.jpg,0,MF020.jpg,0,,,,,0,2,2,69,imgFunc,9,NA,1.9203998000593856,327.1153905999381,329.1517192099709,2023-03-18 14:38:51.174424,2023-03-18 14:38:53.202289,MF020.jpg,0,10596,18-29,2023-03-18_14h33.35.996,Recall,2021.2.3,59.98112990456961,
,DD021.jpg,0,FF021.jpg,0,,,,,0,3,3,20,imgFunc,9,NA,1.9529377000872046,329.1551528999116,331.21664441004395,2023-03-18 14:38:53.213262,2023-03-18 14:38:55.270383,FF021.jpg,0,10596,18-29,2023-03-18_14h33.35.996,Recall,2021.2.3,59.98112990456961,
,L_SD509.jpg,1,L_MF509.jpg,1,,,,,0,4,4,98,imgFunc,0,NA,1.3518185999710113,331.2042377999751,332.657649509958,2023-03-18 14:38:55.277366,2023-03-18 14:38:56.721533,L_MF509.jpg,1,10596,18-29,2023-03-18_14h33.35.996,Recall,2021.2.3,59.98112990456961,
,DD015.jpg,0,FF015.jpg,0,,,,,0,5,5,14,imgFunc,9,NA,2.395787199959159,332.66430790000595,335.16811281000264,2023-03-18 14:38:56.728519,2023-03-18 14:38:59.223400,FF015.jpg,0,10596,18-29,2023-03-18_14h33.35.996,Recall,2021.2.3,59.98112990456961,
,DD004.jpg,0,FF004.jpg,0,,,,,0,6,6,3,imgFunc,2,NA,1.3489559999434277,335.17486749996897,336.643930810038,2023-03-18 14:38:59.230383,2023-03-18 14:39:00.691140,FF004.jpg,0,10596,18-29,2023-03-18_14h33.35.996,Recall,2021.2.3,59.98112990456961,
,SD033.jpg,0,MF033.jpg,0,,,,,0,7,7,82,imgFunc,2,NA,1.3348288999404758,336.6531774000032,338.1062869100133,2023-03-18 14:39:00.698123,2023-03-18 14:39:02.142234,MF033.jpg,0,10596,18-29,2023-03-18_14h33.35.996,Recall,2021.2.3,59.98112990456961,
,SD024.jpg,0,MF024.jpg,0,,,,,0,8,8,73,imgFunc,9,NA,2.0697453999891877,338.09438299993053,340.2802682099864,2023-03-18 14:39:02.150215,2023-03-18 14:39:04.327145,MF024.jpg,0,10596,18-29,2023-03-18_14h33.35.996,Recall,2021.2.3,59.98112990456961,
,DD002.jpg,0,FF002.jpg,0,,,,,0,9,9,1,imgFunc,9,NA,3.684653100091964,340.27940200001467,344.08305440994445,2023-03-18 14:39:04.334983,2023-03-18 14:39:08.129970,FF002.jpg,0,10596,18-29,2023-03-18_14h33.35.996,Recall,2021.2.3,59.98112990456961,
,DD011.jpg,0,FF011.jpg,0,,,,,0,10,10,10,imgFunc,9,NA,6.537618900067173,344.06625419994816,350.70617110980675,2023-03-18 14:39:08.136953,2023-03-18 14:39:14.768206,FF011.jpg,0,10596,18-29,2023-03-18_14h33.35.996,Recall,2021.2.3,59.98112990456961,
,SD002.jpg,0,MF002.jpg,0,,,,,0,11,11,51,imgFunc,9,NA,1.5768530999775976,350.72303230001125,352.4047153099673,2023-03-18 14:39:14.777204,2023-03-18 14:39:16.452785,MF002.jpg,0,10596,18-29,2023-03-18_14h33.35.996,Recall,2021.2.3,59.98112990456961,
,SD027.jpg,0,MF027.jpg,0,,,,,0,12,12,76,imgFunc,9,NA,1.108483299962245,352.3993359999731,353.6049319100566,2023-03-18 14:39:16.466742,2023-03-18 14:39:17.669571,MF027.jpg,0,10596,18-29,2023-03-18_14h33.35.996,Recall,2021.2.3,59.98112990456961,
,L_DD501.jpg,1,L_FF501.jpg,1,,,,,0,13,13,40,imgFunc,0,NA,1.0297685000114143,353.60606729995925,354.7251116099069,2023-03-18 14:39:17.677513,2023-03-18 14:39:18.787613,L_FF501.jpg,1,10596,18-29,2023-03-18_14h33.35.996,Recall,2021.2.3,59.98112990456961,
,DD010.jpg,0,FF010.jpg,0,,,,,0,14,14,9,imgFunc,9,NA,2.5689565999200568,354.72317000001203,357.39370171003975,2023-03-18 14:39:18.794590,2023-03-18 14:39:21.456502,FF010.jpg,0,10596,18-29,2023-03-18_14h33.35.996,Recall,2021.2.3,59.98112990456961,
,SD006.jpg,0,MF006.jpg,0,,,,,0,15,15,55,imgFunc,9,NA,2.1024793999968097,357.39759179996327,359.60121030989103,2023-03-18 14:39:21.463485,2023-03-18 14:39:23.658158,MF006.jpg,0,10596,18-29,2023-03-18_14h33.35.996,Recall,2021.2.3,59.98112990456961,
,DD006.jpg,0,FF006.jpg,0,,,,,0,16,16,5,imgFunc,1,NA,1.752172700013034,359.5958539999556,361.4491523099132,2023-03-18 14:39:23.665142,2023-03-18 14:39:25.509508,FF006.jpg,0,10596,18-29,2023-03-18_14h33.35.996,Recall,2021.2.3,59.98112990456961,
,L_SD506.jpg,1,L_MF506.jpg,1,,,,,0,17,17,95,imgFunc,1,NA,5.3137535999994725,361.46627390000504,366.8906817098614,2023-03-18 14:39:25.523473,2023-03-18 14:39:30.946856,L_MF506.jpg,1,10596,18-29,2023-03-18_14h33.35.996,Recall,2021.2.3,59.98112990456961,
,DD008.jpg,0,FF008.jpg,0,,,,,0,18,18,7,imgFunc,1,NA,1.4962798999622464,366.8997478999663,368.49787110986654,2023-03-18 14:39:30.956832,2023-03-18 14:39:32.547901,FF008.jpg,0,10596,18-29,2023-03-18_14h33.35.996,Recall,2021.2.3,59.98112990456961,
,L_SD502.jpg,1,L_MF502.jpg,1,,,,,0,19,19,91,imgFunc,9,NA,1.3867915000300854,368.48929119994864,369.9740958098555,2023-03-18 14:39:32.555904,2023-03-18 14:39:34.032455,L_MF502.jpg,1,10596,18-29,2023-03-18_14h33.35.996,Recall,2021.2.3,59.98112990456961,
,SD029.jpg,0,MF029.jpg,0,,,,,0,20,20,78,imgFunc,1,NA,1.506025700015016,369.977995299967,371.5974019099958,2023-03-18 14:39:34.039438,2023-03-18 14:39:35.650322,MF029.jpg,0,10596,18-29,2023-03-18_14h33.35.996,Recall,2021.2.3,59.98112990456961,
,SD015.jpg,0,MF015.jpg,0,,,,,0,21,21,64,imgFunc,9,NA,1.1425665999995545,371.5975449999096,372.8502940098988,2023-03-18 14:39:35.657305,2023-03-18 14:39:36.901255,MF015.jpg,0,10596,18-29,2023-03-18_14h33.35.996,Recall,2021.2.3,59.98112990456961,
,SD031.jpg,0,MF031.jpg,0,,,,,0,22,22,80,imgFunc,9,NA,1.053905599983409,372.8382537999423,373.9908199099591,2023-03-18 14:39:36.908239,2023-03-18 14:39:38.052257,MF031.jpg,0,10596,18-29,2023-03-18_14h33.35.996,Recall,2021.2.3,59.98112990456961,
,DD030.jpg,0,FF030.jpg,0,,,,,0,23,23,29,imgFunc,9,NA,3.1319003000389785,373.99226079997607,377.22973200993147,2023-03-18 14:39:38.059263,2023-03-18 14:39:41.287844,FF030.jpg,0,10596,18-29,2023-03-18_14h33.35.996,Recall,2021.2.3,59.98112990456961,
,SD038.jpg,0,MF038.jpg,0,,,,,0,24,24,87,imgFunc,9,NA,1.2363080999348313,377.2318642999744,378.56416270986665,2023-03-18 14:39:41.296822,2023-03-18 14:39:42.622159,MF038.jpg,0,10596,18-29,2023-03-18_14h33.35.996,Recall,2021.2.3,59.98112990456961,
,DD034.jpg,0,FF034.jpg,0,,,,,0,25,25,33,imgFunc,9,NA,1.5645493000047281,378.57545449992176,380.2618876097258,2023-03-18 14:39:42.629142,2023-03-18 14:39:44.306645,FF034.jpg,0,10596,18-29,2023-03-18_14h33.35.996,Recall,2021.2.3,59.98112990456961,
,DD033.jpg,0,FF033.jpg,0,,,,,0,26,26,32,imgFunc,9,NA,1.4221439000684768,380.2539926000172,381.7746600098908,2023-03-18 14:39:44.321621,2023-03-18 14:39:45.841038,FF033.jpg,0,10596,18-29,2023-03-18_14h33.35.996,Recall,2021.2.3,59.98112990456961,
,SD035.jpg,0,MF035.jpg,0,,,,,0,27,27,84,imgFunc,9,NA,1.2226224999176338,381.78152309998404,383.1006915101316,2023-03-18 14:39:45.848043,2023-03-18 14:39:47.158593,MF035.jpg,0,10596,18-29,2023-03-18_14h33.35.996,Recall,2021.2.3,59.98112990456961,
,DD020.jpg,0,FF020.jpg,0,,,,,0,28,28,19,imgFunc,9,NA,1.1790556999621913,383.096986199962,384.3835312098963,2023-03-18 14:39:47.165576,2023-03-18 14:39:48.443224,FF020.jpg,0,10596,18-29,2023-03-18_14h33.35.996,Recall,2021.2.3,59.98112990456961,
,L_DD506.jpg,1,L_FF506.jpg,1,,,,,0,29,29,45,imgFunc,9,NA,1.691066899918951,384.38489119999576,386.1877218099544,2023-03-18 14:39:48.450229,2023-03-18 14:39:50.244367,L_FF506.jpg,1,10596,18-29,2023-03-18_14h33.35.996,Recall,2021.2.3,59.98112990456961,
,SD013.jpg,0,MF013.jpg,0,,,,,0,30,30,62,imgFunc,1,NA,1.491961000021547,386.1921591999708,387.7936847099336,2023-03-18 14:39:50.252347,2023-03-18 14:39:51.845686,MF013.jpg,0,10596,18-29,2023-03-18_14h33.35.996,Recall,2021.2.3,59.98112990456961,
,SD039.jpg,0,MF039.jpg,0,,,,,0,31,31,88,imgFunc,9,NA,1.4570832999888808,387.8030063000042,389.35766191000585,2023-03-18 14:39:51.860648,2023-03-18 14:39:53.413571,MF039.jpg,0,10596,18-29,2023-03-18_14h33.35.996,Recall,2021.2.3,59.98112990456961,
,L_DD508.jpg,1,L_FF508.jpg,1,,,,,0,32,32,47,imgFunc,9,NA,2.0560703999362886,389.35582379996777,391.5090591099579,2023-03-18 14:39:53.420554,2023-03-18 14:39:55.564433,L_FF508.jpg,1,10596,18-29,2023-03-18_14h33.35.996,Recall,2021.2.3,59.98112990456961,
,SD012.jpg,0,MF012.jpg,0,,,,,0,33,33,61,imgFunc,9,NA,0.9670056999893859,391.50098789995536,392.56975120992865,2023-03-18 14:39:55.572411,2023-03-18 14:39:56.631637,MF012.jpg,0,10596,18-29,2023-03-18_14h33.35.996,Recall,2021.2.3,59.98112990456961,
,L_SD510.jpg,1,L_MF510.jpg,1,,,,,0,34,34,99,imgFunc,9,NA,1.1557885999791324,392.5680855999235,393.82035810977686,2023-03-18 14:39:56.639589,2023-03-18 14:39:57.883300,L_MF510.jpg,1,10596,18-29,2023-03-18_14h33.35.996,Recall,2021.2.3,59.98112990456961,
,L_DD510.jpg,1,L_FF510.jpg,1,,,,,0,35,35,49,imgFunc,9,NA,1.7049903000006452,393.8269371999195,395.6299108098028,2023-03-18 14:39:57.890280,2023-03-18 14:39:59.684541,L_FF510.jpg,1,10596,18-29,2023-03-18_14h33.35.996,Recall,2021.2.3,59.98112990456961,
,SD001.jpg,0,MF001.jpg,0,,,,,0,36,36,50,imgFunc,9,NA,0.7405192999867722,395.62336109997705,396.4583511099918,2023-03-18 14:39:59.691519,2023-03-18 14:40:00.518362,MF001.jpg,0,10596,18-29,2023-03-18_14h33.35.996,Recall,2021.2.3,59.98112990456961,
,SD022.jpg,0,MF022.jpg,0,,,,,0,37,37,71,imgFunc,9,NA,1.6712671000277624,396.4526149999583,398.2220358098857,2023-03-18 14:40:00.525314,2023-03-18 14:40:02.285663,MF022.jpg,0,10596,18-29,2023-03-18_14h33.35.996,Recall,2021.2.3,59.98112990456961,
,L_DD509.jpg,1,L_FF509.jpg,1,,,,,0,38,38,48,imgFunc,9,NA,1.1511318000266328,398.22904479992576,399.4819295099005,2023-03-18 14:40:02.293639,2023-03-18 14:40:03.537609,L_FF509.jpg,1,10596,18-29,2023-03-18_14h33.35.996,Recall,2021.2.3,59.98112990456961,
,L_SD503.jpg,1,L_MF503.jpg,1,,,,,0,39,39,92,imgFunc,9,NA,1.0194642000133172,399.4807662999956,400.59978650999255,2023-03-18 14:40:03.544592,2023-03-18 14:40:04.654909,L_MF503.jpg,1,10596,18-29,2023-03-18_14h33.35.996,Recall,2021.2.3,59.98112990456961,
,DD007.jpg,0,FF007.jpg,0,,,,,0,40,40,6,imgFunc,9,NA,1.7130767999915406,400.6110103999963,402.43508681003004,2023-03-18 14:40:04.667876,2023-03-18 14:40:06.489677,FF007.jpg,0,10596,18-29,2023-03-18_14h33.35.996,Recall,2021.2.3,59.98112990456961,
,L_DD504.jpg,1,L_FF504.jpg,1,,,,,0,41,41,43,imgFunc,9,NA,2.288423400023021,402.42769199993927,404.8141043098876,2023-03-18 14:40:06.496682,2023-03-18 14:40:08.874740,L_FF504.jpg,1,10596,18-29,2023-03-18_14h33.35.996,Recall,2021.2.3,59.98112990456961,
,SD010.jpg,0,MF010.jpg,0,,,,,0,42,42,59,imgFunc,9,NA,1.15952590003144,404.8206370999105,406.0904378099367,2023-03-18 14:40:08.881724,2023-03-18 14:40:10.142458,MF010.jpg,0,10596,18-29,2023-03-18_14h33.35.996,Recall,2021.2.3,59.98112990456961,
,DD019.jpg,0,FF019.jpg,0,,,,,0,43,43,18,imgFunc,9,NA,1.1768273999914527,406.0913656000048,407.37772770994343,2023-03-18 14:40:10.149441,2023-03-18 14:40:11.426783,FF019.jpg,0,10596,18-29,2023-03-18_14h33.35.996,Recall,2021.2.3,59.98112990456961,
,L_SD504.jpg,1,L_MF504.jpg,1,,,,,0,44,44,93,imgFunc,9,NA,1.0868720000144094,407.3812898999313,408.5840190099552,2023-03-18 14:40:11.433766,2023-03-18 14:40:12.627665,L_MF504.jpg,1,10596,18-29,2023-03-18_14h33.35.996,Recall,2021.2.3,59.98112990456961,
,L_SD508.jpg,1,L_MF508.jpg,1,,,,,0,45,45,97,imgFunc,9,NA,2.6102897999808192,408.57781519996934,411.284180609975,2023-03-18 14:40:12.641630,2023-03-18 14:40:15.346346,L_MF508.jpg,1,10596,18-29,2023-03-18_14h33.35.996,Recall,2021.2.3,59.98112990456961,
,L_DD505.jpg,1,L_FF505.jpg,1,,,,,0,46,46,44,imgFunc,9,NA,1.8058805000036955,411.2863395999884,413.18960101006087,2023-03-18 14:40:15.353329,2023-03-18 14:40:17.247561,L_FF505.jpg,1,10596,18-29,2023-03-18_14h33.35.996,Recall,2021.2.3,59.98112990456961,
,DD013.jpg,0,FF013.jpg,0,,,,,0,47,47,12,imgFunc,2,NA,2.542379799997434,413.1976477999706,415.85170340992045,2023-03-18 14:40:17.254544,2023-03-18 14:40:19.899715,FF013.jpg,0,10596,18-29,2023-03-18_14h33.35.996,Recall,2021.2.3,59.98112990456961,
,SD017.jpg,0,MF017.jpg,0,,,,,0,48,48,66,imgFunc,9,NA,1.0389144000364468,415.85313199996017,417.00565820990596,2023-03-18 14:40:19.906698,2023-03-18 14:40:21.050590,MF017.jpg,0,10596,18-29,2023-03-18_14h33.35.996,Recall,2021.2.3,59.98112990456961,
,SD007.jpg,0,MF007.jpg,0,,,,,0,49,49,56,imgFunc,9,NA,1.4414927000179887,417.01872259995434,418.5876394099323,2023-03-18 14:40:21.057573,2023-03-18 14:40:22.618392,MF007.jpg,0,10596,18-29,2023-03-18_14h33.35.996,Recall,2021.2.3,59.98112990456961,
,DD018.jpg,0,FF018.jpg,0,,,,,0,50,50,17,imgFunc,1,NA,1.3944830000400543,418.5541009999579,420.04069811000954,2023-03-18 14:40:22.625375,2023-03-18 14:40:24.103267,FF018.jpg,0,10596,18-29,2023-03-18_14h33.35.996,Recall,2021.2.3,59.98112990456961,
,SD009.jpg,0,MF009.jpg,0,,,,,0,51,51,58,imgFunc,9,NA,1.0118878999492154,420.048297500005,421.16908560995944,2023-03-18 14:40:24.110272,2023-03-18 14:40:25.222603,MF009.jpg,0,10596,18-29,2023-03-18_14h33.35.996,Recall,2021.2.3,59.98112990456961,
,SD036.jpg,0,MF036.jpg,0,,,,,0,52,52,85,imgFunc,9,NA,1.2064672999549657,421.1737488999497,422.491031309939,2023-03-18 14:40:25.229612,2023-03-18 14:40:26.538133,MF036.jpg,0,10596,18-29,2023-03-18_14h33.35.996,Recall,2021.2.3,59.98112990456961,
,DD025.jpg,0,FF025.jpg,0,,,,,0,53,53,24,imgFunc,9,NA,2.3879732000641525,422.48829219990876,424.99194730992895,2023-03-18 14:40:26.545116,2023-03-18 14:40:29.039759,FF025.jpg,0,10596,18-29,2023-03-18_14h33.35.996,Recall,2021.2.3,59.98112990456961,
,L_SD501.jpg,1,L_MF501.jpg,1,,,,,0,54,54,90,imgFunc,9,NA,1.0608669000212103,424.991264399956,426.1493417099118,2023-03-18 14:40:29.052727,2023-03-18 14:40:30.207447,L_MF501.jpg,1,10596,18-29,2023-03-18_14h33.35.996,Recall,2021.2.3,59.98112990456961,
,SD008.jpg,0,MF008.jpg,0,,,,,0,55,55,57,imgFunc,9,NA,2.4784187000477687,426.1495408999035,428.7365274098702,2023-03-18 14:40:30.214431,2023-03-18 14:40:32.792532,MF008.jpg,0,10596,18-29,2023-03-18_14h33.35.996,Recall,2021.2.3,59.98112990456961,
,SD018.jpg,0,MF018.jpg,0,,,,,0,56,56,67,imgFunc,9,NA,1.569701499887742,428.73832070000935,430.4249370099278,2023-03-18 14:40:32.799515,2023-03-18 14:40:34.477166,MF018.jpg,0,10596,18-29,2023-03-18_14h33.35.996,Recall,2021.2.3,59.98112990456961,
,DD037.jpg,0,FF037.jpg,0,,,,,0,57,57,36,imgFunc,9,NA,1.7401327999541536,430.4319950999925,432.2851816100301,2023-03-18 14:40:34.484150,2023-03-18 14:40:36.328442,FF037.jpg,0,10596,18-29,2023-03-18_14h33.35.996,Recall,2021.2.3,59.98112990456961,
,SD021.jpg,0,MF021.jpg,0,,,,,0,58,58,70,imgFunc,9,NA,3.7087915999582037,432.28713299997617,436.1244864099426,2023-03-18 14:40:36.335425,2023-03-18 14:40:40.164007,MF021.jpg,0,10596,18-29,2023-03-18_14h33.35.996,Recall,2021.2.3,59.98112990456961,
,L_SD507.jpg,1,L_MF507.jpg,1,,,,,0,59,59,96,imgFunc,9,NA,1.2930354999843985,436.1109161999775,437.49775311001576,2023-03-18 14:40:40.179924,2023-03-18 14:40:41.565297,L_MF507.jpg,1,10596,18-29,2023-03-18_14h33.35.996,Recall,2021.2.3,59.98112990456961,
,DD031.jpg,0,FF031.jpg,0,,,,,0,60,60,30,imgFunc,2,NA,2.3114496000343934,437.50061949994415,439.9038702099351,2023-03-18 14:40:41.572241,2023-03-18 14:40:43.966950,FF031.jpg,0,10596,18-29,2023-03-18_14h33.35.996,Recall,2021.2.3,59.98112990456961,
,SD034.jpg,0,MF034.jpg,0,,,,,0,61,61,83,imgFunc,9,NA,1.958879999932833,439.9014164999826,441.953824309865,2023-03-18 14:40:43.974885,2023-03-18 14:40:46.018978,MF034.jpg,0,10596,18-29,2023-03-18_14h33.35.996,Recall,2021.2.3,59.98112990456961,
,DD022.jpg,0,FF022.jpg,0,,,,,0,62,62,21,imgFunc,9,NA,1.9716820999747142,441.9524049999891,444.02224340988323,2023-03-18 14:40:46.025962,2023-03-18 14:40:48.087194,FF022.jpg,0,10596,18-29,2023-03-18_14h33.35.996,Recall,2021.2.3,59.98112990456961,
,SD030.jpg,0,MF030.jpg,0,,,,,0,63,63,79,imgFunc,9,NA,1.1590059000300243,444.0372971999459,445.30674890999217,2023-03-18 14:40:48.094177,2023-03-18 14:40:49.354890,MF030.jpg,0,10596,18-29,2023-03-18_14h33.35.996,Recall,2021.2.3,59.98112990456961,
,DD039.jpg,0,FF039.jpg,0,,,,,0,64,64,38,imgFunc,1,NA,1.9276938999537379,445.2922722999938,447.329137510038,2023-03-18 14:40:49.361873,2023-03-18 14:40:51.389555,FF039.jpg,0,10596,18-29,2023-03-18_14h33.35.996,Recall,2021.2.3,59.98112990456961,
,DD036.jpg,0,FF036.jpg,0,,,,,0,65,65,35,imgFunc,9,NA,0.9217522999970242,447.32253189990297,448.34173670981545,2023-03-18 14:40:51.396561,2023-03-18 14:40:52.407080,FF036.jpg,0,10596,18-29,2023-03-18_14h33.35.996,Recall,2021.2.3,59.98112990456961,
,DD027.jpg,0,FF027.jpg,0,,,,,0,66,66,26,imgFunc,9,NA,1.568608499947004,448.33972619997803,450.009510510019,2023-03-18 14:40:52.414063,2023-03-18 14:40:54.075083,FF027.jpg,0,10596,18-29,2023-03-18_14h33.35.996,Recall,2021.2.3,59.98112990456961,
,SD028.jpg,0,MF028.jpg,0,,,,,0,67,67,77,imgFunc,9,NA,0.8101073999423534,450.0100087999599,450.9125885099638,2023-03-18 14:40:54.082066,2023-03-18 14:40:54.975651,MF028.jpg,0,10596,18-29,2023-03-18_14h33.35.996,Recall,2021.2.3,59.98112990456961,
,L_DD503.jpg,1,L_FF503.jpg,1,,,,,0,68,68,42,imgFunc,9,NA,0.7321538000833243,450.92025729990564,451.744586209883,2023-03-18 14:40:54.988618,2023-03-18 14:40:55.809501,L_FF503.jpg,1,10596,18-29,2023-03-18_14h33.35.996,Recall,2021.2.3,59.98112990456961,
,DD001.jpg,0,FF001.jpg,0,,,,,0,69,69,0,imgFunc,9,NA,0.7265072999289259,451.7418030999834,452.561336009996,2023-03-18 14:40:55.816484,2023-03-18 14:40:56.626858,FF001.jpg,0,10596,18-29,2023-03-18_14h33.35.996,Recall,2021.2.3,59.98112990456961,
,SD014.jpg,0,MF014.jpg,0,,,,,0,70,70,63,imgFunc,9,NA,0.6340760999592021,452.5621301999781,453.29711911000777,2023-03-18 14:40:56.633841,2023-03-18 14:40:57.360711,MF014.jpg,0,10596,18-29,2023-03-18_14h33.35.996,Recall,2021.2.3,59.98112990456961,
,SD026.jpg,0,MF026.jpg,0,,,,,0,71,71,75,imgFunc,9,NA,0.7584530999884009,453.29384519997984,454.14504910993855,2023-03-18 14:40:57.368692,2023-03-18 14:40:58.211107,MF026.jpg,0,10596,18-29,2023-03-18_14h33.35.996,Recall,2021.2.3,59.98112990456961,
,SD011.jpg,0,MF011.jpg,0,,,,,0,72,72,60,imgFunc,9,NA,1.0532865000423044,454.14308019995224,455.2959235099843,2023-03-18 14:40:58.218090,2023-03-18 14:40:59.362030,MF011.jpg,0,10596,18-29,2023-03-18_14h33.35.996,Recall,2021.2.3,59.98112990456961,
,SD004.jpg,0,MF004.jpg,0,,,,,0,73,73,53,imgFunc,9,NA,0.8334663999266922,455.30677989998367,456.22861491004005,2023-03-18 14:40:59.375995,2023-03-18 14:41:00.296364,MF004.jpg,0,10596,18-29,2023-03-18_14h33.35.996,Recall,2021.2.3,59.98112990456961,
,DD028.jpg,0,FF028.jpg,0,,,,,0,74,74,27,imgFunc,9,NA,0.7120551000116393,456.2282342999242,457.0303507099161,2023-03-18 14:41:00.303347,2023-03-18 14:41:01.096650,FF028.jpg,0,10596,18-29,2023-03-18_14h33.35.996,Recall,2021.2.3,59.98112990456961,
,SD003.jpg,0,MF003.jpg,0,,,,,0,75,75,52,imgFunc,9,NA,0.6876050001010299,457.02872979990207,457.8149455098901,2023-03-18 14:41:01.103634,2023-03-18 14:41:01.880722,MF003.jpg,0,10596,18-29,2023-03-18_14h33.35.996,Recall,2021.2.3,59.98112990456961,
,SD016.jpg,0,MF016.jpg,0,,,,,0,76,76,65,imgFunc,9,NA,0.7504394000861794,457.81384809990413,458.66597930982243,2023-03-18 14:41:01.887705,2023-03-18 14:41:02.731305,MF016.jpg,0,10596,18-29,2023-03-18_14h33.35.996,Recall,2021.2.3,59.98112990456961,
,DD040.jpg,0,FF040.jpg,0,,,,,0,77,77,39,imgFunc,9,NA,0.7691345999483019,458.67494649998844,459.5447201099014,2023-03-18 14:41:02.738288,2023-03-18 14:41:03.598946,FF040.jpg,0,10596,18-29,2023-03-18_14h33.35.996,Recall,2021.2.3,59.98112990456961,
,L_SD505.jpg,1,L_MF505.jpg,1,,,,,0,78,78,94,imgFunc,9,NA,0.7782325999578461,459.5300258999923,460.3990016099997,2023-03-18 14:41:03.605929,2023-03-18 14:41:04.465904,L_MF505.jpg,1,10596,18-29,2023-03-18_14h33.35.996,Recall,2021.2.3,59.98112990456961,
,DD003.jpg,0,FF003.jpg,0,,,,,0,79,79,2,imgFunc,9,NA,0.815785099985078,460.39647099992726,461.2990693099564,2023-03-18 14:41:04.472887,2023-03-18 14:41:05.366691,FF003.jpg,0,10596,18-29,2023-03-18_14h33.35.996,Recall,2021.2.3,59.98112990456961,
,SD037.jpg,0,MF037.jpg,0,,,,,0,80,80,86,imgFunc,9,NA,0.8010776999872178,461.29924530000426,462.2018713100115,2023-03-18 14:41:05.373674,2023-03-18 14:41:06.267392,MF037.jpg,0,10596,18-29,2023-03-18_14h33.35.996,Recall,2021.2.3,59.98112990456961,
,DD029.jpg,0,FF029.jpg,0,,,,,0,81,81,28,imgFunc,2,NA,2.236983999959193,462.19922379998025,464.53609820990823,2023-03-18 14:41:06.274375,2023-03-18 14:41:08.602290,FF029.jpg,0,10596,18-29,2023-03-18_14h33.35.996,Recall,2021.2.3,59.98112990456961,
,DD016.jpg,0,FF016.jpg,0,,,,,0,82,82,15,imgFunc,9,NA,0.9726843999233097,464.54326669999864,465.6171860100003,2023-03-18 14:41:08.615174,2023-03-18 14:41:09.686516,FF016.jpg,0,10596,18-29,2023-03-18_14h33.35.996,Recall,2021.2.3,59.98112990456961,
,SD032.jpg,0,MF032.jpg,0,,,,,0,83,83,81,imgFunc,9,NA,0.5533567999955267,465.6190063999966,466.27148301003035,2023-03-18 14:41:09.693499,2023-03-18 14:41:10.336909,MF032.jpg,0,10596,18-29,2023-03-18_14h33.35.996,Recall,2021.2.3,59.98112990456961,
,SD040.jpg,0,MF040.jpg,0,,,,,0,84,84,89,imgFunc,9,NA,0.6248469999991357,466.26740359992255,466.98666900990065,2023-03-18 14:41:10.343892,2023-03-18 14:41:11.054196,MF040.jpg,0,10596,18-29,2023-03-18_14h33.35.996,Recall,2021.2.3,59.98112990456961,
,SD023.jpg,0,MF023.jpg,0,,,,,0,85,85,72,imgFunc,9,NA,2.232935899985023,466.9872160999803,469.3241670099087,2023-03-18 14:41:11.061179,2023-03-18 14:41:13.389216,MF023.jpg,0,10596,18-29,2023-03-18_14h33.35.996,Recall,2021.2.3,59.98112990456961,
,DD035.jpg,0,FF035.jpg,0,,,,,0,86,86,34,imgFunc,9,NA,1.3689599999925122,469.3234215999255,470.79313680983614,2023-03-18 14:41:13.396199,2023-03-18 14:41:14.856796,FF035.jpg,0,10596,18-29,2023-03-18_14h33.35.996,Recall,2021.2.3,59.98112990456961,
,DD005.jpg,0,FF005.jpg,0,,,,,0,87,87,4,imgFunc,9,NA,1.0503870999673381,470.8019040999934,471.93867711001076,2023-03-18 14:41:14.871781,2023-03-18 14:41:16.007972,FF005.jpg,0,10596,18-29,2023-03-18_14h33.35.996,Recall,2021.2.3,59.98112990456961,
,L_DD507.jpg,1,L_FF507.jpg,1,,,,,0,88,88,46,imgFunc,9,NA,0.8098093000007793,471.93864389997907,472.84115151001606,2023-03-18 14:41:16.014955,2023-03-18 14:41:16.908488,L_FF507.jpg,1,10596,18-29,2023-03-18_14h33.35.996,Recall,2021.2.3,59.98112990456961,
,DD023.jpg,0,FF023.jpg,0,,,,,0,89,89,22,imgFunc,9,NA,0.6838064999319613,472.8405363999773,473.6264475098578,2023-03-18 14:41:16.915471,2023-03-18 14:41:17.692397,FF023.jpg,0,10596,18-29,2023-03-18_14h33.35.996,Recall,2021.2.3,59.98112990456961,
,DD032.jpg,0,FF032.jpg,0,,,,,0,90,90,31,imgFunc,9,NA,1.4125567999435589,473.623906099936,475.12672140984796,2023-03-18 14:41:17.699380,2023-03-18 14:41:19.193317,FF032.jpg,0,10596,18-29,2023-03-18_14h33.35.996,Recall,2021.2.3,59.98112990456961,
,DD017.jpg,0,FF017.jpg,0,,,,,0,91,91,16,imgFunc,9,NA,1.4598318000789732,475.12816769990604,476.6802575098118,2023-03-18 14:41:19.201298,2023-03-18 14:41:20.743769,FF017.jpg,0,10596,18-29,2023-03-18_14h33.35.996,Recall,2021.2.3,59.98112990456961,
,SD019.jpg,0,MF019.jpg,0,,,,,0,92,92,68,imgFunc,9,NA,0.7866368000395596,476.68945989990607,477.5756894098595,2023-03-18 14:41:20.759727,2023-03-18 14:41:21.644360,MF019.jpg,0,10596,18-29,2023-03-18_14h33.35.996,Recall,2021.2.3,59.98112990456961,
,DD012.jpg,0,FF012.jpg,0,,,,,0,93,93,11,imgFunc,9,NA,0.7049063999438658,477.57911709998734,478.38066141004674,2023-03-18 14:41:21.652338,2023-03-18 14:41:22.445281,FF012.jpg,0,10596,18-29,2023-03-18_14h33.35.996,Recall,2021.2.3,59.98112990456961,
,SD005.jpg,0,MF005.jpg,0,,,,,0,94,94,54,imgFunc,9,NA,1.8572662000078708,478.3787406999618,480.3315456098644,2023-03-18 14:41:22.453262,2023-03-18 14:41:24.397078,MF005.jpg,0,10596,18-29,2023-03-18_14h33.35.996,Recall,2021.2.3,59.98112990456961,
,DD024.jpg,0,FF024.jpg,0,,,,,0,95,95,23,imgFunc,9,NA,1.266359300003387,480.32964279991575,481.69864060985856,2023-03-18 14:41:24.404087,2023-03-18 14:41:25.764485,FF024.jpg,0,10596,18-29,2023-03-18_14h33.35.996,Recall,2021.2.3,59.98112990456961,
,DD014.jpg,0,FF014.jpg,0,,,,,0,96,96,13,imgFunc,9,NA,1.1141463000094518,481.70608289993834,482.9253060098272,2023-03-18 14:41:25.772469,2023-03-18 14:41:26.982374,FF014.jpg,0,10596,18-29,2023-03-18_14h33.35.996,Recall,2021.2.3,59.98112990456961,
,DD026.jpg,0,FF026.jpg,0,,,,,0,97,97,25,imgFunc,9,NA,1.9001555000431836,482.9281335999258,484.9317188099958,2023-03-18 14:41:26.989357,2023-03-18 14:41:28.984099,FF026.jpg,0,10596,18-29,2023-03-18_14h33.35.996,Recall,2021.2.3,59.98112990456961,
,DD009.jpg,0,FF009.jpg,0,,,,,0,98,98,8,imgFunc,9,NA,1.0426768999313936,484.937700200011,486.1058163099224,2023-03-18 14:41:28.991802,2023-03-18 14:41:30.151714,FF009.jpg,0,10596,18-29,2023-03-18_14h33.35.996,Recall,2021.2.3,59.98112990456961,
,L_DD502.jpg,1,L_FF502.jpg,1,,,,,0,99,99,41,imgFunc,9,NA,0.8965305999154225,486.0997134000063,487.10260381002445,2023-03-18 14:41:30.158697,2023-03-18 14:41:31.152512,L_FF502.jpg,1,10596,18-29,2023-03-18_14h33.35.996,Recall,2021.2.3,59.98112990456961,
