instrText,stimDoor,stimDoorLure,stimFace,stimFaceLure,Instructions.thisRepN,Instructions.thisTrialN,Instructions.thisN,Instructions.thisIndex,Trials.thisRepN,Trials.thisTrialN,Trials.thisN,Trials.thisIndex,Func,Keys,Text,RespTime,Onset,Offset,SystemTime_Start,SystemTime_Stop,Stim,Lure,Participant*,Age,date,expName,psychopyVersion,frameRate,
"In the earlier Feedback Games, you chose which doors contained a prize, and which peers liked you. 

You then saw positive or negative feedback (green check mark or red X) from the door or peer you selected.

You will now see a series of doors and peers, some of which you saw during the earlier Feedback Games, and some that you have never seen before.

Please press the spacebar to continue.",,,,,0,0,0,0,,,,,instrFunc,space,"In the earlier Feedback Games, you chose which doors contained a prize, and which peers liked you. 

You then saw positive or negative feedback (green check mark or red X) from the door or peer you selected.

You will now see a series of doors and peers, some of which you saw during the earlier Feedback Games, and some that you have never seen before.

Please press the spacebar to continue.",30.30746530002216,29.8537653000094,60.23226443986641,2023-10-06 16:24:09.401214,2023-10-06 16:24:39.770278,,,10802,30-49,2023-10-06_16h24.05.812,Recall,2021.2.3,60.03132435993593,
"For doors/peers that you remember selecting and getting feedback from, your job is to RECALL what feedback you received. 

Press '1' if you recall positive feedback. 

Press '2' if you recall negative feedback

Press the spacebar to continue.",,,,,0,1,1,1,,,,,instrFunc,space,"For doors/peers that you remember selecting and getting feedback from, your job is to RECALL what feedback you received. 

Press '1' if you recall positive feedback. 

Press '2' if you recall negative feedback

Press the spacebar to continue.",26.34703810000792,60.20623070001602,86.60541399003705,2023-10-06 16:24:39.771278,2023-10-06 16:25:06.155091,,,10802,30-49,2023-10-06_16h24.05.812,Recall,2021.2.3,60.03132435993593,
"For doors/peers that you don't remember getting feedback from, your job is to PREDICT what feedback you WOULD HAVE received.

Press '9' if you predict positive feedback.

Press '0' if you predict negative feedback. 

Please press the spacebar to continue.",,,,,0,2,2,2,,,,,instrFunc,space,"For doors/peers that you don't remember getting feedback from, your job is to PREDICT what feedback you WOULD HAVE received.

Press '9' if you predict positive feedback.

Press '0' if you predict negative feedback. 

Please press the spacebar to continue.",24.84927120001521,86.59213390003424,111.49098459002562,2023-10-06 16:25:06.156096,2023-10-06 16:25:31.039510,,,10802,30-49,2023-10-06_16h24.05.812,Recall,2021.2.3,60.03132435993593,
"This task is self-paced, and the prompts will always stay on the screen so that you know which buttons to press.

On the next screen we will show you what those prompts look like, so that you know exactly what to expect. 

You will start with either doors or peers, and then switch halfway through. 

Please press the spacebar to continue.",,,,,0,3,3,3,,,,,instrFunc,space,"This task is self-paced, and the prompts will always stay on the screen so that you know which buttons to press.

On the next screen we will show you what those prompts look like, so that you know exactly what to expect. 

You will start with either doors or peers, and then switch halfway through. 

Please press the spacebar to continue.",10.650065499998163,111.47110490000341,122.17698208999354,2023-10-06 16:25:31.040510,2023-10-06 16:25:41.730856,,,10802,30-49,2023-10-06_16h24.05.812,Recall,2021.2.3,60.03132435993593,
,,,,,,,,,,,,,imgtextFunc,space,"Here is what the screen will look like while you make your ratings.
The green circles remind you to press 1 or 9 for positive feedback.
The red circles remind you to press 2 or 0 for negative feedback.









Please let the experimenter know if you have any questions.

Whenever you're ready, press the spacebar to start the task.",13.682087600056548,122.31887469999492,136.19192498998018,2023-10-06 16:25:41.740832,2023-10-06 16:25:55.608276,,,10802,30-49,2023-10-06_16h24.05.812,Recall,2021.2.3,60.03132435993593,
,DD008.jpg,0,FF008.jpg,0,,,,,0,0,0,7,imgFunc,9,NA,10.10934179998003,136.17190250003478,146.4143076700857,2023-10-06 16:25:55.648026,2023-10-06 16:26:05.881747,DD008.jpg,0,10802,30-49,2023-10-06_16h24.05.812,Recall,2021.2.3,60.03132435993593,
,SD013.jpg,0,MF013.jpg,0,,,,,0,1,1,62,imgFunc,2,NA,4.205270399979781,146.40375910000876,150.73677319003036,2023-10-06 16:26:05.891722,2023-10-06 16:26:10.218088,SD013.jpg,0,10802,30-49,2023-10-06_16h24.05.812,Recall,2021.2.3,60.03132435993593,
,SD031.jpg,0,MF031.jpg,0,,,,,0,2,2,80,imgFunc,0,NA,5.163548699987587,150.74176689999877,156.02418768999632,2023-10-06 16:26:10.228903,2023-10-06 16:26:15.505232,SD031.jpg,0,10802,30-49,2023-10-06_16h24.05.812,Recall,2021.2.3,60.03132435993593,
,DD032.jpg,0,FF032.jpg,0,,,,,0,3,3,31,imgFunc,9,NA,9.449651899980381,156.02357140003005,165.585966690036,2023-10-06 16:26:15.519197,2023-10-06 16:26:25.078763,DD032.jpg,0,10802,30-49,2023-10-06_16h24.05.812,Recall,2021.2.3,60.03132435993593,
,DD018.jpg,0,FF018.jpg,0,,,,,0,4,4,17,imgFunc,2,NA,6.728347999975085,165.5849256000365,172.4210149900755,2023-10-06 16:26:25.087745,2023-10-06 16:26:31.917127,DD018.jpg,0,10802,30-49,2023-10-06_16h24.05.812,Recall,2021.2.3,60.03132435993593,
,L_SD504.jpg,1,L_MF504.jpg,1,,,,,0,5,5,93,imgFunc,0,NA,2.584392199991271,172.44082340004388,175.1385204900871,2023-10-06 16:26:31.927102,2023-10-06 16:26:34.618377,L_SD504.jpg,1,10802,30-49,2023-10-06_16h24.05.812,Recall,2021.2.3,60.03132435993593,
,DD027.jpg,0,FF027.jpg,0,,,,,0,6,6,26,imgFunc,2,NA,4.313429300033022,175.11976920004236,179.54109619010706,2023-10-06 16:26:34.626380,2023-10-06 16:26:39.038918,DD027.jpg,0,10802,30-49,2023-10-06_16h24.05.812,Recall,2021.2.3,60.03132435993593,
,SD018.jpg,0,MF018.jpg,0,,,,,0,7,7,67,imgFunc,2,NA,11.964479200018104,179.5565325000207,191.63764169003116,2023-10-06 16:26:39.051885,2023-10-06 16:26:51.130858,SD018.jpg,0,10802,30-49,2023-10-06_16h24.05.812,Recall,2021.2.3,60.03132435993593,
,SD003.jpg,0,MF003.jpg,0,,,,,0,8,8,52,imgFunc,1,NA,5.6702490000170656,191.64291220001178,197.4209913900704,2023-10-06 16:26:51.143825,2023-10-06 16:26:56.918012,SD003.jpg,0,10802,30-49,2023-10-06_16h24.05.812,Recall,2021.2.3,60.03132435993593,
,SD027.jpg,0,MF027.jpg,0,,,,,0,9,9,76,imgFunc,2,NA,3.6667204999830574,197.4222292000195,201.1893511900562,2023-10-06 16:26:56.927009,2023-10-06 16:27:00.687735,SD027.jpg,0,10802,30-49,2023-10-06_16h24.05.812,Recall,2021.2.3,60.03132435993593,
,L_SD503.jpg,1,L_MF503.jpg,1,,,,,0,10,10,92,imgFunc,0,NA,3.418210399977397,201.18300910003018,204.70395099004963,2023-10-06 16:27:00.694718,2023-10-06 16:27:04.206557,L_SD503.jpg,1,10802,30-49,2023-10-06_16h24.05.812,Recall,2021.2.3,60.03132435993593,
,L_DD502.jpg,1,L_FF502.jpg,1,,,,,0,11,11,41,imgFunc,9,NA,2.289115599996876,204.704014500021,207.08968139003264,2023-10-06 16:27:04.214563,2023-10-06 16:27:06.592040,L_DD502.jpg,1,10802,30-49,2023-10-06_16h24.05.812,Recall,2021.2.3,60.03132435993593,
,DD024.jpg,0,FF024.jpg,0,,,,,0,12,12,23,imgFunc,9,NA,3.0915859000524506,207.09354890004033,210.28340549004497,2023-10-06 16:27:06.606005,2023-10-06 16:27:09.794084,DD024.jpg,0,10802,30-49,2023-10-06_16h24.05.812,Recall,2021.2.3,60.03132435993593,
,SD005.jpg,0,MF005.jpg,0,,,,,0,13,13,54,imgFunc,0,NA,2.4521780000068247,210.2851136000245,212.83625409007072,2023-10-06 16:27:09.802064,2023-10-06 16:27:12.345907,SD005.jpg,0,10802,30-49,2023-10-06_16h24.05.812,Recall,2021.2.3,60.03132435993593,
,DD030.jpg,0,FF030.jpg,0,,,,,0,14,14,29,imgFunc,2,NA,4.638356999959797,212.83491610002238,217.57306949002668,2023-10-06 16:27:12.352890,2023-10-06 16:27:17.082516,DD030.jpg,0,10802,30-49,2023-10-06_16h24.05.812,Recall,2021.2.3,60.03132435993593,
,SD035.jpg,0,MF035.jpg,0,,,,,0,15,15,84,imgFunc,0,NA,1.9945681000244804,217.59872750000795,219.7146159900003,2023-10-06 16:27:17.091524,2023-10-06 16:27:19.200693,SD035.jpg,0,10802,30-49,2023-10-06_16h24.05.812,Recall,2021.2.3,60.03132435993593,
,SD022.jpg,0,MF022.jpg,0,,,,,0,16,16,71,imgFunc,0,NA,4.024510700022802,219.70479799999157,223.8411437899922,2023-10-06 16:27:19.208673,2023-10-06 16:27:23.337026,SD022.jpg,0,10802,30-49,2023-10-06_16h24.05.812,Recall,2021.2.3,60.03132435993593,
,DD028.jpg,0,FF028.jpg,0,,,,,0,17,17,27,imgFunc,1,NA,2.1765764000010677,223.84870259999298,226.12152719002916,2023-10-06 16:27:23.350990,2023-10-06 16:27:25.621871,DD028.jpg,0,10802,30-49,2023-10-06_16h24.05.812,Recall,2021.2.3,60.03132435993593,
,L_DD505.jpg,1,L_FF505.jpg,1,,,,,0,18,18,44,imgFunc,9,NA,3.563594200008083,226.10977510001976,229.7641486900393,2023-10-06 16:27:25.628876,2023-10-06 16:27:29.274599,L_DD505.jpg,1,10802,30-49,2023-10-06_16h24.05.812,Recall,2021.2.3,60.03132435993593,
,SD019.jpg,0,MF019.jpg,0,,,,,0,19,19,68,imgFunc,9,NA,1.7711550000240095,229.76624399999855,231.63574918999802,2023-10-06 16:27:29.281605,2023-10-06 16:27:31.142741,SD019.jpg,0,10802,30-49,2023-10-06_16h24.05.812,Recall,2021.2.3,60.03132435993593,
,L_DD503.jpg,1,L_FF503.jpg,1,,,,,0,20,20,42,imgFunc,9,NA,5.5515454999986105,231.6336712000193,237.272841589991,2023-10-06 16:27:31.149724,2023-10-06 16:27:36.780027,L_DD503.jpg,1,10802,30-49,2023-10-06_16h24.05.812,Recall,2021.2.3,60.03132435993593,
,L_DD501.jpg,1,L_FF501.jpg,1,,,,,0,21,21,40,imgFunc,0,NA,6.8303860000451095,237.29098049999448,244.22742149000987,2023-10-06 16:27:36.789005,2023-10-06 16:27:43.718368,L_DD501.jpg,1,10802,30-49,2023-10-06_16h24.05.812,Recall,2021.2.3,60.03132435993593,
,DD039.jpg,0,FF039.jpg,0,,,,,0,22,22,38,imgFunc,9,NA,2.56755360000534,244.20960719999857,246.8759183899965,2023-10-06 16:27:43.727688,2023-10-06 16:27:46.386734,DD039.jpg,0,10802,30-49,2023-10-06_16h24.05.812,Recall,2021.2.3,60.03132435993593,
,L_DD507.jpg,1,L_FF507.jpg,1,,,,,0,23,23,46,imgFunc,9,NA,3.592951999977231,246.8802938000299,250.56734529009555,2023-10-06 16:27:46.393749,2023-10-06 16:27:50.072499,L_DD507.jpg,1,10802,30-49,2023-10-06_16h24.05.812,Recall,2021.2.3,60.03132435993593,
,DD007.jpg,0,FF007.jpg,0,,,,,0,24,24,6,imgFunc,2,NA,3.1940079999621958,250.5754146000254,253.87919119006256,2023-10-06 16:27:50.080503,2023-10-06 16:27:53.375314,DD007.jpg,0,10802,30-49,2023-10-06_16h24.05.812,Recall,2021.2.3,60.03132435993593,
,DD011.jpg,0,FF011.jpg,0,,,,,0,25,25,10,imgFunc,1,NA,4.39702789997682,253.88431540003512,258.38804069004254,2023-10-06 16:27:53.383294,2023-10-06 16:27:57.878493,DD011.jpg,0,10802,30-49,2023-10-06_16h24.05.812,Recall,2021.2.3,60.03132435993593,
,SD016.jpg,0,MF016.jpg,0,,,,,0,26,26,65,imgFunc,0,NA,1.7382796000456437,258.39883320004446,260.25455209007487,2023-10-06 16:27:57.892492,2023-10-06 16:27:59.746600,SD016.jpg,0,10802,30-49,2023-10-06_16h24.05.812,Recall,2021.2.3,60.03132435993593,
,DD004.jpg,0,FF004.jpg,0,,,,,0,27,27,3,imgFunc,9,NA,2.7031961000175215,260.23403260001214,263.0213293900597,2023-10-06 16:27:59.753583,2023-10-06 16:28:02.531762,DD004.jpg,0,10802,30-49,2023-10-06_16h24.05.812,Recall,2021.2.3,60.03132435993593,
,DD036.jpg,0,FF036.jpg,0,,,,,0,28,28,35,imgFunc,9,NA,5.076905900030397,263.0284495000378,268.2002642900334,2023-10-06 16:28:02.538744,2023-10-06 16:28:07.702215,DD036.jpg,0,10802,30-49,2023-10-06_16h24.05.812,Recall,2021.2.3,60.03132435993593,
,DD016.jpg,0,FF016.jpg,0,,,,,0,29,29,15,imgFunc,9,NA,3.2708153999992646,268.2024764000089,271.5694498900557,2023-10-06 16:28:07.711193,2023-10-06 16:28:11.071181,DD016.jpg,0,10802,30-49,2023-10-06_16h24.05.812,Recall,2021.2.3,60.03132435993593,
,SD033.jpg,0,MF033.jpg,0,,,,,0,30,30,82,imgFunc,0,NA,2.863947600009851,271.5854784999974,274.56673669005977,2023-10-06 16:28:11.081157,2023-10-06 16:28:14.056563,SD033.jpg,0,10802,30-49,2023-10-06_16h24.05.812,Recall,2021.2.3,60.03132435993593,
,L_SD502.jpg,1,L_MF502.jpg,1,,,,,0,31,31,91,imgFunc,9,NA,3.533633299986832,274.56361220002873,278.18628569005523,2023-10-06 16:28:14.071525,2023-10-06 16:28:17.692776,L_SD502.jpg,1,10802,30-49,2023-10-06_16h24.05.812,Recall,2021.2.3,60.03132435993593,
,DD025.jpg,0,FF025.jpg,0,,,,,0,32,32,24,imgFunc,0,NA,6.4859916000277735,278.17902840004535,284.752105790074,2023-10-06 16:28:17.699759,2023-10-06 16:28:24.263853,DD025.jpg,0,10802,30-49,2023-10-06_16h24.05.812,Recall,2021.2.3,60.03132435993593,
,DD014.jpg,0,FF014.jpg,0,,,,,0,33,33,13,imgFunc,9,NA,9.046799500007182,284.7784985000035,293.9321230900241,2023-10-06 16:28:24.273828,2023-10-06 16:28:33.420518,DD014.jpg,0,10802,30-49,2023-10-06_16h24.05.812,Recall,2021.2.3,60.03132435993593,
,L_SD510.jpg,1,L_MF510.jpg,1,,,,,0,34,34,99,imgFunc,9,NA,3.3361405999748968,293.94519180001225,297.41233019006904,2023-10-06 16:28:33.429496,2023-10-06 16:28:36.889624,L_SD510.jpg,1,10802,30-49,2023-10-06_16h24.05.812,Recall,2021.2.3,60.03132435993593,
,DD040.jpg,0,FF040.jpg,0,,,,,0,35,35,39,imgFunc,2,NA,3.0257755999919027,297.39148849999765,300.52849879005225,2023-10-06 16:28:36.896607,2023-10-06 16:28:40.025160,DD040.jpg,0,10802,30-49,2023-10-06_16h24.05.812,Recall,2021.2.3,60.03132435993593,
,L_DD509.jpg,1,L_FF509.jpg,1,,,,,0,36,36,48,imgFunc,0,NA,2.5862153000198305,300.51096159999724,303.1817140899948,2023-10-06 16:28:40.032143,2023-10-06 16:28:42.693892,L_DD509.jpg,1,10802,30-49,2023-10-06_16h24.05.812,Recall,2021.2.3,60.03132435993593,
,SD004.jpg,0,MF004.jpg,0,,,,,0,37,37,53,imgFunc,0,NA,3.1352020999765955,303.178129900014,306.3983137900941,2023-10-06 16:28:42.700881,2023-10-06 16:28:45.912447,SD004.jpg,0,10802,30-49,2023-10-06_16h24.05.812,Recall,2021.2.3,60.03132435993593,
,SD039.jpg,0,MF039.jpg,0,,,,,0,38,38,88,imgFunc,2,NA,1.8115198999876156,306.40573290002067,308.3087121900753,2023-10-06 16:28:45.919431,2023-10-06 16:28:47.814195,SD039.jpg,0,10802,30-49,2023-10-06_16h24.05.812,Recall,2021.2.3,60.03132435993593,
,L_DD508.jpg,1,L_FF508.jpg,1,,,,,0,39,39,47,imgFunc,9,NA,4.851015600026585,308.3103839000105,313.2656223900267,2023-10-06 16:28:47.821178,2023-10-06 16:28:52.767334,L_DD508.jpg,1,10802,30-49,2023-10-06_16h24.05.812,Recall,2021.2.3,60.03132435993593,
,DD020.jpg,0,FF020.jpg,0,,,,,0,40,40,19,imgFunc,9,NA,8.920132600003853,313.2891063000425,322.31350709008984,2023-10-06 16:28:52.783322,2023-10-06 16:29:01.807345,DD020.jpg,0,10802,30-49,2023-10-06_16h24.05.812,Recall,2021.2.3,60.03132435993593,
,L_DD504.jpg,1,L_FF504.jpg,1,,,,,0,41,41,43,imgFunc,0,NA,3.5226059000124224,322.3105885999976,325.94416869001,2023-10-06 16:29:01.816904,2023-10-06 16:29:05.443307,L_DD504.jpg,1,10802,30-49,2023-10-06_16h24.05.812,Recall,2021.2.3,60.03132435993593,
,SD014.jpg,0,MF014.jpg,0,,,,,0,42,42,63,imgFunc,0,NA,1.6084583000047132,325.9528758000233,327.6704369900399,2023-10-06 16:29:05.451288,2023-10-06 16:29:07.161055,SD014.jpg,0,10802,30-49,2023-10-06_16h24.05.812,Recall,2021.2.3,60.03132435993593,
,SD010.jpg,0,MF010.jpg,0,,,,,0,43,43,59,imgFunc,9,NA,6.195420899952296,327.6619565000292,333.967283289996,2023-10-06 16:29:07.169036,2023-10-06 16:29:13.465655,SD010.jpg,0,10802,30-49,2023-10-06_16h24.05.812,Recall,2021.2.3,60.03132435993593,
,DD021.jpg,0,FF021.jpg,0,,,,,0,44,44,20,imgFunc,0,NA,1.8047398999915458,333.9965646000346,335.9295634900336,2023-10-06 16:29:13.474633,2023-10-06 16:29:15.400537,DD021.jpg,0,10802,30-49,2023-10-06_16h24.05.812,Recall,2021.2.3,60.03132435993593,
,DD019.jpg,0,FF019.jpg,0,,,,,0,45,45,18,imgFunc,1,NA,3.944196700002067,335.9052146000322,339.9458939899923,2023-10-06 16:29:15.414502,2023-10-06 16:29:19.453263,DD019.jpg,0,10802,30-49,2023-10-06_16h24.05.812,Recall,2021.2.3,60.03132435993593,
,L_SD501.jpg,1,L_MF501.jpg,1,,,,,0,46,46,90,imgFunc,0,NA,3.538370699970983,339.9510122000356,343.5883383900509,2023-10-06 16:29:19.460246,2023-10-06 16:29:23.089123,L_SD501.jpg,1,10802,30-49,2023-10-06_16h24.05.812,Recall,2021.2.3,60.03132435993593,
,SD032.jpg,0,MF032.jpg,0,,,,,0,47,47,81,imgFunc,0,NA,4.254172799992375,343.5791377000278,347.9340611900552,2023-10-06 16:29:23.096107,2023-10-06 16:29:27.442196,SD032.jpg,0,10802,30-49,2023-10-06_16h24.05.812,Recall,2021.2.3,60.03132435993593,
,SD038.jpg,0,MF038.jpg,0,,,,,0,48,48,87,imgFunc,0,NA,2.691444299998693,347.9495913000428,350.7520691900281,2023-10-06 16:29:27.450199,2023-10-06 16:29:30.244300,SD038.jpg,0,10802,30-49,2023-10-06_16h24.05.812,Recall,2021.2.3,60.03132435993593,
,DD029.jpg,0,FF029.jpg,0,,,,,0,49,49,28,imgFunc,9,NA,2.3963629999780096,350.7490096000256,353.2513642900158,2023-10-06 16:29:30.252281,2023-10-06 16:29:32.745886,DD029.jpg,0,10802,30-49,2023-10-06_16h24.05.812,Recall,2021.2.3,60.03132435993593,
,SD020.jpg,0,MF020.jpg,0,,,,,0,50,50,69,imgFunc,1,NA,2.7474344999645837,353.2458674000227,356.10025659005623,2023-10-06 16:29:32.752869,2023-10-06 16:29:35.598126,SD020.jpg,0,10802,30-49,2023-10-06_16h24.05.812,Recall,2021.2.3,60.03132435993593,
,SD037.jpg,0,MF037.jpg,0,,,,,0,51,51,86,imgFunc,0,NA,1.976192100031767,356.0892632000032,358.1550835900125,2023-10-06 16:29:35.607104,2023-10-06 16:29:37.666064,SD037.jpg,0,10802,30-49,2023-10-06_16h24.05.812,Recall,2021.2.3,60.03132435993593,
,SD026.jpg,0,MF026.jpg,0,,,,,0,52,52,75,imgFunc,9,NA,2.3723079000483267,358.15708140004426,360.627639190061,2023-10-06 16:29:37.673047,2023-10-06 16:29:40.134742,SD026.jpg,0,10802,30-49,2023-10-06_16h24.05.812,Recall,2021.2.3,60.03132435993593,
,SD024.jpg,0,MF024.jpg,0,,,,,0,53,53,73,imgFunc,0,NA,7.233310799987521,360.62412100000074,367.94781318993773,2023-10-06 16:29:40.141725,2023-10-06 16:29:47.456728,SD024.jpg,0,10802,30-49,2023-10-06_16h24.05.812,Recall,2021.2.3,60.03132435993593,
,DD034.jpg,0,FF034.jpg,0,,,,,0,54,54,33,imgFunc,9,NA,2.7336873000022024,367.96365140000125,370.7824923900189,2023-10-06 16:29:47.472686,2023-10-06 16:29:50.292044,DD034.jpg,0,10802,30-49,2023-10-06_16h24.05.812,Recall,2021.2.3,60.03132435993593,
,DD005.jpg,0,FF005.jpg,0,,,,,0,55,55,4,imgFunc,0,NA,1.6537475000368431,370.78768589999527,372.53933609003434,2023-10-06 16:29:50.300025,2023-10-06 16:29:52.043223,DD005.jpg,0,10802,30-49,2023-10-06_16h24.05.812,Recall,2021.2.3,60.03132435993593,
,DD001.jpg,0,FF001.jpg,0,,,,,0,56,56,0,imgFunc,9,NA,1.7552090999670327,372.542070000025,374.39515459001996,2023-10-06 16:29:52.050206,2023-10-06 16:29:53.894773,DD001.jpg,0,10802,30-49,2023-10-06_16h24.05.812,Recall,2021.2.3,60.03132435993593,
,SD036.jpg,0,MF036.jpg,0,,,,,0,57,57,85,imgFunc,9,NA,1.8889159000245854,374.3924423000426,376.378896690032,2023-10-06 16:29:53.901756,2023-10-06 16:29:55.879651,SD036.jpg,0,10802,30-49,2023-10-06_16h24.05.812,Recall,2021.2.3,60.03132435993593,
,SD009.jpg,0,MF009.jpg,0,,,,,0,58,58,58,imgFunc,9,NA,3.016647099982947,376.37679700000444,379.4970683900174,2023-10-06 16:29:55.886635,2023-10-06 16:29:58.998047,SD009.jpg,0,10802,30-49,2023-10-06_16h24.05.812,Recall,2021.2.3,60.03132435993593,
,DD023.jpg,0,FF023.jpg,0,,,,,0,59,59,22,imgFunc,2,NA,3.5142201999551617,379.50310690002516,383.1105083900038,2023-10-06 16:29:59.012011,2023-10-06 16:30:02.617349,DD023.jpg,0,10802,30-49,2023-10-06_16h24.05.812,Recall,2021.2.3,60.03132435993593,
,DD002.jpg,0,FF002.jpg,0,,,,,0,60,60,1,imgFunc,9,NA,5.539599100011401,383.1259348000167,388.78176729002735,2023-10-06 16:30:02.624348,2023-10-06 16:30:08.271457,DD002.jpg,0,10802,30-49,2023-10-06_16h24.05.812,Recall,2021.2.3,60.03132435993593,
,DD017.jpg,0,FF017.jpg,0,,,,,0,61,61,16,imgFunc,2,NA,5.005652699968778,388.7719512000331,393.87416489003226,2023-10-06 16:30:08.280435,2023-10-06 16:30:13.375558,DD017.jpg,0,10802,30-49,2023-10-06_16h24.05.812,Recall,2021.2.3,60.03132435993593,
,DD006.jpg,0,FF006.jpg,0,,,,,0,62,62,5,imgFunc,9,NA,5.514968700008467,393.87837290001335,399.49652179004624,2023-10-06 16:30:13.384536,2023-10-06 16:30:18.995828,DD006.jpg,0,10802,30-49,2023-10-06_16h24.05.812,Recall,2021.2.3,60.03132435993593,
,L_SD506.jpg,1,L_MF506.jpg,1,,,,,0,63,63,95,imgFunc,0,NA,2.9279520999989472,399.5134825000423,402.56380689010257,2023-10-06 16:30:19.004805,2023-10-06 16:30:22.047960,L_SD506.jpg,1,10802,30-49,2023-10-06_16h24.05.812,Recall,2021.2.3,60.03132435993593,
,DD038.jpg,0,FF038.jpg,0,,,,,0,64,64,37,imgFunc,0,NA,3.2056470999959856,402.5558365000179,405.861372590065,2023-10-06 16:30:22.062923,2023-10-06 16:30:25.367017,DD038.jpg,0,10802,30-49,2023-10-06_16h24.05.812,Recall,2021.2.3,60.03132435993593,
,L_SD507.jpg,1,L_MF507.jpg,1,,,,,0,65,65,96,imgFunc,9,NA,3.5156741000246257,405.861691099999,409.4818103899597,2023-10-06 16:30:25.374998,2023-10-06 16:30:28.986330,L_SD507.jpg,1,10802,30-49,2023-10-06_16h24.05.812,Recall,2021.2.3,60.03132435993593,
,SD017.jpg,0,MF017.jpg,0,,,,,0,66,66,66,imgFunc,0,NA,2.3406680000480264,409.4766823000391,411.9136114900466,2023-10-06 16:30:28.993313,2023-10-06 16:30:31.421428,SD017.jpg,0,10802,30-49,2023-10-06_16h24.05.812,Recall,2021.2.3,60.03132435993593,
,DD037.jpg,0,FF037.jpg,0,,,,,0,67,67,36,imgFunc,0,NA,3.962188200035598,411.9112412999966,415.965642890078,2023-10-06 16:30:31.428411,2023-10-06 16:30:35.474344,DD037.jpg,0,10802,30-49,2023-10-06_16h24.05.812,Recall,2021.2.3,60.03132435993593,
,L_SD508.jpg,1,L_MF508.jpg,1,,,,,0,68,68,97,imgFunc,9,NA,1.8325331000378355,415.9768907999969,417.9132044899743,2023-10-06 16:30:35.481327,2023-10-06 16:30:37.408975,L_SD508.jpg,1,10802,30-49,2023-10-06_16h24.05.812,Recall,2021.2.3,60.03132435993593,
,DD031.jpg,0,FF031.jpg,0,,,,,0,69,69,30,imgFunc,9,NA,2.516134899982717,417.9093195000314,420.5296289900434,2023-10-06 16:30:37.415958,2023-10-06 16:30:40.027479,DD031.jpg,0,10802,30-49,2023-10-06_16h24.05.812,Recall,2021.2.3,60.03132435993593,
,DD003.jpg,0,FF003.jpg,0,,,,,0,70,70,2,imgFunc,9,NA,2.6261327999527566,420.5272944000317,423.2639400900225,2023-10-06 16:30:40.034462,2023-10-06 16:30:42.762769,DD003.jpg,0,10802,30-49,2023-10-06_16h24.05.812,Recall,2021.2.3,60.03132435993593,
,DD022.jpg,0,FF022.jpg,0,,,,,0,71,71,21,imgFunc,2,NA,1.5310300000128336,423.2464448999963,424.8659444900113,2023-10-06 16:30:42.769752,2023-10-06 16:30:44.380574,DD022.jpg,0,10802,30-49,2023-10-06_16h24.05.812,Recall,2021.2.3,60.03132435993593,
,SD001.jpg,0,MF001.jpg,0,,,,,0,72,72,50,imgFunc,0,NA,2.786965399980545,424.87041760003194,427.7575720900786,2023-10-06 16:30:44.387558,2023-10-06 16:30:47.266145,SD001.jpg,0,10802,30-49,2023-10-06_16h24.05.812,Recall,2021.2.3,60.03132435993593,
,DD035.jpg,0,FF035.jpg,0,,,,,0,73,73,34,imgFunc,9,NA,3.684508900041692,427.7728175999946,431.5477173899999,2023-10-06 16:30:47.280110,2023-10-06 16:30:51.052342,DD035.jpg,0,10802,30-49,2023-10-06_16h24.05.812,Recall,2021.2.3,60.03132435993593,
,DD033.jpg,0,FF033.jpg,0,,,,,0,74,74,32,imgFunc,9,NA,2.3324980000033975,431.53285550000146,433.9526322900201,2023-10-06 16:30:51.059325,2023-10-06 16:30:53.470368,DD033.jpg,0,10802,30-49,2023-10-06_16h24.05.812,Recall,2021.2.3,60.03132435993593,
,L_SD505.jpg,1,L_MF505.jpg,1,,,,,0,75,75,94,imgFunc,0,NA,2.533253700006753,433.95608239999274,436.57606738997856,2023-10-06 16:30:53.477351,2023-10-06 16:30:56.088863,L_SD505.jpg,1,10802,30-49,2023-10-06_16h24.05.812,Recall,2021.2.3,60.03132435993593,
,SD011.jpg,0,MF011.jpg,0,,,,,0,76,76,60,imgFunc,9,NA,1.5039774000179023,436.57744700001786,438.1808586900006,2023-10-06 16:30:56.095846,2023-10-06 16:30:57.690186,SD011.jpg,0,10802,30-49,2023-10-06_16h24.05.812,Recall,2021.2.3,60.03132435993593,
,L_DD510.jpg,1,L_FF510.jpg,1,,,,,0,77,77,49,imgFunc,9,NA,1.7900934999925084,438.1872621999937,440.07324058999075,2023-10-06 16:30:57.698189,2023-10-06 16:30:59.575019,L_DD510.jpg,1,10802,30-49,2023-10-06_16h24.05.812,Recall,2021.2.3,60.03132435993593,
,L_SD509.jpg,1,L_MF509.jpg,1,,,,,0,78,78,98,imgFunc,9,NA,2.655380099953618,440.0820737000322,442.8373803900322,2023-10-06 16:30:59.589981,2023-10-06 16:31:02.343401,L_SD509.jpg,1,10802,30-49,2023-10-06_16h24.05.812,Recall,2021.2.3,60.03132435993593,
,DD026.jpg,0,FF026.jpg,0,,,,,0,79,79,25,imgFunc,0,NA,2.6886827000416815,442.8246681000455,445.595357990067,2023-10-06 16:31:02.350384,2023-10-06 16:31:05.112197,DD026.jpg,0,10802,30-49,2023-10-06_16h24.05.812,Recall,2021.2.3,60.03132435993593,
,SD040.jpg,0,MF040.jpg,0,,,,,0,80,80,89,imgFunc,0,NA,1.2865919999894686,445.60278560000006,446.9884632900357,2023-10-06 16:31:05.119155,2023-10-06 16:31:06.496605,SD040.jpg,0,10802,30-49,2023-10-06_16h24.05.812,Recall,2021.2.3,60.03132435993593,
,SD002.jpg,0,MF002.jpg,0,,,,,0,81,81,51,imgFunc,0,NA,1.4907028000452556,446.98255340004107,448.56862489006016,2023-10-06 16:31:06.503588,2023-10-06 16:31:08.080811,SD002.jpg,0,10802,30-49,2023-10-06_16h24.05.812,Recall,2021.2.3,60.03132435993593,
,SD015.jpg,0,MF015.jpg,0,,,,,0,82,82,64,imgFunc,9,NA,2.3406094000092708,448.5726746,451.00935569003923,2023-10-06 16:31:08.087794,2023-10-06 16:31:10.515926,SD015.jpg,0,10802,30-49,2023-10-06_16h24.05.812,Recall,2021.2.3,60.03132435993593,
,SD021.jpg,0,MF021.jpg,0,,,,,0,83,83,70,imgFunc,0,NA,2.536918699974194,451.0165852000355,453.63978419004707,2023-10-06 16:31:10.529891,2023-10-06 16:31:13.151243,SD021.jpg,0,10802,30-49,2023-10-06_16h24.05.812,Recall,2021.2.3,60.03132435993593,
,DD012.jpg,0,FF012.jpg,0,,,,,0,84,84,11,imgFunc,9,NA,3.113525799999479,453.6398754999973,456.8427326900419,2023-10-06 16:31:13.159223,2023-10-06 16:31:16.353279,DD012.jpg,0,10802,30-49,2023-10-06_16h24.05.812,Recall,2021.2.3,60.03132435993593,
,SD007.jpg,0,MF007.jpg,0,,,,,0,85,85,56,imgFunc,9,NA,3.2985840999754146,456.83872440003324,460.22640759008937,2023-10-06 16:31:16.360262,2023-10-06 16:31:19.739169,SD007.jpg,0,10802,30-49,2023-10-06_16h24.05.812,Recall,2021.2.3,60.03132435993593,
,SD023.jpg,0,MF023.jpg,0,,,,,0,86,86,72,imgFunc,0,NA,0.6938188999774866,460.2276515000267,461.0129574900493,2023-10-06 16:31:19.746152,2023-10-06 16:31:20.522876,SD023.jpg,0,10802,30-49,2023-10-06_16h24.05.812,Recall,2021.2.3,60.03132435993593,
,SD029.jpg,0,MF029.jpg,0,,,,,0,87,87,78,imgFunc,0,NA,2.6429054999607615,461.0224698000238,463.7764402900357,2023-10-06 16:31:20.529859,2023-10-06 16:31:23.275013,SD029.jpg,0,10802,30-49,2023-10-06_16h24.05.812,Recall,2021.2.3,60.03132435993593,
,SD006.jpg,0,MF006.jpg,0,,,,,0,88,88,55,imgFunc,9,NA,2.44416029995773,463.7571199000231,466.29410048999125,2023-10-06 16:31:23.281996,2023-10-06 16:31:25.810239,SD006.jpg,0,10802,30-49,2023-10-06_16h24.05.812,Recall,2021.2.3,60.03132435993593,
,SD034.jpg,0,MF034.jpg,0,,,,,0,89,89,83,imgFunc,0,NA,2.751682600006461,466.29760009999154,469.13464639004087,2023-10-06 16:31:25.817222,2023-10-06 16:31:28.645643,SD034.jpg,0,10802,30-49,2023-10-06_16h24.05.812,Recall,2021.2.3,60.03132435993593,
,SD008.jpg,0,MF008.jpg,0,,,,,0,90,90,57,imgFunc,9,NA,3.695520100009162,469.1381428000168,472.92540539003676,2023-10-06 16:31:28.652626,2023-10-06 16:31:32.431709,SD008.jpg,0,10802,30-49,2023-10-06_16h24.05.812,Recall,2021.2.3,60.03132435993593,
,SD030.jpg,0,MF030.jpg,0,,,,,0,91,91,79,imgFunc,0,NA,2.7090138000203297,472.9325007000007,475.75266649003606,2023-10-06 16:31:32.438692,2023-10-06 16:31:35.250159,SD030.jpg,0,10802,30-49,2023-10-06_16h24.05.812,Recall,2021.2.3,60.03132435993593,
,DD015.jpg,0,FF015.jpg,0,,,,,0,92,92,14,imgFunc,0,NA,1.8918817000230774,475.75753760000225,477.7472491899971,2023-10-06 16:31:35.264163,2023-10-06 16:31:37.251626,DD015.jpg,0,10802,30-49,2023-10-06_16h24.05.812,Recall,2021.2.3,60.03132435993593,
,DD010.jpg,0,FF010.jpg,0,,,,,0,93,93,9,imgFunc,0,NA,2.782121699943673,477.7472078000428,480.6339624900138,2023-10-06 16:31:37.258609,2023-10-06 16:31:40.136611,DD010.jpg,0,10802,30-49,2023-10-06_16h24.05.812,Recall,2021.2.3,60.03132435993593,
,L_DD506.jpg,1,L_FF506.jpg,1,,,,,0,94,94,45,imgFunc,9,NA,2.053278500039596,480.6281096000457,482.78111298999283,2023-10-06 16:31:40.144618,2023-10-06 16:31:42.288709,L_DD506.jpg,1,10802,30-49,2023-10-06_16h24.05.812,Recall,2021.2.3,60.03132435993593,
,SD028.jpg,0,MF028.jpg,0,,,,,0,95,95,77,imgFunc,0,NA,1.656118399987463,482.7772931000218,484.5297780900146,2023-10-06 16:31:42.295692,2023-10-06 16:31:44.039777,SD028.jpg,0,10802,30-49,2023-10-06_16h24.05.812,Recall,2021.2.3,60.03132435993593,
,SD012.jpg,0,MF012.jpg,0,,,,,0,96,96,61,imgFunc,9,NA,3.541765999980271,484.5316518000327,488.16904959006933,2023-10-06 16:31:44.046761,2023-10-06 16:31:47.675789,SD012.jpg,0,10802,30-49,2023-10-06_16h24.05.812,Recall,2021.2.3,60.03132435993593,
,DD013.jpg,0,FF013.jpg,0,,,,,0,97,97,12,imgFunc,0,NA,1.1631229000049643,488.17432089999784,489.429299690004,2023-10-06 16:31:47.690472,2023-10-06 16:31:48.943517,DD013.jpg,0,10802,30-49,2023-10-06_16h24.05.812,Recall,2021.2.3,60.03132435993593,
,SD025.jpg,0,MF025.jpg,0,,,,,0,98,98,74,imgFunc,9,NA,2.1852243000175804,489.43210360000376,491.7188360900036,2023-10-06 16:31:48.950499,2023-10-06 16:31:51.228316,SD025.jpg,0,10802,30-49,2023-10-06_16h24.05.812,Recall,2021.2.3,60.03132435993593,
,DD009.jpg,0,FF009.jpg,0,,,,,0,99,99,8,imgFunc,9,NA,2.1205546999699436,491.7209758000099,493.940721890016,2023-10-06 16:31:51.235299,2023-10-06 16:31:53.446733,DD009.jpg,0,10802,30-49,2023-10-06_16h24.05.812,Recall,2021.2.3,60.03132435993593,
,,,,,,,,,,,,,instrFunc,space,"Great work! 

 Now you will switch to the other image type.

 Press the spacebar whenever you are ready to start.",2.226734000025317,493.8706794999889,496.13561608997406,2023-10-06 16:31:53.447733,2023-10-06 16:31:55.696805,,,10802,30-49,2023-10-06_16h24.05.812,Recall,2021.2.3,60.03132435993593,
,L_SD506.jpg,1,L_MF506.jpg,1,,,,,0,0,0,95,imgFunc,2,NA,4.34970829996746,496.2196791000315,500.66666248004185,2023-10-06 16:31:55.725729,2023-10-06 16:32:00.168151,L_MF506.jpg,1,10802,30-49,2023-10-06_16h24.05.812,Recall,2021.2.3,60.03132435993593,
,L_SD505.jpg,1,L_MF505.jpg,1,,,,,0,1,1,94,imgFunc,2,NA,1.2825153999729082,500.66294080001535,502.0482515900512,2023-10-06 16:32:00.175134,2023-10-06 16:32:01.552266,L_MF505.jpg,1,10802,30-49,2023-10-06_16h24.05.812,Recall,2021.2.3,60.03132435993593,
,SD020.jpg,0,MF020.jpg,0,,,,,0,2,2,69,imgFunc,2,NA,1.2481234999722801,502.0496356000076,503.40163649001624,2023-10-06 16:32:01.560274,2023-10-06 16:32:02.903308,MF020.jpg,0,10802,30-49,2023-10-06_16h24.05.812,Recall,2021.2.3,60.03132435993593,
,L_DD508.jpg,1,L_FF508.jpg,1,,,,,0,3,3,47,imgFunc,2,NA,1.4123712999862619,503.4051501000067,504.91568429005565,2023-10-06 16:32:02.915277,2023-10-06 16:32:04.421142,L_FF508.jpg,1,10802,30-49,2023-10-06_16h24.05.812,Recall,2021.2.3,60.03132435993593,
,DD017.jpg,0,FF017.jpg,0,,,,,0,4,4,16,imgFunc,9,NA,4.599254600005224,504.92225960001815,509.6272252900526,2023-10-06 16:32:04.428125,2023-10-06 16:32:09.124429,FF017.jpg,0,10802,30-49,2023-10-06_16h24.05.812,Recall,2021.2.3,60.03132435993593,
,DD032.jpg,0,FF032.jpg,0,,,,,0,5,5,31,imgFunc,1,NA,4.467645200027619,509.62977719999617,514.1983568900032,2023-10-06 16:32:09.133407,2023-10-06 16:32:13.694416,FF032.jpg,0,10802,30-49,2023-10-06_16h24.05.812,Recall,2021.2.3,60.03132435993593,
,DD005.jpg,0,FF005.jpg,0,,,,,0,6,6,4,imgFunc,2,NA,1.7030106000020169,514.2103810000117,516.026344890066,2023-10-06 16:32:13.703401,2023-10-06 16:32:15.512557,FF005.jpg,0,10802,30-49,2023-10-06_16h24.05.812,Recall,2021.2.3,60.03132435993593,
,DD020.jpg,0,FF020.jpg,0,,,,,0,7,7,19,imgFunc,1,NA,9.059540999995079,516.0379822000396,525.2284070900641,2023-10-06 16:32:15.520538,2023-10-06 16:32:24.702260,FF020.jpg,0,10802,30-49,2023-10-06_16h24.05.812,Recall,2021.2.3,60.03132435993593,
,DD015.jpg,0,FF015.jpg,0,,,,,0,8,8,14,imgFunc,2,NA,1.5088201999897137,525.196745400026,526.7957479900797,2023-10-06 16:32:24.711790,2023-10-06 16:32:26.303467,FF015.jpg,0,10802,30-49,2023-10-06_16h24.05.812,Recall,2021.2.3,60.03132435993593,
,SD004.jpg,0,MF004.jpg,0,,,,,0,9,9,53,imgFunc,1,NA,0.9492746000178158,526.8042377000093,527.8562887900625,2023-10-06 16:32:26.310875,2023-10-06 16:32:27.353902,MF004.jpg,0,10802,30-49,2023-10-06_16h24.05.812,Recall,2021.2.3,60.03132435993593,
,L_SD508.jpg,1,L_MF508.jpg,1,,,,,0,10,10,97,imgFunc,9,NA,1.7523720000172034,527.8568148000049,529.7095976899727,2023-10-06 16:32:27.360908,2023-10-06 16:32:29.205549,L_MF508.jpg,1,10802,30-49,2023-10-06_16h24.05.812,Recall,2021.2.3,60.03132435993593,
,DD025.jpg,0,FF025.jpg,0,,,,,0,11,11,24,imgFunc,2,NA,4.93873860000167,529.7186778000323,534.7727767900215,2023-10-06 16:32:29.213529,2023-10-06 16:32:34.259003,FF025.jpg,0,10802,30-49,2023-10-06_16h24.05.812,Recall,2021.2.3,60.03132435993593,
,SD038.jpg,0,MF038.jpg,0,,,,,0,12,12,87,imgFunc,1,NA,1.4951505999779329,534.778292300005,536.3833019899903,2023-10-06 16:32:34.273965,2023-10-06 16:32:35.876985,MF038.jpg,0,10802,30-49,2023-10-06_16h24.05.812,Recall,2021.2.3,60.03132435993593,
,L_DD501.jpg,1,L_FF501.jpg,1,,,,,0,13,13,40,imgFunc,1,NA,1.3225298000033945,536.3749816000345,537.7951514900196,2023-10-06 16:32:35.883968,2023-10-06 16:32:37.294872,L_FF501.jpg,1,10802,30-49,2023-10-06_16h24.05.812,Recall,2021.2.3,60.03132435993593,
,DD038.jpg,0,FF038.jpg,0,,,,,0,14,14,37,imgFunc,1,NA,1.4084906000061892,537.7850473000435,539.2875737900613,2023-10-06 16:32:37.301855,2023-10-06 16:32:38.795350,FF038.jpg,0,10802,30-49,2023-10-06_16h24.05.812,Recall,2021.2.3,60.03132435993593,
,SD024.jpg,0,MF024.jpg,0,,,,,0,15,15,73,imgFunc,1,NA,0.7937626999919303,539.287817000004,540.1738985900301,2023-10-06 16:32:38.802333,2023-10-06 16:32:39.679650,MF024.jpg,0,10802,30-49,2023-10-06_16h24.05.812,Recall,2021.2.3,60.03132435993593,
,DD018.jpg,0,FF018.jpg,0,,,,,0,16,16,17,imgFunc,2,NA,1.9966755000059493,540.1725866000052,542.2592590900022,2023-10-06 16:32:39.686633,2023-10-06 16:32:41.763821,FF018.jpg,0,10802,30-49,2023-10-06_16h24.05.812,Recall,2021.2.3,60.03132435993593,
,SD014.jpg,0,MF014.jpg,0,,,,,0,17,17,63,imgFunc,9,NA,1.6169456000206992,542.272514500015,544.0047844800283,2023-10-06 16:32:41.781778,2023-10-06 16:32:43.498948,MF014.jpg,0,10802,30-49,2023-10-06_16h24.05.812,Recall,2021.2.3,60.03132435993593,
,DD014.jpg,0,FF014.jpg,0,,,,,0,18,18,13,imgFunc,9,NA,4.7108940000180155,543.99456620001,548.8002522900351,2023-10-06 16:32:43.505931,2023-10-06 16:32:48.302681,FF014.jpg,0,10802,30-49,2023-10-06_16h24.05.812,Recall,2021.2.3,60.03132435993593,
,DD006.jpg,0,FF006.jpg,0,,,,,0,19,19,5,imgFunc,0,NA,5.289571599976625,548.7999506000197,554.1847138900193,2023-10-06 16:32:48.311659,2023-10-06 16:32:53.689596,FF006.jpg,0,10802,30-49,2023-10-06_16h24.05.812,Recall,2021.2.3,60.03132435993593,
,L_SD510.jpg,1,L_MF510.jpg,1,,,,,0,20,20,99,imgFunc,9,NA,4.504188199993223,554.1932670000242,558.7952175900573,2023-10-06 16:32:53.698573,2023-10-06 16:32:58.292874,L_MF510.jpg,1,10802,30-49,2023-10-06_16h24.05.812,Recall,2021.2.3,60.03132435993593,
,SD015.jpg,0,MF015.jpg,0,,,,,0,21,21,64,imgFunc,2,NA,3.0193281000247225,558.8222679000464,561.9707285900367,2023-10-06 16:32:58.302849,2023-10-06 16:33:01.445128,MF015.jpg,0,10802,30-49,2023-10-06_16h24.05.812,Recall,2021.2.3,60.03132435993593,
,SD022.jpg,0,MF022.jpg,0,,,,,0,22,22,71,imgFunc,2,NA,3.1377943999832496,561.9358107000007,565.1727803900139,2023-10-06 16:33:01.452112,2023-10-06 16:33:04.680753,MF022.jpg,0,10802,30-49,2023-10-06_16h24.05.812,Recall,2021.2.3,60.03132435993593,
,L_DD510.jpg,1,L_FF510.jpg,1,,,,,0,23,23,49,imgFunc,9,NA,3.086221600009594,565.1792200999917,568.3658819900011,2023-10-06 16:33:04.688734,2023-10-06 16:33:07.866445,L_FF510.jpg,1,10802,30-49,2023-10-06_16h24.05.812,Recall,2021.2.3,60.03132435993593,
,L_SD503.jpg,1,L_MF503.jpg,1,,,,,0,24,24,92,imgFunc,2,NA,4.376567800005432,568.36093970004,572.8327989900718,2023-10-06 16:33:07.873427,2023-10-06 16:33:12.336300,L_MF503.jpg,1,10802,30-49,2023-10-06_16h24.05.812,Recall,2021.2.3,60.03132435993593,
,DD004.jpg,0,FF004.jpg,0,,,,,0,25,25,3,imgFunc,1,NA,1.8065902999951504,572.8348218000028,574.7354914900498,2023-10-06 16:33:12.344302,2023-10-06 16:33:14.237178,FF004.jpg,0,10802,30-49,2023-10-06_16h24.05.812,Recall,2021.2.3,60.03132435993593,
,SD023.jpg,0,MF023.jpg,0,,,,,0,26,26,72,imgFunc,2,NA,2.6093687000102364,574.7518363000127,577.4606273900717,2023-10-06 16:33:14.251048,2023-10-06 16:33:16.956848,MF023.jpg,0,10802,30-49,2023-10-06_16h24.05.812,Recall,2021.2.3,60.03132435993593,
,SD008.jpg,0,MF008.jpg,0,,,,,0,27,27,57,imgFunc,9,NA,7.474666800000705,577.4465188000468,585.0195519900881,2023-10-06 16:33:16.963850,2023-10-06 16:33:24.527942,MF008.jpg,0,10802,30-49,2023-10-06_16h24.05.812,Recall,2021.2.3,60.03132435993593,
,DD028.jpg,0,FF028.jpg,0,,,,,0,28,28,27,imgFunc,1,NA,8.087677799980156,585.033737300022,593.2224785900326,2023-10-06 16:33:24.535922,2023-10-06 16:33:32.717252,FF028.jpg,0,10802,30-49,2023-10-06_16h24.05.812,Recall,2021.2.3,60.03132435993593,
,DD040.jpg,0,FF040.jpg,0,,,,,0,29,29,39,imgFunc,1,NA,5.755730399978347,593.2458889000118,599.131608990021,2023-10-06 16:33:32.726140,2023-10-06 16:33:38.605025,FF040.jpg,0,10802,30-49,2023-10-06_16h24.05.812,Recall,2021.2.3,60.03132435993593,
,DD019.jpg,0,FF019.jpg,0,,,,,0,30,30,18,imgFunc,2,NA,1.9416725999908522,599.1239022000227,601.1901517899823,2023-10-06 16:33:38.614002,2023-10-06 16:33:40.673175,FF019.jpg,0,10802,30-49,2023-10-06_16h24.05.812,Recall,2021.2.3,60.03132435993593,
,SD035.jpg,0,MF035.jpg,0,,,,,0,31,31,84,imgFunc,9,NA,3.2444029999896884,601.180886999995,604.5201754900045,2023-10-06 16:33:40.687139,2023-10-06 16:33:44.025322,MF035.jpg,0,10802,30-49,2023-10-06_16h24.05.812,Recall,2021.2.3,60.03132435993593,
,L_SD501.jpg,1,L_MF501.jpg,1,,,,,0,32,32,90,imgFunc,9,NA,1.066629600012675,604.5189867000445,605.6874668900855,2023-10-06 16:33:44.033302,2023-10-06 16:33:45.193014,L_MF501.jpg,1,10802,30-49,2023-10-06_16h24.05.812,Recall,2021.2.3,60.03132435993593,
,DD002.jpg,0,FF002.jpg,0,,,,,0,33,33,1,imgFunc,0,NA,3.3219988999771886,605.6872046000208,609.1077146900352,2023-10-06 16:33:45.199997,2023-10-06 16:33:48.611729,FF002.jpg,0,10802,30-49,2023-10-06_16h24.05.812,Recall,2021.2.3,60.03132435993593,
,DD033.jpg,0,FF033.jpg,0,,,,,0,34,34,32,imgFunc,2,NA,2.722593799990136,609.1108966000029,611.9317375900573,2023-10-06 16:33:48.618747,2023-10-06 16:33:51.430977,FF033.jpg,0,10802,30-49,2023-10-06_16h24.05.812,Recall,2021.2.3,60.03132435993593,
,DD012.jpg,0,FF012.jpg,0,,,,,0,35,35,11,imgFunc,9,NA,2.4549438999965787,611.9465143000125,614.5165335900383,2023-10-06 16:33:51.437960,2023-10-06 16:33:53.999283,FF012.jpg,0,10802,30-49,2023-10-06_16h24.05.812,Recall,2021.2.3,60.03132435993593,
,L_DD507.jpg,1,L_FF507.jpg,1,,,,,0,36,36,46,imgFunc,9,NA,4.241111200011801,614.4964794000261,618.8351695900201,2023-10-06 16:33:54.006266,2023-10-06 16:33:58.335868,L_FF507.jpg,1,10802,30-49,2023-10-06_16h24.05.812,Recall,2021.2.3,60.03132435993593,
,L_SD509.jpg,1,L_MF509.jpg,1,,,,,0,37,37,98,imgFunc,9,NA,2.4922348000109196,618.8290962000028,621.415722589998,2023-10-06 16:33:58.342851,2023-10-06 16:34:00.921403,L_MF509.jpg,1,10802,30-49,2023-10-06_16h24.05.812,Recall,2021.2.3,60.03132435993593,
,DD011.jpg,0,FF011.jpg,0,,,,,0,38,38,10,imgFunc,2,NA,3.6944585999590345,621.4188983000349,625.2227669900167,2023-10-06 16:34:00.928386,2023-10-06 16:34:04.723520,FF011.jpg,0,10802,30-49,2023-10-06_16h24.05.812,Recall,2021.2.3,60.03132435993593,
,SD005.jpg,0,MF005.jpg,0,,,,,0,39,39,54,imgFunc,2,NA,1.3081967000034638,625.2293156000087,626.6483639900107,2023-10-06 16:34:04.731416,2023-10-06 16:34:06.141298,MF005.jpg,0,10802,30-49,2023-10-06_16h24.05.812,Recall,2021.2.3,60.03132435993593,
,DD037.jpg,0,FF037.jpg,0,,,,,0,40,40,36,imgFunc,1,NA,2.6725775999948382,626.6409495000262,629.398803690041,2023-10-06 16:34:06.154265,2023-10-06 16:34:08.910081,FF037.jpg,0,10802,30-49,2023-10-06_16h24.05.812,Recall,2021.2.3,60.03132435993593,
,DD030.jpg,0,FF030.jpg,0,,,,,0,41,41,29,imgFunc,9,NA,4.710361599980388,629.4029122000211,634.208151090017,2023-10-06 16:34:08.917064,2023-10-06 16:34:13.713343,FF030.jpg,0,10802,30-49,2023-10-06_16h24.05.812,Recall,2021.2.3,60.03132435993593,
,DD010.jpg,0,FF010.jpg,0,,,,,0,42,42,9,imgFunc,2,NA,3.6394848999916576,634.2180952000199,637.9684179900796,2023-10-06 16:34:13.722321,2023-10-06 16:34:17.465931,FF010.jpg,0,10802,30-49,2023-10-06_16h24.05.812,Recall,2021.2.3,60.03132435993593,
,DD001.jpg,0,FF001.jpg,0,,,,,0,43,43,0,imgFunc,9,NA,2.928193299972918,637.9692859000061,641.0066084900172,2023-10-06 16:34:17.472914,2023-10-06 16:34:20.501570,FF001.jpg,0,10802,30-49,2023-10-06_16h24.05.812,Recall,2021.2.3,60.03132435993593,
,SD037.jpg,0,MF037.jpg,0,,,,,0,44,44,86,imgFunc,0,NA,2.8824431999819353,641.0230331000057,644.0245104900678,2023-10-06 16:34:20.509550,2023-10-06 16:34:23.503836,MF037.jpg,0,10802,30-49,2023-10-06_16h24.05.812,Recall,2021.2.3,60.03132435993593,
,L_SD504.jpg,1,L_MF504.jpg,1,,,,,0,45,45,93,imgFunc,1,NA,3.270257299998775,644.0194014000008,647.389921390044,2023-10-06 16:34:23.519795,2023-10-06 16:34:26.889625,L_MF504.jpg,1,10802,30-49,2023-10-06_16h24.05.812,Recall,2021.2.3,60.03132435993593,
,SD011.jpg,0,MF011.jpg,0,,,,,0,46,46,60,imgFunc,9,NA,1.6728408000199124,647.3767711000401,649.1463311900152,2023-10-06 16:34:26.896607,2023-10-06 16:34:28.657320,MF011.jpg,0,10802,30-49,2023-10-06_16h24.05.812,Recall,2021.2.3,60.03132435993593,
,L_DD504.jpg,1,L_FF504.jpg,1,,,,,0,47,47,43,imgFunc,9,NA,8.795411800034344,649.1500893000048,658.041586790001,2023-10-06 16:34:28.664304,2023-10-06 16:34:37.547088,L_FF504.jpg,1,10802,30-49,2023-10-06_16h24.05.812,Recall,2021.2.3,60.03132435993593,
,DD016.jpg,0,FF016.jpg,0,,,,,0,48,48,15,imgFunc,9,NA,5.209771100024227,658.0635395999998,663.3987921900116,2023-10-06 16:34:37.556066,2023-10-06 16:34:42.884197,FF016.jpg,0,10802,30-49,2023-10-06_16h24.05.812,Recall,2021.2.3,60.03132435993593,
,DD026.jpg,0,FF026.jpg,0,,,,,0,49,49,25,imgFunc,2,NA,6.01200789998984,663.3974515000009,669.5167025899864,2023-10-06 16:34:42.893175,2023-10-06 16:34:49.005467,FF026.jpg,0,10802,30-49,2023-10-06_16h24.05.812,Recall,2021.2.3,60.03132435993593,
,L_SD502.jpg,1,L_MF502.jpg,1,,,,,0,50,50,91,imgFunc,0,NA,3.383235600020271,669.5063608000055,672.9896579900524,2023-10-06 16:34:49.014442,2023-10-06 16:34:52.491040,L_MF502.jpg,1,10802,30-49,2023-10-06_16h24.05.812,Recall,2021.2.3,60.03132435993593,
,SD002.jpg,0,MF002.jpg,0,,,,,0,51,51,51,imgFunc,9,NA,1.8648238999885507,672.9847727000015,674.9542639900465,2023-10-06 16:34:52.498024,2023-10-06 16:34:54.459275,MF002.jpg,0,10802,30-49,2023-10-06_16h24.05.812,Recall,2021.2.3,60.03132435993593,
,DD007.jpg,0,FF007.jpg,0,,,,,0,52,52,6,imgFunc,1,NA,1.8030602000071667,674.9505846000393,676.8538667900721,2023-10-06 16:34:54.466258,2023-10-06 16:34:56.360683,FF007.jpg,0,10802,30-49,2023-10-06_16h24.05.812,Recall,2021.2.3,60.03132435993593,
,DD031.jpg,0,FF031.jpg,0,,,,,0,53,53,30,imgFunc,0,NA,2.460515100043267,676.868945299997,679.4365582900355,2023-10-06 16:34:56.368646,2023-10-06 16:34:58.929138,FF031.jpg,0,10802,30-49,2023-10-06_16h24.05.812,Recall,2021.2.3,60.03132435993593,
,L_DD502.jpg,1,L_FF502.jpg,1,,,,,0,54,54,41,imgFunc,9,NA,2.247156700002961,679.4425402000197,681.8004617900588,2023-10-06 16:34:58.942105,2023-10-06 16:35:01.297357,L_FF502.jpg,1,10802,30-49,2023-10-06_16h24.05.812,Recall,2021.2.3,60.03132435993593,
,SD026.jpg,0,MF026.jpg,0,,,,,0,55,55,75,imgFunc,9,NA,1.7354178000241518,681.794132400013,683.6307486899896,2023-10-06 16:35:01.304340,2023-10-06 16:35:03.131920,MF026.jpg,0,10802,30-49,2023-10-06_16h24.05.812,Recall,2021.2.3,60.03132435993593,
,L_DD505.jpg,1,L_FF505.jpg,1,,,,,0,56,56,44,imgFunc,0,NA,2.090291899978183,683.6232242000406,685.8094458900741,2023-10-06 16:35:03.138927,2023-10-06 16:35:05.316888,L_FF505.jpg,1,10802,30-49,2023-10-06_16h24.05.812,Recall,2021.2.3,60.03132435993593,
,DD009.jpg,0,FF009.jpg,0,,,,,0,57,57,8,imgFunc,0,NA,5.597203199984506,685.8121897000237,691.5179947900469,2023-10-06 16:35:05.323871,2023-10-06 16:35:11.020969,FF009.jpg,0,10802,30-49,2023-10-06_16h24.05.812,Recall,2021.2.3,60.03132435993593,
,L_DD503.jpg,1,L_FF503.jpg,1,,,,,0,58,58,42,imgFunc,9,NA,3.0597680999781005,691.5336378000211,694.7010558900074,2023-10-06 16:35:11.029947,2023-10-06 16:35:14.189962,L_FF503.jpg,1,10802,30-49,2023-10-06_16h24.05.812,Recall,2021.2.3,60.03132435993593,
,SD010.jpg,0,MF010.jpg,0,,,,,0,59,59,59,imgFunc,0,NA,4.239925500005484,694.7054806000087,699.042992689996,2023-10-06 16:35:14.205597,2023-10-06 16:35:18.542988,MF010.jpg,0,10802,30-49,2023-10-06_16h24.05.812,Recall,2021.2.3,60.03132435993593,
,SD007.jpg,0,MF007.jpg,0,,,,,0,60,60,56,imgFunc,2,NA,2.1029513999819756,699.0425586000201,701.2422597900731,2023-10-06 16:35:18.551995,2023-10-06 16:35:20.744603,MF007.jpg,0,10802,30-49,2023-10-06_16h24.05.812,Recall,2021.2.3,60.03132435993593,
,DD023.jpg,0,FF023.jpg,0,,,,,0,61,61,22,imgFunc,9,NA,6.069479800004046,701.2360701000434,707.4084717900259,2023-10-06 16:35:20.751586,2023-10-06 16:35:26.915556,FF023.jpg,0,10802,30-49,2023-10-06_16h24.05.812,Recall,2021.2.3,60.03132435993593,
,DD003.jpg,0,FF003.jpg,0,,,,,0,62,62,2,imgFunc,1,NA,3.5057499000104144,707.4238610999892,711.0411367899505,2023-10-06 16:35:26.924654,2023-10-06 16:35:30.534809,FF003.jpg,0,10802,30-49,2023-10-06_16h24.05.812,Recall,2021.2.3,60.03132435993593,
,SD029.jpg,0,MF029.jpg,0,,,,,0,63,63,78,imgFunc,2,NA,3.1987231000093743,711.0508369000163,714.3687031900045,2023-10-06 16:35:30.543819,2023-10-06 16:35:33.853869,MF029.jpg,0,10802,30-49,2023-10-06_16h24.05.812,Recall,2021.2.3,60.03132435993593,
,DD008.jpg,0,FF008.jpg,0,,,,,0,64,64,7,imgFunc,2,NA,5.840190900024027,714.3534406000399,720.2914686900331,2023-10-06 16:35:33.861880,2023-10-06 16:35:39.791689,FF008.jpg,0,10802,30-49,2023-10-06_16h24.05.812,Recall,2021.2.3,60.03132435993593,
,DD022.jpg,0,FF022.jpg,0,,,,,0,65,65,21,imgFunc,9,NA,7.209730200003833,720.287931400002,727.591300190019,2023-10-06 16:35:39.800666,2023-10-06 16:35:47.097476,FF022.jpg,0,10802,30-49,2023-10-06_16h24.05.812,Recall,2021.2.3,60.03132435993593,
,SD003.jpg,0,MF003.jpg,0,,,,,0,66,66,52,imgFunc,0,NA,5.676945100014564,727.6047118999995,733.390851789969,2023-10-06 16:35:47.105453,2023-10-06 16:35:52.884192,MF003.jpg,0,10802,30-49,2023-10-06_16h24.05.812,Recall,2021.2.3,60.03132435993593,
,SD006.jpg,0,MF006.jpg,0,,,,,0,67,67,55,imgFunc,9,NA,4.20955969998613,733.4159177000402,737.767235490086,2023-10-06 16:35:52.893170,2023-10-06 16:35:57.237239,MF006.jpg,0,10802,30-49,2023-10-06_16h24.05.812,Recall,2021.2.3,60.03132435993593,
,SD012.jpg,0,MF012.jpg,0,,,,,0,68,68,61,imgFunc,1,NA,2.627690599998459,737.7497509000241,740.4889373900369,2023-10-06 16:35:57.252202,2023-10-06 16:35:59.989392,MF012.jpg,0,10802,30-49,2023-10-06_16h24.05.812,Recall,2021.2.3,60.03132435993593,
,SD018.jpg,0,MF018.jpg,0,,,,,0,69,69,67,imgFunc,9,NA,2.7495874000014737,740.4919773000292,743.3459425900364,2023-10-06 16:35:59.996375,2023-10-06 16:36:02.841608,MF018.jpg,0,10802,30-49,2023-10-06_16h24.05.812,Recall,2021.2.3,60.03132435993593,
,SD017.jpg,0,MF017.jpg,0,,,,,0,70,70,66,imgFunc,2,NA,2.205357600003481,743.340157300001,745.6436796900234,2023-10-06 16:36:02.848591,2023-10-06 16:36:05.143197,MF017.jpg,0,10802,30-49,2023-10-06_16h24.05.812,Recall,2021.2.3,60.03132435993593,
,SD030.jpg,0,MF030.jpg,0,,,,,0,71,71,79,imgFunc,2,NA,1.6556674999883398,745.6417728000088,747.3947743900353,2023-10-06 16:36:05.150181,2023-10-06 16:36:06.894405,MF030.jpg,0,10802,30-49,2023-10-06_16h24.05.812,Recall,2021.2.3,60.03132435993593,
,SD031.jpg,0,MF031.jpg,0,,,,,0,72,72,80,imgFunc,0,NA,4.269970400026068,747.3954951000051,751.7671354900231,2023-10-06 16:36:06.901388,2023-10-06 16:36:11.264062,MF031.jpg,0,10802,30-49,2023-10-06_16h24.05.812,Recall,2021.2.3,60.03132435993593,
,SD021.jpg,0,MF021.jpg,0,,,,,0,73,73,70,imgFunc,0,NA,2.299494099977892,751.7901879000128,754.2115329900407,2023-10-06 16:36:11.279024,2023-10-06 16:36:13.699186,MF021.jpg,0,10802,30-49,2023-10-06_16h24.05.812,Recall,2021.2.3,60.03132435993593,
,L_DD506.jpg,1,L_FF506.jpg,1,,,,,0,74,74,45,imgFunc,0,NA,5.449836000043433,754.1914880000404,759.7474588900805,2023-10-06 16:36:13.706169,2023-10-06 16:36:19.253020,L_FF506.jpg,1,10802,30-49,2023-10-06_16h24.05.812,Recall,2021.2.3,60.03132435993593,
,SD001.jpg,0,MF001.jpg,0,,,,,0,75,75,50,imgFunc,9,NA,3.057791900006123,759.7517429,762.9024326900253,2023-10-06 16:36:19.261998,2023-10-06 16:36:22.404859,MF001.jpg,0,10802,30-49,2023-10-06_16h24.05.812,Recall,2021.2.3,60.03132435993593,
,DD021.jpg,0,FF021.jpg,0,,,,,0,76,76,20,imgFunc,9,NA,8.498899900005199,762.910761200008,771.5180486899917,2023-10-06 16:36:22.412862,2023-10-06 16:36:31.011327,FF021.jpg,0,10802,30-49,2023-10-06_16h24.05.812,Recall,2021.2.3,60.03132435993593,
,SD016.jpg,0,MF016.jpg,0,,,,,0,77,77,65,imgFunc,9,NA,2.1872877000132576,771.5262185000465,773.8239303900627,2023-10-06 16:36:31.021236,2023-10-06 16:36:33.313151,MF016.jpg,0,10802,30-49,2023-10-06_16h24.05.812,Recall,2021.2.3,60.03132435993593,
,SD034.jpg,0,MF034.jpg,0,,,,,0,78,78,83,imgFunc,2,NA,1.8571747000096366,773.8242507000105,775.7781854899949,2023-10-06 16:36:33.328113,2023-10-06 16:36:35.280366,MF034.jpg,0,10802,30-49,2023-10-06_16h24.05.812,Recall,2021.2.3,60.03132435993593,
,SD040.jpg,0,MF040.jpg,0,,,,,0,79,79,89,imgFunc,2,NA,6.418266299995594,775.775313900027,782.2959311900777,2023-10-06 16:36:35.289336,2023-10-06 16:36:41.802792,MF040.jpg,0,10802,30-49,2023-10-06_16h24.05.812,Recall,2021.2.3,60.03132435993593,
,DD024.jpg,0,FF024.jpg,0,,,,,0,80,80,23,imgFunc,9,NA,5.2701126000029035,782.2995374000166,787.6680141900433,2023-10-06 16:36:41.811770,2023-10-06 16:36:47.172979,FF024.jpg,0,10802,30-49,2023-10-06_16h24.05.812,Recall,2021.2.3,60.03132435993593,
,SD033.jpg,0,MF033.jpg,0,,,,,0,81,81,82,imgFunc,9,NA,1.6551411000546068,787.6903501999914,789.472398390004,2023-10-06 16:36:47.181957,2023-10-06 16:36:48.956675,MF033.jpg,0,10802,30-49,2023-10-06_16h24.05.812,Recall,2021.2.3,60.03132435993593,
,DD027.jpg,0,FF027.jpg,0,,,,,0,82,82,26,imgFunc,0,NA,2.5979693999979645,789.4756223000004,792.1951618899475,2023-10-06 16:36:48.964682,2023-10-06 16:36:51.676263,FF027.jpg,0,10802,30-49,2023-10-06_16h24.05.812,Recall,2021.2.3,60.03132435993593,
,SD019.jpg,0,MF019.jpg,0,,,,,0,83,83,68,imgFunc,0,NA,3.021557900006883,792.1640270000207,795.284874390054,2023-10-06 16:36:51.683246,2023-10-06 16:36:54.795065,MF019.jpg,0,10802,30-49,2023-10-06_16h24.05.812,Recall,2021.2.3,60.03132435993593,
,SD039.jpg,0,MF039.jpg,0,,,,,0,84,84,88,imgFunc,0,NA,4.04284920002101,795.2948309000349,799.4490836900077,2023-10-06 16:36:54.802048,2023-10-06 16:36:58.948018,MF039.jpg,0,10802,30-49,2023-10-06_16h24.05.812,Recall,2021.2.3,60.03132435993593,
,SD013.jpg,0,MF013.jpg,0,,,,,0,85,85,62,imgFunc,9,NA,2.5890227000345476,799.4445998000447,802.1314646900282,2023-10-06 16:36:58.955001,2023-10-06 16:37:01.633416,MF013.jpg,0,10802,30-49,2023-10-06_16h24.05.812,Recall,2021.2.3,60.03132435993593,
,SD036.jpg,0,MF036.jpg,0,,,,,0,86,86,85,imgFunc,9,NA,3.2816065999795683,802.1440754000214,805.5482501900406,2023-10-06 16:37:01.640400,2023-10-06 16:37:05.035960,MF036.jpg,0,10802,30-49,2023-10-06_16h24.05.812,Recall,2021.2.3,60.03132435993593,
,SD028.jpg,0,MF028.jpg,0,,,,,0,87,87,77,imgFunc,9,NA,3.726798100047745,805.5466972000431,809.3683191900491,2023-10-06 16:37:05.050921,2023-10-06 16:37:08.871918,MF028.jpg,0,10802,30-49,2023-10-06_16h24.05.812,Recall,2021.2.3,60.03132435993593,
,SD025.jpg,0,MF025.jpg,0,,,,,0,88,88,74,imgFunc,2,NA,2.9357069000252523,809.3618836000096,812.3992361900746,2023-10-06 16:37:08.878912,2023-10-06 16:37:11.907388,MF025.jpg,0,10802,30-49,2023-10-06_16h24.05.812,Recall,2021.2.3,60.03132435993593,
,DD029.jpg,0,FF029.jpg,0,,,,,0,89,89,28,imgFunc,2,NA,6.933932600019034,812.4037789000431,819.4438676900463,2023-10-06 16:37:11.914371,2023-10-06 16:37:18.945672,FF029.jpg,0,10802,30-49,2023-10-06_16h24.05.812,Recall,2021.2.3,60.03132435993593,
,SD027.jpg,0,MF027.jpg,0,,,,,0,90,90,76,imgFunc,0,NA,2.16732080001384,819.4584091000143,821.7416120900307,2023-10-06 16:37:18.954650,2023-10-06 16:37:21.230823,MF027.jpg,0,10802,30-49,2023-10-06_16h24.05.812,Recall,2021.2.3,60.03132435993593,
,L_DD509.jpg,1,L_FF509.jpg,1,,,,,0,91,91,48,imgFunc,0,NA,5.8770732000120915,821.7326077999896,827.722073890036,2023-10-06 16:37:21.237806,2023-10-06 16:37:27.218382,L_FF509.jpg,1,10802,30-49,2023-10-06_16h24.05.812,Recall,2021.2.3,60.03132435993593,
,DD013.jpg,0,FF013.jpg,0,,,,,0,92,92,12,imgFunc,9,NA,2.605805200000759,827.732058900001,830.4346013900358,2023-10-06 16:37:27.234346,2023-10-06 16:37:29.937120,FF013.jpg,0,10802,30-49,2023-10-06_16h24.05.812,Recall,2021.2.3,60.03132435993593,
,L_SD507.jpg,1,L_MF507.jpg,1,,,,,0,93,93,96,imgFunc,0,NA,3.338286599959247,830.4313274000306,833.8685561901075,2023-10-06 16:37:29.944103,2023-10-06 16:37:33.372780,L_MF507.jpg,1,10802,30-49,2023-10-06_16h24.05.812,Recall,2021.2.3,60.03132435993593,
,SD032.jpg,0,MF032.jpg,0,,,,,0,94,94,81,imgFunc,9,NA,1.4574858999694698,833.8721516000223,835.441773890052,2023-10-06 16:37:33.379763,2023-10-06 16:37:34.940403,MF032.jpg,0,10802,30-49,2023-10-06_16h24.05.812,Recall,2021.2.3,60.03132435993593,
,DD035.jpg,0,FF035.jpg,0,,,,,0,95,95,34,imgFunc,1,NA,4.700086499971803,835.4376109000295,840.2428033900796,2023-10-06 16:37:34.947387,2023-10-06 16:37:39.743978,FF035.jpg,0,10802,30-49,2023-10-06_16h24.05.812,Recall,2021.2.3,60.03132435993593,
,SD009.jpg,0,MF009.jpg,0,,,,,0,96,96,58,imgFunc,0,NA,7.439539799990598,840.2498495000182,847.8037622900447,2023-10-06 16:37:39.752956,2023-10-06 16:37:47.299143,MF009.jpg,0,10802,30-49,2023-10-06_16h24.05.812,Recall,2021.2.3,60.03132435993593,
,DD039.jpg,0,FF039.jpg,0,,,,,0,97,97,38,imgFunc,9,NA,3.49934530002065,847.7983639000449,851.3991877900553,2023-10-06 16:37:47.308121,2023-10-06 16:37:50.901801,FF039.jpg,0,10802,30-49,2023-10-06_16h24.05.812,Recall,2021.2.3,60.03132435993593,
,DD036.jpg,0,FF036.jpg,0,,,,,0,98,98,35,imgFunc,9,NA,2.635025699972175,851.3903626000392,854.1275358900311,2023-10-06 16:37:50.908784,2023-10-06 16:37:53.637252,FF036.jpg,0,10802,30-49,2023-10-06_16h24.05.812,Recall,2021.2.3,60.03132435993593,
,DD034.jpg,0,FF034.jpg,0,,,,,0,99,99,33,imgFunc,1,NA,1.7876017999951728,854.1260241999989,856.012482190039,2023-10-06 16:37:53.644235,2023-10-06 16:37:55.521896,FF034.jpg,0,10802,30-49,2023-10-06_16h24.05.812,Recall,2021.2.3,60.03132435993593,
