instrText,stimDoor,stimDoorLure,stimFace,stimFaceLure,Instructions.thisRepN,Instructions.thisTrialN,Instructions.thisN,Instructions.thisIndex,Trials.thisRepN,Trials.thisTrialN,Trials.thisN,Trials.thisIndex,Func,Keys,Text,RespTime,Onset,Offset,SystemTime_Start,SystemTime_Stop,Stim,Lure,Participant*,Age,date,expName,psychopyVersion,frameRate,
"In the earlier Feedback Games, you chose which doors contained a prize, and which peers liked you. 

You then saw positive or negative feedback (green check mark or red X) from the door or peer you selected.

You will now see a series of doors and peers, some of which you saw during the earlier Feedback Games, and some that you have never seen before.

Please press the spacebar to continue.",,,,,0,0,0,0,,,,,instrFunc,space,"In the earlier Feedback Games, you chose which doors contained a prize, and which peers liked you. 

You then saw positive or negative feedback (green check mark or red X) from the door or peer you selected.

You will now see a series of doors and peers, some of which you saw during the earlier Feedback Games, and some that you have never seen before.

Please press the spacebar to continue.",16.467753800039645,18.878670600010082,35.4177854397567,2023-11-10 12:08:54.436168,2023-11-10 12:09:10.963413,,,10810,40-69,2023-11-10_12h08.50.605,Recall,2021.2.3,59.83803042588623,
"For doors/peers that you remember selecting and getting feedback from, your job is to RECALL what feedback you received. 

Press '1' if you recall positive feedback. 

Press '2' if you recall negative feedback

Press the spacebar to continue.",,,,,0,1,1,1,,,,,instrFunc,space,"For doors/peers that you remember selecting and getting feedback from, your job is to RECALL what feedback you received. 

Press '1' if you recall positive feedback. 

Press '2' if you recall negative feedback

Press the spacebar to continue.",7.117366200021934,35.38899770000717,42.55795056000352,2023-11-10 12:09:10.964414,2023-11-10 12:09:18.117892,,,10810,40-69,2023-11-10_12h08.50.605,Recall,2021.2.3,59.83803042588623,
"For doors/peers that you don't remember getting feedback from, your job is to PREDICT what feedback you WOULD HAVE received.

Press '9' if you predict positive feedback.

Press '0' if you predict negative feedback. 

Please press the spacebar to continue.",,,,,0,2,2,2,,,,,instrFunc,space,"For doors/peers that you don't remember getting feedback from, your job is to PREDICT what feedback you WOULD HAVE received.

Press '9' if you predict positive feedback.

Press '0' if you predict negative feedback. 

Please press the spacebar to continue.",12.658763699990232,42.54351600003429,55.2505014599883,2023-11-10 12:09:18.118859,2023-11-10 12:09:30.810653,,,10810,40-69,2023-11-10_12h08.50.605,Recall,2021.2.3,59.83803042588623,
"This task is self-paced, and the prompts will always stay on the screen so that you know which buttons to press.

On the next screen we will show you what those prompts look like, so that you know exactly what to expect. 

You will start with either doors or peers, and then switch halfway through. 

Please press the spacebar to continue.",,,,,0,3,3,3,,,,,instrFunc,space,"This task is self-paced, and the prompts will always stay on the screen so that you know which buttons to press.

On the next screen we will show you what those prompts look like, so that you know exactly what to expect. 

You will start with either doors or peers, and then switch halfway through. 

Please press the spacebar to continue.",0.9125075000338256,55.233945499989204,56.199948159977794,2023-11-10 12:09:30.811654,2023-11-10 12:09:31.761641,,,10810,40-69,2023-11-10_12h08.50.605,Recall,2021.2.3,59.83803042588623,
,,,,,,,,,,,,,imgtextFunc,space,"Here is what the screen will look like while you make your ratings.
The green circles remind you to press 1 or 9 for positive feedback.
The red circles remind you to press 2 or 0 for negative feedback.









Please let the experimenter know if you have any questions.

Whenever you're ready, press the spacebar to start the task.",21.523843300004955,56.32661470002495,78.02069915999891,2023-11-10 12:09:31.772636,2023-11-10 12:09:53.461182,,,10810,40-69,2023-11-10_12h08.50.605,Recall,2021.2.3,59.83803042588623,
,DD003.jpg,0,FF003.jpg,0,,,,,0,0,0,2,imgFunc,9,NA,14.800320200040005,78.01009639998665,92.93516847997671,2023-11-10 12:09:53.503100,2023-11-10 12:10:08.421587,DD003.jpg,0,10810,40-69,2023-11-10_12h08.50.605,Recall,2021.2.3,59.83803042588623,
,DD039.jpg,0,FF039.jpg,0,,,,,0,1,1,38,imgFunc,9,NA,4.9636018999735825,92.94274780002888,98.03859405999538,2023-11-10 12:10:08.433557,2023-11-10 12:10:13.525298,DD039.jpg,0,10810,40-69,2023-11-10_12h08.50.605,Recall,2021.2.3,59.83803042588623,
,DD004.jpg,0,FF004.jpg,0,,,,,0,2,2,3,imgFunc,1,NA,1.4602585000102408,98.03008019999834,99.61248166003497,2023-11-10 12:10:13.534275,2023-11-10 12:10:15.109777,DD004.jpg,0,10810,40-69,2023-11-10_12h08.50.605,Recall,2021.2.3,59.83803042588623,
,L_DD508.jpg,1,L_FF508.jpg,1,,,,,0,3,3,47,imgFunc,1,NA,1.1146753000211902,99.5997126000002,100.8102620599675,2023-11-10 12:10:15.121748,2023-11-10 12:10:16.327348,L_DD508.jpg,1,10810,40-69,2023-11-10_12h08.50.605,Recall,2021.2.3,59.83803042588623,
,DD013.jpg,0,FF013.jpg,0,,,,,0,4,4,12,imgFunc,1,NA,1.895846100000199,100.81047820003005,102.79640166001627,2023-11-10 12:10:16.334331,2023-11-10 12:10:18.312217,DD013.jpg,0,10810,40-69,2023-11-10_12h08.50.605,Recall,2021.2.3,59.83803042588623,
,SD004.jpg,0,MF004.jpg,0,,,,,0,5,5,53,imgFunc,0,NA,2.265875299985055,102.79241390002426,105.14538116002223,2023-11-10 12:10:18.319200,2023-11-10 12:10:20.663194,SD004.jpg,0,10810,40-69,2023-11-10_12h08.50.605,Recall,2021.2.3,59.83803042588623,
,L_SD504.jpg,1,L_MF504.jpg,1,,,,,0,6,6,93,imgFunc,0,NA,2.6334486000123434,105.15292610001052,107.8890809600125,2023-11-10 12:10:20.671197,2023-11-10 12:10:23.399133,L_SD504.jpg,1,10810,40-69,2023-11-10_12h08.50.605,Recall,2021.2.3,59.83803042588623,
,DD026.jpg,0,FF026.jpg,0,,,,,0,7,7,25,imgFunc,1,NA,1.6475478999782354,107.89074950001668,109.62998366000829,2023-11-10 12:10:23.413097,2023-11-10 12:10:25.150364,DD026.jpg,0,10810,40-69,2023-11-10_12h08.50.605,Recall,2021.2.3,59.83803042588623,
,SD017.jpg,0,MF017.jpg,0,,,,,0,8,8,66,imgFunc,0,NA,3.144557200022973,109.63359199999832,112.87105696002254,2023-11-10 12:10:25.157347,2023-11-10 12:10:28.386241,SD017.jpg,0,10810,40-69,2023-11-10_12h08.50.605,Recall,2021.2.3,59.83803042588623,
,DD032.jpg,0,FF032.jpg,0,,,,,0,9,9,31,imgFunc,0,NA,1.4156733000418171,112.86641900002724,114.38591006002389,2023-11-10 12:10:28.393224,2023-11-10 12:10:29.903744,DD032.jpg,0,10810,40-69,2023-11-10_12h08.50.605,Recall,2021.2.3,59.83803042588623,
,DD008.jpg,0,FF008.jpg,0,,,,,0,10,10,7,imgFunc,1,NA,0.9374055999796838,114.39290380000602,115.42748295993079,2023-11-10 12:10:29.911746,2023-11-10 12:10:30.938082,DD008.jpg,0,10810,40-69,2023-11-10_12h08.50.605,Recall,2021.2.3,59.83803042588623,
,DD014.jpg,0,FF014.jpg,0,,,,,0,11,11,13,imgFunc,1,NA,1.2913770000450313,115.4228887000354,116.80860226001823,2023-11-10 12:10:30.945065,2023-11-10 12:10:32.322337,DD014.jpg,0,10810,40-69,2023-11-10_12h08.50.605,Recall,2021.2.3,59.83803042588623,
,L_DD510.jpg,1,L_FF510.jpg,1,,,,,0,12,12,49,imgFunc,0,NA,1.3111787000088952,116.81090320000658,118.21597556001507,2023-11-10 12:10:32.336325,2023-11-10 12:10:33.739524,L_DD510.jpg,1,10810,40-69,2023-11-10_12h08.50.605,Recall,2021.2.3,59.83803042588623,
,SD029.jpg,0,MF029.jpg,0,,,,,0,13,13,78,imgFunc,1,NA,1.126729300012812,118.22740820003673,119.45610255998326,2023-11-10 12:10:33.750494,2023-11-10 12:10:34.974032,SD029.jpg,0,10810,40-69,2023-11-10_12h08.50.605,Recall,2021.2.3,59.83803042588623,
,SD024.jpg,0,MF024.jpg,0,,,,,0,14,14,73,imgFunc,0,NA,2.368589699966833,119.4578064000234,121.92716195998946,2023-11-10 12:10:34.982035,2023-11-10 12:10:37.442568,SD024.jpg,0,10810,40-69,2023-11-10_12h08.50.605,Recall,2021.2.3,59.83803042588623,
,DD028.jpg,0,FF028.jpg,0,,,,,0,15,15,27,imgFunc,2,NA,2.599545200006105,121.93062619998818,124.63429035997251,2023-11-10 12:10:37.449551,2023-11-10 12:10:40.144566,DD028.jpg,0,10810,40-69,2023-11-10_12h08.50.605,Recall,2021.2.3,59.83803042588623,
,SD007.jpg,0,MF007.jpg,0,,,,,0,16,16,56,imgFunc,2,NA,1.6810597999719903,124.63324150000699,126.4189488600241,2023-11-10 12:10:40.151549,2023-11-10 12:10:41.929134,SD007.jpg,0,10810,40-69,2023-11-10_12h08.50.605,Recall,2021.2.3,59.83803042588623,
,DD036.jpg,0,FF036.jpg,0,,,,,0,17,17,35,imgFunc,0,NA,1.506169600004796,126.42423629999394,128.02930215996457,2023-11-10 12:10:41.943098,2023-11-10 12:10:43.546976,DD036.jpg,0,10810,40-69,2023-11-10_12h08.50.605,Recall,2021.2.3,59.83803042588623,
,L_SD503.jpg,1,L_MF503.jpg,1,,,,,0,18,18,92,imgFunc,1,NA,1.2199435000075027,128.03031870000996,129.34539206005866,2023-11-10 12:10:43.555954,2023-11-10 12:10:44.864565,L_SD503.jpg,1,10810,40-69,2023-11-10_12h08.50.605,Recall,2021.2.3,59.83803042588623,
,DD015.jpg,0,FF015.jpg,0,,,,,0,19,19,14,imgFunc,2,NA,1.9236732999561355,129.34267560002627,131.3623558600084,2023-11-10 12:10:44.871548,2023-11-10 12:10:46.882791,DD015.jpg,0,10810,40-69,2023-11-10_12h08.50.605,Recall,2021.2.3,59.83803042588623,
,SD033.jpg,0,MF033.jpg,0,,,,,0,20,20,82,imgFunc,9,NA,1.707575700012967,131.36667200003285,133.16952886007493,2023-11-10 12:10:46.889774,2023-11-10 12:10:48.684186,SD033.jpg,0,10810,40-69,2023-11-10_12h08.50.605,Recall,2021.2.3,59.83803042588623,
,SD032.jpg,0,MF032.jpg,0,,,,,0,21,21,81,imgFunc,1,NA,1.1368026999989524,133.17742690001614,134.42972315999214,2023-11-10 12:10:48.691169,2023-11-10 12:10:49.934929,SD032.jpg,0,10810,40-69,2023-11-10_12h08.50.605,Recall,2021.2.3,59.83803042588623,
,DD025.jpg,0,FF025.jpg,0,,,,,0,22,22,24,imgFunc,0,NA,2.4980314999702387,134.4082854000153,136.99433555995347,2023-11-10 12:10:49.942910,2023-11-10 12:10:52.520088,DD025.jpg,0,10810,40-69,2023-11-10_12h08.50.605,Recall,2021.2.3,59.83803042588623,
,DD010.jpg,0,FF010.jpg,0,,,,,0,23,23,9,imgFunc,1,NA,1.7520281000179239,137.00234449998243,138.85505215998273,2023-11-10 12:10:52.527072,2023-11-10 12:10:54.371472,DD010.jpg,0,10810,40-69,2023-11-10_12h08.50.605,Recall,2021.2.3,59.83803042588623,
,DD005.jpg,0,FF005.jpg,0,,,,,0,24,24,4,imgFunc,1,NA,5.275871300022118,138.86236110003665,144.25073206005618,2023-11-10 12:10:54.378455,2023-11-10 12:10:59.758592,DD005.jpg,0,10810,40-69,2023-11-10_12h08.50.605,Recall,2021.2.3,59.83803042588623,
,DD038.jpg,0,FF038.jpg,0,,,,,0,25,25,37,imgFunc,2,NA,2.393442699976731,144.24878870003158,146.74903596006334,2023-11-10 12:10:59.767570,2023-11-10 12:11:02.260411,DD038.jpg,0,10810,40-69,2023-11-10_12h08.50.605,Recall,2021.2.3,59.83803042588623,
,L_SD510.jpg,1,L_MF510.jpg,1,,,,,0,26,26,99,imgFunc,0,NA,3.116708900022786,146.74966919998406,149.95947015995625,2023-11-10 12:11:02.273379,2023-11-10 12:11:05.479472,L_SD510.jpg,1,10810,40-69,2023-11-10_12h08.50.605,Recall,2021.2.3,59.83803042588623,
,L_DD506.jpg,1,L_FF506.jpg,1,,,,,0,27,27,45,imgFunc,0,NA,2.431493300013244,149.96274009998888,152.49704986001598,2023-11-10 12:11:05.487453,2023-11-10 12:11:08.014619,L_DD506.jpg,1,10810,40-69,2023-11-10_12h08.50.605,Recall,2021.2.3,59.83803042588623,
,SD021.jpg,0,MF021.jpg,0,,,,,0,28,28,70,imgFunc,0,NA,2.1990463999682106,152.4992670000065,154.80146705999505,2023-11-10 12:11:08.022459,2023-11-10 12:11:10.316459,SD021.jpg,0,10810,40-69,2023-11-10_12h08.50.605,Recall,2021.2.3,59.83803042588623,
,SD036.jpg,0,MF036.jpg,0,,,,,0,29,29,85,imgFunc,9,NA,0.9537297000060789,154.80829730001278,155.87722626002505,2023-11-10 12:11:10.323442,2023-11-10 12:11:11.383757,SD036.jpg,0,10810,40-69,2023-11-10_12h08.50.605,Recall,2021.2.3,59.83803042588623,
,SD009.jpg,0,MF009.jpg,0,,,,,0,30,30,58,imgFunc,0,NA,0.8083782999892719,155.87388660002034,156.79228716000216,2023-11-10 12:11:11.390740,2023-11-10 12:11:12.301137,SD009.jpg,0,10810,40-69,2023-11-10_12h08.50.605,Recall,2021.2.3,59.83803042588623,
,DD001.jpg,0,FF001.jpg,0,,,,,0,31,31,0,imgFunc,1,NA,1.5066351999994367,156.79160739999497,158.39707415993325,2023-11-10 12:11:12.315124,2023-11-10 12:11:13.918870,DD001.jpg,0,10810,40-69,2023-11-10_12h08.50.605,Recall,2021.2.3,59.83803042588623,
,DD009.jpg,0,FF009.jpg,0,,,,,0,32,32,8,imgFunc,2,NA,0.7112267999909818,158.40273750002962,159.22193516005063,2023-11-10 12:11:13.925853,2023-11-10 12:11:14.736342,DD009.jpg,0,10810,40-69,2023-11-10_12h08.50.605,Recall,2021.2.3,59.83803042588623,
,L_DD505.jpg,1,L_FF505.jpg,1,,,,,0,33,33,44,imgFunc,0,NA,0.7252345000160858,159.22097329999087,160.04008825996425,2023-11-10 12:11:14.743325,2023-11-10 12:11:15.553597,L_DD505.jpg,1,10810,40-69,2023-11-10_12h08.50.605,Recall,2021.2.3,59.83803042588623,
,L_DD502.jpg,1,L_FF502.jpg,1,,,,,0,34,34,41,imgFunc,9,NA,0.5229282999644056,160.03929570002947,160.65773845999502,2023-11-10 12:11:15.560580,2023-11-10 12:11:16.170707,L_DD502.jpg,1,10810,40-69,2023-11-10_12h08.50.605,Recall,2021.2.3,59.83803042588623,
,DD017.jpg,0,FF017.jpg,0,,,,,0,35,35,16,imgFunc,1,NA,0.4839811999700032,160.6622465000255,161.24764016002882,2023-11-10 12:11:16.177690,2023-11-10 12:11:16.754557,DD017.jpg,0,10810,40-69,2023-11-10_12h08.50.605,Recall,2021.2.3,59.83803042588623,
,L_SD506.jpg,1,L_MF506.jpg,1,,,,,0,36,36,95,imgFunc,2,NA,0.4803527000476606,161.23388980003074,161.80264475999866,2023-11-10 12:11:16.761540,2023-11-10 12:11:17.321556,L_SD506.jpg,1,10810,40-69,2023-11-10_12h08.50.605,Recall,2021.2.3,59.83803042588623,
,SD027.jpg,0,MF027.jpg,0,,,,,0,37,37,76,imgFunc,0,NA,1.0075389000121504,161.80279789998895,162.90499195992015,2023-11-10 12:11:17.328539,2023-11-10 12:11:18.422118,SD027.jpg,0,10810,40-69,2023-11-10_12h08.50.605,Recall,2021.2.3,59.83803042588623,
,DD029.jpg,0,FF029.jpg,0,,,,,0,38,38,28,imgFunc,0,NA,1.8611410999437794,162.90113509999355,164.85392435995163,2023-11-10 12:11:18.429101,2023-11-10 12:11:20.373438,DD029.jpg,0,10810,40-69,2023-11-10_12h08.50.605,Recall,2021.2.3,59.83803042588623,
,DD037.jpg,0,FF037.jpg,0,,,,,0,39,39,36,imgFunc,0,NA,1.1178810999845155,164.8523299000226,166.07172475999687,2023-11-10 12:11:20.380421,2023-11-10 12:11:21.591334,DD037.jpg,0,10810,40-69,2023-11-10_12h08.50.605,Recall,2021.2.3,59.83803042588623,
,SD039.jpg,0,MF039.jpg,0,,,,,0,40,40,88,imgFunc,0,NA,0.946821000019554,166.07939060003264,167.12087876006262,2023-11-10 12:11:21.603340,2023-11-10 12:11:22.641864,SD039.jpg,0,10810,40-69,2023-11-10_12h08.50.605,Recall,2021.2.3,59.83803042588623,
,SD005.jpg,0,MF005.jpg,0,,,,,0,41,41,54,imgFunc,0,NA,0.8985058999969624,167.11961250001332,168.10520665999502,2023-11-10 12:11:22.648847,2023-11-10 12:11:23.626035,SD005.jpg,0,10810,40-69,2023-11-10_12h08.50.605,Recall,2021.2.3,59.83803042588623,
,DD040.jpg,0,FF040.jpg,0,,,,,0,42,42,39,imgFunc,2,NA,2.620962699991651,168.10910629999125,170.82927565998398,2023-11-10 12:11:23.633019,2023-11-10 12:11:26.344586,DD040.jpg,0,10810,40-69,2023-11-10_12h08.50.605,Recall,2021.2.3,59.83803042588623,
,L_DD504.jpg,1,L_FF504.jpg,1,,,,,0,43,43,43,imgFunc,0,NA,1.5578640999738127,170.83622050000122,172.5057000599918,2023-11-10 12:11:26.351574,2023-11-10 12:11:28.012543,L_DD504.jpg,1,10810,40-69,2023-11-10_12h08.50.605,Recall,2021.2.3,59.83803042588623,
,L_SD502.jpg,1,L_MF502.jpg,1,,,,,0,44,44,91,imgFunc,1,NA,2.7746550000156276,172.49943840003107,175.3696612599888,2023-11-10 12:11:28.019526,2023-11-10 12:11:30.881339,L_SD502.jpg,1,10810,40-69,2023-11-10_12h08.50.605,Recall,2021.2.3,59.83803042588623,
,DD020.jpg,0,FF020.jpg,0,,,,,0,45,45,19,imgFunc,9,NA,2.8986045999918133,175.3755754000158,178.36624626000412,2023-11-10 12:11:30.895304,2023-11-10 12:11:33.883442,DD020.jpg,0,10810,40-69,2023-11-10_12h08.50.605,Recall,2021.2.3,59.83803042588623,
,DD024.jpg,0,FF024.jpg,0,,,,,0,46,46,23,imgFunc,1,NA,2.5144807000178844,178.35959429998184,180.96306625998113,2023-11-10 12:11:33.890425,2023-11-10 12:11:36.485322,DD024.jpg,0,10810,40-69,2023-11-10_12h08.50.605,Recall,2021.2.3,59.83803042588623,
,DD033.jpg,0,FF033.jpg,0,,,,,0,47,47,32,imgFunc,9,NA,3.0075149000040255,180.97064499999397,184.07325405994197,2023-11-10 12:11:36.493303,2023-11-10 12:11:39.587478,DD033.jpg,0,10810,40-69,2023-11-10_12h08.50.605,Recall,2021.2.3,59.83803042588623,
,SD034.jpg,0,MF034.jpg,0,,,,,0,48,48,83,imgFunc,9,NA,1.8906320999958552,184.07155629998306,186.05810595996445,2023-11-10 12:11:39.594461,2023-11-10 12:11:41.572441,SD034.jpg,0,10810,40-69,2023-11-10_12h08.50.605,Recall,2021.2.3,59.83803042588623,
,DD011.jpg,0,FF011.jpg,0,,,,,0,49,49,10,imgFunc,1,NA,2.6392518000211567,186.05885390000185,188.79549275996396,2023-11-10 12:11:41.579424,2023-11-10 12:11:44.307631,DD011.jpg,0,10810,40-69,2023-11-10_12h08.50.605,Recall,2021.2.3,59.83803042588623,
,SD037.jpg,0,MF037.jpg,0,,,,,0,50,50,86,imgFunc,1,NA,1.558508999994956,188.81141630001366,190.48372476006625,2023-11-10 12:11:44.321596,2023-11-10 12:11:45.992180,SD037.jpg,0,10810,40-69,2023-11-10_12h08.50.605,Recall,2021.2.3,59.83803042588623,
,SD022.jpg,0,MF022.jpg,0,,,,,0,51,51,71,imgFunc,2,NA,2.124647199991159,190.46925800002646,192.68921625998337,2023-11-10 12:11:45.999163,2023-11-10 12:11:48.210291,SD022.jpg,0,10810,40-69,2023-11-10_12h08.50.605,Recall,2021.2.3,59.83803042588623,
,SD023.jpg,0,MF023.jpg,0,,,,,0,52,52,72,imgFunc,0,NA,1.558417099993676,192.69166140002199,194.3444817599957,2023-11-10 12:11:48.217273,2023-11-10 12:11:49.861714,SD023.jpg,0,10810,40-69,2023-11-10_12h08.50.605,Recall,2021.2.3,59.83803042588623,
,SD026.jpg,0,MF026.jpg,0,,,,,0,53,53,75,imgFunc,9,NA,0.41328010003780946,194.340781899984,194.84307175996946,2023-11-10 12:11:49.868697,2023-11-10 12:11:50.362121,SD026.jpg,0,10810,40-69,2023-11-10_12h08.50.605,Recall,2021.2.3,59.83803042588623,
,DD012.jpg,0,FF012.jpg,0,,,,,0,54,54,11,imgFunc,1,NA,0.46603430004324764,194.8481899999897,195.41558085998986,2023-11-10 12:11:50.370101,2023-11-10 12:11:50.928951,DD012.jpg,0,10810,40-69,2023-11-10_12h08.50.605,Recall,2021.2.3,59.83803042588623,
,SD020.jpg,0,MF020.jpg,0,,,,,0,55,55,69,imgFunc,2,NA,0.5746920000528917,195.41163550002966,196.08013055997435,2023-11-10 12:11:50.935934,2023-11-10 12:11:51.596183,SD020.jpg,0,10810,40-69,2023-11-10_12h08.50.605,Recall,2021.2.3,59.83803042588623,
,SD010.jpg,0,MF010.jpg,0,,,,,0,56,56,59,imgFunc,0,NA,0.7049865000299178,196.07332359999418,196.87529285997152,2023-11-10 12:11:51.603166,2023-11-10 12:11:52.396807,SD010.jpg,0,10810,40-69,2023-11-10_12h08.50.605,Recall,2021.2.3,59.83803042588623,
,L_SD501.jpg,1,L_MF501.jpg,1,,,,,0,57,57,90,imgFunc,1,NA,0.8115633000270464,196.87074879999273,197.77323555992916,2023-11-10 12:11:52.403790,2023-11-10 12:11:53.297568,L_SD501.jpg,1,10810,40-69,2023-11-10_12h08.50.605,Recall,2021.2.3,59.83803042588623,
,SD019.jpg,0,MF019.jpg,0,,,,,0,58,58,68,imgFunc,2,NA,0.5400043000117876,197.7742595000309,198.40957196004456,2023-11-10 12:11:53.304551,2023-11-10 12:11:53.931094,SD019.jpg,0,10810,40-69,2023-11-10_12h08.50.605,Recall,2021.2.3,59.83803042588623,
,L_SD509.jpg,1,L_MF509.jpg,1,,,,,0,59,59,98,imgFunc,9,NA,0.6044350999873132,198.41373309999472,199.1044113599346,2023-11-10 12:11:53.944061,2023-11-10 12:11:54.631623,L_SD509.jpg,1,10810,40-69,2023-11-10_12h08.50.605,Recall,2021.2.3,59.83803042588623,
,DD007.jpg,0,FF007.jpg,0,,,,,0,60,60,6,imgFunc,0,NA,0.5453541000024416,199.11278800002765,199.7482427600189,2023-11-10 12:11:54.638607,2023-11-10 12:11:55.265478,DD007.jpg,0,10810,40-69,2023-11-10_12h08.50.605,Recall,2021.2.3,59.83803042588623,
,DD022.jpg,0,FF022.jpg,0,,,,,0,61,61,21,imgFunc,1,NA,1.720985899970401,199.75313050003024,201.57288286002586,2023-11-10 12:11:55.272462,2023-11-10 12:11:57.083636,DD022.jpg,0,10810,40-69,2023-11-10_12h08.50.605,Recall,2021.2.3,59.83803042588623,
,SD015.jpg,0,MF015.jpg,0,,,,,0,62,62,64,imgFunc,0,NA,1.4752233999897726,201.5668898000149,203.1366944600013,2023-11-10 12:11:57.090619,2023-11-10 12:11:58.651568,SD015.jpg,0,10810,40-69,2023-11-10_12h08.50.605,Recall,2021.2.3,59.83803042588623,
,SD040.jpg,0,MF040.jpg,0,,,,,0,63,63,89,imgFunc,1,NA,1.0165778000373393,203.12934049998876,204.24848536000354,2023-11-10 12:11:58.658550,2023-11-10 12:11:59.768837,SD040.jpg,0,10810,40-69,2023-11-10_12h08.50.605,Recall,2021.2.3,59.83803042588623,
,L_SD507.jpg,1,L_MF507.jpg,1,,,,,0,64,64,96,imgFunc,2,NA,1.4641380000393838,204.25008269998943,205.80611045996193,2023-11-10 12:11:59.782802,2023-11-10 12:12:01.336297,L_SD507.jpg,1,10810,40-69,2023-11-10_12h08.50.605,Recall,2021.2.3,59.83803042588623,
,SD011.jpg,0,MF011.jpg,0,,,,,0,65,65,60,imgFunc,0,NA,0.46879959997022524,205.8133797000046,206.3824024599744,2023-11-10 12:12:01.343281,2023-11-10 12:12:01.903786,SD011.jpg,0,10810,40-69,2023-11-10_12h08.50.605,Recall,2021.2.3,59.83803042588623,
,SD006.jpg,0,MF006.jpg,0,,,,,0,66,66,55,imgFunc,9,NA,0.4541896000155248,206.3800831999979,206.93199325999012,2023-11-10 12:12:01.910769,2023-11-10 12:12:02.453758,SD006.jpg,0,10810,40-69,2023-11-10_12h08.50.605,Recall,2021.2.3,59.83803042588623,
,L_DD501.jpg,1,L_FF501.jpg,1,,,,,0,67,67,40,imgFunc,2,NA,0.41298420005477965,206.941303300031,207.46024946001125,2023-11-10 12:12:02.460742,2023-11-10 12:12:02.970995,L_DD501.jpg,1,10810,40-69,2023-11-10_12h08.50.605,Recall,2021.2.3,59.83803042588623,
,DD034.jpg,0,FF034.jpg,0,,,,,0,68,68,33,imgFunc,1,NA,0.49082590005127713,207.4634262000327,208.0654391600401,2023-11-10 12:12:02.977978,2023-11-10 12:12:03.571326,DD034.jpg,0,10810,40-69,2023-11-10_12h08.50.605,Recall,2021.2.3,59.83803042588623,
,DD016.jpg,0,FF016.jpg,0,,,,,0,69,69,15,imgFunc,0,NA,0.45044000004418194,208.0715482000378,208.62698406004347,2023-11-10 12:12:03.585291,2023-11-10 12:12:04.138486,DD016.jpg,0,10810,40-69,2023-11-10_12h08.50.605,Recall,2021.2.3,59.83803042588623,
,SD016.jpg,0,MF016.jpg,0,,,,,0,70,70,65,imgFunc,0,NA,2.5001257000258192,208.61403009999776,211.2010280599934,2023-11-10 12:12:04.145469,2023-11-10 12:12:06.723866,SD016.jpg,0,10810,40-69,2023-11-10_12h08.50.605,Recall,2021.2.3,59.83803042588623,
,SD008.jpg,0,MF008.jpg,0,,,,,0,71,71,57,imgFunc,2,NA,2.4930965999956243,211.19706159998896,213.7841376599972,2023-11-10 12:12:06.730849,2023-11-10 12:12:09.309095,SD008.jpg,0,10810,40-69,2023-11-10_12h08.50.605,Recall,2021.2.3,59.83803042588623,
,DD035.jpg,0,FF035.jpg,0,,,,,0,72,72,34,imgFunc,2,NA,1.1706227000104263,213.7832929000142,215.05222336004954,2023-11-10 12:12:09.316078,2023-11-10 12:12:10.576544,DD035.jpg,0,10810,40-69,2023-11-10_12h08.50.605,Recall,2021.2.3,59.83803042588623,
,SD013.jpg,0,MF013.jpg,0,,,,,0,73,73,62,imgFunc,0,NA,0.7925311999861151,215.0578278999892,215.94352335995063,2023-11-10 12:12:10.583527,2023-11-10 12:12:11.460429,SD013.jpg,0,10810,40-69,2023-11-10_12h08.50.605,Recall,2021.2.3,59.83803042588623,
,SD038.jpg,0,MF038.jpg,0,,,,,0,74,74,87,imgFunc,1,NA,1.2465282000484876,215.93949289998272,217.27583235997008,2023-11-10 12:12:11.467412,2023-11-10 12:12:12.794942,SD038.jpg,0,10810,40-69,2023-11-10_12h08.50.605,Recall,2021.2.3,59.83803042588623,
,DD031.jpg,0,FF031.jpg,0,,,,,0,75,75,30,imgFunc,2,NA,0.5922276999917813,217.28194020001683,217.9842208600021,2023-11-10 12:12:12.801925,2023-11-10 12:12:13.495370,DD031.jpg,0,10810,40-69,2023-11-10_12h08.50.605,Recall,2021.2.3,59.83803042588623,
,DD019.jpg,0,FF019.jpg,0,,,,,0,76,76,18,imgFunc,0,NA,0.355210299952887,217.97492950002197,218.42709375999402,2023-11-10 12:12:13.502353,2023-11-10 12:12:13.945724,DD019.jpg,0,10810,40-69,2023-11-10_12h08.50.605,Recall,2021.2.3,59.83803042588623,
,DD018.jpg,0,FF018.jpg,0,,,,,0,77,77,17,imgFunc,9,NA,0.29073130001779646,218.4234077000292,218.80868086003466,2023-11-10 12:12:13.952706,2023-11-10 12:12:14.329223,DD018.jpg,0,10810,40-69,2023-11-10_12h08.50.605,Recall,2021.2.3,59.83803042588623,
,SD030.jpg,0,MF030.jpg,0,,,,,0,78,78,79,imgFunc,9,NA,0.10594429995398968,218.81624930002727,219.00740696000867,2023-11-10 12:12:14.342191,2023-11-10 12:12:14.529520,SD030.jpg,0,10810,40-69,2023-11-10_12h08.50.605,Recall,2021.2.3,59.83803042588623,
,DD002.jpg,0,FF002.jpg,0,,,,,0,79,79,1,imgFunc,1,NA,0.7157147999969311,219.0063811999862,219.8086139599327,2023-11-10 12:12:14.536503,2023-11-10 12:12:15.330140,DD002.jpg,0,10810,40-69,2023-11-10_12h08.50.605,Recall,2021.2.3,59.83803042588623,
,SD035.jpg,0,MF035.jpg,0,,,,,0,80,80,84,imgFunc,2,NA,0.5577461000066251,219.80451580003137,220.45671165996464,2023-11-10 12:12:15.337123,2023-11-10 12:12:15.980286,SD035.jpg,0,10810,40-69,2023-11-10_12h08.50.605,Recall,2021.2.3,59.83803042588623,
,SD025.jpg,0,MF025.jpg,0,,,,,0,81,81,74,imgFunc,0,NA,0.33128390001365915,220.454735300038,220.87325165997026,2023-11-10 12:12:15.987296,2023-11-10 12:12:16.397500,SD025.jpg,0,10810,40-69,2023-11-10_12h08.50.605,Recall,2021.2.3,59.83803042588623,
,L_DD507.jpg,1,L_FF507.jpg,1,,,,,0,82,82,46,imgFunc,9,NA,0.352032600028906,220.87414149998222,221.32595205999678,2023-11-10 12:12:16.404483,2023-11-10 12:12:16.847678,L_DD507.jpg,1,10810,40-69,2023-11-10_12h08.50.605,Recall,2021.2.3,59.83803042588623,
,L_SD508.jpg,1,L_MF508.jpg,1,,,,,0,83,83,97,imgFunc,1,NA,1.4326482000178657,221.32962340000086,222.84922276000725,2023-11-10 12:12:16.863637,2023-11-10 12:12:18.382273,L_SD508.jpg,1,10810,40-69,2023-11-10_12h08.50.605,Recall,2021.2.3,59.83803042588623,
,DD030.jpg,0,FF030.jpg,0,,,,,0,84,84,29,imgFunc,1,NA,1.6574303000234067,222.8568149000057,224.60936565999873,2023-11-10 12:12:18.389256,2023-11-10 12:12:20.133457,DD030.jpg,0,10810,40-69,2023-11-10_12h08.50.605,Recall,2021.2.3,59.83803042588623,
,SD012.jpg,0,MF012.jpg,0,,,,,0,85,85,61,imgFunc,0,NA,2.4845799999893643,224.61354610003764,227.199787760037,2023-11-10 12:12:20.140462,2023-11-10 12:12:22.718650,SD012.jpg,0,10810,40-69,2023-11-10_12h08.50.605,Recall,2021.2.3,59.83803042588623,
,DD027.jpg,0,FF027.jpg,0,,,,,0,86,86,26,imgFunc,2,NA,2.954534899967257,227.19147100002738,230.228396660008,2023-11-10 12:12:22.725633,2023-11-10 12:12:25.754082,DD027.jpg,0,10810,40-69,2023-11-10_12h08.50.605,Recall,2021.2.3,59.83803042588623,
,SD031.jpg,0,MF031.jpg,0,,,,,0,87,87,80,imgFunc,0,NA,1.8013177000102587,230.23286590003408,232.1357646600227,2023-11-10 12:12:25.761066,2023-11-10 12:12:27.655472,SD031.jpg,0,10810,40-69,2023-11-10_12h08.50.605,Recall,2021.2.3,59.83803042588623,
,SD002.jpg,0,MF002.jpg,0,,,,,0,88,88,51,imgFunc,2,NA,2.4039296999690123,232.1502107999986,234.65479115996277,2023-11-10 12:12:27.670434,2023-11-10 12:12:30.173938,SD002.jpg,0,10810,40-69,2023-11-10_12h08.50.605,Recall,2021.2.3,59.83803042588623,
,SD003.jpg,0,MF003.jpg,0,,,,,0,89,89,52,imgFunc,2,NA,2.894627899979241,234.65125370002352,237.63814496004488,2023-11-10 12:12:30.180921,2023-11-10 12:12:33.159273,SD003.jpg,0,10810,40-69,2023-11-10_12h08.50.605,Recall,2021.2.3,59.83803042588623,
,SD001.jpg,0,MF001.jpg,0,,,,,0,90,90,50,imgFunc,0,NA,0.6382053999695927,237.63599550002255,238.37139466003282,2023-11-10 12:12:33.166256,2023-11-10 12:12:33.893298,SD001.jpg,0,10810,40-69,2023-11-10_12h08.50.605,Recall,2021.2.3,59.83803042588623,
,DD021.jpg,0,FF021.jpg,0,,,,,0,91,91,20,imgFunc,9,NA,0.41572639998048544,238.37037180003244,238.87251245998777,2023-11-10 12:12:33.900282,2023-11-10 12:12:34.393874,DD021.jpg,0,10810,40-69,2023-11-10_12h08.50.605,Recall,2021.2.3,59.83803042588623,
,DD023.jpg,0,FF023.jpg,0,,,,,0,92,92,22,imgFunc,0,NA,0.5441723000258207,238.87395310000284,239.508965660003,2023-11-10 12:12:34.400857,2023-11-10 12:12:35.027578,DD023.jpg,0,10810,40-69,2023-11-10_12h08.50.605,Recall,2021.2.3,59.83803042588623,
,DD006.jpg,0,FF006.jpg,0,,,,,0,93,93,5,imgFunc,1,NA,0.37751550000393763,239.5047069999855,239.97327055997448,2023-11-10 12:12:35.034561,2023-11-10 12:12:35.494372,DD006.jpg,0,10810,40-69,2023-11-10_12h08.50.605,Recall,2021.2.3,59.83803042588623,
,SD028.jpg,0,MF028.jpg,0,,,,,0,94,94,77,imgFunc,2,NA,0.4593261999543756,239.97483780002221,240.52704906003783,2023-11-10 12:12:35.501361,2023-11-10 12:12:36.044927,SD028.jpg,0,10810,40-69,2023-11-10_12h08.50.605,Recall,2021.2.3,59.83803042588623,
,L_DD509.jpg,1,L_FF509.jpg,1,,,,,0,95,95,48,imgFunc,9,NA,0.8693644999875687,240.52479340002174,241.4934348600218,2023-11-10 12:12:36.052859,2023-11-10 12:12:37.012385,L_DD509.jpg,1,10810,40-69,2023-11-10_12h08.50.605,Recall,2021.2.3,59.83803042588623,
,L_SD505.jpg,1,L_MF505.jpg,1,,,,,0,96,96,94,imgFunc,0,NA,0.44026930001564324,241.48982180003077,242.02502086001914,2023-11-10 12:12:37.019368,2023-11-10 12:12:37.545985,L_SD505.jpg,1,10810,40-69,2023-11-10_12h08.50.605,Recall,2021.2.3,59.83803042588623,
,L_DD503.jpg,1,L_FF503.jpg,1,,,,,0,97,97,42,imgFunc,1,NA,0.7300112000084482,242.03211810003268,242.85661145998165,2023-11-10 12:12:37.558952,2023-11-10 12:12:38.379955,L_DD503.jpg,1,10810,40-69,2023-11-10_12h08.50.605,Recall,2021.2.3,59.83803042588623,
,SD018.jpg,0,MF018.jpg,0,,,,,0,98,98,67,imgFunc,2,NA,0.4413314000121318,242.85678219998954,243.3898025599774,2023-11-10 12:12:38.387936,2023-11-10 12:12:38.913672,SD018.jpg,0,10810,40-69,2023-11-10_12h08.50.605,Recall,2021.2.3,59.83803042588623,
,SD014.jpg,0,MF014.jpg,0,,,,,0,99,99,63,imgFunc,9,NA,0.294351699994877,243.3878991000238,243.77314076002222,2023-11-10 12:12:38.920655,2023-11-10 12:12:39.297328,SD014.jpg,0,10810,40-69,2023-11-10_12h08.50.605,Recall,2021.2.3,59.83803042588623,
,,,,,,,,,,,,,instrFunc,space,"Great work! 

 Now you will switch to the other image type.

 Press the spacebar whenever you are ready to start.",3.8610109000001103,243.70885150000686,247.60822806000942,2023-11-10 12:12:39.298328,2023-11-10 12:12:43.181907,,,10810,40-69,2023-11-10_12h08.50.605,Recall,2021.2.3,59.83803042588623,
,L_SD506.jpg,1,L_MF506.jpg,1,,,,,0,0,0,95,imgFunc,1,NA,4.25433929997962,247.68379109998932,252.03253171994584,2023-11-10 12:12:43.209835,2023-11-10 12:12:47.553091,L_MF506.jpg,1,10810,40-69,2023-11-10_12h08.50.605,Recall,2021.2.3,59.83803042588623,
,L_SD503.jpg,1,L_MF503.jpg,1,,,,,0,1,1,92,imgFunc,1,NA,4.235992899979465,252.03813150001224,256.37498175998917,2023-11-10 12:12:47.561097,2023-11-10 12:12:51.889497,L_MF503.jpg,1,10810,40-69,2023-11-10_12h08.50.605,Recall,2021.2.3,59.83803042588623,
,L_DD503.jpg,1,L_FF503.jpg,1,,,,,0,2,2,42,imgFunc,1,NA,1.2840606999816373,256.37406609999016,257.7598973599961,2023-11-10 12:12:51.896480,2023-11-10 12:12:53.274140,L_FF503.jpg,1,10810,40-69,2023-11-10_12h08.50.605,Recall,2021.2.3,59.83803042588623,
,DD039.jpg,0,FF039.jpg,0,,,,,0,3,3,38,imgFunc,2,NA,3.0954513999749906,257.7627741000033,260.95713056001114,2023-11-10 12:12:53.286110,2023-11-10 12:12:56.476239,FF039.jpg,0,10810,40-69,2023-11-10_12h08.50.605,Recall,2021.2.3,59.83803042588623,
,SD033.jpg,0,MF033.jpg,0,,,,,0,4,4,82,imgFunc,1,NA,2.1196694999816827,260.9624992000172,263.1827371600084,2023-11-10 12:12:56.483223,2023-11-10 12:12:58.694791,MF033.jpg,0,10810,40-69,2023-11-10_12h08.50.605,Recall,2021.2.3,59.83803042588623,
,SD036.jpg,0,MF036.jpg,0,,,,,0,5,5,85,imgFunc,1,NA,1.2318256999715231,263.17803950002417,264.51314326009015,2023-11-10 12:12:58.701774,2023-11-10 12:13:00.028407,MF036.jpg,0,10810,40-69,2023-11-10_12h08.50.605,Recall,2021.2.3,59.83803042588623,
,DD021.jpg,0,FF021.jpg,0,,,,,0,6,6,20,imgFunc,1,NA,1.6383386999950744,264.5237794999848,266.27651806001086,2023-11-10 12:13:00.036377,2023-11-10 12:13:01.780095,FF021.jpg,0,10810,40-69,2023-11-10_12h08.50.605,Recall,2021.2.3,59.83803042588623,
,SD007.jpg,0,MF007.jpg,0,,,,,0,7,7,56,imgFunc,1,NA,2.643846200022381,266.29433810000774,269.0646428600303,2023-11-10 12:13:01.787078,2023-11-10 12:13:04.548784,MF007.jpg,0,10810,40-69,2023-11-10_12h08.50.605,Recall,2021.2.3,59.83803042588623,
,DD009.jpg,0,FF009.jpg,0,,,,,0,8,8,8,imgFunc,2,NA,1.161272800003644,269.0249068000121,270.2777916599298,2023-11-10 12:13:04.555767,2023-11-10 12:13:05.799662,FF009.jpg,0,10810,40-69,2023-11-10_12h08.50.605,Recall,2021.2.3,59.83803042588623,
,DD016.jpg,0,FF016.jpg,0,,,,,0,9,9,15,imgFunc,2,NA,1.068425000004936,270.2777287000208,271.44722106005065,2023-11-10 12:13:05.806645,2023-11-10 12:13:06.967319,FF016.jpg,0,10810,40-69,2023-11-10_12h08.50.605,Recall,2021.2.3,59.83803042588623,
,L_DD501.jpg,1,L_FF501.jpg,1,,,,,0,10,10,40,imgFunc,1,NA,1.379879800020717,271.45422389998566,272.94042995997006,2023-11-10 12:13:06.974302,2023-11-10 12:13:08.451574,L_FF501.jpg,1,10810,40-69,2023-11-10_12h08.50.605,Recall,2021.2.3,59.83803042588623,
,SD038.jpg,0,MF038.jpg,0,,,,,0,11,11,87,imgFunc,1,NA,1.3378902999684215,272.9359256000025,274.3719589600223,2023-11-10 12:13:08.458558,2023-11-10 12:13:09.886027,MF038.jpg,0,10810,40-69,2023-11-10_12h08.50.605,Recall,2021.2.3,59.83803042588623,
,DD029.jpg,0,FF029.jpg,0,,,,,0,12,12,28,imgFunc,2,NA,1.2981147000100464,274.3842577000032,275.791483959998,2023-11-10 12:13:09.898993,2023-11-10 12:13:11.303638,FF029.jpg,0,10810,40-69,2023-11-10_12h08.50.605,Recall,2021.2.3,59.83803042588623,
,SD005.jpg,0,MF005.jpg,0,,,,,0,13,13,54,imgFunc,1,NA,0.6628658999688923,275.79537060001167,276.56374156003585,2023-11-10 12:13:11.310621,2023-11-10 12:13:12.070910,MF005.jpg,0,10810,40-69,2023-11-10_12h08.50.605,Recall,2021.2.3,59.83803042588623,
,DD001.jpg,0,FF001.jpg,0,,,,,0,14,14,0,imgFunc,1,NA,1.7414720000233501,276.5565737999859,278.3930875599617,2023-11-10 12:13:12.077894,2023-11-10 12:13:13.905286,FF001.jpg,0,10810,40-69,2023-11-10_12h08.50.605,Recall,2021.2.3,59.83803042588623,
,SD012.jpg,0,MF012.jpg,0,,,,,0,15,15,61,imgFunc,2,NA,1.0622724000131711,278.38752069999464,279.55597605992807,2023-11-10 12:13:13.913289,2023-11-10 12:13:15.072931,MF012.jpg,0,10810,40-69,2023-11-10_12h08.50.605,Recall,2021.2.3,59.83803042588623,
,L_SD509.jpg,1,L_MF509.jpg,1,,,,,0,16,16,98,imgFunc,1,NA,0.875224299961701,279.55084500001976,280.5201434600167,2023-11-10 12:13:15.079914,2023-11-10 12:13:16.040360,L_MF509.jpg,1,10810,40-69,2023-11-10_12h08.50.605,Recall,2021.2.3,59.83803042588623,
,DD002.jpg,0,FF002.jpg,0,,,,,0,17,17,1,imgFunc,2,NA,1.2984939000452869,280.5356582000386,281.94029706006404,2023-11-10 12:13:16.055322,2023-11-10 12:13:17.457516,FF002.jpg,0,10810,40-69,2023-11-10_12h08.50.605,Recall,2021.2.3,59.83803042588623,
,DD014.jpg,0,FF014.jpg,0,,,,,0,18,18,13,imgFunc,2,NA,1.849883199960459,281.94391660002293,283.8960256600403,2023-11-10 12:13:17.465496,2023-11-10 12:13:19.408963,FF014.jpg,0,10810,40-69,2023-11-10_12h08.50.605,Recall,2021.2.3,59.83803042588623,
,DD035.jpg,0,FF035.jpg,0,,,,,0,19,19,34,imgFunc,1,NA,1.5343382999999449,283.89170480001485,285.5282307600719,2023-11-10 12:13:19.415942,2023-11-10 12:13:21.044112,FF035.jpg,0,10810,40-69,2023-11-10_12h08.50.605,Recall,2021.2.3,59.83803042588623,
,SD003.jpg,0,MF003.jpg,0,,,,,0,20,20,52,imgFunc,1,NA,1.5049486000207253,285.5212194999913,287.12388975993963,2023-11-10 12:13:21.051100,2023-11-10 12:13:22.645155,MF003.jpg,0,10810,40-69,2023-11-10_12h08.50.605,Recall,2021.2.3,59.83803042588623,
,SD034.jpg,0,MF034.jpg,0,,,,,0,21,21,83,imgFunc,2,NA,0.9057274999795482,287.1364201999968,288.15552055992885,2023-11-10 12:13:22.652138,2023-11-10 12:13:23.662690,MF034.jpg,0,10810,40-69,2023-11-10_12h08.50.605,Recall,2021.2.3,59.83803042588623,
,DD005.jpg,0,FF005.jpg,0,,,,,0,22,22,4,imgFunc,1,NA,0.793841699953191,288.1522481000284,289.05438086000504,2023-11-10 12:13:23.669673,2023-11-10 12:13:24.563296,FF005.jpg,0,10810,40-69,2023-11-10_12h08.50.605,Recall,2021.2.3,59.83803042588623,
,L_SD505.jpg,1,L_MF505.jpg,1,,,,,0,23,23,94,imgFunc,1,NA,1.4528307999717072,289.0531888999976,290.6052721599699,2023-11-10 12:13:24.570303,2023-11-10 12:13:26.114195,L_MF505.jpg,1,10810,40-69,2023-11-10_12h08.50.605,Recall,2021.2.3,59.83803042588623,
,SD035.jpg,0,MF035.jpg,0,,,,,0,24,24,84,imgFunc,1,NA,1.798333199985791,290.59570689999964,292.49793295998825,2023-11-10 12:13:26.122217,2023-11-10 12:13:28.015671,MF035.jpg,0,10810,40-69,2023-11-10_12h08.50.605,Recall,2021.2.3,59.83803042588623,
,L_DD504.jpg,1,L_FF504.jpg,1,,,,,0,25,25,43,imgFunc,9,NA,4.981509900011588,292.5002739999909,297.58756295999046,2023-11-10 12:13:28.023652,2023-11-10 12:13:33.102511,L_FF504.jpg,1,10810,40-69,2023-11-10_12h08.50.605,Recall,2021.2.3,59.83803042588623,
,DD015.jpg,0,FF015.jpg,0,,,,,0,26,26,14,imgFunc,2,NA,3.161501499998849,297.6085496000014,300.89416561997496,2023-11-10 12:13:33.119467,2023-11-10 12:13:36.388331,FF015.jpg,0,10810,40-69,2023-11-10_12h08.50.605,Recall,2021.2.3,59.83803042588623,
,DD037.jpg,0,FF037.jpg,0,,,,,0,27,27,36,imgFunc,0,NA,2.792654599994421,300.87340430001495,303.77575406001415,2023-11-10 12:13:36.396202,2023-11-10 12:13:39.290503,FF037.jpg,0,10810,40-69,2023-11-10_12h08.50.605,Recall,2021.2.3,59.83803042588623,
,DD036.jpg,0,FF036.jpg,0,,,,,0,28,28,35,imgFunc,9,NA,2.320476900029462,303.77767270000186,306.1974297599518,2023-11-10 12:13:39.297486,2023-11-10 12:13:41.709166,FF036.jpg,0,10810,40-69,2023-11-10_12h08.50.605,Recall,2021.2.3,59.83803042588623,
,SD015.jpg,0,MF015.jpg,0,,,,,0,29,29,64,imgFunc,1,NA,2.4249190999544226,306.20119350001914,308.7373706600047,2023-11-10 12:13:41.716148,2023-11-10 12:13:44.244158,MF015.jpg,0,10810,40-69,2023-11-10_12h08.50.605,Recall,2021.2.3,59.83803042588623,
,DD006.jpg,0,FF006.jpg,0,,,,,0,30,30,5,imgFunc,0,NA,2.8688985000480898,308.74123630003305,311.72495955997147,2023-11-10 12:13:44.253135,2023-11-10 12:13:47.229558,FF006.jpg,0,10810,40-69,2023-11-10_12h08.50.605,Recall,2021.2.3,59.83803042588623,
,DD031.jpg,0,FF031.jpg,0,,,,,0,31,31,30,imgFunc,1,NA,1.5750181999756023,311.73097620002227,313.4027403600048,2023-11-10 12:13:47.244520,2023-11-10 12:13:48.914486,FF031.jpg,0,10810,40-69,2023-11-10_12h08.50.605,Recall,2021.2.3,59.83803042588623,
,DD008.jpg,0,FF008.jpg,0,,,,,0,32,32,7,imgFunc,9,NA,2.7341420999728143,313.39590960001806,316.23248986003455,2023-11-10 12:13:48.921469,2023-11-10 12:13:51.749379,FF008.jpg,0,10810,40-69,2023-11-10_12h08.50.605,Recall,2021.2.3,59.83803042588623,
,DD030.jpg,0,FF030.jpg,0,,,,,0,33,33,29,imgFunc,9,NA,1.0962371999630705,316.22577640000964,317.4118157600169,2023-11-10 12:13:51.756362,2023-11-10 12:13:52.933966,FF030.jpg,0,10810,40-69,2023-11-10_12h08.50.605,Recall,2021.2.3,59.83803042588623,
,DD038.jpg,0,FF038.jpg,0,,,,,0,34,34,37,imgFunc,1,NA,2.1185727000120096,317.41955719998805,319.63826635997975,2023-11-10 12:13:52.941969,2023-11-10 12:13:55.151779,FF038.jpg,0,10810,40-69,2023-11-10_12h08.50.605,Recall,2021.2.3,59.83803042588623,
,SD008.jpg,0,MF008.jpg,0,,,,,0,35,35,57,imgFunc,9,NA,2.919583300012164,319.65053700003773,322.6872340600821,2023-11-10 12:13:55.158762,2023-11-10 12:13:58.187282,MF008.jpg,0,10810,40-69,2023-11-10_12h08.50.605,Recall,2021.2.3,59.83803042588623,
,SD024.jpg,0,MF024.jpg,0,,,,,0,36,36,73,imgFunc,1,NA,1.6011605000239797,322.6729565000278,324.3733936600038,2023-11-10 12:13:58.196282,2023-11-10 12:13:59.888944,MF024.jpg,0,10810,40-69,2023-11-10_12h08.50.605,Recall,2021.2.3,59.83803042588623,
,DD007.jpg,0,FF007.jpg,0,,,,,0,37,37,6,imgFunc,1,NA,0.9922094000503421,324.3778105000383,325.47988266003085,2023-11-10 12:13:59.895928,2023-11-10 12:14:00.989517,FF007.jpg,0,10810,40-69,2023-11-10_12h08.50.605,Recall,2021.2.3,59.83803042588623,
,DD027.jpg,0,FF027.jpg,0,,,,,0,38,38,26,imgFunc,0,NA,1.2793358999770135,325.4747524000122,326.8600273600314,2023-11-10 12:14:00.997112,2023-11-10 12:14:02.373950,FF027.jpg,0,10810,40-69,2023-11-10_12h08.50.605,Recall,2021.2.3,59.83803042588623,
,DD003.jpg,0,FF003.jpg,0,,,,,0,39,39,2,imgFunc,9,NA,0.4677240999881178,326.8622671000194,327.4299923600047,2023-11-10 12:14:02.381931,2023-11-10 12:14:02.941034,FF003.jpg,0,10810,40-69,2023-11-10_12h08.50.605,Recall,2021.2.3,59.83803042588623,
,SD027.jpg,0,MF027.jpg,0,,,,,0,40,40,76,imgFunc,1,NA,1.4486399000161327,327.43324169999687,328.9729804599774,2023-11-10 12:14:02.954999,2023-11-10 12:14:04.492070,MF027.jpg,0,10810,40-69,2023-11-10_12h08.50.605,Recall,2021.2.3,59.83803042588623,
,DD018.jpg,0,FF018.jpg,0,,,,,0,41,41,17,imgFunc,1,NA,2.2683029000181705,328.97374869999476,331.3439381599892,2023-11-10 12:14:04.499053,2023-11-10 12:14:06.860525,FF018.jpg,0,10810,40-69,2023-11-10_12h08.50.605,Recall,2021.2.3,59.83803042588623,
,L_SD508.jpg,1,L_MF508.jpg,1,,,,,0,42,42,97,imgFunc,0,NA,1.268789800000377,331.3411914000171,332.7105988599942,2023-11-10 12:14:06.867508,2023-11-10 12:14:08.228144,L_MF508.jpg,1,10810,40-69,2023-11-10_12h08.50.605,Recall,2021.2.3,59.83803042588623,
,L_DD508.jpg,1,L_FF508.jpg,1,,,,,0,43,43,47,imgFunc,9,NA,0.9236765000387095,332.71041599998716,333.7296828600229,2023-11-10 12:14:08.235127,2023-11-10 12:14:09.245579,L_FF508.jpg,1,10810,40-69,2023-11-10_12h08.50.605,Recall,2021.2.3,59.83803042588623,
,SD001.jpg,0,MF001.jpg,0,,,,,0,44,44,50,imgFunc,9,NA,1.7849924999754876,333.73691500001587,335.62241086002905,2023-11-10 12:14:09.253560,2023-11-10 12:14:11.129961,MF001.jpg,0,10810,40-69,2023-11-10_12h08.50.605,Recall,2021.2.3,59.83803042588623,
,L_SD504.jpg,1,L_MF504.jpg,1,,,,,0,45,45,93,imgFunc,9,NA,2.1312348000355996,335.6227275999845,337.84479515993735,2023-11-10 12:14:11.144946,2023-11-10 12:14:13.365220,L_MF504.jpg,1,10810,40-69,2023-11-10_12h08.50.605,Recall,2021.2.3,59.83803042588623,
,SD014.jpg,0,MF014.jpg,0,,,,,0,46,46,63,imgFunc,1,NA,1.5087209999910556,337.84523760003503,339.448258659977,2023-11-10 12:14:13.372203,2023-11-10 12:14:14.966337,MF014.jpg,0,10810,40-69,2023-11-10_12h08.50.605,Recall,2021.2.3,59.83803042588623,
,SD025.jpg,0,MF025.jpg,0,,,,,0,47,47,74,imgFunc,1,NA,1.8451719000004232,339.4527845000266,341.40443546004826,2023-11-10 12:14:14.974317,2023-11-10 12:14:16.917648,MF025.jpg,0,10810,40-69,2023-11-10_12h08.50.605,Recall,2021.2.3,59.83803042588623,
,DD040.jpg,0,FF040.jpg,0,,,,,0,48,48,39,imgFunc,0,NA,1.4337920999969356,341.4162315999856,342.96903315995587,2023-11-10 12:14:16.924632,2023-11-10 12:14:18.468493,FF040.jpg,0,10810,40-69,2023-11-10_12h08.50.605,Recall,2021.2.3,59.83803042588623,
,SD031.jpg,0,MF031.jpg,0,,,,,0,49,49,80,imgFunc,1,NA,1.1078101000166498,342.97391719999723,344.2094843600062,2023-11-10 12:14:18.476456,2023-11-10 12:14:19.702894,MF031.jpg,0,10810,40-69,2023-11-10_12h08.50.605,Recall,2021.2.3,59.83803042588623,
,DD013.jpg,0,FF013.jpg,0,,,,,0,50,50,12,imgFunc,9,NA,2.0944827999919653,344.1795439000125,346.3661047599744,2023-11-10 12:14:19.709877,2023-11-10 12:14:21.887765,FF013.jpg,0,10810,40-69,2023-11-10_12h08.50.605,Recall,2021.2.3,59.83803042588623,
,L_DD505.jpg,1,L_FF505.jpg,1,,,,,0,51,51,44,imgFunc,9,NA,1.7238430000143126,346.3661380999838,348.18599665997317,2023-11-10 12:14:21.894748,2023-11-10 12:14:23.705884,L_FF505.jpg,1,10810,40-69,2023-11-10_12h08.50.605,Recall,2021.2.3,59.83803042588623,
,SD022.jpg,0,MF022.jpg,0,,,,,0,52,52,71,imgFunc,9,NA,1.156123899971135,348.189797500032,349.442570860032,2023-11-10 12:14:23.712867,2023-11-10 12:14:24.956855,MF022.jpg,0,10810,40-69,2023-11-10_12h08.50.605,Recall,2021.2.3,59.83803042588623,
,DD034.jpg,0,FF034.jpg,0,,,,,0,53,53,33,imgFunc,9,NA,0.9144332999712788,349.44759310001973,350.4659234600258,2023-11-10 12:14:24.964631,2023-11-10 12:14:25.974315,FF034.jpg,0,10810,40-69,2023-11-10_12h08.50.605,Recall,2021.2.3,59.83803042588623,
,SD029.jpg,0,MF029.jpg,0,,,,,0,54,54,78,imgFunc,0,NA,0.9727233999874443,350.46105560002616,351.535364559968,2023-11-10 12:14:25.987282,2023-11-10 12:14:27.058313,MF029.jpg,0,10810,40-69,2023-11-10_12h08.50.605,Recall,2021.2.3,59.83803042588623,
,DD012.jpg,0,FF012.jpg,0,,,,,0,55,55,11,imgFunc,9,NA,1.37537969998084,351.5387965000118,353.00795655994443,2023-11-10 12:14:27.066072,2023-11-10 12:14:28.526073,FF012.jpg,0,10810,40-69,2023-11-10_12h08.50.605,Recall,2021.2.3,59.83803042588623,
,L_SD502.jpg,1,L_MF502.jpg,1,,,,,0,56,56,91,imgFunc,9,NA,0.9078297999803908,353.0060539999977,354.0088748599519,2023-11-10 12:14:28.533056,2023-11-10 12:14:29.526926,L_MF502.jpg,1,10810,40-69,2023-11-10_12h08.50.605,Recall,2021.2.3,59.83803042588623,
,SD018.jpg,0,MF018.jpg,0,,,,,0,57,57,67,imgFunc,1,NA,1.4808421999914572,354.0091222000192,355.59532195999054,2023-11-10 12:14:29.533909,2023-11-10 12:14:31.111305,MF018.jpg,0,10810,40-69,2023-11-10_12h08.50.605,Recall,2021.2.3,59.83803042588623,
,DD019.jpg,0,FF019.jpg,0,,,,,0,58,58,18,imgFunc,1,NA,1.6776455999934115,355.5962896000128,357.38254386000335,2023-11-10 12:14:31.118311,2023-11-10 12:14:32.895762,FF019.jpg,0,10810,40-69,2023-11-10_12h08.50.605,Recall,2021.2.3,59.83803042588623,
,DD017.jpg,0,FF017.jpg,0,,,,,0,59,59,16,imgFunc,1,NA,1.42792379995808,357.3901083000237,358.9109205600689,2023-11-10 12:14:32.910610,2023-11-10 12:14:34.430517,FF017.jpg,0,10810,40-69,2023-11-10_12h08.50.605,Recall,2021.2.3,59.83803042588623,
,DD033.jpg,0,FF033.jpg,0,,,,,0,60,60,32,imgFunc,9,NA,1.7545609999797307,358.9115232999902,360.7645529599977,2023-11-10 12:14:34.437500,2023-11-10 12:14:36.281625,FF033.jpg,0,10810,40-69,2023-11-10_12h08.50.605,Recall,2021.2.3,59.83803042588623,
,SD032.jpg,0,MF032.jpg,0,,,,,0,61,61,81,imgFunc,0,NA,1.116602799971588,360.75728590000654,361.97622196003795,2023-11-10 12:14:36.288608,2023-11-10 12:14:37.498613,MF032.jpg,0,10810,40-69,2023-11-10_12h08.50.605,Recall,2021.2.3,59.83803042588623,
,L_SD510.jpg,1,L_MF510.jpg,1,,,,,0,62,62,99,imgFunc,9,NA,2.1487601999542676,361.9809924000292,364.23468486004276,2023-11-10 12:14:37.505619,2023-11-10 12:14:39.750780,L_MF510.jpg,1,10810,40-69,2023-11-10_12h08.50.605,Recall,2021.2.3,59.83803042588623,
,SD010.jpg,0,MF010.jpg,0,,,,,0,63,63,59,imgFunc,9,NA,1.316987500002142,364.23697249998804,365.65612916002283,2023-11-10 12:14:39.757763,2023-11-10 12:14:41.168532,MF010.jpg,0,10810,40-69,2023-11-10_12h08.50.605,Recall,2021.2.3,59.83803042588623,
,DD025.jpg,0,FF025.jpg,0,,,,,0,64,64,24,imgFunc,1,NA,2.1218053000047803,365.66424559999723,367.88673725997796,2023-11-10 12:14:41.182497,2023-11-10 12:14:43.403480,FF025.jpg,0,10810,40-69,2023-11-10_12h08.50.605,Recall,2021.2.3,59.83803042588623,
,DD004.jpg,0,FF004.jpg,0,,,,,0,65,65,3,imgFunc,2,NA,0.5156539999879897,367.8864032999845,368.5052531599649,2023-11-10 12:14:43.410463,2023-11-10 12:14:44.020454,FF004.jpg,0,10810,40-69,2023-11-10_12h08.50.605,Recall,2021.2.3,59.83803042588623,
,L_DD502.jpg,1,L_FF502.jpg,1,,,,,0,66,66,41,imgFunc,0,NA,1.5672386000514962,368.50675260002026,370.17645825998625,2023-11-10 12:14:44.027437,2023-11-10 12:14:45.688381,L_FF502.jpg,1,10810,40-69,2023-11-10_12h08.50.605,Recall,2021.2.3,59.83803042588623,
,DD020.jpg,0,FF020.jpg,0,,,,,0,67,67,19,imgFunc,1,NA,2.1582446999964304,370.17163890000666,372.42519416002324,2023-11-10 12:14:45.695364,2023-11-10 12:14:47.940050,FF020.jpg,0,10810,40-69,2023-11-10_12h08.50.605,Recall,2021.2.3,59.83803042588623,
,SD017.jpg,0,MF017.jpg,0,,,,,0,68,68,66,imgFunc,1,NA,1.2224270000006072,372.43521890003467,373.7710650600493,2023-11-10 12:14:47.947033,2023-11-10 12:14:49.273853,MF017.jpg,0,10810,40-69,2023-11-10_12h08.50.605,Recall,2021.2.3,59.83803042588623,
,DD032.jpg,0,FF032.jpg,0,,,,,0,69,69,31,imgFunc,1,NA,1.1604003999964334,373.75345150002977,375.0063152600196,2023-11-10 12:14:49.280810,2023-11-10 12:14:50.525446,FF032.jpg,0,10810,40-69,2023-11-10_12h08.50.605,Recall,2021.2.3,59.83803042588623,
,SD019.jpg,0,MF019.jpg,0,,,,,0,70,70,68,imgFunc,9,NA,2.0583284000167623,375.0075056999922,377.16054375999374,2023-11-10 12:14:50.532429,2023-11-10 12:14:52.676663,MF019.jpg,0,10810,40-69,2023-11-10_12h08.50.605,Recall,2021.2.3,59.83803042588623,
,DD028.jpg,0,FF028.jpg,0,,,,,0,71,71,27,imgFunc,0,NA,2.185459300002549,377.1682249000296,379.4720063600689,2023-11-10 12:14:52.683646,2023-11-10 12:14:54.978524,FF028.jpg,0,10810,40-69,2023-11-10_12h08.50.605,Recall,2021.2.3,59.83803042588623,
,SD016.jpg,0,MF016.jpg,0,,,,,0,72,72,65,imgFunc,9,NA,0.7953063000459224,379.4703406000044,380.3724153600051,2023-11-10 12:14:54.985507,2023-11-10 12:14:55.878930,MF016.jpg,0,10810,40-69,2023-11-10_12h08.50.605,Recall,2021.2.3,59.83803042588623,
,SD009.jpg,0,MF009.jpg,0,,,,,0,73,73,58,imgFunc,0,NA,0.5421746000065468,380.3717661999981,381.0101138600148,2023-11-10 12:14:55.892894,2023-11-10 12:14:56.529562,MF009.jpg,0,10810,40-69,2023-11-10_12h08.50.605,Recall,2021.2.3,59.83803042588623,
,SD002.jpg,0,MF002.jpg,0,,,,,0,74,74,51,imgFunc,9,NA,0.6794670000090264,381.0105396999861,381.7961319599999,2023-11-10 12:14:56.536545,2023-11-10 12:14:57.313392,MF002.jpg,0,10810,40-69,2023-11-10_12h08.50.605,Recall,2021.2.3,59.83803042588623,
,L_SD501.jpg,1,L_MF501.jpg,1,,,,,0,75,75,90,imgFunc,0,NA,1.4112748999614269,381.7987821000279,383.318110060005,2023-11-10 12:14:57.320375,2023-11-10 12:14:58.831195,L_MF501.jpg,1,10810,40-69,2023-11-10_12h08.50.605,Recall,2021.2.3,59.83803042588623,
,L_DD509.jpg,1,L_FF509.jpg,1,,,,,0,76,76,48,imgFunc,1,NA,2.9039262000005692,383.31411089998437,386.3180717599462,2023-11-10 12:14:58.838178,2023-11-10 12:15:01.833275,L_FF509.jpg,1,10810,40-69,2023-11-10_12h08.50.605,Recall,2021.2.3,59.83803042588623,
,SD037.jpg,0,MF037.jpg,0,,,,,0,77,77,86,imgFunc,1,NA,2.6556234000017866,386.32231279998086,389.09229875996243,2023-11-10 12:15:01.840280,2023-11-10 12:15:04.601990,MF037.jpg,0,10810,40-69,2023-11-10_12h08.50.605,Recall,2021.2.3,59.83803042588623,
,SD013.jpg,0,MF013.jpg,0,,,,,0,78,78,62,imgFunc,1,NA,0.9385278999689035,389.0954503000248,390.13412026001606,2023-11-10 12:15:04.615955,2023-11-10 12:15:05.652832,MF013.jpg,0,10810,40-69,2023-11-10_12h08.50.605,Recall,2021.2.3,59.83803042588623,
,DD024.jpg,0,FF024.jpg,0,,,,,0,79,79,23,imgFunc,1,NA,1.0207227999926545,390.13329590001376,391.2527650600532,2023-11-10 12:15:05.659815,2023-11-10 12:15:06.770329,FF024.jpg,0,10810,40-69,2023-11-10_12h08.50.605,Recall,2021.2.3,59.83803042588623,
,DD010.jpg,0,FF010.jpg,0,,,,,0,80,80,9,imgFunc,9,NA,2.0419857000233606,391.25592209998285,393.4093878600397,2023-11-10 12:15:06.777312,2023-11-10 12:15:08.921812,FF010.jpg,0,10810,40-69,2023-11-10_12h08.50.605,Recall,2021.2.3,59.83803042588623,
,SD026.jpg,0,MF026.jpg,0,,,,,0,81,81,75,imgFunc,9,NA,1.228421600011643,393.4055679999874,394.74140785995405,2023-11-10 12:15:08.928795,2023-11-10 12:15:10.255899,MF026.jpg,0,10810,40-69,2023-11-10_12h08.50.605,Recall,2021.2.3,59.83803042588623,
,SD011.jpg,0,MF011.jpg,0,,,,,0,82,82,60,imgFunc,1,NA,0.9824419000069611,394.73946040001465,395.8258355599828,2023-11-10 12:15:10.262882,2023-11-10 12:15:11.340303,MF011.jpg,0,10810,40-69,2023-11-10_12h08.50.605,Recall,2021.2.3,59.83803042588623,
,SD039.jpg,0,MF039.jpg,0,,,,,0,83,83,88,imgFunc,2,NA,0.5184331000200473,395.8195099000004,396.4385255599627,2023-11-10 12:15:11.347286,2023-11-10 12:15:11.957295,MF039.jpg,0,10810,40-69,2023-11-10_12h08.50.605,Recall,2021.2.3,59.83803042588623,
,L_DD506.jpg,1,L_FF506.jpg,1,,,,,0,84,84,45,imgFunc,2,NA,1.5421102999825962,396.43569970002864,398.0720574600273,2023-11-10 12:15:11.964278,2023-11-10 12:15:13.592004,L_FF506.jpg,1,10810,40-69,2023-11-10_12h08.50.605,Recall,2021.2.3,59.83803042588623,
,SD020.jpg,0,MF020.jpg,0,,,,,0,85,85,69,imgFunc,0,NA,0.7827847999869846,398.07513810001547,398.96093225997174,2023-11-10 12:15:13.598987,2023-11-10 12:15:14.475977,MF020.jpg,0,10810,40-69,2023-11-10_12h08.50.605,Recall,2021.2.3,59.83803042588623,
,SD021.jpg,0,MF021.jpg,0,,,,,0,86,86,70,imgFunc,9,NA,0.3242471000412479,398.96575179998763,399.4002168599982,2023-11-10 12:15:14.483965,2023-11-10 12:15:14.909598,MF021.jpg,0,10810,40-69,2023-11-10_12h08.50.605,Recall,2021.2.3,59.83803042588623,
,SD004.jpg,0,MF004.jpg,0,,,,,0,87,87,53,imgFunc,1,NA,0.7547020000056364,399.4072697000229,400.26215726003284,2023-11-10 12:15:14.923563,2023-11-10 12:15:15.776593,MF004.jpg,0,10810,40-69,2023-11-10_12h08.50.605,Recall,2021.2.3,59.83803042588623,
,SD006.jpg,0,MF006.jpg,0,,,,,0,88,88,55,imgFunc,2,NA,0.5155931999906898,400.26245989999734,400.88176875998033,2023-11-10 12:15:15.783576,2023-11-10 12:15:16.393829,MF006.jpg,0,10810,40-69,2023-11-10_12h08.50.605,Recall,2021.2.3,59.83803042588623,
,DD011.jpg,0,FF011.jpg,0,,,,,0,89,89,10,imgFunc,0,NA,0.8122530999826267,400.87766679999186,401.796832359978,2023-11-10 12:15:16.400813,2023-11-10 12:15:17.311242,FF011.jpg,0,10810,40-69,2023-11-10_12h08.50.605,Recall,2021.2.3,59.83803042588623,
,DD026.jpg,0,FF026.jpg,0,,,,,0,90,90,25,imgFunc,9,NA,1.2125482999836095,401.79745650000405,403.1168230600306,2023-11-10 12:15:17.318225,2023-11-10 12:15:18.628839,FF026.jpg,0,10810,40-69,2023-11-10_12h08.50.605,Recall,2021.2.3,59.83803042588623,
,SD040.jpg,0,MF040.jpg,0,,,,,0,91,91,89,imgFunc,9,NA,3.6610243000322953,403.10886179999216,406.8633073599776,2023-11-10 12:15:18.635822,2023-11-10 12:15:22.381559,MF040.jpg,0,10810,40-69,2023-11-10_12h08.50.605,Recall,2021.2.3,59.83803042588623,
,SD028.jpg,0,MF028.jpg,0,,,,,0,92,92,77,imgFunc,9,NA,1.0685758999898098,406.8692887999932,408.0218924599467,2023-11-10 12:15:22.397316,2023-11-10 12:15:23.548944,MF028.jpg,0,10810,40-69,2023-11-10_12h08.50.605,Recall,2021.2.3,59.83803042588623,
,L_DD510.jpg,1,L_FF510.jpg,1,,,,,0,93,93,49,imgFunc,2,NA,3.0684353000251576,408.02946849999717,411.2000738599454,2023-11-10 12:15:23.555949,2023-11-10 12:15:26.718084,L_FF510.jpg,1,10810,40-69,2023-11-10_12h08.50.605,Recall,2021.2.3,59.83803042588623,
,DD023.jpg,0,FF023.jpg,0,,,,,0,94,94,22,imgFunc,1,NA,1.6832728000008501,411.1986319000134,412.98495786002604,2023-11-10 12:15:26.725067,2023-11-10 12:15:28.502655,FF023.jpg,0,10810,40-69,2023-11-10_12h08.50.605,Recall,2021.2.3,59.83803042588623,
,SD030.jpg,0,MF030.jpg,0,,,,,0,95,95,79,imgFunc,2,NA,0.8783567000064068,412.9954341999837,413.9816715599154,2023-11-10 12:15:28.509638,2023-11-10 12:15:29.487147,MF030.jpg,0,10810,40-69,2023-11-10_12h08.50.605,Recall,2021.2.3,59.83803042588623,
,DD022.jpg,0,FF022.jpg,0,,,,,0,96,96,21,imgFunc,0,NA,0.9134056999464519,413.9762983000255,414.9947965600295,2023-11-10 12:15:29.494130,2023-11-10 12:15:30.504173,FF022.jpg,0,10810,40-69,2023-11-10_12h08.50.605,Recall,2021.2.3,59.83803042588623,
,L_DD507.jpg,1,L_FF507.jpg,1,,,,,0,97,97,46,imgFunc,9,NA,0.4746965999947861,414.98318209999707,415.5515132599976,2023-11-10 12:15:30.511156,2023-11-10 12:15:31.071251,L_FF507.jpg,1,10810,40-69,2023-11-10_12h08.50.605,Recall,2021.2.3,59.83803042588623,
,SD023.jpg,0,MF023.jpg,0,,,,,0,98,98,72,imgFunc,0,NA,1.1560882000485435,415.54987689998234,416.80242205999093,2023-11-10 12:15:31.078234,2023-11-10 12:15:32.321991,MF023.jpg,0,10810,40-69,2023-11-10_12h08.50.605,Recall,2021.2.3,59.83803042588623,
,L_SD507.jpg,1,L_MF507.jpg,1,,,,,0,99,99,96,imgFunc,2,NA,1.2500806000316516,416.79986830003327,418.1524514600169,2023-11-10 12:15:32.328975,2023-11-10 12:15:33.673054,L_MF507.jpg,1,10810,40-69,2023-11-10_12h08.50.605,Recall,2021.2.3,59.83803042588623,
