onset	duration	trial_type	response_time	Endowment	Endowment_pmod	Decision	Decision_pmod	Offer_pmod
4.504754	2	cue_nonsocial	n/a	32	9	n/a	n/a	n/a
4.504754	2	cue_nonsocial_high	n/a	32	7	n/a	n/a	n/a
11.338142	2	cue_nonsocial	n/a	16	-7	n/a	n/a	n/a
11.338142	2	cue_nonsocial_low	n/a	16	-9	n/a	n/a	n/a
18.248800	2	cue_social	n/a	32	7	n/a	n/a	n/a
18.248800	2	cue_social_high	n/a	32	9	n/a	n/a	n/a
25.036219	2	cue_social	n/a	16	-9	n/a	n/a	n/a
25.036219	2	cue_social_low	n/a	16	-7	n/a	n/a	n/a
32.655354	2	cue_nonsocial	n/a	32	9	n/a	n/a	n/a
32.655354	2	cue_nonsocial_high	n/a	32	7	n/a	n/a	n/a
39.582320	2	cue_social	n/a	16	-9	n/a	n/a	n/a
39.582320	2	cue_social_low	n/a	16	-7	n/a	n/a	n/a
50.371670	2	cue_nonsocial	n/a	32	9	n/a	n/a	n/a
50.371670	2	cue_nonsocial_high	n/a	32	7	n/a	n/a	n/a
59.624940	2	cue_social	n/a	16	-9	n/a	n/a	n/a
59.624940	2	cue_social_low	n/a	16	-7	n/a	n/a	n/a
70.572840	2	cue_social	n/a	32	7	n/a	n/a	n/a
70.572840	2	cue_social_high	n/a	32	9	n/a	n/a	n/a
77.322480	2	cue_nonsocial	n/a	16	-7	n/a	n/a	n/a
77.322480	2	cue_nonsocial_low	n/a	16	-9	n/a	n/a	n/a
86.585640	2	cue_social	n/a	32	7	n/a	n/a	n/a
86.585640	2	cue_social_high	n/a	32	9	n/a	n/a	n/a
93.421260	2	cue_nonsocial	n/a	16	-7	n/a	n/a	n/a
93.421260	2	cue_nonsocial_low	n/a	16	-9	n/a	n/a	n/a
100.254070	2	cue_nonsocial	n/a	16	-7	n/a	n/a	n/a
100.254070	2	cue_nonsocial_low	n/a	16	-9	n/a	n/a	n/a
107.904820	2	cue_nonsocial	n/a	32	9	n/a	n/a	n/a
107.904820	2	cue_nonsocial_high	n/a	32	7	n/a	n/a	n/a
118.771645	2	cue_nonsocial	n/a	32	9	n/a	n/a	n/a
118.771645	2	cue_nonsocial_high	n/a	32	7	n/a	n/a	n/a
125.604410	2	cue_nonsocial	n/a	16	-7	n/a	n/a	n/a
125.604410	2	cue_nonsocial_low	n/a	16	-9	n/a	n/a	n/a
132.517910	2	cue_social	n/a	32	7	n/a	n/a	n/a
132.517910	2	cue_social_high	n/a	32	9	n/a	n/a	n/a
139.351350	2	cue_social	n/a	32	7	n/a	n/a	n/a
139.351350	2	cue_social_high	n/a	32	9	n/a	n/a	n/a
146.104370	2	cue_nonsocial	n/a	16	-7	n/a	n/a	n/a
146.104370	2	cue_nonsocial_low	n/a	16	-9	n/a	n/a	n/a
153.012680	2	cue_social	n/a	32	7	n/a	n/a	n/a
153.012680	2	cue_social_high	n/a	32	9	n/a	n/a	n/a
159.853320	2	cue_social	n/a	32	7	n/a	n/a	n/a
159.853320	2	cue_social_high	n/a	32	9	n/a	n/a	n/a
169.114870	2	cue_social	n/a	32	7	n/a	n/a	n/a
169.114870	2	cue_social_high	n/a	32	9	n/a	n/a	n/a
175.936390	2	cue_social	n/a	16	-9	n/a	n/a	n/a
175.936390	2	cue_social_low	n/a	16	-7	n/a	n/a	n/a
183.504270	2	cue_nonsocial	n/a	16	-7	n/a	n/a	n/a
183.504270	2	cue_nonsocial_low	n/a	16	-9	n/a	n/a	n/a
190.337200	2	cue_nonsocial	n/a	32	9	n/a	n/a	n/a
190.337200	2	cue_nonsocial_high	n/a	32	7	n/a	n/a	n/a
198.062850	2	cue_social	n/a	16	-9	n/a	n/a	n/a
198.062850	2	cue_social_low	n/a	16	-7	n/a	n/a	n/a
205.637740	2	cue_nonsocial	n/a	16	-7	n/a	n/a	n/a
205.637740	2	cue_nonsocial_low	n/a	16	-9	n/a	n/a	n/a
213.369550	2	cue_social	n/a	32	7	n/a	n/a	n/a
213.369550	2	cue_social_high	n/a	32	9	n/a	n/a	n/a
222.539280	2	cue_nonsocial	n/a	32	9	n/a	n/a	n/a
222.539280	2	cue_nonsocial_high	n/a	32	7	n/a	n/a	n/a
230.187470	2	cue_nonsocial	n/a	16	-7	n/a	n/a	n/a
230.187470	2	cue_nonsocial_low	n/a	16	-9	n/a	n/a	n/a
237.837660	2	cue_nonsocial	n/a	16	-7	n/a	n/a	n/a
237.837660	2	cue_nonsocial_low	n/a	16	-9	n/a	n/a	n/a
247.174350	2	cue_social	n/a	16	-9	n/a	n/a	n/a
247.174350	2	cue_social_low	n/a	16	-7	n/a	n/a	n/a
254.006680	2	cue_social	n/a	32	7	n/a	n/a	n/a
254.006680	2	cue_social_high	n/a	32	9	n/a	n/a	n/a
261.696560	2	cue_social	n/a	32	7	n/a	n/a	n/a
261.696560	2	cue_social_high	n/a	32	9	n/a	n/a	n/a
269.323060	2	cue_social	n/a	16	-9	n/a	n/a	n/a
269.323060	2	cue_social_low	n/a	16	-7	n/a	n/a	n/a
278.487000	2	cue_nonsocial	n/a	32	9	n/a	n/a	n/a
278.487000	2	cue_nonsocial_high	n/a	32	7	n/a	n/a	n/a
286.207800	2	cue_social	n/a	32	7	n/a	n/a	n/a
286.207800	2	cue_social_high	n/a	32	9	n/a	n/a	n/a
293.067660	2	cue_social	n/a	32	7	n/a	n/a	n/a
293.067660	2	cue_social_high	n/a	32	9	n/a	n/a	n/a
299.803960	2	cue_nonsocial	n/a	32	9	n/a	n/a	n/a
299.803960	2	cue_nonsocial_high	n/a	32	7	n/a	n/a	n/a
306.637150	2	cue_nonsocial	n/a	32	9	n/a	n/a	n/a
306.637150	2	cue_nonsocial_high	n/a	32	7	n/a	n/a	n/a
313.545700	2	cue_social	n/a	16	-9	n/a	n/a	n/a
313.545700	2	cue_social_low	n/a	16	-7	n/a	n/a	n/a
325.953920	2	cue_nonsocial	n/a	16	-7	n/a	n/a	n/a
325.953920	2	cue_nonsocial_low	n/a	16	-9	n/a	n/a	n/a
335.220860	2	cue_nonsocial	n/a	16	-7	n/a	n/a	n/a
335.220860	2	cue_nonsocial_low	n/a	16	-9	n/a	n/a	n/a
342.917880	2	cue_social	n/a	32	7	n/a	n/a	n/a
342.917880	2	cue_social_high	n/a	32	9	n/a	n/a	n/a
350.601750	2	cue_social	n/a	16	-9	n/a	n/a	n/a
350.601750	2	cue_social_low	n/a	16	-7	n/a	n/a	n/a
357.429100	2	cue_social	n/a	16	-9	n/a	n/a	n/a
357.429100	2	cue_social_low	n/a	16	-7	n/a	n/a	n/a
364.187350	2	cue_nonsocial	n/a	16	-7	n/a	n/a	n/a
364.187350	2	cue_nonsocial_low	n/a	16	-9	n/a	n/a	n/a
371.020700	2	cue_nonsocial	n/a	32	9	n/a	n/a	n/a
371.020700	2	cue_nonsocial_high	n/a	32	7	n/a	n/a	n/a
6.510696	1.233574	dec_nonsocial_choice	1.233574	32.000000	n/a	16	2.688802e-01	2.688802e-01
6.510696	1.233574	dec_choice	1.233574	32.000000	n/a	16	2.695312e-01	2.695312e-01
6.510696	1.233574	dec_nonsocial_accept	1.233574	32.000000	n/a	16	2.400915e-01	2.400915e-01
6.510696	1.233574	dec_accept	1.233574	32.000000	n/a	16	2.455357e-01	2.455357e-01
6.510696	1.233574	dec_nonsocial_high	1.233574	32.000000	n/a	16	2.695312e-01	2.695312e-01
6.510696	1.233574	dec_nonsocial_accept_high	1.233574	32.000000	n/a	16	2.455357e-01	2.455357e-01
13.344922	1.232887	dec_nonsocial_choice	1.232887	16.000000	n/a	8	2.688802e-01	2.688802e-01
13.344922	1.232887	dec_choice	1.232887	16.000000	n/a	8	2.695312e-01	2.695312e-01
13.344922	1.232887	dec_nonsocial_accept	1.232887	16.000000	n/a	8	2.400915e-01	2.400915e-01
13.344922	1.232887	dec_accept	1.232887	16.000000	n/a	8	2.455357e-01	2.455357e-01
13.344922	1.232887	dec_nonsocial_accept_high	1.232887	16.000000	n/a	8	2.343750e-01	2.343750e-01
20.177940	1.232480	dec_social_choice	1.232480	32.000000	n/a	8	1.888021e-02	1.888021e-02
20.177940	1.232480	dec_choice	1.232480	32.000000	n/a	8	1.822917e-02	1.822917e-02
20.177940	1.232480	dec_social_accept	1.232480	32.000000	n/a	8	-9.908537e-03	-9.908537e-03
20.177940	1.232480	dec_accept	1.232480	32.000000	n/a	8	-1.562500e-02	-1.562500e-02
20.177940	1.232480	dec_social_accept_high	1.232480	32.000000	n/a	8	1.822917e-02	1.822917e-02
27.011020	2.732976	dec_social_choice	2.732976	16.000000	n/a	2	-1.061198e-01	-1.061198e-01
27.011020	2.732976	dec_choice	2.732976	16.000000	n/a	2	-1.067708e-01	-1.067708e-01
27.011020	2.732976	dec_social_accept	2.732976	16.000000	n/a	2	-1.349085e-01	-1.349085e-01
27.011020	2.732976	dec_accept	2.732976	16.000000	n/a	2	-1.406250e-01	-1.406250e-01
27.011020	2.732976	dec_social_accept_low	2.732976	16.000000	n/a	2	-1.067708e-01	-1.067708e-01
34.660748	1.500443	dec_nonsocial_choice	1.500443	32.000000	n/a	3	-1.373698e-01	-1.373698e-01
34.660748	1.500443	dec_choice	1.500443	32.000000	n/a	3	-1.367188e-01	-1.367188e-01
34.660748	1.500443	dec_nonsocial_accept	1.500443	32.000000	n/a	3	-1.661585e-01	-1.661585e-01
34.660748	1.500443	dec_accept	1.500443	32.000000	n/a	3	-1.607143e-01	-1.607143e-01
34.660748	1.500443	dec_nonsocial_low	1.500443	32.000000	n/a	3	-1.367188e-01	-1.367188e-01
34.660748	1.500443	dec_nonsocial_accept_low	1.500443	32.000000	n/a	3	-1.607143e-01	-1.607143e-01
41.495070	1.515531	dec_social_choice	1.515531	16.000000	n/a	0	0	-2.311198e-01
41.495070	1.515531	dec_choice	1.515531	16.000000	n/a	0	0	-2.317708e-01
41.495070	1.515531	dec_social_reject	1.515531	16.000000	n/a	0	0	0
41.495070	1.515531	dec_reject	1.515531	16.000000	n/a	0	0	0
41.495070	1.515531	dec_social_low	1.515531	16.000000	n/a	0	-2.317708e-01	-2.317708e-01
41.495070	1.515531	dec_social_reject_low	1.515531	16.000000	n/a	1	-1.692708e-01	-2.317708e-01
52.376960	2.784029	dec_nonsocial_choice	2.784029	32.000000	n/a	0	0	-2.311198e-01
52.376960	2.784029	dec_choice	2.784029	32.000000	n/a	0	0	-2.304688e-01
52.376960	2.784029	dec_nonsocial_reject	2.784029	32.000000	n/a	0	0	0
52.376960	2.784029	dec_reject	2.784029	32.000000	n/a	0	0	0
52.376960	2.784029	dec_nonsocial_reject_low	2.784029	32.000000	n/a	2	0	-6.250000e-02
61.627490	1.566401	dec_social_choice	1.566401	16.000000	n/a	0	0	-2.311198e-01
61.627490	1.566401	dec_choice	1.566401	16.000000	n/a	0	0	-2.317708e-01
61.627490	1.566401	dec_social_reject	1.566401	16.000000	n/a	0	0	0
61.627490	1.566401	dec_reject	1.566401	16.000000	n/a	0	0	0
61.627490	1.566401	dec_social_low	1.566401	16.000000	n/a	0	-2.317708e-01	-2.317708e-01
61.627490	1.566401	dec_social_reject_low	1.566401	16.000000	n/a	1	-1.692708e-01	-2.317708e-01
72.494580	1.082652	dec_social_choice	1.082652	32.000000	n/a	16	2.688802e-01	2.688802e-01
72.494580	1.082652	dec_choice	1.082652	32.000000	n/a	16	2.682292e-01	2.682292e-01
72.494580	1.082652	dec_social_accept	1.082652	32.000000	n/a	16	2.400915e-01	2.400915e-01
72.494580	1.082652	dec_accept	1.082652	32.000000	n/a	16	2.343750e-01	2.343750e-01
72.494580	1.082652	dec_social_accept_high	1.082652	32.000000	n/a	16	2.682292e-01	2.682292e-01
79.327580	1.366276	dec_nonsocial_choice	1.366276	16.000000	n/a	0	0	-2.311198e-01
79.327580	1.366276	dec_choice	1.366276	16.000000	n/a	0	0	-2.304688e-01
79.327580	1.366276	dec_nonsocial_reject	1.366276	16.000000	n/a	0	0	0
79.327580	1.366276	dec_reject	1.366276	16.000000	n/a	0	0	0
79.327580	1.366276	dec_nonsocial_low	1.366276	16.000000	n/a	0	-2.304688e-01	-2.304688e-01
79.327580	1.366276	dec_nonsocial_reject_low	1.366276	16.000000	n/a	1	0	-6.250000e-02
88.594765	1.399391	dec_social_choice	1.399391	32.000000	n/a	16	2.688802e-01	2.688802e-01
88.594765	1.399391	dec_choice	1.399391	32.000000	n/a	16	2.682292e-01	2.682292e-01
88.594765	1.399391	dec_social_accept	1.399391	32.000000	n/a	16	2.400915e-01	2.400915e-01
88.594765	1.399391	dec_accept	1.399391	32.000000	n/a	16	2.343750e-01	2.343750e-01
88.594765	1.399391	dec_social_high	1.399391	32.000000	n/a	16	2.682292e-01	2.682292e-01
88.594765	1.399391	dec_social_accept_high	1.399391	32.000000	n/a	16	2.682292e-01	2.682292e-01
95.427980	1.115838	dec_nonsocial_choice	1.115838	16.000000	n/a	8	2.688802e-01	2.688802e-01
95.427980	1.115838	dec_choice	1.115838	16.000000	n/a	8	2.695312e-01	2.695312e-01
95.427980	1.115838	dec_nonsocial_accept	1.115838	16.000000	n/a	8	2.400915e-01	2.400915e-01
95.427980	1.115838	dec_accept	1.115838	16.000000	n/a	8	2.455357e-01	2.455357e-01
95.427980	1.115838	dec_nonsocial_high	1.115838	16.000000	n/a	8	2.695312e-01	2.695312e-01
95.427980	1.115838	dec_nonsocial_accept_high	1.115838	16.000000	n/a	8	2.455357e-01	2.455357e-01
102.261440	1.082573	dec_nonsocial_choice	1.082573	16.000000	n/a	8	2.688802e-01	2.688802e-01
102.261440	1.082573	dec_choice	1.082573	16.000000	n/a	8	2.695312e-01	2.695312e-01
102.261440	1.082573	dec_nonsocial_accept	1.082573	16.000000	n/a	8	2.400915e-01	2.400915e-01
102.261440	1.082573	dec_accept	1.082573	16.000000	n/a	8	2.455357e-01	2.455357e-01
102.261440	1.082573	dec_nonsocial_high	1.082573	16.000000	n/a	8	2.695312e-01	2.695312e-01
102.261440	1.082573	dec_nonsocial_accept_high	1.082573	16.000000	n/a	8	2.455357e-01	2.455357e-01
109.910030	1.084265	dec_nonsocial_choice	1.084265	32.000000	n/a	16	2.688802e-01	2.688802e-01
109.910030	1.084265	dec_choice	1.084265	32.000000	n/a	16	2.695312e-01	2.695312e-01
109.910030	1.084265	dec_nonsocial_accept	1.084265	32.000000	n/a	16	2.400915e-01	2.400915e-01
109.910030	1.084265	dec_accept	1.084265	32.000000	n/a	16	2.455357e-01	2.455357e-01
109.910030	1.084265	dec_nonsocial_high	1.084265	32.000000	n/a	16	2.695312e-01	2.695312e-01
109.910030	1.084265	dec_nonsocial_accept_high	1.084265	32.000000	n/a	16	2.455357e-01	2.455357e-01
120.777740	1.833033	dec_nonsocial_choice	1.833033	32.000000	n/a	3	-1.373698e-01	-1.373698e-01
120.777740	1.833033	dec_choice	1.833033	32.000000	n/a	3	-1.367188e-01	-1.367188e-01
120.777740	1.833033	dec_nonsocial_accept	1.833033	32.000000	n/a	3	-1.661585e-01	-1.661585e-01
120.777740	1.833033	dec_accept	1.833033	32.000000	n/a	3	-1.607143e-01	-1.607143e-01
120.777740	1.833033	dec_nonsocial_accept_low	1.833033	32.000000	n/a	3	-1.718750e-01	-1.718750e-01
127.610980	1.033637	dec_nonsocial_choice	1.033637	16.000000	n/a	8	2.688802e-01	2.688802e-01
127.610980	1.033637	dec_choice	1.033637	16.000000	n/a	8	2.695312e-01	2.695312e-01
127.610980	1.033637	dec_nonsocial_accept	1.033637	16.000000	n/a	8	2.400915e-01	2.400915e-01
127.610980	1.033637	dec_accept	1.033637	16.000000	n/a	8	2.455357e-01	2.455357e-01
127.610980	1.033637	dec_nonsocial_high	1.033637	16.000000	n/a	8	2.695312e-01	2.695312e-01
127.610980	1.033637	dec_nonsocial_accept_high	1.033637	16.000000	n/a	8	2.455357e-01	2.455357e-01
134.444090	2.432801	dec_social_choice	2.432801	32.000000	n/a	2	-1.686198e-01	-1.686198e-01
134.444090	2.432801	dec_choice	2.432801	32.000000	n/a	2	-1.692708e-01	-1.692708e-01
134.444090	2.432801	dec_social_accept	2.432801	32.000000	n/a	2	-1.974085e-01	-1.974085e-01
134.444090	2.432801	dec_accept	2.432801	32.000000	n/a	2	-2.031250e-01	-2.031250e-01
134.444090	2.432801	dec_social_accept_low	2.432801	32.000000	n/a	2	-1.692708e-01	-1.692708e-01
141.277330	1.350156	dec_social_choice	1.350156	32.000000	n/a	2	-1.686198e-01	-1.686198e-01
141.277330	1.350156	dec_choice	1.350156	32.000000	n/a	2	-1.692708e-01	-1.692708e-01
141.277330	1.350156	dec_social_accept	1.350156	32.000000	n/a	2	-1.974085e-01	-1.974085e-01
141.277330	1.350156	dec_accept	1.350156	32.000000	n/a	2	-2.031250e-01	-2.031250e-01
141.277330	1.350156	dec_social_accept_low	1.350156	32.000000	n/a	2	-1.692708e-01	-1.692708e-01
148.110090	2.183762	dec_nonsocial_choice	2.183762	16.000000	n/a	2	-1.061198e-01	-1.061198e-01
148.110090	2.183762	dec_choice	2.183762	16.000000	n/a	2	-1.054688e-01	-1.054688e-01
148.110090	2.183762	dec_nonsocial_accept	2.183762	16.000000	n/a	2	-1.349085e-01	-1.349085e-01
148.110090	2.183762	dec_accept	2.183762	16.000000	n/a	2	-1.294643e-01	-1.294643e-01
148.110090	2.183762	dec_nonsocial_low	2.183762	16.000000	n/a	2	-1.054688e-01	-1.054688e-01
148.110090	2.183762	dec_nonsocial_accept_low	2.183762	16.000000	n/a	2	-1.294643e-01	-1.294643e-01
154.943130	1.083851	dec_social_choice	1.083851	32.000000	n/a	8	1.888021e-02	1.888021e-02
154.943130	1.083851	dec_choice	1.083851	32.000000	n/a	8	1.822917e-02	1.822917e-02
154.943130	1.083851	dec_social_accept	1.083851	32.000000	n/a	8	-9.908537e-03	-9.908537e-03
154.943130	1.083851	dec_accept	1.083851	32.000000	n/a	8	-1.562500e-02	-1.562500e-02
154.943130	1.083851	dec_social_high	1.083851	32.000000	n/a	8	1.822917e-02	1.822917e-02
154.943130	1.083851	dec_social_accept_high	1.083851	32.000000	n/a	8	1.822917e-02	1.822917e-02
161.776690	1.167423	dec_social_choice	1.167423	32.000000	n/a	8	1.888021e-02	1.888021e-02
161.776690	1.167423	dec_choice	1.167423	32.000000	n/a	8	1.822917e-02	1.822917e-02
161.776690	1.167423	dec_social_accept	1.167423	32.000000	n/a	8	-9.908537e-03	-9.908537e-03
161.776690	1.167423	dec_accept	1.167423	32.000000	n/a	8	-1.562500e-02	-1.562500e-02
161.776690	1.167423	dec_social_accept_high	1.167423	32.000000	n/a	8	1.822917e-02	1.822917e-02
171.027420	1.949808	dec_social_choice	1.949808	32.000000	n/a	0	0	-2.311198e-01
171.027420	1.949808	dec_choice	1.949808	32.000000	n/a	0	0	-2.317708e-01
171.027420	1.949808	dec_social_reject	1.949808	32.000000	n/a	0	0	0
171.027420	1.949808	dec_reject	1.949808	32.000000	n/a	0	0	0
171.027420	1.949808	dec_social_low	1.949808	32.000000	n/a	0	-2.317708e-01	-2.317708e-01
171.027420	1.949808	dec_social_reject_low	1.949808	32.000000	n/a	2	-1.692708e-01	-2.317708e-01
177.860860	1.616471	dec_social_choice	1.616471	16.000000	n/a	2	-1.061198e-01	-1.061198e-01
177.860860	1.616471	dec_choice	1.616471	16.000000	n/a	2	-1.067708e-01	-1.067708e-01
177.860860	1.616471	dec_social_accept	1.616471	16.000000	n/a	2	-1.349085e-01	-1.349085e-01
177.860860	1.616471	dec_accept	1.616471	16.000000	n/a	2	-1.406250e-01	-1.406250e-01
177.860860	1.616471	dec_social_low	1.616471	16.000000	n/a	2	-1.067708e-01	-1.067708e-01
177.860860	1.616471	dec_social_accept_low	1.616471	16.000000	n/a	2	-1.067708e-01	-1.067708e-01
185.511230	1.182756	dec_nonsocial_choice	1.182756	16.000000	n/a	4	1.888021e-02	1.888021e-02
185.511230	1.182756	dec_choice	1.182756	16.000000	n/a	4	1.953125e-02	1.953125e-02
185.511230	1.182756	dec_nonsocial_accept	1.182756	16.000000	n/a	4	-9.908537e-03	-9.908537e-03
185.511230	1.182756	dec_accept	1.182756	16.000000	n/a	4	-4.464286e-03	-4.464286e-03
185.511230	1.182756	dec_nonsocial_accept_high	1.182756	16.000000	n/a	4	-1.562500e-02	-1.562500e-02
192.344420	2.499607	dec_nonsocial_choice	2.499607	32.000000	n/a	3	-1.373698e-01	-1.373698e-01
192.344420	2.499607	dec_choice	2.499607	32.000000	n/a	3	-1.367188e-01	-1.367188e-01
192.344420	2.499607	dec_nonsocial_accept	2.499607	32.000000	n/a	3	-1.661585e-01	-1.661585e-01
192.344420	2.499607	dec_accept	2.499607	32.000000	n/a	3	-1.607143e-01	-1.607143e-01
192.344420	2.499607	dec_nonsocial_low	2.499607	32.000000	n/a	3	-1.367188e-01	-1.367188e-01
192.344420	2.499607	dec_nonsocial_accept_low	2.499607	32.000000	n/a	3	-1.607143e-01	-1.607143e-01
199.993360	1.517074	dec_social_choice	1.517074	16.000000	n/a	2	-1.061198e-01	-1.061198e-01
199.993360	1.517074	dec_choice	1.517074	16.000000	n/a	2	-1.067708e-01	-1.067708e-01
199.993360	1.517074	dec_social_accept	1.517074	16.000000	n/a	2	-1.349085e-01	-1.349085e-01
199.993360	1.517074	dec_accept	1.517074	16.000000	n/a	2	-1.406250e-01	-1.406250e-01
199.993360	1.517074	dec_social_low	1.517074	16.000000	n/a	2	-1.067708e-01	-1.067708e-01
199.993360	1.517074	dec_social_accept_low	1.517074	16.000000	n/a	2	-1.067708e-01	-1.067708e-01
207.643700	1.200227	dec_nonsocial_choice	1.200227	16.000000	n/a	2	-1.061198e-01	-1.061198e-01
207.643700	1.200227	dec_choice	1.200227	16.000000	n/a	2	-1.054688e-01	-1.054688e-01
207.643700	1.200227	dec_nonsocial_accept	1.200227	16.000000	n/a	2	-1.349085e-01	-1.349085e-01
207.643700	1.200227	dec_accept	1.200227	16.000000	n/a	2	-1.294643e-01	-1.294643e-01
207.643700	1.200227	dec_nonsocial_low	1.200227	16.000000	n/a	2	-1.054688e-01	-1.054688e-01
207.643700	1.200227	dec_nonsocial_accept_low	1.200227	16.000000	n/a	2	-1.294643e-01	-1.294643e-01
215.293530	2.367214	dec_social_choice	2.367214	32.000000	n/a	0	0	-2.311198e-01
215.293530	2.367214	dec_choice	2.367214	32.000000	n/a	0	0	-2.317708e-01
215.293530	2.367214	dec_social_reject	2.367214	32.000000	n/a	0	0	0
215.293530	2.367214	dec_reject	2.367214	32.000000	n/a	0	0	0
215.293530	2.367214	dec_social_low	2.367214	32.000000	n/a	0	-2.317708e-01	-2.317708e-01
215.293530	2.367214	dec_social_reject_low	2.367214	32.000000	n/a	2	-1.692708e-01	-2.317708e-01
224.544680	1.682608	dec_nonsocial_choice	1.682608	32.000000	n/a	2	-1.686198e-01	-1.686198e-01
224.544680	1.682608	dec_choice	1.682608	32.000000	n/a	2	-1.679688e-01	-1.679688e-01
224.544680	1.682608	dec_nonsocial_accept	1.682608	32.000000	n/a	2	-1.974085e-01	-1.974085e-01
224.544680	1.682608	dec_accept	1.682608	32.000000	n/a	2	-1.919643e-01	-1.919643e-01
224.544680	1.682608	dec_nonsocial_low	1.682608	32.000000	n/a	2	-1.679688e-01	-1.679688e-01
224.544680	1.682608	dec_nonsocial_accept_low	1.682608	32.000000	n/a	2	-1.919643e-01	-1.919643e-01
232.194100	1.133140	dec_nonsocial_choice	1.133140	16.000000	n/a	4	1.888021e-02	1.888021e-02
232.194100	1.133140	dec_choice	1.133140	16.000000	n/a	4	1.953125e-02	1.953125e-02
232.194100	1.133140	dec_nonsocial_accept	1.133140	16.000000	n/a	4	-9.908537e-03	-9.908537e-03
232.194100	1.133140	dec_accept	1.133140	16.000000	n/a	4	-4.464286e-03	-4.464286e-03
232.194100	1.133140	dec_nonsocial_high	1.133140	16.000000	n/a	4	1.953125e-02	1.953125e-02
232.194100	1.133140	dec_nonsocial_accept_high	1.133140	16.000000	n/a	4	-4.464286e-03	-4.464286e-03
239.843570	1.166489	dec_nonsocial_choice	1.166489	16.000000	n/a	2	-1.061198e-01	-1.061198e-01
239.843570	1.166489	dec_choice	1.166489	16.000000	n/a	2	-1.054688e-01	-1.054688e-01
239.843570	1.166489	dec_nonsocial_accept	1.166489	16.000000	n/a	2	-1.349085e-01	-1.349085e-01
239.843570	1.166489	dec_accept	1.166489	16.000000	n/a	2	-1.294643e-01	-1.294643e-01
239.843570	1.166489	dec_nonsocial_accept_low	1.166489	16.000000	n/a	2	-1.406250e-01	-1.406250e-01
249.111190	1.082682	dec_social_choice	1.082682	16.000000	n/a	8	2.688802e-01	2.688802e-01
249.111190	1.082682	dec_choice	1.082682	16.000000	n/a	8	2.682292e-01	2.682292e-01
249.111190	1.082682	dec_social_accept	1.082682	16.000000	n/a	8	2.400915e-01	2.400915e-01
249.111190	1.082682	dec_accept	1.082682	16.000000	n/a	8	2.343750e-01	2.343750e-01
249.111190	1.082682	dec_social_high	1.082682	16.000000	n/a	8	2.682292e-01	2.682292e-01
249.111190	1.082682	dec_social_accept_high	1.082682	16.000000	n/a	8	2.682292e-01	2.682292e-01
255.944470	1.899354	dec_social_choice	1.899354	32.000000	n/a	3	-1.373698e-01	-1.373698e-01
255.944470	1.899354	dec_choice	1.899354	32.000000	n/a	3	-1.380208e-01	-1.380208e-01
255.944470	1.899354	dec_social_accept	1.899354	32.000000	n/a	3	-1.661585e-01	-1.661585e-01
255.944470	1.899354	dec_accept	1.899354	32.000000	n/a	3	-1.718750e-01	-1.718750e-01
255.944470	1.899354	dec_social_low	1.899354	32.000000	n/a	3	-1.380208e-01	-1.380208e-01
255.944470	1.899354	dec_social_accept_low	1.899354	32.000000	n/a	3	-1.380208e-01	-1.380208e-01
263.593380	1.516627	dec_social_choice	1.516627	32.000000	n/a	16	2.688802e-01	2.688802e-01
263.593380	1.516627	dec_choice	1.516627	32.000000	n/a	16	2.682292e-01	2.682292e-01
263.593380	1.516627	dec_social_accept	1.516627	32.000000	n/a	16	2.400915e-01	2.400915e-01
263.593380	1.516627	dec_accept	1.516627	32.000000	n/a	16	2.343750e-01	2.343750e-01
263.593380	1.516627	dec_social_accept_high	1.516627	32.000000	n/a	16	2.682292e-01	2.682292e-01
271.242860	1.050861	dec_social_choice	1.050861	16.000000	n/a	8	2.688802e-01	2.688802e-01
271.242860	1.050861	dec_choice	1.050861	16.000000	n/a	8	2.682292e-01	2.682292e-01
271.242860	1.050861	dec_social_accept	1.050861	16.000000	n/a	8	2.400915e-01	2.400915e-01
271.242860	1.050861	dec_accept	1.050861	16.000000	n/a	8	2.343750e-01	2.343750e-01
271.242860	1.050861	dec_social_high	1.050861	16.000000	n/a	8	2.682292e-01	2.682292e-01
271.242860	1.050861	dec_social_accept_high	1.050861	16.000000	n/a	8	2.682292e-01	2.682292e-01
280.493900	1.449774	dec_nonsocial_choice	1.449774	32.000000	n/a	8	1.888021e-02	1.888021e-02
280.493900	1.449774	dec_choice	1.449774	32.000000	n/a	8	1.953125e-02	1.953125e-02
280.493900	1.449774	dec_nonsocial_accept	1.449774	32.000000	n/a	8	-9.908537e-03	-9.908537e-03
280.493900	1.449774	dec_accept	1.449774	32.000000	n/a	8	-4.464286e-03	-4.464286e-03
280.493900	1.449774	dec_nonsocial_accept_high	1.449774	32.000000	n/a	8	-1.562500e-02	-1.562500e-02
288.143980	1.283179	dec_social_choice	1.283179	32.000000	n/a	16	2.688802e-01	2.688802e-01
288.143980	1.283179	dec_choice	1.283179	32.000000	n/a	16	2.682292e-01	2.682292e-01
288.143980	1.283179	dec_social_accept	1.283179	32.000000	n/a	16	2.400915e-01	2.400915e-01
288.143980	1.283179	dec_accept	1.283179	32.000000	n/a	16	2.343750e-01	2.343750e-01
288.143980	1.283179	dec_social_accept_high	1.283179	32.000000	n/a	16	2.682292e-01	2.682292e-01
294.977170	1.083198	dec_social_choice	1.083198	32.000000	n/a	8	1.888021e-02	1.888021e-02
294.977170	1.083198	dec_choice	1.083198	32.000000	n/a	8	1.822917e-02	1.822917e-02
294.977170	1.083198	dec_social_accept	1.083198	32.000000	n/a	8	-9.908537e-03	-9.908537e-03
294.977170	1.083198	dec_accept	1.083198	32.000000	n/a	8	-1.562500e-02	-1.562500e-02
294.977170	1.083198	dec_social_high	1.083198	32.000000	n/a	8	1.822917e-02	1.822917e-02
294.977170	1.083198	dec_social_accept_high	1.083198	32.000000	n/a	8	1.822917e-02	1.822917e-02
301.810670	1.033219	dec_nonsocial_choice	1.033219	32.000000	n/a	8	1.888021e-02	1.888021e-02
301.810670	1.033219	dec_choice	1.033219	32.000000	n/a	8	1.953125e-02	1.953125e-02
301.810670	1.033219	dec_nonsocial_accept	1.033219	32.000000	n/a	8	-9.908537e-03	-9.908537e-03
301.810670	1.033219	dec_accept	1.033219	32.000000	n/a	8	-4.464286e-03	-4.464286e-03
301.810670	1.033219	dec_nonsocial_accept_high	1.033219	32.000000	n/a	8	-1.562500e-02	-1.562500e-02
308.643340	0.983776	dec_nonsocial_choice	0.983776	32.000000	n/a	8	1.888021e-02	1.888021e-02
308.643340	0.983776	dec_choice	0.983776	32.000000	n/a	8	1.953125e-02	1.953125e-02
308.643340	0.983776	dec_nonsocial_accept	0.983776	32.000000	n/a	8	-9.908537e-03	-9.908537e-03
308.643340	0.983776	dec_accept	0.983776	32.000000	n/a	8	-4.464286e-03	-4.464286e-03
308.643340	0.983776	dec_nonsocial_accept_high	0.983776	32.000000	n/a	8	-1.562500e-02	-1.562500e-02
315.476700	1.016923	dec_social_choice	1.016923	16.000000	n/a	4	1.888021e-02	1.888021e-02
315.476700	1.016923	dec_choice	1.016923	16.000000	n/a	4	1.822917e-02	1.822917e-02
315.476700	1.016923	dec_social_accept	1.016923	16.000000	n/a	4	-9.908537e-03	-9.908537e-03
315.476700	1.016923	dec_accept	1.016923	16.000000	n/a	4	-1.562500e-02	-1.562500e-02
315.476700	1.016923	dec_social_accept_high	1.016923	16.000000	n/a	4	1.822917e-02	1.822917e-02
327.960660	1.315701	dec_nonsocial_choice	1.315701	16.000000	n/a	4	1.888021e-02	1.888021e-02
327.960660	1.315701	dec_choice	1.315701	16.000000	n/a	4	1.953125e-02	1.953125e-02
327.960660	1.315701	dec_nonsocial_accept	1.315701	16.000000	n/a	4	-9.908537e-03	-9.908537e-03
327.960660	1.315701	dec_accept	1.315701	16.000000	n/a	4	-4.464286e-03	-4.464286e-03
327.960660	1.315701	dec_nonsocial_accept_high	1.315701	16.000000	n/a	4	-1.562500e-02	-1.562500e-02
337.227260	2.066105	dec_nonsocial_choice	2.066105	16.000000	n/a	0	0	-2.311198e-01
337.227260	2.066105	dec_choice	2.066105	16.000000	n/a	0	0	-2.304688e-01
337.227260	2.066105	dec_nonsocial_reject	2.066105	16.000000	n/a	0	0	0
337.227260	2.066105	dec_reject	2.066105	16.000000	n/a	0	0	0
337.227260	2.066105	dec_nonsocial_reject_low	2.066105	16.000000	n/a	1	0	-6.250000e-02
344.877230	1.765974	dec_social_choice	1.765974	32.000000	n/a	3	-1.373698e-01	-1.373698e-01
344.877230	1.765974	dec_choice	1.765974	32.000000	n/a	3	-1.380208e-01	-1.380208e-01
344.877230	1.765974	dec_social_accept	1.765974	32.000000	n/a	3	-1.661585e-01	-1.661585e-01
344.877230	1.765974	dec_accept	1.765974	32.000000	n/a	3	-1.718750e-01	-1.718750e-01
344.877230	1.765974	dec_social_low	1.765974	32.000000	n/a	3	-1.380208e-01	-1.380208e-01
344.877230	1.765974	dec_social_accept_low	1.765974	32.000000	n/a	3	-1.380208e-01	-1.380208e-01
352.526820	1.232962	dec_social_choice	1.232962	16.000000	n/a	2	-1.061198e-01	-1.061198e-01
352.526820	1.232962	dec_choice	1.232962	16.000000	n/a	2	-1.067708e-01	-1.067708e-01
352.526820	1.232962	dec_social_accept	1.232962	16.000000	n/a	2	-1.349085e-01	-1.349085e-01
352.526820	1.232962	dec_accept	1.232962	16.000000	n/a	2	-1.406250e-01	-1.406250e-01
352.526820	1.232962	dec_social_low	1.232962	16.000000	n/a	2	-1.067708e-01	-1.067708e-01
352.526820	1.232962	dec_social_accept_low	1.232962	16.000000	n/a	2	-1.067708e-01	-1.067708e-01
359.359400	1.500770	dec_social_choice	1.500770	16.000000	n/a	4	1.888021e-02	1.888021e-02
359.359400	1.500770	dec_choice	1.500770	16.000000	n/a	4	1.822917e-02	1.822917e-02
359.359400	1.500770	dec_social_accept	1.500770	16.000000	n/a	4	-9.908537e-03	-9.908537e-03
359.359400	1.500770	dec_accept	1.500770	16.000000	n/a	4	-1.562500e-02	-1.562500e-02
359.359400	1.500770	dec_social_accept_high	1.500770	16.000000	n/a	4	1.822917e-02	1.822917e-02
366.193100	1.733718	dec_nonsocial_choice	1.733718	16.000000	n/a	1	-1.686198e-01	-1.686198e-01
366.193100	1.733718	dec_choice	1.733718	16.000000	n/a	1	-1.679688e-01	-1.679688e-01
366.193100	1.733718	dec_nonsocial_accept	1.733718	16.000000	n/a	1	-1.974085e-01	-1.974085e-01
366.193100	1.733718	dec_accept	1.733718	16.000000	n/a	1	-1.919643e-01	-1.919643e-01
366.193100	1.733718	dec_nonsocial_low	1.733718	16.000000	n/a	1	-1.679688e-01	-1.679688e-01
366.193100	1.733718	dec_nonsocial_accept_low	1.733718	16.000000	n/a	1	-1.919643e-01	-1.919643e-01
373.026980	1.249801	dec_nonsocial_choice	1.249801	32.000000	n/a	2	-1.686198e-01	-1.686198e-01
373.026980	1.249801	dec_choice	1.249801	32.000000	n/a	2	-1.679688e-01	-1.679688e-01
373.026980	1.249801	dec_nonsocial_accept	1.249801	32.000000	n/a	2	-1.974085e-01	-1.974085e-01
373.026980	1.249801	dec_accept	1.249801	32.000000	n/a	2	-1.919643e-01	-1.919643e-01
373.026980	1.249801	dec_nonsocial_low	1.249801	32.000000	n/a	2	-1.679688e-01	-1.679688e-01
373.026980	1.249801	dec_nonsocial_accept_low	1.249801	32.000000	n/a	2	-1.919643e-01	-1.919643e-01
