onset	duration	trial_type	response_time	Endowment	Endowment_pmod	Decision	Decision_pmod	Offer_pmod
4.511179	2	cue_nonsocial	n/a	32	9	n/a	n/a	n/a
4.511179	2	cue_nonsocial_high	n/a	32	7	n/a	n/a	n/a
12.219844	2	cue_social	n/a	32	7	n/a	n/a	n/a
12.219844	2	cue_social_high	n/a	32	9	n/a	n/a	n/a
19.072874	2	cue_social	n/a	32	7	n/a	n/a	n/a
19.072874	2	cue_social_high	n/a	32	9	n/a	n/a	n/a
25.908804	2	cue_social	n/a	32	7	n/a	n/a	n/a
25.908804	2	cue_social_high	n/a	32	9	n/a	n/a	n/a
35.152885	2	cue_social	n/a	32	7	n/a	n/a	n/a
35.152885	2	cue_social_high	n/a	32	9	n/a	n/a	n/a
41.996746	2	cue_social	n/a	16	-9	n/a	n/a	n/a
41.996746	2	cue_social_low	n/a	16	-7	n/a	n/a	n/a
49.630356	2	cue_social	n/a	32	7	n/a	n/a	n/a
49.630356	2	cue_social_high	n/a	32	9	n/a	n/a	n/a
57.211197	2	cue_nonsocial	n/a	32	9	n/a	n/a	n/a
57.211197	2	cue_nonsocial_high	n/a	32	7	n/a	n/a	n/a
64.916350	2	cue_social	n/a	32	7	n/a	n/a	n/a
64.916350	2	cue_social_high	n/a	32	9	n/a	n/a	n/a
74.126940	2	cue_nonsocial	n/a	32	9	n/a	n/a	n/a
74.126940	2	cue_nonsocial_high	n/a	32	7	n/a	n/a	n/a
81.846725	2	cue_social	n/a	32	7	n/a	n/a	n/a
81.846725	2	cue_social_high	n/a	32	9	n/a	n/a	n/a
89.427200	2	cue_nonsocial	n/a	16	-7	n/a	n/a	n/a
89.427200	2	cue_nonsocial_low	n/a	16	-9	n/a	n/a	n/a
96.324730	2	cue_social	n/a	16	-9	n/a	n/a	n/a
96.324730	2	cue_social_low	n/a	16	-7	n/a	n/a	n/a
103.910870	2	cue_nonsocial	n/a	32	9	n/a	n/a	n/a
103.910870	2	cue_nonsocial_high	n/a	32	7	n/a	n/a	n/a
113.235730	2	cue_social	n/a	32	7	n/a	n/a	n/a
113.235730	2	cue_social_high	n/a	32	9	n/a	n/a	n/a
122.410990	2	cue_nonsocial	n/a	16	-7	n/a	n/a	n/a
122.410990	2	cue_nonsocial_low	n/a	16	-9	n/a	n/a	n/a
129.280600	2	cue_social	n/a	16	-9	n/a	n/a	n/a
129.280600	2	cue_social_low	n/a	16	-7	n/a	n/a	n/a
136.132000	2	cue_social	n/a	16	-9	n/a	n/a	n/a
136.132000	2	cue_social_low	n/a	16	-7	n/a	n/a	n/a
145.414600	2	cue_social	n/a	16	-9	n/a	n/a	n/a
145.414600	2	cue_social_low	n/a	16	-7	n/a	n/a	n/a
152.178310	2	cue_nonsocial	n/a	32	9	n/a	n/a	n/a
152.178310	2	cue_nonsocial_high	n/a	32	7	n/a	n/a	n/a
164.661010	2	cue_nonsocial	n/a	16	-7	n/a	n/a	n/a
164.661010	2	cue_nonsocial_low	n/a	16	-9	n/a	n/a	n/a
171.493680	2	cue_nonsocial	n/a	16	-7	n/a	n/a	n/a
171.493680	2	cue_nonsocial_low	n/a	16	-9	n/a	n/a	n/a
178.327590	2	cue_nonsocial	n/a	16	-7	n/a	n/a	n/a
178.327590	2	cue_nonsocial_low	n/a	16	-9	n/a	n/a	n/a
185.160770	2	cue_nonsocial	n/a	16	-7	n/a	n/a	n/a
185.160770	2	cue_nonsocial_low	n/a	16	-9	n/a	n/a	n/a
192.056870	2	cue_social	n/a	16	-9	n/a	n/a	n/a
192.056870	2	cue_social_low	n/a	16	-7	n/a	n/a	n/a
198.886520	2	cue_social	n/a	32	7	n/a	n/a	n/a
198.886520	2	cue_social_high	n/a	32	9	n/a	n/a	n/a
209.767720	2	cue_social	n/a	16	-9	n/a	n/a	n/a
209.767720	2	cue_social_low	n/a	16	-7	n/a	n/a	n/a
216.527310	2	cue_nonsocial	n/a	32	9	n/a	n/a	n/a
216.527310	2	cue_nonsocial_high	n/a	32	7	n/a	n/a	n/a
225.845700	2	cue_social	n/a	32	7	n/a	n/a	n/a
225.845700	2	cue_social_high	n/a	32	9	n/a	n/a	n/a
233.426970	2	cue_nonsocial	n/a	16	-7	n/a	n/a	n/a
233.426970	2	cue_nonsocial_low	n/a	16	-9	n/a	n/a	n/a
240.260730	2	cue_nonsocial	n/a	16	-7	n/a	n/a	n/a
240.260730	2	cue_nonsocial_low	n/a	16	-9	n/a	n/a	n/a
251.188370	2	cue_social	n/a	16	-9	n/a	n/a	n/a
251.188370	2	cue_social_low	n/a	16	-7	n/a	n/a	n/a
258.037260	2	cue_social	n/a	32	7	n/a	n/a	n/a
258.037260	2	cue_social_high	n/a	32	9	n/a	n/a	n/a
264.854370	2	cue_social	n/a	16	-9	n/a	n/a	n/a
264.854370	2	cue_social_low	n/a	16	-7	n/a	n/a	n/a
275.660340	2	cue_nonsocial	n/a	32	9	n/a	n/a	n/a
275.660340	2	cue_nonsocial_high	n/a	32	7	n/a	n/a	n/a
282.493700	2	cue_nonsocial	n/a	16	-7	n/a	n/a	n/a
282.493700	2	cue_nonsocial_low	n/a	16	-9	n/a	n/a	n/a
289.327060	2	cue_nonsocial	n/a	32	9	n/a	n/a	n/a
289.327060	2	cue_nonsocial_high	n/a	32	7	n/a	n/a	n/a
297.031250	2	cue_social	n/a	32	7	n/a	n/a	n/a
297.031250	2	cue_social_high	n/a	32	9	n/a	n/a	n/a
306.227100	2	cue_nonsocial	n/a	32	9	n/a	n/a	n/a
306.227100	2	cue_nonsocial_high	n/a	32	7	n/a	n/a	n/a
313.876950	2	cue_nonsocial	n/a	16	-7	n/a	n/a	n/a
313.876950	2	cue_nonsocial_low	n/a	16	-9	n/a	n/a	n/a
321.509980	2	cue_nonsocial	n/a	16	-7	n/a	n/a	n/a
321.509980	2	cue_nonsocial_low	n/a	16	-9	n/a	n/a	n/a
328.394900	2	cue_social	n/a	16	-9	n/a	n/a	n/a
328.394900	2	cue_social_low	n/a	16	-7	n/a	n/a	n/a
336.051030	2	cue_social	n/a	32	7	n/a	n/a	n/a
336.051030	2	cue_social_high	n/a	32	9	n/a	n/a	n/a
342.826870	2	cue_nonsocial	n/a	16	-7	n/a	n/a	n/a
342.826870	2	cue_nonsocial_low	n/a	16	-9	n/a	n/a	n/a
349.660250	2	cue_nonsocial	n/a	32	9	n/a	n/a	n/a
349.660250	2	cue_nonsocial_high	n/a	32	7	n/a	n/a	n/a
356.493530	2	cue_nonsocial	n/a	32	9	n/a	n/a	n/a
356.493530	2	cue_nonsocial_high	n/a	32	7	n/a	n/a	n/a
364.204620	2	cue_social	n/a	32	7	n/a	n/a	n/a
364.204620	2	cue_social_high	n/a	32	9	n/a	n/a	n/a
370.976840	2	cue_nonsocial	n/a	16	-7	n/a	n/a	n/a
370.976840	2	cue_nonsocial_low	n/a	16	-9	n/a	n/a	n/a
6.517790	1.983489	dec_nonsocial_choice	1.983489	32.000000	n/a	16	2.708333e-01	2.708333e-01
6.517790	1.983489	dec_choice	1.983489	32.000000	n/a	16	2.708333e-01	2.708333e-01
6.517790	1.983489	dec_nonsocial_accept	1.983489	32.000000	n/a	16	1.916667e-01	1.916667e-01
6.517790	1.983489	dec_accept	1.983489	32.000000	n/a	16	1.933594e-01	1.933594e-01
6.517790	1.983489	dec_nonsocial_accept_high	1.983489	32.000000	n/a	16	1.897321e-01	1.897321e-01
14.167101	1.517580	dec_social_choice	1.517580	32.000000	n/a	0	0	-2.291667e-01
14.167101	1.517580	dec_choice	1.517580	32.000000	n/a	0	0	-2.291667e-01
14.167101	1.517580	dec_social_reject	1.517580	32.000000	n/a	0	0	-3.472222e-02
14.167101	1.517580	dec_reject	1.517580	32.000000	n/a	0	0	-5.312500e-02
14.167101	1.517580	dec_social_low	1.517580	32.000000	n/a	0	-2.291667e-01	-2.291667e-01
14.167101	1.517580	dec_social_reject_low	1.517580	32.000000	n/a	2	-1.666667e-01	-2.291667e-01
21.001076	1.649693	dec_social_choice	1.649693	32.000000	n/a	16	2.708333e-01	2.708333e-01
21.001076	1.649693	dec_choice	1.649693	32.000000	n/a	16	2.708333e-01	2.708333e-01
21.001076	1.649693	dec_social_accept	1.649693	32.000000	n/a	16	1.916667e-01	1.916667e-01
21.001076	1.649693	dec_accept	1.649693	32.000000	n/a	16	1.897321e-01	1.897321e-01
21.001076	1.649693	dec_social_high	1.649693	32.000000	n/a	16	2.708333e-01	2.708333e-01
21.001076	1.649693	dec_social_accept_high	1.649693	32.000000	n/a	16	2.708333e-01	2.708333e-01
27.834055	1.317006	dec_social_choice	1.317006	32.000000	n/a	0	0	-2.291667e-01
27.834055	1.317006	dec_choice	1.317006	32.000000	n/a	0	0	-2.291667e-01
27.834055	1.317006	dec_social_reject	1.317006	32.000000	n/a	0	0	-3.472222e-03
27.834055	1.317006	dec_reject	1.317006	32.000000	n/a	0	0	-2.187500e-02
27.834055	1.317006	dec_social_reject_low	1.317006	32.000000	n/a	3	-1.354167e-01	-2.291667e-01
37.084064	1.433507	dec_social_choice	1.433507	32.000000	n/a	8	2.083333e-02	2.083333e-02
37.084064	1.433507	dec_choice	1.433507	32.000000	n/a	8	2.083333e-02	2.083333e-02
37.084064	1.433507	dec_social_accept	1.433507	32.000000	n/a	8	-5.833333e-02	-5.833333e-02
37.084064	1.433507	dec_accept	1.433507	32.000000	n/a	8	-6.026786e-02	-6.026786e-02
37.084064	1.433507	dec_social_high	1.433507	32.000000	n/a	8	2.083333e-02	2.083333e-02
37.084064	1.433507	dec_social_accept_high	1.433507	32.000000	n/a	8	2.083333e-02	2.083333e-02
43.917282	2.483501	dec_social_choice	2.483501	16.000000	n/a	2	-1.041667e-01	-1.041667e-01
43.917282	2.483501	dec_choice	2.483501	16.000000	n/a	2	-1.041667e-01	-1.041667e-01
43.917282	2.483501	dec_social_accept	2.483501	16.000000	n/a	2	-1.833333e-01	-1.833333e-01
43.917282	2.483501	dec_accept	2.483501	16.000000	n/a	2	-1.852679e-01	-1.852679e-01
43.917282	2.483501	dec_social_accept_low	2.483501	16.000000	n/a	2	-1.041667e-01	-1.041667e-01
51.568660	1.382486	dec_social_choice	1.382486	32.000000	n/a	0	0	-2.291667e-01
51.568660	1.382486	dec_choice	1.382486	32.000000	n/a	0	0	-2.291667e-01
51.568660	1.382486	dec_social_reject	1.382486	32.000000	n/a	0	0	-3.472222e-03
51.568660	1.382486	dec_reject	1.382486	32.000000	n/a	0	0	-2.187500e-02
51.568660	1.382486	dec_social_low	1.382486	32.000000	n/a	0	-2.291667e-01	-2.291667e-01
51.568660	1.382486	dec_social_reject_low	1.382486	32.000000	n/a	3	-1.354167e-01	-2.291667e-01
59.218080	1.149784	dec_nonsocial_choice	1.149784	32.000000	n/a	0	0	-2.291667e-01
59.218080	1.149784	dec_choice	1.149784	32.000000	n/a	0	0	-2.291667e-01
59.218080	1.149784	dec_nonsocial_reject	1.149784	32.000000	n/a	0	0	-3.472222e-03
59.218080	1.149784	dec_reject	1.149784	32.000000	n/a	0	0	1.953125e-02
59.218080	1.149784	dec_nonsocial_reject_low	1.149784	32.000000	n/a	3	-2.187500e-02	-1.156250e-01
66.867930	2.265924	dec_social_choice	2.265924	32.000000	n/a	0	0	-2.291667e-01
66.867930	2.265924	dec_choice	2.265924	32.000000	n/a	0	0	-2.291667e-01
66.867930	2.265924	dec_social_reject	2.265924	32.000000	n/a	0	0	-3.472222e-03
66.867930	2.265924	dec_reject	2.265924	32.000000	n/a	0	0	-2.187500e-02
66.867930	2.265924	dec_social_low	2.265924	32.000000	n/a	0	-2.291667e-01	-2.291667e-01
66.867930	2.265924	dec_social_reject_low	2.265924	32.000000	n/a	3	-1.354167e-01	-2.291667e-01
76.134220	1.350127	dec_nonsocial_choice	1.350127	32.000000	n/a	16	2.708333e-01	2.708333e-01
76.134220	1.350127	dec_choice	1.350127	32.000000	n/a	16	2.708333e-01	2.708333e-01
76.134220	1.350127	dec_nonsocial_accept	1.350127	32.000000	n/a	16	1.916667e-01	1.916667e-01
76.134220	1.350127	dec_accept	1.350127	32.000000	n/a	16	1.933594e-01	1.933594e-01
76.134220	1.350127	dec_nonsocial_high	1.350127	32.000000	n/a	16	2.708333e-01	2.708333e-01
76.134220	1.350127	dec_nonsocial_accept_high	1.350127	32.000000	n/a	16	1.933594e-01	1.933594e-01
83.784820	1.749468	dec_social_choice	1.749468	32.000000	n/a	0	0	-2.291667e-01
83.784820	1.749468	dec_choice	1.749468	32.000000	n/a	0	0	-2.291667e-01
83.784820	1.749468	dec_social_reject	1.749468	32.000000	n/a	0	0	-3.472222e-02
83.784820	1.749468	dec_reject	1.749468	32.000000	n/a	0	0	-5.312500e-02
83.784820	1.749468	dec_social_reject_low	1.749468	32.000000	n/a	2	-1.666667e-01	-2.291667e-01
91.434204	1.733539	dec_nonsocial_choice	1.733539	16.000000	n/a	2	-1.041667e-01	-1.041667e-01
91.434204	1.733539	dec_choice	1.733539	16.000000	n/a	2	-1.041667e-01	-1.041667e-01
91.434204	1.733539	dec_nonsocial_accept	1.733539	16.000000	n/a	2	-1.833333e-01	-1.833333e-01
91.434204	1.733539	dec_accept	1.733539	16.000000	n/a	2	-1.816406e-01	-1.816406e-01
91.434204	1.733539	dec_nonsocial_accept_low	1.733539	16.000000	n/a	2	-1.852679e-01	-1.852679e-01
98.268020	1.065783	dec_social_choice	1.065783	16.000000	n/a	8	2.708333e-01	2.708333e-01
98.268020	1.065783	dec_choice	1.065783	16.000000	n/a	8	2.708333e-01	2.708333e-01
98.268020	1.065783	dec_social_accept	1.065783	16.000000	n/a	8	1.916667e-01	1.916667e-01
98.268020	1.065783	dec_accept	1.065783	16.000000	n/a	8	1.897321e-01	1.897321e-01
98.268020	1.065783	dec_social_accept_high	1.065783	16.000000	n/a	8	2.708333e-01	2.708333e-01
105.918000	1.283287	dec_nonsocial_choice	1.283287	32.000000	n/a	3	-1.354167e-01	-1.354167e-01
105.918000	1.283287	dec_choice	1.283287	32.000000	n/a	3	-1.354167e-01	-1.354167e-01
105.918000	1.283287	dec_nonsocial_accept	1.283287	32.000000	n/a	3	-2.145833e-01	-2.145833e-01
105.918000	1.283287	dec_accept	1.283287	32.000000	n/a	3	-2.128906e-01	-2.128906e-01
105.918000	1.283287	dec_nonsocial_accept_low	1.283287	32.000000	n/a	3	-2.165179e-01	-2.165179e-01
115.166595	0.884236	dec_social_choice	0.884236	32.000000	n/a	0	0	-2.291667e-01
115.166595	0.884236	dec_choice	0.884236	32.000000	n/a	0	0	-2.291667e-01
115.166595	0.884236	dec_social_reject	0.884236	32.000000	n/a	0	0	4.027778e-01
115.166595	0.884236	dec_reject	0.884236	32.000000	n/a	0	0	3.843750e-01
115.166595	0.884236	dec_social_reject_low	0.884236	32.000000	n/a	16	2.708333e-01	-2.291667e-01
124.417336	1.433459	dec_nonsocial_choice	1.433459	16.000000	n/a	8	2.708333e-01	2.708333e-01
124.417336	1.433459	dec_choice	1.433459	16.000000	n/a	8	2.708333e-01	2.708333e-01
124.417336	1.433459	dec_nonsocial_accept	1.433459	16.000000	n/a	8	1.916667e-01	1.916667e-01
124.417336	1.433459	dec_accept	1.433459	16.000000	n/a	8	1.933594e-01	1.933594e-01
124.417336	1.433459	dec_nonsocial_accept_high	1.433459	16.000000	n/a	8	1.897321e-01	1.897321e-01
131.249970	1.733764	dec_social_choice	1.733764	16.000000	n/a	2	-1.041667e-01	-1.041667e-01
131.249970	1.733764	dec_choice	1.733764	16.000000	n/a	2	-1.041667e-01	-1.041667e-01
131.249970	1.733764	dec_social_accept	1.733764	16.000000	n/a	2	-1.833333e-01	-1.833333e-01
131.249970	1.733764	dec_accept	1.733764	16.000000	n/a	2	-1.852679e-01	-1.852679e-01
131.249970	1.733764	dec_social_low	1.733764	16.000000	n/a	2	-1.041667e-01	-1.041667e-01
131.249970	1.733764	dec_social_accept_low	1.733764	16.000000	n/a	2	-1.041667e-01	-1.041667e-01
138.083980	1.349819	dec_social_choice	1.349819	16.000000	n/a	0	0	-2.291667e-01
138.083980	1.349819	dec_choice	1.349819	16.000000	n/a	0	0	-2.291667e-01
138.083980	1.349819	dec_social_reject	1.349819	16.000000	n/a	0	0	-3.472222e-02
138.083980	1.349819	dec_reject	1.349819	16.000000	n/a	0	0	-5.312500e-02
138.083980	1.349819	dec_social_reject_low	1.349819	16.000000	n/a	1	-1.666667e-01	-2.291667e-01
147.350830	1.349863	dec_social_choice	1.349863	16.000000	n/a	4	2.083333e-02	2.083333e-02
147.350830	1.349863	dec_choice	1.349863	16.000000	n/a	4	2.083333e-02	2.083333e-02
147.350830	1.349863	dec_social_accept	1.349863	16.000000	n/a	4	-5.833333e-02	-5.833333e-02
147.350830	1.349863	dec_accept	1.349863	16.000000	n/a	4	-6.026786e-02	-6.026786e-02
147.350830	1.349863	dec_social_high	1.349863	16.000000	n/a	4	2.083333e-02	2.083333e-02
147.350830	1.349863	dec_social_accept_high	1.349863	16.000000	n/a	4	2.083333e-02	2.083333e-02
154.183960	1.483424	dec_nonsocial_choice	1.483424	32.000000	n/a	0	0	-2.291667e-01
154.183960	1.483424	dec_choice	1.483424	32.000000	n/a	0	0	-2.291667e-01
154.183960	1.483424	dec_nonsocial_reject	1.483424	32.000000	n/a	0	0	-3.472222e-02
154.183960	1.483424	dec_reject	1.483424	32.000000	n/a	0	0	-1.171875e-02
154.183960	1.483424	dec_nonsocial_low	1.483424	32.000000	n/a	0	-2.291667e-01	-2.291667e-01
154.183960	1.483424	dec_nonsocial_reject_low	1.483424	32.000000	n/a	2	-1.171875e-02	-7.421875e-02
166.667660	1.383292	dec_nonsocial_choice	1.383292	16.000000	n/a	4	2.083333e-02	2.083333e-02
166.667660	1.383292	dec_choice	1.383292	16.000000	n/a	4	2.083333e-02	2.083333e-02
166.667660	1.383292	dec_nonsocial_accept	1.383292	16.000000	n/a	4	-5.833333e-02	-5.833333e-02
166.667660	1.383292	dec_accept	1.383292	16.000000	n/a	4	-5.664062e-02	-5.664062e-02
166.667660	1.383292	dec_nonsocial_high	1.383292	16.000000	n/a	4	2.083333e-02	2.083333e-02
166.667660	1.383292	dec_nonsocial_accept_high	1.383292	16.000000	n/a	4	-5.664062e-02	-5.664062e-02
173.500950	1.649946	dec_nonsocial_choice	1.649946	16.000000	n/a	0	0	-2.291667e-01
173.500950	1.649946	dec_choice	1.649946	16.000000	n/a	0	0	-2.291667e-01
173.500950	1.649946	dec_nonsocial_reject	1.649946	16.000000	n/a	0	0	2.777778e-02
173.500950	1.649946	dec_reject	1.649946	16.000000	n/a	0	0	5.078125e-02
173.500950	1.649946	dec_nonsocial_low	1.649946	16.000000	n/a	0	-2.291667e-01	-2.291667e-01
173.500950	1.649946	dec_nonsocial_reject_low	1.649946	16.000000	n/a	2	5.078125e-02	-7.421875e-02
180.332980	1.401015	dec_nonsocial_choice	1.401015	16.000000	n/a	0	0	-2.291667e-01
180.332980	1.401015	dec_choice	1.401015	16.000000	n/a	0	0	-2.291667e-01
180.332980	1.401015	dec_nonsocial_reject	1.401015	16.000000	n/a	0	0	-3.472222e-02
180.332980	1.401015	dec_reject	1.401015	16.000000	n/a	0	0	-1.171875e-02
180.332980	1.401015	dec_nonsocial_low	1.401015	16.000000	n/a	0	-2.291667e-01	-2.291667e-01
180.332980	1.401015	dec_nonsocial_reject_low	1.401015	16.000000	n/a	1	-1.171875e-02	-7.421875e-02
187.167940	1.415514	dec_nonsocial_choice	1.415514	16.000000	n/a	8	2.708333e-01	2.708333e-01
187.167940	1.415514	dec_choice	1.415514	16.000000	n/a	8	2.708333e-01	2.708333e-01
187.167940	1.415514	dec_nonsocial_accept	1.415514	16.000000	n/a	8	1.916667e-01	1.916667e-01
187.167940	1.415514	dec_accept	1.415514	16.000000	n/a	8	1.933594e-01	1.933594e-01
187.167940	1.415514	dec_nonsocial_high	1.415514	16.000000	n/a	8	2.708333e-01	2.708333e-01
187.167940	1.415514	dec_nonsocial_accept_high	1.415514	16.000000	n/a	8	1.933594e-01	1.933594e-01
194.000810	1.266004	dec_social_choice	1.266004	16.000000	n/a	0	0	-2.291667e-01
194.000810	1.266004	dec_choice	1.266004	16.000000	n/a	0	0	-2.291667e-01
194.000810	1.266004	dec_social_reject	1.266004	16.000000	n/a	0	0	-3.472222e-02
194.000810	1.266004	dec_reject	1.266004	16.000000	n/a	0	0	-5.312500e-02
194.000810	1.266004	dec_social_reject_low	1.266004	16.000000	n/a	1	-1.666667e-01	-2.291667e-01
200.833910	1.483239	dec_social_choice	1.483239	32.000000	n/a	8	2.083333e-02	2.083333e-02
200.833910	1.483239	dec_choice	1.483239	32.000000	n/a	8	2.083333e-02	2.083333e-02
200.833910	1.483239	dec_social_accept	1.483239	32.000000	n/a	8	-5.833333e-02	-5.833333e-02
200.833910	1.483239	dec_accept	1.483239	32.000000	n/a	8	-6.026786e-02	-6.026786e-02
200.833910	1.483239	dec_social_accept_high	1.483239	32.000000	n/a	8	2.083333e-02	2.083333e-02
211.700930	1.399770	dec_social_choice	1.399770	16.000000	n/a	4	2.083333e-02	2.083333e-02
211.700930	1.399770	dec_choice	1.399770	16.000000	n/a	4	2.083333e-02	2.083333e-02
211.700930	1.399770	dec_social_accept	1.399770	16.000000	n/a	4	-5.833333e-02	-5.833333e-02
211.700930	1.399770	dec_accept	1.399770	16.000000	n/a	4	-6.026786e-02	-6.026786e-02
211.700930	1.399770	dec_social_high	1.399770	16.000000	n/a	4	2.083333e-02	2.083333e-02
211.700930	1.399770	dec_social_accept_high	1.399770	16.000000	n/a	4	2.083333e-02	2.083333e-02
218.533420	1.833649	dec_nonsocial_choice	1.833649	32.000000	n/a	3	-1.354167e-01	-1.354167e-01
218.533420	1.833649	dec_choice	1.833649	32.000000	n/a	3	-1.354167e-01	-1.354167e-01
218.533420	1.833649	dec_nonsocial_accept	1.833649	32.000000	n/a	3	-2.145833e-01	-2.145833e-01
218.533420	1.833649	dec_accept	1.833649	32.000000	n/a	3	-2.128906e-01	-2.128906e-01
218.533420	1.833649	dec_nonsocial_accept_low	1.833649	32.000000	n/a	3	-2.165179e-01	-2.165179e-01
227.783770	1.233450	dec_social_choice	1.233450	32.000000	n/a	0	0	-2.291667e-01
227.783770	1.233450	dec_choice	1.233450	32.000000	n/a	0	0	-2.291667e-01
227.783770	1.233450	dec_social_reject	1.233450	32.000000	n/a	0	0	-3.472222e-02
227.783770	1.233450	dec_reject	1.233450	32.000000	n/a	0	0	-5.312500e-02
227.783770	1.233450	dec_social_low	1.233450	32.000000	n/a	0	-2.291667e-01	-2.291667e-01
227.783770	1.233450	dec_social_reject_low	1.233450	32.000000	n/a	2	-1.666667e-01	-2.291667e-01
235.433870	1.400711	dec_nonsocial_choice	1.400711	16.000000	n/a	4	2.083333e-02	2.083333e-02
235.433870	1.400711	dec_choice	1.400711	16.000000	n/a	4	2.083333e-02	2.083333e-02
235.433870	1.400711	dec_nonsocial_accept	1.400711	16.000000	n/a	4	-5.833333e-02	-5.833333e-02
235.433870	1.400711	dec_accept	1.400711	16.000000	n/a	4	-5.664062e-02	-5.664062e-02
235.433870	1.400711	dec_nonsocial_high	1.400711	16.000000	n/a	4	2.083333e-02	2.083333e-02
235.433870	1.400711	dec_nonsocial_accept_high	1.400711	16.000000	n/a	4	-5.664062e-02	-5.664062e-02
242.267870	1.449135	dec_nonsocial_choice	1.449135	16.000000	n/a	4	2.083333e-02	2.083333e-02
242.267870	1.449135	dec_choice	1.449135	16.000000	n/a	4	2.083333e-02	2.083333e-02
242.267870	1.449135	dec_nonsocial_accept	1.449135	16.000000	n/a	4	-5.833333e-02	-5.833333e-02
242.267870	1.449135	dec_accept	1.449135	16.000000	n/a	4	-5.664062e-02	-5.664062e-02
242.267870	1.449135	dec_nonsocial_accept_high	1.449135	16.000000	n/a	4	-6.026786e-02	-6.026786e-02
253.132830	2.083878	dec_social_choice	2.083878	16.000000	n/a	4	2.083333e-02	2.083333e-02
253.132830	2.083878	dec_choice	2.083878	16.000000	n/a	4	2.083333e-02	2.083333e-02
253.132830	2.083878	dec_social_accept	2.083878	16.000000	n/a	4	-5.833333e-02	-5.833333e-02
253.132830	2.083878	dec_accept	2.083878	16.000000	n/a	4	-6.026786e-02	-6.026786e-02
253.132830	2.083878	dec_social_accept_high	2.083878	16.000000	n/a	4	2.083333e-02	2.083333e-02
259.965880	1.434241	dec_social_choice	1.434241	32.000000	n/a	16	2.708333e-01	2.708333e-01
259.965880	1.434241	dec_choice	1.434241	32.000000	n/a	16	2.708333e-01	2.708333e-01
259.965880	1.434241	dec_social_accept	1.434241	32.000000	n/a	16	1.916667e-01	1.916667e-01
259.965880	1.434241	dec_accept	1.434241	32.000000	n/a	16	1.897321e-01	1.897321e-01
259.965880	1.434241	dec_social_accept_high	1.434241	32.000000	n/a	16	2.708333e-01	2.708333e-01
266.800870	1.249734	dec_social_choice	1.249734	16.000000	n/a	8	2.708333e-01	2.708333e-01
266.800870	1.249734	dec_choice	1.249734	16.000000	n/a	8	2.708333e-01	2.708333e-01
266.800870	1.249734	dec_social_accept	1.249734	16.000000	n/a	8	1.916667e-01	1.916667e-01
266.800870	1.249734	dec_accept	1.249734	16.000000	n/a	8	1.897321e-01	1.897321e-01
266.800870	1.249734	dec_social_high	1.249734	16.000000	n/a	8	2.708333e-01	2.708333e-01
266.800870	1.249734	dec_social_accept_high	1.249734	16.000000	n/a	8	2.708333e-01	2.708333e-01
277.667880	1.215417	dec_nonsocial_choice	1.215417	32.000000	n/a	16	2.708333e-01	2.708333e-01
277.667880	1.215417	dec_choice	1.215417	32.000000	n/a	16	2.708333e-01	2.708333e-01
277.667880	1.215417	dec_nonsocial_accept	1.215417	32.000000	n/a	16	1.916667e-01	1.916667e-01
277.667880	1.215417	dec_accept	1.215417	32.000000	n/a	16	1.933594e-01	1.933594e-01
277.667880	1.215417	dec_nonsocial_high	1.215417	32.000000	n/a	16	2.708333e-01	2.708333e-01
277.667880	1.215417	dec_nonsocial_accept_high	1.215417	32.000000	n/a	16	1.933594e-01	1.933594e-01
284.500950	1.599692	dec_nonsocial_choice	1.599692	16.000000	n/a	0	0	-2.291667e-01
284.500950	1.599692	dec_choice	1.599692	16.000000	n/a	0	0	-2.291667e-01
284.500950	1.599692	dec_nonsocial_reject	1.599692	16.000000	n/a	0	0	-3.472222e-02
284.500950	1.599692	dec_reject	1.599692	16.000000	n/a	0	0	-1.171875e-02
284.500950	1.599692	dec_nonsocial_low	1.599692	16.000000	n/a	0	-2.291667e-01	-2.291667e-01
284.500950	1.599692	dec_nonsocial_reject_low	1.599692	16.000000	n/a	1	-1.171875e-02	-7.421875e-02
291.333680	1.166351	dec_nonsocial_choice	1.166351	32.000000	n/a	8	2.083333e-02	2.083333e-02
291.333680	1.166351	dec_choice	1.166351	32.000000	n/a	8	2.083333e-02	2.083333e-02
291.333680	1.166351	dec_nonsocial_accept	1.166351	32.000000	n/a	8	-5.833333e-02	-5.833333e-02
291.333680	1.166351	dec_accept	1.166351	32.000000	n/a	8	-5.664062e-02	-5.664062e-02
291.333680	1.166351	dec_nonsocial_high	1.166351	32.000000	n/a	8	2.083333e-02	2.083333e-02
291.333680	1.166351	dec_nonsocial_accept_high	1.166351	32.000000	n/a	8	-5.664062e-02	-5.664062e-02
298.983830	2.150244	dec_social_choice	2.150244	32.000000	n/a	0	0	-2.291667e-01
298.983830	2.150244	dec_choice	2.150244	32.000000	n/a	0	0	-2.291667e-01
298.983830	2.150244	dec_social_reject	2.150244	32.000000	n/a	0	0	-3.472222e-02
298.983830	2.150244	dec_reject	2.150244	32.000000	n/a	0	0	-5.312500e-02
298.983830	2.150244	dec_social_reject_low	2.150244	32.000000	n/a	2	-1.666667e-01	-2.291667e-01
308.233830	1.099409	dec_nonsocial_choice	1.099409	32.000000	n/a	8	2.083333e-02	2.083333e-02
308.233830	1.099409	dec_choice	1.099409	32.000000	n/a	8	2.083333e-02	2.083333e-02
308.233830	1.099409	dec_nonsocial_accept	1.099409	32.000000	n/a	8	-5.833333e-02	-5.833333e-02
308.233830	1.099409	dec_accept	1.099409	32.000000	n/a	8	-5.664062e-02	-5.664062e-02
308.233830	1.099409	dec_nonsocial_high	1.099409	32.000000	n/a	8	2.083333e-02	2.083333e-02
308.233830	1.099409	dec_nonsocial_accept_high	1.099409	32.000000	n/a	8	-5.664062e-02	-5.664062e-02
315.883730	1.600231	dec_nonsocial_choice	1.600231	16.000000	n/a	0	0	-2.291667e-01
315.883730	1.600231	dec_choice	1.600231	16.000000	n/a	0	0	-2.291667e-01
315.883730	1.600231	dec_nonsocial_reject	1.600231	16.000000	n/a	0	0	-3.472222e-02
315.883730	1.600231	dec_reject	1.600231	16.000000	n/a	0	0	-1.171875e-02
315.883730	1.600231	dec_nonsocial_reject_low	1.600231	16.000000	n/a	1	-5.312500e-02	-1.156250e-01
323.517500	2.232731	dec_nonsocial_choice	2.232731	16.000000	n/a	0	0	-2.291667e-01
323.517500	2.232731	dec_choice	2.232731	16.000000	n/a	0	0	-2.291667e-01
323.517500	2.232731	dec_nonsocial_reject	2.232731	16.000000	n/a	0	0	-3.472222e-02
323.517500	2.232731	dec_reject	2.232731	16.000000	n/a	0	0	-1.171875e-02
323.517500	2.232731	dec_nonsocial_reject_low	2.232731	16.000000	n/a	1	-5.312500e-02	-1.156250e-01
330.349980	1.233503	dec_social_choice	1.233503	16.000000	n/a	8	2.708333e-01	2.708333e-01
330.349980	1.233503	dec_choice	1.233503	16.000000	n/a	8	2.708333e-01	2.708333e-01
330.349980	1.233503	dec_social_accept	1.233503	16.000000	n/a	8	1.916667e-01	1.916667e-01
330.349980	1.233503	dec_accept	1.233503	16.000000	n/a	8	1.897321e-01	1.897321e-01
330.349980	1.233503	dec_social_accept_high	1.233503	16.000000	n/a	8	2.708333e-01	2.708333e-01
338.000730	1.915806	dec_social_choice	1.915806	32.000000	n/a	8	2.083333e-02	2.083333e-02
338.000730	1.915806	dec_choice	1.915806	32.000000	n/a	8	2.083333e-02	2.083333e-02
338.000730	1.915806	dec_social_accept	1.915806	32.000000	n/a	8	-5.833333e-02	-5.833333e-02
338.000730	1.915806	dec_accept	1.915806	32.000000	n/a	8	-6.026786e-02	-6.026786e-02
338.000730	1.915806	dec_social_accept_high	1.915806	32.000000	n/a	8	2.083333e-02	2.083333e-02
344.832920	1.750403	dec_nonsocial_choice	1.750403	16.000000	n/a	0	0	-2.291667e-01
344.832920	1.750403	dec_choice	1.750403	16.000000	n/a	0	0	-2.291667e-01
344.832920	1.750403	dec_nonsocial_reject	1.750403	16.000000	n/a	0	0	-3.472222e-02
344.832920	1.750403	dec_reject	1.750403	16.000000	n/a	0	0	-1.171875e-02
344.832920	1.750403	dec_nonsocial_low	1.750403	16.000000	n/a	0	-2.291667e-01	-2.291667e-01
344.832920	1.750403	dec_nonsocial_reject_low	1.750403	16.000000	n/a	1	-1.171875e-02	-7.421875e-02
351.666560	2.066419	dec_nonsocial_choice	2.066419	32.000000	n/a	3	-1.354167e-01	-1.354167e-01
351.666560	2.066419	dec_choice	2.066419	32.000000	n/a	3	-1.354167e-01	-1.354167e-01
351.666560	2.066419	dec_nonsocial_accept	2.066419	32.000000	n/a	3	-2.145833e-01	-2.145833e-01
351.666560	2.066419	dec_accept	2.066419	32.000000	n/a	3	-2.128906e-01	-2.128906e-01
351.666560	2.066419	dec_nonsocial_accept_low	2.066419	32.000000	n/a	3	-2.165179e-01	-2.165179e-01
358.500120	1.233553	dec_nonsocial_choice	1.233553	32.000000	n/a	16	2.708333e-01	2.708333e-01
358.500120	1.233553	dec_choice	1.233553	32.000000	n/a	16	2.708333e-01	2.708333e-01
358.500120	1.233553	dec_nonsocial_accept	1.233553	32.000000	n/a	16	1.916667e-01	1.916667e-01
358.500120	1.233553	dec_accept	1.233553	32.000000	n/a	16	1.933594e-01	1.933594e-01
358.500120	1.233553	dec_nonsocial_high	1.233553	32.000000	n/a	16	2.708333e-01	2.708333e-01
358.500120	1.233553	dec_nonsocial_accept_high	1.233553	32.000000	n/a	16	1.933594e-01	1.933594e-01
366.149750	1.716239	dec_social_choice	1.716239	32.000000	n/a	3	-1.354167e-01	-1.354167e-01
366.149750	1.716239	dec_choice	1.716239	32.000000	n/a	3	-1.354167e-01	-1.354167e-01
366.149750	1.716239	dec_social_accept	1.716239	32.000000	n/a	3	-2.145833e-01	-2.145833e-01
366.149750	1.716239	dec_accept	1.716239	32.000000	n/a	3	-2.165179e-01	-2.165179e-01
366.149750	1.716239	dec_social_accept_low	1.716239	32.000000	n/a	3	-1.354167e-01	-1.354167e-01
372.983800	1.115877	dec_nonsocial_choice	1.115877	16.000000	n/a	4	2.083333e-02	2.083333e-02
372.983800	1.115877	dec_choice	1.115877	16.000000	n/a	4	2.083333e-02	2.083333e-02
372.983800	1.115877	dec_nonsocial_accept	1.115877	16.000000	n/a	4	-5.833333e-02	-5.833333e-02
372.983800	1.115877	dec_accept	1.115877	16.000000	n/a	4	-5.664062e-02	-5.664062e-02
372.983800	1.115877	dec_nonsocial_high	1.115877	16.000000	n/a	4	2.083333e-02	2.083333e-02
372.983800	1.115877	dec_nonsocial_accept_high	1.115877	16.000000	n/a	4	-5.664062e-02	-5.664062e-02
