onset	duration	trial_type	response_time	Endowment	Endowment_pmod	Decision	Decision_pmod	Offer_pmod
4.569148	2	cue_social	n/a	16	-8	n/a	n/a	n/a
4.569148	2	cue_social_low	n/a	16	-11	n/a	n/a	n/a
11.400758	2	cue_social	n/a	16	-8	n/a	n/a	n/a
11.400758	2	cue_social_low	n/a	16	-11	n/a	n/a	n/a
18.184204	2	cue_nonsocial	n/a	16	-11	n/a	n/a	n/a
18.184204	2	cue_nonsocial_low	n/a	16	-8	n/a	n/a	n/a
25.041248	2	cue_social	n/a	16	-8	n/a	n/a	n/a
25.041248	2	cue_social_low	n/a	16	-11	n/a	n/a	n/a
32.706320	2	cue_social	n/a	16	-8	n/a	n/a	n/a
32.706320	2	cue_social_low	n/a	16	-11	n/a	n/a	n/a
43.579440	2	cue_social	n/a	32	8	n/a	n/a	n/a
43.579440	2	cue_social_high	n/a	32	5	n/a	n/a	n/a
50.367370	2	cue_nonsocial	n/a	32	5	n/a	n/a	n/a
50.367370	2	cue_nonsocial_high	n/a	32	8	n/a	n/a	n/a
58.017420	2	cue_nonsocial	n/a	32	5	n/a	n/a	n/a
58.017420	2	cue_nonsocial_high	n/a	32	8	n/a	n/a	n/a
68.883766	2	cue_nonsocial	n/a	32	5	n/a	n/a	n/a
68.883766	2	cue_nonsocial_high	n/a	32	8	n/a	n/a	n/a
75.718050	2	cue_nonsocial	n/a	16	-11	n/a	n/a	n/a
75.718050	2	cue_nonsocial_low	n/a	16	-8	n/a	n/a	n/a
82.550750	2	cue_nonsocial	n/a	32	5	n/a	n/a	n/a
82.550750	2	cue_nonsocial_high	n/a	32	8	n/a	n/a	n/a
91.800240	2	cue_nonsocial	n/a	32	5	n/a	n/a	n/a
91.800240	2	cue_nonsocial_high	n/a	32	8	n/a	n/a	n/a
99.450610	2	cue_nonsocial	n/a	32	5	n/a	n/a	n/a
99.450610	2	cue_nonsocial_high	n/a	32	8	n/a	n/a	n/a
108.781130	2	cue_social	n/a	32	8	n/a	n/a	n/a
108.781130	2	cue_social_high	n/a	32	5	n/a	n/a	n/a
119.567290	2	cue_nonsocial	n/a	32	5	n/a	n/a	n/a
119.567290	2	cue_nonsocial_high	n/a	32	8	n/a	n/a	n/a
126.400480	2	cue_nonsocial	n/a	16	-11	n/a	n/a	n/a
126.400480	2	cue_nonsocial_low	n/a	16	-8	n/a	n/a	n/a
133.233730	2	cue_nonsocial	n/a	32	5	n/a	n/a	n/a
133.233730	2	cue_nonsocial_high	n/a	32	8	n/a	n/a	n/a
140.067200	2	cue_nonsocial	n/a	16	-11	n/a	n/a	n/a
140.067200	2	cue_nonsocial_low	n/a	16	-8	n/a	n/a	n/a
147.751240	2	cue_social	n/a	16	-8	n/a	n/a	n/a
147.751240	2	cue_social_low	n/a	16	-11	n/a	n/a	n/a
154.576920	2	cue_social	n/a	32	8	n/a	n/a	n/a
154.576920	2	cue_social_high	n/a	32	5	n/a	n/a	n/a
163.831360	2	cue_social	n/a	32	8	n/a	n/a	n/a
163.831360	2	cue_social_high	n/a	32	5	n/a	n/a	n/a
170.708180	2	cue_social	n/a	32	8	n/a	n/a	n/a
170.708180	2	cue_social_high	n/a	32	5	n/a	n/a	n/a
183.099910	2	cue_nonsocial	n/a	32	5	n/a	n/a	n/a
183.099910	2	cue_nonsocial_high	n/a	32	8	n/a	n/a	n/a
189.986080	2	cue_social	n/a	16	-8	n/a	n/a	n/a
189.986080	2	cue_social_low	n/a	16	-11	n/a	n/a	n/a
196.807080	2	cue_social	n/a	32	8	n/a	n/a	n/a
196.807080	2	cue_social_high	n/a	32	5	n/a	n/a	n/a
203.600540	2	cue_nonsocial	n/a	32	5	n/a	n/a	n/a
203.600540	2	cue_nonsocial_high	n/a	32	8	n/a	n/a	n/a
210.433670	2	cue_nonsocial	n/a	32	5	n/a	n/a	n/a
210.433670	2	cue_nonsocial_high	n/a	32	8	n/a	n/a	n/a
218.108920	2	cue_social	n/a	32	8	n/a	n/a	n/a
218.108920	2	cue_social_high	n/a	32	5	n/a	n/a	n/a
224.942380	2	cue_social	n/a	16	-8	n/a	n/a	n/a
224.942380	2	cue_social_low	n/a	16	-11	n/a	n/a	n/a
231.778180	2	cue_social	n/a	32	8	n/a	n/a	n/a
231.778180	2	cue_social_high	n/a	32	5	n/a	n/a	n/a
239.431140	2	cue_social	n/a	32	8	n/a	n/a	n/a
239.431140	2	cue_social_high	n/a	32	5	n/a	n/a	n/a
247.080280	2	cue_social	n/a	32	8	n/a	n/a	n/a
247.080280	2	cue_social_high	n/a	32	5	n/a	n/a	n/a
254.701080	2	cue_social	n/a	16	-8	n/a	n/a	n/a
254.701080	2	cue_social_low	n/a	16	-11	n/a	n/a	n/a
262.378360	2	cue_social	n/a	16	-8	n/a	n/a	n/a
262.378360	2	cue_social_low	n/a	16	-11	n/a	n/a	n/a
269.966860	2	cue_nonsocial	n/a	16	-11	n/a	n/a	n/a
269.966860	2	cue_nonsocial_low	n/a	16	-8	n/a	n/a	n/a
276.847720	2	cue_social	n/a	16	-8	n/a	n/a	n/a
276.847720	2	cue_social_low	n/a	16	-11	n/a	n/a	n/a
283.633640	2	cue_nonsocial	n/a	32	5	n/a	n/a	n/a
283.633640	2	cue_nonsocial_high	n/a	32	8	n/a	n/a	n/a
290.467130	2	cue_nonsocial	n/a	32	5	n/a	n/a	n/a
290.467130	2	cue_nonsocial_high	n/a	32	8	n/a	n/a	n/a
297.361240	2	cue_social	n/a	16	-8	n/a	n/a	n/a
297.361240	2	cue_social_low	n/a	16	-11	n/a	n/a	n/a
306.550050	2	cue_nonsocial	n/a	32	5	n/a	n/a	n/a
306.550050	2	cue_nonsocial_high	n/a	32	8	n/a	n/a	n/a
314.237500	2	cue_social	n/a	32	8	n/a	n/a	n/a
314.237500	2	cue_social_high	n/a	32	5	n/a	n/a	n/a
321.850070	2	cue_nonsocial	n/a	16	-11	n/a	n/a	n/a
321.850070	2	cue_nonsocial_low	n/a	16	-8	n/a	n/a	n/a
328.683380	2	cue_nonsocial	n/a	32	5	n/a	n/a	n/a
328.683380	2	cue_nonsocial_high	n/a	32	8	n/a	n/a	n/a
335.516800	2	cue_nonsocial	n/a	16	-11	n/a	n/a	n/a
335.516800	2	cue_nonsocial_low	n/a	16	-8	n/a	n/a	n/a
344.842350	2	cue_social	n/a	16	-8	n/a	n/a	n/a
344.842350	2	cue_social_low	n/a	16	-11	n/a	n/a	n/a
354.033600	2	cue_nonsocial	n/a	16	-11	n/a	n/a	n/a
354.033600	2	cue_nonsocial_low	n/a	16	-8	n/a	n/a	n/a
360.910770	2	cue_social	n/a	32	8	n/a	n/a	n/a
360.910770	2	cue_social_high	n/a	32	5	n/a	n/a	n/a
370.133330	2	cue_nonsocial	n/a	32	5	n/a	n/a	n/a
370.133330	2	cue_nonsocial_high	n/a	32	8	n/a	n/a	n/a
6.525075	1.165353	dec_social_choice	1.165353	16.000000	n/a	4	2.018229e-02	2.018229e-02
6.525075	1.165353	dec_choice	1.165353	16.000000	n/a	4	2.083333e-02	2.083333e-02
6.525075	1.165353	dec_social_accept	1.165353	16.000000	n/a	4	-1.250000e-01	-1.250000e-01
6.525075	1.165353	dec_accept	1.165353	16.000000	n/a	4	-1.250000e-01	-1.250000e-01
6.525075	1.165353	dec_social_high	1.165353	16.000000	n/a	4	2.083333e-02	2.083333e-02
6.525075	1.165353	dec_social_accept_high	1.165353	16.000000	n/a	4	2.083333e-02	2.083333e-02
13.358032	1.016039	dec_social_choice	1.016039	16.000000	n/a	0	0	-2.298177e-01
13.358032	1.016039	dec_choice	1.016039	16.000000	n/a	0	0	-2.291667e-01
13.358032	1.016039	dec_social_reject	1.016039	16.000000	n/a	0	0	-2.213542e-02
13.358032	1.016039	dec_reject	1.016039	16.000000	n/a	0	0	-2.083333e-02
13.358032	1.016039	dec_social_reject_low	1.016039	16.000000	n/a	1	-1.666667e-01	-2.291667e-01
20.190890	1.616678	dec_nonsocial_choice	1.616678	16.000000	n/a	0	0	-2.298177e-01
20.190890	1.616678	dec_choice	1.616678	16.000000	n/a	0	0	-2.304688e-01
20.190890	1.616678	dec_nonsocial_reject	1.616678	16.000000	n/a	0	0	4.036458e-02
20.190890	1.616678	dec_reject	1.616678	16.000000	n/a	0	0	3.906250e-02
20.190890	1.616678	dec_nonsocial_reject_low	1.616678	16.000000	n/a	2	4.166667e-02	-8.333333e-02
27.023884	1.150053	dec_social_choice	1.150053	16.000000	n/a	0	0	-2.298177e-01
27.023884	1.150053	dec_choice	1.150053	16.000000	n/a	0	0	-2.291667e-01
27.023884	1.150053	dec_social_reject	1.150053	16.000000	n/a	0	0	-2.213542e-02
27.023884	1.150053	dec_reject	1.150053	16.000000	n/a	0	0	-2.083333e-02
27.023884	1.150053	dec_social_reject_low	1.150053	16.000000	n/a	1	-1.666667e-01	-2.291667e-01
34.674667	0.933226	dec_social_choice	0.933226	16.000000	n/a	8	2.701823e-01	2.701823e-01
34.674667	0.933226	dec_choice	0.933226	16.000000	n/a	8	2.708333e-01	2.708333e-01
34.674667	0.933226	dec_social_accept	0.933226	16.000000	n/a	8	1.250000e-01	1.250000e-01
34.674667	0.933226	dec_accept	0.933226	16.000000	n/a	8	1.250000e-01	1.250000e-01
34.674667	0.933226	dec_social_high	0.933226	16.000000	n/a	8	2.708333e-01	2.708333e-01
34.674667	0.933226	dec_social_accept_high	0.933226	16.000000	n/a	8	2.708333e-01	2.708333e-01
45.540672	1.350024	dec_social_choice	1.350024	32.000000	n/a	0	0	-2.298177e-01
45.540672	1.350024	dec_choice	1.350024	32.000000	n/a	0	0	-2.291667e-01
45.540672	1.350024	dec_social_reject	1.350024	32.000000	n/a	0	0	9.114583e-03
45.540672	1.350024	dec_reject	1.350024	32.000000	n/a	0	0	1.041667e-02
45.540672	1.350024	dec_social_reject_low	1.350024	32.000000	n/a	3	-1.354167e-01	-2.291667e-01
52.374590	1.015999	dec_nonsocial_choice	1.015999	32.000000	n/a	16	2.701823e-01	2.701823e-01
52.374590	1.015999	dec_choice	1.015999	32.000000	n/a	16	2.695312e-01	2.695312e-01
52.374590	1.015999	dec_nonsocial_accept	1.015999	32.000000	n/a	16	1.250000e-01	1.250000e-01
52.374590	1.015999	dec_accept	1.015999	32.000000	n/a	16	1.250000e-01	1.250000e-01
52.374590	1.015999	dec_nonsocial_high	1.015999	32.000000	n/a	16	2.695312e-01	2.695312e-01
52.374590	1.015999	dec_nonsocial_accept_high	1.015999	32.000000	n/a	16	1.250000e-01	1.250000e-01
60.024887	2.015298	dec_nonsocial_choice	2.015298	32.000000	n/a	8	2.018229e-02	2.018229e-02
60.024887	2.015298	dec_choice	2.015298	32.000000	n/a	8	1.953125e-02	1.953125e-02
60.024887	2.015298	dec_nonsocial_accept	2.015298	32.000000	n/a	8	-1.250000e-01	-1.250000e-01
60.024887	2.015298	dec_accept	2.015298	32.000000	n/a	8	-1.250000e-01	-1.250000e-01
60.024887	2.015298	dec_nonsocial_accept_high	2.015298	32.000000	n/a	8	-1.250000e-01	-1.250000e-01
70.890890	1.416222	dec_nonsocial_choice	1.416222	32.000000	n/a	16	2.701823e-01	2.701823e-01
70.890890	1.416222	dec_choice	1.416222	32.000000	n/a	16	2.695312e-01	2.695312e-01
70.890890	1.416222	dec_nonsocial_accept	1.416222	32.000000	n/a	16	1.250000e-01	1.250000e-01
70.890890	1.416222	dec_accept	1.416222	32.000000	n/a	16	1.250000e-01	1.250000e-01
70.890890	1.416222	dec_nonsocial_high	1.416222	32.000000	n/a	16	2.695312e-01	2.695312e-01
70.890890	1.416222	dec_nonsocial_accept_high	1.416222	32.000000	n/a	16	1.250000e-01	1.250000e-01
77.723755	1.216870	dec_nonsocial_choice	1.216870	16.000000	n/a	4	2.018229e-02	2.018229e-02
77.723755	1.216870	dec_choice	1.216870	16.000000	n/a	4	1.953125e-02	1.953125e-02
77.723755	1.216870	dec_nonsocial_accept	1.216870	16.000000	n/a	4	-1.250000e-01	-1.250000e-01
77.723755	1.216870	dec_accept	1.216870	16.000000	n/a	4	-1.250000e-01	-1.250000e-01
77.723755	1.216870	dec_nonsocial_high	1.216870	16.000000	n/a	4	1.953125e-02	1.953125e-02
77.723755	1.216870	dec_nonsocial_accept_high	1.216870	16.000000	n/a	4	-1.250000e-01	-1.250000e-01
84.557884	1.615524	dec_nonsocial_choice	1.615524	32.000000	n/a	0	0	-2.298177e-01
84.557884	1.615524	dec_choice	1.615524	32.000000	n/a	0	0	-2.304688e-01
84.557884	1.615524	dec_nonsocial_reject	1.615524	32.000000	n/a	0	0	-2.213542e-02
84.557884	1.615524	dec_reject	1.615524	32.000000	n/a	0	0	-2.343750e-02
84.557884	1.615524	dec_nonsocial_reject_low	1.615524	32.000000	n/a	2	-2.083333e-02	-8.333333e-02
93.808395	1.232696	dec_nonsocial_choice	1.232696	32.000000	n/a	8	2.018229e-02	2.018229e-02
93.808395	1.232696	dec_choice	1.232696	32.000000	n/a	8	1.953125e-02	1.953125e-02
93.808395	1.232696	dec_nonsocial_accept	1.232696	32.000000	n/a	8	-1.250000e-01	-1.250000e-01
93.808395	1.232696	dec_accept	1.232696	32.000000	n/a	8	-1.250000e-01	-1.250000e-01
93.808395	1.232696	dec_nonsocial_high	1.232696	32.000000	n/a	8	1.953125e-02	1.953125e-02
93.808395	1.232696	dec_nonsocial_accept_high	1.232696	32.000000	n/a	8	-1.250000e-01	-1.250000e-01
101.456985	1.316758	dec_nonsocial_choice	1.316758	32.000000	n/a	8	2.018229e-02	2.018229e-02
101.456985	1.316758	dec_choice	1.316758	32.000000	n/a	8	1.953125e-02	1.953125e-02
101.456985	1.316758	dec_nonsocial_accept	1.316758	32.000000	n/a	8	-1.250000e-01	-1.250000e-01
101.456985	1.316758	dec_accept	1.316758	32.000000	n/a	8	-1.250000e-01	-1.250000e-01
101.456985	1.316758	dec_nonsocial_high	1.316758	32.000000	n/a	8	1.953125e-02	1.953125e-02
101.456985	1.316758	dec_nonsocial_accept_high	1.316758	32.000000	n/a	8	-1.250000e-01	-1.250000e-01
110.706920	1.850720	dec_social_choice	1.850720	32.000000	n/a	0	0	-2.298177e-01
110.706920	1.850720	dec_choice	1.850720	32.000000	n/a	0	0	-2.291667e-01
110.706920	1.850720	dec_social_reject	1.850720	32.000000	n/a	0	0	-2.213542e-02
110.706920	1.850720	dec_reject	1.850720	32.000000	n/a	0	0	-2.083333e-02
110.706920	1.850720	dec_social_reject_low	1.850720	32.000000	n/a	2	-1.666667e-01	-2.291667e-01
121.573990	1.384157	dec_nonsocial_choice	1.384157	32.000000	n/a	0	0	-2.298177e-01
121.573990	1.384157	dec_choice	1.384157	32.000000	n/a	0	0	-2.304688e-01
121.573990	1.384157	dec_nonsocial_reject	1.384157	32.000000	n/a	0	0	-2.213542e-02
121.573990	1.384157	dec_reject	1.384157	32.000000	n/a	0	0	-2.343750e-02
121.573990	1.384157	dec_nonsocial_low	1.384157	32.000000	n/a	0	-2.304688e-01	-2.304688e-01
121.573990	1.384157	dec_nonsocial_reject_low	1.384157	32.000000	n/a	2	-2.343750e-02	-8.593750e-02
128.407880	1.233097	dec_nonsocial_choice	1.233097	16.000000	n/a	0	0	-2.298177e-01
128.407880	1.233097	dec_choice	1.233097	16.000000	n/a	0	0	-2.304688e-01
128.407880	1.233097	dec_nonsocial_reject	1.233097	16.000000	n/a	0	0	-2.213542e-02
128.407880	1.233097	dec_reject	1.233097	16.000000	n/a	0	0	-2.343750e-02
128.407880	1.233097	dec_nonsocial_low	1.233097	16.000000	n/a	0	-2.304688e-01	-2.304688e-01
128.407880	1.233097	dec_nonsocial_reject_low	1.233097	16.000000	n/a	1	-2.343750e-02	-8.593750e-02
135.240690	1.716482	dec_nonsocial_choice	1.716482	32.000000	n/a	16	2.701823e-01	2.701823e-01
135.240690	1.716482	dec_choice	1.716482	32.000000	n/a	16	2.695312e-01	2.695312e-01
135.240690	1.716482	dec_nonsocial_accept	1.716482	32.000000	n/a	16	1.250000e-01	1.250000e-01
135.240690	1.716482	dec_accept	1.716482	32.000000	n/a	16	1.250000e-01	1.250000e-01
135.240690	1.716482	dec_nonsocial_accept_high	1.716482	32.000000	n/a	16	1.250000e-01	1.250000e-01
142.073870	1.666448	dec_nonsocial_choice	1.666448	16.000000	n/a	8	2.701823e-01	2.701823e-01
142.073870	1.666448	dec_choice	1.666448	16.000000	n/a	8	2.695312e-01	2.695312e-01
142.073870	1.666448	dec_nonsocial_accept	1.666448	16.000000	n/a	8	1.250000e-01	1.250000e-01
142.073870	1.666448	dec_accept	1.666448	16.000000	n/a	8	1.250000e-01	1.250000e-01
142.073870	1.666448	dec_nonsocial_high	1.666448	16.000000	n/a	8	2.695312e-01	2.695312e-01
142.073870	1.666448	dec_nonsocial_accept_high	1.666448	16.000000	n/a	8	1.250000e-01	1.250000e-01
149.706790	1.084191	dec_social_choice	1.084191	16.000000	n/a	8	2.701823e-01	2.701823e-01
149.706790	1.084191	dec_choice	1.084191	16.000000	n/a	8	2.708333e-01	2.708333e-01
149.706790	1.084191	dec_social_accept	1.084191	16.000000	n/a	8	1.250000e-01	1.250000e-01
149.706790	1.084191	dec_accept	1.084191	16.000000	n/a	8	1.250000e-01	1.250000e-01
149.706790	1.084191	dec_social_accept_high	1.084191	16.000000	n/a	8	2.708333e-01	2.708333e-01
156.540910	1.599735	dec_social_choice	1.599735	32.000000	n/a	8	2.018229e-02	2.018229e-02
156.540910	1.599735	dec_choice	1.599735	32.000000	n/a	8	2.083333e-02	2.083333e-02
156.540910	1.599735	dec_social_accept	1.599735	32.000000	n/a	8	-1.250000e-01	-1.250000e-01
156.540910	1.599735	dec_accept	1.599735	32.000000	n/a	8	-1.250000e-01	-1.250000e-01
156.540910	1.599735	dec_social_high	1.599735	32.000000	n/a	8	2.083333e-02	2.083333e-02
156.540910	1.599735	dec_social_accept_high	1.599735	32.000000	n/a	8	2.083333e-02	2.083333e-02
165.791530	1.199486	dec_social_choice	1.199486	32.000000	n/a	8	2.018229e-02	2.018229e-02
165.791530	1.199486	dec_choice	1.199486	32.000000	n/a	8	2.083333e-02	2.083333e-02
165.791530	1.199486	dec_social_accept	1.199486	32.000000	n/a	8	-1.250000e-01	-1.250000e-01
165.791530	1.199486	dec_accept	1.199486	32.000000	n/a	8	-1.250000e-01	-1.250000e-01
165.791530	1.199486	dec_social_high	1.199486	32.000000	n/a	8	2.083333e-02	2.083333e-02
165.791530	1.199486	dec_social_accept_high	1.199486	32.000000	n/a	8	2.083333e-02	2.083333e-02
172.623900	1.399931	dec_social_choice	1.399931	32.000000	n/a	0	0	-2.298177e-01
172.623900	1.399931	dec_choice	1.399931	32.000000	n/a	0	0	-2.291667e-01
172.623900	1.399931	dec_social_reject	1.399931	32.000000	n/a	0	0	-2.213542e-02
172.623900	1.399931	dec_reject	1.399931	32.000000	n/a	0	0	-2.083333e-02
172.623900	1.399931	dec_social_low	1.399931	32.000000	n/a	0	-2.291667e-01	-2.291667e-01
172.623900	1.399931	dec_social_reject_low	1.399931	32.000000	n/a	2	-1.666667e-01	-2.291667e-01
185.107910	1.282946	dec_nonsocial_choice	1.282946	32.000000	n/a	0	0	-2.298177e-01
185.107910	1.282946	dec_choice	1.282946	32.000000	n/a	0	0	-2.304688e-01
185.107910	1.282946	dec_nonsocial_reject	1.282946	32.000000	n/a	0	0	9.114583e-03
185.107910	1.282946	dec_reject	1.282946	32.000000	n/a	0	0	7.812500e-03
185.107910	1.282946	dec_nonsocial_reject_low	1.282946	32.000000	n/a	3	1.041667e-02	-8.333333e-02
191.940670	1.183398	dec_social_choice	1.183398	16.000000	n/a	8	2.701823e-01	2.701823e-01
191.940670	1.183398	dec_choice	1.183398	16.000000	n/a	8	2.708333e-01	2.708333e-01
191.940670	1.183398	dec_social_accept	1.183398	16.000000	n/a	8	1.250000e-01	1.250000e-01
191.940670	1.183398	dec_accept	1.183398	16.000000	n/a	8	1.250000e-01	1.250000e-01
191.940670	1.183398	dec_social_accept_high	1.183398	16.000000	n/a	8	2.708333e-01	2.708333e-01
198.774890	1.298758	dec_social_choice	1.298758	32.000000	n/a	0	0	-2.298177e-01
198.774890	1.298758	dec_choice	1.298758	32.000000	n/a	0	0	-2.291667e-01
198.774890	1.298758	dec_social_reject	1.298758	32.000000	n/a	0	0	9.114583e-03
198.774890	1.298758	dec_reject	1.298758	32.000000	n/a	0	0	1.041667e-02
198.774890	1.298758	dec_social_reject_low	1.298758	32.000000	n/a	3	-1.354167e-01	-2.291667e-01
205.607930	1.249076	dec_nonsocial_choice	1.249076	32.000000	n/a	0	0	-2.298177e-01
205.607930	1.249076	dec_choice	1.249076	32.000000	n/a	0	0	-2.304688e-01
205.607930	1.249076	dec_nonsocial_reject	1.249076	32.000000	n/a	0	0	-2.213542e-02
205.607930	1.249076	dec_reject	1.249076	32.000000	n/a	0	0	-2.343750e-02
205.607930	1.249076	dec_nonsocial_reject_low	1.249076	32.000000	n/a	2	-2.083333e-02	-8.333333e-02
212.440780	1.150049	dec_nonsocial_choice	1.150049	32.000000	n/a	16	2.701823e-01	2.701823e-01
212.440780	1.150049	dec_choice	1.150049	32.000000	n/a	16	2.695312e-01	2.695312e-01
212.440780	1.150049	dec_nonsocial_accept	1.150049	32.000000	n/a	16	1.250000e-01	1.250000e-01
212.440780	1.150049	dec_accept	1.150049	32.000000	n/a	16	1.250000e-01	1.250000e-01
212.440780	1.150049	dec_nonsocial_high	1.150049	32.000000	n/a	16	2.695312e-01	2.695312e-01
212.440780	1.150049	dec_nonsocial_accept_high	1.150049	32.000000	n/a	16	1.250000e-01	1.250000e-01
220.074700	1.732790	dec_social_choice	1.732790	32.000000	n/a	0	0	-2.298177e-01
220.074700	1.732790	dec_choice	1.732790	32.000000	n/a	0	0	-2.291667e-01
220.074700	1.732790	dec_social_reject	1.732790	32.000000	n/a	0	0	9.114583e-03
220.074700	1.732790	dec_reject	1.732790	32.000000	n/a	0	0	1.041667e-02
220.074700	1.732790	dec_social_low	1.732790	32.000000	n/a	0	-2.291667e-01	-2.291667e-01
220.074700	1.732790	dec_social_reject_low	1.732790	32.000000	n/a	3	-1.354167e-01	-2.291667e-01
226.907790	1.682655	dec_social_choice	1.682655	16.000000	n/a	8	2.701823e-01	2.701823e-01
226.907790	1.682655	dec_choice	1.682655	16.000000	n/a	8	2.708333e-01	2.708333e-01
226.907790	1.682655	dec_social_accept	1.682655	16.000000	n/a	8	1.250000e-01	1.250000e-01
226.907790	1.682655	dec_accept	1.682655	16.000000	n/a	8	1.250000e-01	1.250000e-01
226.907790	1.682655	dec_social_accept_high	1.682655	16.000000	n/a	8	2.708333e-01	2.708333e-01
233.740830	2.033349	dec_social_choice	2.033349	32.000000	n/a	8	2.018229e-02	2.018229e-02
233.740830	2.033349	dec_choice	2.033349	32.000000	n/a	8	2.083333e-02	2.083333e-02
233.740830	2.033349	dec_social_accept	2.033349	32.000000	n/a	8	-1.250000e-01	-1.250000e-01
233.740830	2.033349	dec_accept	2.033349	32.000000	n/a	8	-1.250000e-01	-1.250000e-01
233.740830	2.033349	dec_social_high	2.033349	32.000000	n/a	8	2.083333e-02	2.083333e-02
233.740830	2.033349	dec_social_accept_high	2.033349	32.000000	n/a	8	2.083333e-02	2.083333e-02
241.390140	1.434021	dec_social_choice	1.434021	32.000000	n/a	8	2.018229e-02	2.018229e-02
241.390140	1.434021	dec_choice	1.434021	32.000000	n/a	8	2.083333e-02	2.083333e-02
241.390140	1.434021	dec_social_accept	1.434021	32.000000	n/a	8	-1.250000e-01	-1.250000e-01
241.390140	1.434021	dec_accept	1.434021	32.000000	n/a	8	-1.250000e-01	-1.250000e-01
241.390140	1.434021	dec_social_high	1.434021	32.000000	n/a	8	2.083333e-02	2.083333e-02
241.390140	1.434021	dec_social_accept_high	1.434021	32.000000	n/a	8	2.083333e-02	2.083333e-02
249.023930	1.966192	dec_social_choice	1.966192	32.000000	n/a	0	0	-2.298177e-01
249.023930	1.966192	dec_choice	1.966192	32.000000	n/a	0	0	-2.291667e-01
249.023930	1.966192	dec_social_reject	1.966192	32.000000	n/a	0	0	9.114583e-03
249.023930	1.966192	dec_reject	1.966192	32.000000	n/a	0	0	1.041667e-02
249.023930	1.966192	dec_social_reject_low	1.966192	32.000000	n/a	3	-1.354167e-01	-2.291667e-01
256.672900	1.233672	dec_social_choice	1.233672	16.000000	n/a	0	0	-2.298177e-01
256.672900	1.233672	dec_choice	1.233672	16.000000	n/a	0	0	-2.291667e-01
256.672900	1.233672	dec_social_reject	1.233672	16.000000	n/a	0	0	4.036458e-02
256.672900	1.233672	dec_reject	1.233672	16.000000	n/a	0	0	4.166667e-02
256.672900	1.233672	dec_social_reject_low	1.233672	16.000000	n/a	2	-1.041667e-01	-2.291667e-01
264.323880	1.033487	dec_social_choice	1.033487	16.000000	n/a	0	0	-2.298177e-01
264.323880	1.033487	dec_choice	1.033487	16.000000	n/a	0	0	-2.291667e-01
264.323880	1.033487	dec_social_reject	1.033487	16.000000	n/a	0	0	4.036458e-02
264.323880	1.033487	dec_reject	1.033487	16.000000	n/a	0	0	4.166667e-02
264.323880	1.033487	dec_social_reject_low	1.033487	16.000000	n/a	2	-1.041667e-01	-2.291667e-01
271.973900	1.083030	dec_nonsocial_choice	1.083030	16.000000	n/a	0	0	-2.298177e-01
271.973900	1.083030	dec_choice	1.083030	16.000000	n/a	0	0	-2.304688e-01
271.973900	1.083030	dec_nonsocial_reject	1.083030	16.000000	n/a	0	0	4.036458e-02
271.973900	1.083030	dec_reject	1.083030	16.000000	n/a	0	0	3.906250e-02
271.973900	1.083030	dec_nonsocial_low	1.083030	16.000000	n/a	0	-2.304688e-01	-2.304688e-01
271.973900	1.083030	dec_nonsocial_reject_low	1.083030	16.000000	n/a	2	3.906250e-02	-8.593750e-02
278.806920	1.383265	dec_social_choice	1.383265	16.000000	n/a	8	2.701823e-01	2.701823e-01
278.806920	1.383265	dec_choice	1.383265	16.000000	n/a	8	2.708333e-01	2.708333e-01
278.806920	1.383265	dec_social_accept	1.383265	16.000000	n/a	8	1.250000e-01	1.250000e-01
278.806920	1.383265	dec_accept	1.383265	16.000000	n/a	8	1.250000e-01	1.250000e-01
278.806920	1.383265	dec_social_high	1.383265	16.000000	n/a	8	2.708333e-01	2.708333e-01
278.806920	1.383265	dec_social_accept_high	1.383265	16.000000	n/a	8	2.708333e-01	2.708333e-01
285.639920	2.050702	dec_nonsocial_choice	2.050702	32.000000	n/a	0	0	-2.298177e-01
285.639920	2.050702	dec_choice	2.050702	32.000000	n/a	0	0	-2.304688e-01
285.639920	2.050702	dec_nonsocial_reject	2.050702	32.000000	n/a	0	0	-2.213542e-02
285.639920	2.050702	dec_reject	2.050702	32.000000	n/a	0	0	-2.343750e-02
285.639920	2.050702	dec_nonsocial_low	2.050702	32.000000	n/a	0	-2.304688e-01	-2.304688e-01
285.639920	2.050702	dec_nonsocial_reject_low	2.050702	32.000000	n/a	2	-2.343750e-02	-8.593750e-02
292.473480	1.300388	dec_nonsocial_choice	1.300388	32.000000	n/a	8	2.018229e-02	2.018229e-02
292.473480	1.300388	dec_choice	1.300388	32.000000	n/a	8	1.953125e-02	1.953125e-02
292.473480	1.300388	dec_nonsocial_accept	1.300388	32.000000	n/a	8	-1.250000e-01	-1.250000e-01
292.473480	1.300388	dec_accept	1.300388	32.000000	n/a	8	-1.250000e-01	-1.250000e-01
292.473480	1.300388	dec_nonsocial_high	1.300388	32.000000	n/a	8	1.953125e-02	1.953125e-02
292.473480	1.300388	dec_nonsocial_accept_high	1.300388	32.000000	n/a	8	-1.250000e-01	-1.250000e-01
299.306730	1.083878	dec_social_choice	1.083878	16.000000	n/a	8	2.701823e-01	2.701823e-01
299.306730	1.083878	dec_choice	1.083878	16.000000	n/a	8	2.708333e-01	2.708333e-01
299.306730	1.083878	dec_social_accept	1.083878	16.000000	n/a	8	1.250000e-01	1.250000e-01
299.306730	1.083878	dec_accept	1.083878	16.000000	n/a	8	1.250000e-01	1.250000e-01
299.306730	1.083878	dec_social_high	1.083878	16.000000	n/a	8	2.708333e-01	2.708333e-01
299.306730	1.083878	dec_social_accept_high	1.083878	16.000000	n/a	8	2.708333e-01	2.708333e-01
308.555970	1.850954	dec_nonsocial_choice	1.850954	32.000000	n/a	0	0	-2.298177e-01
308.555970	1.850954	dec_choice	1.850954	32.000000	n/a	0	0	-2.304688e-01
308.555970	1.850954	dec_nonsocial_reject	1.850954	32.000000	n/a	0	0	9.114583e-03
308.555970	1.850954	dec_reject	1.850954	32.000000	n/a	0	0	7.812500e-03
308.555970	1.850954	dec_nonsocial_reject_low	1.850954	32.000000	n/a	3	1.041667e-02	-8.333333e-02
316.205900	2.617992	dec_social_choice	2.617992	32.000000	n/a	0	0	-2.298177e-01
316.205900	2.617992	dec_choice	2.617992	32.000000	n/a	0	0	-2.291667e-01
316.205900	2.617992	dec_social_reject	2.617992	32.000000	n/a	0	0	-2.213542e-02
316.205900	2.617992	dec_reject	2.617992	32.000000	n/a	0	0	-2.083333e-02
316.205900	2.617992	dec_social_reject_low	2.617992	32.000000	n/a	2	-1.666667e-01	-2.291667e-01
323.856780	0.983639	dec_nonsocial_choice	0.983639	16.000000	n/a	0	0	-2.298177e-01
323.856780	0.983639	dec_choice	0.983639	16.000000	n/a	0	0	-2.304688e-01
323.856780	0.983639	dec_nonsocial_reject	0.983639	16.000000	n/a	0	0	4.036458e-02
323.856780	0.983639	dec_reject	0.983639	16.000000	n/a	0	0	3.906250e-02
323.856780	0.983639	dec_nonsocial_reject_low	0.983639	16.000000	n/a	2	4.166667e-02	-8.333333e-02
330.689940	1.483546	dec_nonsocial_choice	1.483546	32.000000	n/a	0	0	-2.298177e-01
330.689940	1.483546	dec_choice	1.483546	32.000000	n/a	0	0	-2.304688e-01
330.689940	1.483546	dec_nonsocial_reject	1.483546	32.000000	n/a	0	0	-2.213542e-02
330.689940	1.483546	dec_reject	1.483546	32.000000	n/a	0	0	-2.343750e-02
330.689940	1.483546	dec_nonsocial_low	1.483546	32.000000	n/a	0	-2.304688e-01	-2.304688e-01
330.689940	1.483546	dec_nonsocial_reject_low	1.483546	32.000000	n/a	2	-2.343750e-02	-8.593750e-02
337.523560	1.365763	dec_nonsocial_choice	1.365763	16.000000	n/a	4	2.018229e-02	2.018229e-02
337.523560	1.365763	dec_choice	1.365763	16.000000	n/a	4	1.953125e-02	1.953125e-02
337.523560	1.365763	dec_nonsocial_accept	1.365763	16.000000	n/a	4	-1.250000e-01	-1.250000e-01
337.523560	1.365763	dec_accept	1.365763	16.000000	n/a	4	-1.250000e-01	-1.250000e-01
337.523560	1.365763	dec_nonsocial_accept_high	1.365763	16.000000	n/a	4	-1.250000e-01	-1.250000e-01
346.790950	1.099028	dec_social_choice	1.099028	16.000000	n/a	0	0	-2.298177e-01
346.790950	1.099028	dec_choice	1.099028	16.000000	n/a	0	0	-2.291667e-01
346.790950	1.099028	dec_social_reject	1.099028	16.000000	n/a	0	0	-2.213542e-02
346.790950	1.099028	dec_reject	1.099028	16.000000	n/a	0	0	-2.083333e-02
346.790950	1.099028	dec_social_reject_low	1.099028	16.000000	n/a	1	-1.666667e-01	-2.291667e-01
356.040300	1.199780	dec_nonsocial_choice	1.199780	16.000000	n/a	8	2.701823e-01	2.701823e-01
356.040300	1.199780	dec_choice	1.199780	16.000000	n/a	8	2.695312e-01	2.695312e-01
356.040300	1.199780	dec_nonsocial_accept	1.199780	16.000000	n/a	8	1.250000e-01	1.250000e-01
356.040300	1.199780	dec_accept	1.199780	16.000000	n/a	8	1.250000e-01	1.250000e-01
356.040300	1.199780	dec_nonsocial_high	1.199780	16.000000	n/a	8	2.695312e-01	2.695312e-01
356.040300	1.199780	dec_nonsocial_accept_high	1.199780	16.000000	n/a	8	1.250000e-01	1.250000e-01
362.873960	2.199472	dec_social_choice	2.199472	32.000000	n/a	8	2.018229e-02	2.018229e-02
362.873960	2.199472	dec_choice	2.199472	32.000000	n/a	8	2.083333e-02	2.083333e-02
362.873960	2.199472	dec_social_accept	2.199472	32.000000	n/a	8	-1.250000e-01	-1.250000e-01
362.873960	2.199472	dec_accept	2.199472	32.000000	n/a	8	-1.250000e-01	-1.250000e-01
362.873960	2.199472	dec_social_accept_high	2.199472	32.000000	n/a	8	2.083333e-02	2.083333e-02
372.140930	1.148961	dec_nonsocial_choice	1.148961	32.000000	n/a	0	0	-2.298177e-01
372.140930	1.148961	dec_choice	1.148961	32.000000	n/a	0	0	-2.304688e-01
372.140930	1.148961	dec_nonsocial_reject	1.148961	32.000000	n/a	0	0	9.114583e-03
372.140930	1.148961	dec_reject	1.148961	32.000000	n/a	0	0	7.812500e-03
372.140930	1.148961	dec_nonsocial_low	1.148961	32.000000	n/a	0	-2.304688e-01	-2.304688e-01
372.140930	1.148961	dec_nonsocial_reject_low	1.148961	32.000000	n/a	3	7.812500e-03	-8.593750e-02
