onset	duration	trial_type	response_time	Endowment	Endowment_pmod	Decision	Decision_pmod	Offer_pmod
4.505070	2	cue_nonsocial	n/a	16	-10	n/a	n/a	n/a
4.505070	2	cue_nonsocial_low	n/a	16	-9	n/a	n/a	n/a
12.154350	2	cue_nonsocial	n/a	32	6	n/a	n/a	n/a
12.154350	2	cue_nonsocial_high	n/a	32	7	n/a	n/a	n/a
19.066008	2	cue_social	n/a	16	-9	n/a	n/a	n/a
19.066008	2	cue_social_low	n/a	16	-10	n/a	n/a	n/a
26.701475	2	cue_social	n/a	32	7	n/a	n/a	n/a
26.701475	2	cue_social_high	n/a	32	6	n/a	n/a	n/a
34.337196	2	cue_social	n/a	16	-9	n/a	n/a	n/a
34.337196	2	cue_social_low	n/a	16	-10	n/a	n/a	n/a
41.157005	2	cue_social	n/a	16	-9	n/a	n/a	n/a
41.157005	2	cue_social_low	n/a	16	-10	n/a	n/a	n/a
50.424606	2	cue_social	n/a	16	-9	n/a	n/a	n/a
50.424606	2	cue_social_low	n/a	16	-10	n/a	n/a	n/a
58.004520	2	cue_nonsocial	n/a	16	-10	n/a	n/a	n/a
58.004520	2	cue_nonsocial_low	n/a	16	-9	n/a	n/a	n/a
64.837490	2	cue_nonsocial	n/a	16	-10	n/a	n/a	n/a
64.837490	2	cue_nonsocial_low	n/a	16	-9	n/a	n/a	n/a
71.671684	2	cue_nonsocial	n/a	32	6	n/a	n/a	n/a
71.671684	2	cue_nonsocial_high	n/a	32	7	n/a	n/a	n/a
78.537340	2	cue_social	n/a	32	7	n/a	n/a	n/a
78.537340	2	cue_social_high	n/a	32	6	n/a	n/a	n/a
85.438840	2	cue_social	n/a	32	7	n/a	n/a	n/a
85.438840	2	cue_social_high	n/a	32	6	n/a	n/a	n/a
93.041520	2	cue_social	n/a	32	7	n/a	n/a	n/a
93.041520	2	cue_social_high	n/a	32	6	n/a	n/a	n/a
100.637430	2	cue_nonsocial	n/a	32	6	n/a	n/a	n/a
100.637430	2	cue_nonsocial_high	n/a	32	7	n/a	n/a	n/a
109.887566	2	cue_nonsocial	n/a	16	-10	n/a	n/a	n/a
109.887566	2	cue_nonsocial_low	n/a	16	-9	n/a	n/a	n/a
117.586040	2	cue_social	n/a	16	-9	n/a	n/a	n/a
117.586040	2	cue_social_low	n/a	16	-10	n/a	n/a	n/a
124.353966	2	cue_nonsocial	n/a	32	6	n/a	n/a	n/a
124.353966	2	cue_nonsocial_high	n/a	32	7	n/a	n/a	n/a
135.220890	2	cue_nonsocial	n/a	32	6	n/a	n/a	n/a
135.220890	2	cue_nonsocial_high	n/a	32	7	n/a	n/a	n/a
142.118440	2	cue_social	n/a	32	7	n/a	n/a	n/a
142.118440	2	cue_social_high	n/a	32	6	n/a	n/a	n/a
152.992400	2	cue_social	n/a	32	7	n/a	n/a	n/a
152.992400	2	cue_social_high	n/a	32	6	n/a	n/a	n/a
159.857620	2	cue_social	n/a	32	7	n/a	n/a	n/a
159.857620	2	cue_social_high	n/a	32	6	n/a	n/a	n/a
169.087770	2	cue_social	n/a	16	-9	n/a	n/a	n/a
169.087770	2	cue_social_low	n/a	16	-10	n/a	n/a	n/a
175.853970	2	cue_nonsocial	n/a	32	6	n/a	n/a	n/a
175.853970	2	cue_nonsocial_high	n/a	32	7	n/a	n/a	n/a
186.720890	2	cue_nonsocial	n/a	32	6	n/a	n/a	n/a
186.720890	2	cue_nonsocial_high	n/a	32	7	n/a	n/a	n/a
194.423550	2	cue_social	n/a	16	-9	n/a	n/a	n/a
194.423550	2	cue_social_low	n/a	16	-10	n/a	n/a	n/a
201.204030	2	cue_nonsocial	n/a	16	-10	n/a	n/a	n/a
201.204030	2	cue_nonsocial_low	n/a	16	-9	n/a	n/a	n/a
208.087450	2	cue_social	n/a	32	7	n/a	n/a	n/a
208.087450	2	cue_social_high	n/a	32	6	n/a	n/a	n/a
214.870380	2	cue_nonsocial	n/a	16	-10	n/a	n/a	n/a
214.870380	2	cue_nonsocial_low	n/a	16	-9	n/a	n/a	n/a
221.703920	2	cue_nonsocial	n/a	16	-10	n/a	n/a	n/a
221.703920	2	cue_nonsocial_low	n/a	16	-9	n/a	n/a	n/a
230.953770	2	cue_nonsocial	n/a	32	6	n/a	n/a	n/a
230.953770	2	cue_nonsocial_high	n/a	32	7	n/a	n/a	n/a
237.787380	2	cue_nonsocial	n/a	32	6	n/a	n/a	n/a
237.787380	2	cue_nonsocial_high	n/a	32	7	n/a	n/a	n/a
245.437530	2	cue_nonsocial	n/a	32	6	n/a	n/a	n/a
245.437530	2	cue_nonsocial_high	n/a	32	7	n/a	n/a	n/a
254.703930	2	cue_nonsocial	n/a	32	6	n/a	n/a	n/a
254.703930	2	cue_nonsocial_high	n/a	32	7	n/a	n/a	n/a
261.536960	2	cue_nonsocial	n/a	32	6	n/a	n/a	n/a
261.536960	2	cue_nonsocial_high	n/a	32	7	n/a	n/a	n/a
268.430700	2	cue_social	n/a	16	-9	n/a	n/a	n/a
268.430700	2	cue_social_low	n/a	16	-10	n/a	n/a	n/a
275.203770	2	cue_nonsocial	n/a	32	6	n/a	n/a	n/a
275.203770	2	cue_nonsocial_high	n/a	32	7	n/a	n/a	n/a
282.094300	2	cue_social	n/a	16	-9	n/a	n/a	n/a
282.094300	2	cue_social_low	n/a	16	-10	n/a	n/a	n/a
291.334350	2	cue_social	n/a	32	7	n/a	n/a	n/a
291.334350	2	cue_social_high	n/a	32	6	n/a	n/a	n/a
299.021330	2	cue_social	n/a	32	7	n/a	n/a	n/a
299.021330	2	cue_social_high	n/a	32	6	n/a	n/a	n/a
305.830080	2	cue_social	n/a	16	-9	n/a	n/a	n/a
305.830080	2	cue_social_low	n/a	16	-10	n/a	n/a	n/a
312.603730	2	cue_nonsocial	n/a	32	6	n/a	n/a	n/a
312.603730	2	cue_nonsocial_high	n/a	32	7	n/a	n/a	n/a
325.086670	2	cue_nonsocial	n/a	16	-10	n/a	n/a	n/a
325.086670	2	cue_nonsocial_low	n/a	16	-9	n/a	n/a	n/a
331.975000	2	cue_social	n/a	16	-9	n/a	n/a	n/a
331.975000	2	cue_social_low	n/a	16	-10	n/a	n/a	n/a
339.661070	2	cue_social	n/a	32	7	n/a	n/a	n/a
339.661070	2	cue_social_high	n/a	32	6	n/a	n/a	n/a
346.403320	2	cue_nonsocial	n/a	32	6	n/a	n/a	n/a
346.403320	2	cue_nonsocial_high	n/a	32	7	n/a	n/a	n/a
354.107940	2	cue_social	n/a	32	7	n/a	n/a	n/a
354.107940	2	cue_social_high	n/a	32	6	n/a	n/a	n/a
360.923900	2	cue_social	n/a	32	7	n/a	n/a	n/a
360.923900	2	cue_social_high	n/a	32	6	n/a	n/a	n/a
368.520450	2	cue_nonsocial	n/a	16	-10	n/a	n/a	n/a
368.520450	2	cue_nonsocial_low	n/a	16	-9	n/a	n/a	n/a
6.511163	1.383801	dec_nonsocial_choice	1.383801	16.000000	n/a	4	1.953125e-02	1.953125e-02
6.511163	1.383801	dec_choice	1.383801	16.000000	n/a	4	1.953125e-02	1.953125e-02
6.511163	1.383801	dec_nonsocial_accept	1.383801	16.000000	n/a	4	-5.141129e-02	-5.141129e-02
6.511163	1.383801	dec_accept	1.383801	16.000000	n/a	4	-3.125000e-02	-3.125000e-02
6.511163	1.383801	dec_nonsocial_high	1.383801	16.000000	n/a	4	1.953125e-02	1.953125e-02
6.511163	1.383801	dec_nonsocial_accept_high	1.383801	16.000000	n/a	4	-3.125000e-02	-3.125000e-02
14.162057	1.715644	dec_nonsocial_choice	1.715644	32.000000	n/a	2	-1.679688e-01	-1.679688e-01
14.162057	1.715644	dec_choice	1.715644	32.000000	n/a	2	-1.679688e-01	-1.679688e-01
14.162057	1.715644	dec_nonsocial_accept	1.715644	32.000000	n/a	2	-2.389113e-01	-2.389113e-01
14.162057	1.715644	dec_accept	1.715644	32.000000	n/a	2	-2.187500e-01	-2.187500e-01
14.162057	1.715644	dec_nonsocial_accept_low	1.715644	32.000000	n/a	2	-2.604167e-01	-2.604167e-01
20.993930	1.867415	dec_social_choice	1.867415	16.000000	n/a	2	-1.054688e-01	-1.054688e-01
20.993930	1.867415	dec_choice	1.867415	16.000000	n/a	2	-1.054688e-01	-1.054688e-01
20.993930	1.867415	dec_social_accept	1.867415	16.000000	n/a	2	-1.764113e-01	-1.764113e-01
20.993930	1.867415	dec_accept	1.867415	16.000000	n/a	2	-1.979167e-01	-1.979167e-01
20.993930	1.867415	dec_social_low	1.867415	16.000000	n/a	2	-1.054688e-01	-1.054688e-01
20.993930	1.867415	dec_social_accept_low	1.867415	16.000000	n/a	2	-1.054688e-01	-1.054688e-01
28.627527	1.183216	dec_social_choice	1.183216	32.000000	n/a	8	1.953125e-02	1.953125e-02
28.627527	1.183216	dec_choice	1.183216	32.000000	n/a	8	1.953125e-02	1.953125e-02
28.627527	1.183216	dec_social_accept	1.183216	32.000000	n/a	8	-5.141129e-02	-5.141129e-02
28.627527	1.183216	dec_accept	1.183216	32.000000	n/a	8	-7.291667e-02	-7.291667e-02
28.627527	1.183216	dec_social_accept_high	1.183216	32.000000	n/a	8	1.953125e-02	1.953125e-02
36.277550	1.300408	dec_social_choice	1.300408	16.000000	n/a	8	2.695312e-01	2.695312e-01
36.277550	1.300408	dec_choice	1.300408	16.000000	n/a	8	2.695312e-01	2.695312e-01
36.277550	1.300408	dec_social_accept	1.300408	16.000000	n/a	8	1.985887e-01	1.985887e-01
36.277550	1.300408	dec_accept	1.300408	16.000000	n/a	8	1.770833e-01	1.770833e-01
36.277550	1.300408	dec_social_high	1.300408	16.000000	n/a	8	2.695312e-01	2.695312e-01
36.277550	1.300408	dec_social_accept_high	1.300408	16.000000	n/a	8	2.695312e-01	2.695312e-01
43.111065	1.133710	dec_social_choice	1.133710	16.000000	n/a	2	-1.054688e-01	-1.054688e-01
43.111065	1.133710	dec_choice	1.133710	16.000000	n/a	2	-1.054688e-01	-1.054688e-01
43.111065	1.133710	dec_social_accept	1.133710	16.000000	n/a	2	-1.764113e-01	-1.764113e-01
43.111065	1.133710	dec_accept	1.133710	16.000000	n/a	2	-1.979167e-01	-1.979167e-01
43.111065	1.133710	dec_social_accept_low	1.133710	16.000000	n/a	2	-1.054688e-01	-1.054688e-01
52.361046	1.733558	dec_social_choice	1.733558	16.000000	n/a	4	1.953125e-02	1.953125e-02
52.361046	1.733558	dec_choice	1.733558	16.000000	n/a	4	1.953125e-02	1.953125e-02
52.361046	1.733558	dec_social_accept	1.733558	16.000000	n/a	4	-5.141129e-02	-5.141129e-02
52.361046	1.733558	dec_accept	1.733558	16.000000	n/a	4	-7.291667e-02	-7.291667e-02
52.361046	1.733558	dec_social_accept_high	1.733558	16.000000	n/a	4	1.953125e-02	1.953125e-02
60.010060	1.584600	dec_nonsocial_choice	1.584600	16.000000	n/a	4	1.953125e-02	1.953125e-02
60.010060	1.584600	dec_choice	1.584600	16.000000	n/a	4	1.953125e-02	1.953125e-02
60.010060	1.584600	dec_nonsocial_accept	1.584600	16.000000	n/a	4	-5.141129e-02	-5.141129e-02
60.010060	1.584600	dec_accept	1.584600	16.000000	n/a	4	-3.125000e-02	-3.125000e-02
60.010060	1.584600	dec_nonsocial_high	1.584600	16.000000	n/a	4	1.953125e-02	1.953125e-02
60.010060	1.584600	dec_nonsocial_accept_high	1.584600	16.000000	n/a	4	-3.125000e-02	-3.125000e-02
66.844000	1.616737	dec_nonsocial_choice	1.616737	16.000000	n/a	2	-1.054688e-01	-1.054688e-01
66.844000	1.616737	dec_choice	1.616737	16.000000	n/a	2	-1.054688e-01	-1.054688e-01
66.844000	1.616737	dec_nonsocial_accept	1.616737	16.000000	n/a	2	-1.764113e-01	-1.764113e-01
66.844000	1.616737	dec_accept	1.616737	16.000000	n/a	2	-1.562500e-01	-1.562500e-01
66.844000	1.616737	dec_nonsocial_accept_low	1.616737	16.000000	n/a	2	-1.979167e-01	-1.979167e-01
73.678000	1.765884	dec_nonsocial_choice	1.765884	32.000000	n/a	0	0	-2.304688e-01
73.678000	1.765884	dec_choice	1.765884	32.000000	n/a	0	0	-2.304688e-01
73.678000	1.765884	dec_nonsocial_reject	1.765884	32.000000	n/a	0	0	-7.352941e-03
73.678000	1.765884	dec_reject	1.765884	32.000000	n/a	0	0	-3.515625e-02
73.678000	1.765884	dec_nonsocial_reject_low	1.765884	32.000000	n/a	3	1.736111e-02	-7.638889e-02
80.510086	1.500843	dec_social_choice	1.500843	32.000000	n/a	16	2.695312e-01	2.695312e-01
80.510086	1.500843	dec_choice	1.500843	32.000000	n/a	16	2.695312e-01	2.695312e-01
80.510086	1.500843	dec_social_accept	1.500843	32.000000	n/a	16	1.985887e-01	1.985887e-01
80.510086	1.500843	dec_accept	1.500843	32.000000	n/a	16	1.770833e-01	1.770833e-01
80.510086	1.500843	dec_social_accept_high	1.500843	32.000000	n/a	16	2.695312e-01	2.695312e-01
87.344540	1.866082	dec_social_choice	1.866082	32.000000	n/a	0	0	-2.304688e-01
87.344540	1.866082	dec_choice	1.866082	32.000000	n/a	0	0	-2.304688e-01
87.344540	1.866082	dec_social_reject	1.866082	32.000000	n/a	0	0	-7.352941e-03
87.344540	1.866082	dec_reject	1.866082	32.000000	n/a	0	0	1.736111e-02
87.344540	1.866082	dec_social_reject_low	1.866082	32.000000	n/a	3	-1.367188e-01	-2.304688e-01
94.995026	2.499635	dec_social_choice	2.499635	32.000000	n/a	0	0	-2.304688e-01
94.995026	2.499635	dec_choice	2.499635	32.000000	n/a	0	0	-2.304688e-01
94.995026	2.499635	dec_social_reject	2.499635	32.000000	n/a	0	0	-3.860294e-02
94.995026	2.499635	dec_reject	2.499635	32.000000	n/a	0	0	-1.388889e-02
94.995026	2.499635	dec_social_low	2.499635	32.000000	n/a	0	-2.304688e-01	-2.304688e-01
94.995026	2.499635	dec_social_reject_low	2.499635	32.000000	n/a	2	-1.679688e-01	-2.304688e-01
102.644040	1.216477	dec_nonsocial_choice	1.216477	32.000000	n/a	16	2.695312e-01	2.695312e-01
102.644040	1.216477	dec_choice	1.216477	32.000000	n/a	16	2.695312e-01	2.695312e-01
102.644040	1.216477	dec_nonsocial_accept	1.216477	32.000000	n/a	16	1.985887e-01	1.985887e-01
102.644040	1.216477	dec_accept	1.216477	32.000000	n/a	16	2.187500e-01	2.187500e-01
102.644040	1.216477	dec_nonsocial_accept_high	1.216477	32.000000	n/a	16	1.770833e-01	1.770833e-01
111.894356	1.650207	dec_nonsocial_choice	1.650207	16.000000	n/a	2	-1.054688e-01	-1.054688e-01
111.894356	1.650207	dec_choice	1.650207	16.000000	n/a	2	-1.054688e-01	-1.054688e-01
111.894356	1.650207	dec_nonsocial_accept	1.650207	16.000000	n/a	2	-1.764113e-01	-1.764113e-01
111.894356	1.650207	dec_accept	1.650207	16.000000	n/a	2	-1.562500e-01	-1.562500e-01
111.894356	1.650207	dec_nonsocial_low	1.650207	16.000000	n/a	2	-1.054688e-01	-1.054688e-01
111.894356	1.650207	dec_nonsocial_accept_low	1.650207	16.000000	n/a	2	-1.562500e-01	-1.562500e-01
119.528050	1.049450	dec_social_choice	1.049450	16.000000	n/a	4	1.953125e-02	1.953125e-02
119.528050	1.049450	dec_choice	1.049450	16.000000	n/a	4	1.953125e-02	1.953125e-02
119.528050	1.049450	dec_social_accept	1.049450	16.000000	n/a	4	-5.141129e-02	-5.141129e-02
119.528050	1.049450	dec_accept	1.049450	16.000000	n/a	4	-7.291667e-02	-7.291667e-02
119.528050	1.049450	dec_social_high	1.049450	16.000000	n/a	4	1.953125e-02	1.953125e-02
119.528050	1.049450	dec_social_accept_high	1.049450	16.000000	n/a	4	1.953125e-02	1.953125e-02
126.360950	1.233405	dec_nonsocial_choice	1.233405	32.000000	n/a	8	1.953125e-02	1.953125e-02
126.360950	1.233405	dec_choice	1.233405	32.000000	n/a	8	1.953125e-02	1.953125e-02
126.360950	1.233405	dec_nonsocial_accept	1.233405	32.000000	n/a	8	-5.141129e-02	-5.141129e-02
126.360950	1.233405	dec_accept	1.233405	32.000000	n/a	8	-3.125000e-02	-3.125000e-02
126.360950	1.233405	dec_nonsocial_high	1.233405	32.000000	n/a	8	1.953125e-02	1.953125e-02
126.360950	1.233405	dec_nonsocial_accept_high	1.233405	32.000000	n/a	8	-3.125000e-02	-3.125000e-02
137.229080	1.248504	dec_nonsocial_choice	1.248504	32.000000	n/a	0	0	-2.304688e-01
137.229080	1.248504	dec_choice	1.248504	32.000000	n/a	0	0	-2.304688e-01
137.229080	1.248504	dec_nonsocial_reject	1.248504	32.000000	n/a	0	0	-3.860294e-02
137.229080	1.248504	dec_reject	1.248504	32.000000	n/a	0	0	-6.640625e-02
137.229080	1.248504	dec_nonsocial_low	1.248504	32.000000	n/a	0	-2.304688e-01	-2.304688e-01
137.229080	1.248504	dec_nonsocial_reject_low	1.248504	32.000000	n/a	2	-6.640625e-02	-1.289062e-01
144.062040	1.714874	dec_social_choice	1.714874	32.000000	n/a	0	0	-2.304688e-01
144.062040	1.714874	dec_choice	1.714874	32.000000	n/a	0	0	-2.304688e-01
144.062040	1.714874	dec_social_reject	1.714874	32.000000	n/a	0	0	-3.860294e-02
144.062040	1.714874	dec_reject	1.714874	32.000000	n/a	0	0	-1.388889e-02
144.062040	1.714874	dec_social_reject_low	1.714874	32.000000	n/a	2	-1.679688e-01	-2.304688e-01
154.944060	1.450475	dec_social_choice	1.450475	32.000000	n/a	0	0	-2.304688e-01
154.944060	1.450475	dec_choice	1.450475	32.000000	n/a	0	0	-2.304688e-01
154.944060	1.450475	dec_social_reject	1.450475	32.000000	n/a	0	0	-3.860294e-02
154.944060	1.450475	dec_reject	1.450475	32.000000	n/a	0	0	-1.388889e-02
154.944060	1.450475	dec_social_low	1.450475	32.000000	n/a	0	-2.304688e-01	-2.304688e-01
154.944060	1.450475	dec_social_reject_low	1.450475	32.000000	n/a	2	-1.679688e-01	-2.304688e-01
161.777130	1.200875	dec_social_choice	1.200875	32.000000	n/a	16	2.695312e-01	2.695312e-01
161.777130	1.200875	dec_choice	1.200875	32.000000	n/a	16	2.695312e-01	2.695312e-01
161.777130	1.200875	dec_social_accept	1.200875	32.000000	n/a	16	1.985887e-01	1.985887e-01
161.777130	1.200875	dec_accept	1.200875	32.000000	n/a	16	1.770833e-01	1.770833e-01
161.777130	1.200875	dec_social_high	1.200875	32.000000	n/a	16	2.695312e-01	2.695312e-01
161.777130	1.200875	dec_social_accept_high	1.200875	32.000000	n/a	16	2.695312e-01	2.695312e-01
171.028000	1.015762	dec_social_choice	1.015762	16.000000	n/a	8	2.695312e-01	2.695312e-01
171.028000	1.015762	dec_choice	1.015762	16.000000	n/a	8	2.695312e-01	2.695312e-01
171.028000	1.015762	dec_social_accept	1.015762	16.000000	n/a	8	1.985887e-01	1.985887e-01
171.028000	1.015762	dec_accept	1.015762	16.000000	n/a	8	1.770833e-01	1.770833e-01
171.028000	1.015762	dec_social_high	1.015762	16.000000	n/a	8	2.695312e-01	2.695312e-01
171.028000	1.015762	dec_social_accept_high	1.015762	16.000000	n/a	8	2.695312e-01	2.695312e-01
177.861080	1.650071	dec_nonsocial_choice	1.650071	32.000000	n/a	0	0	-2.304688e-01
177.861080	1.650071	dec_choice	1.650071	32.000000	n/a	0	0	-2.304688e-01
177.861080	1.650071	dec_nonsocial_reject	1.650071	32.000000	n/a	0	0	-3.860294e-02
177.861080	1.650071	dec_reject	1.650071	32.000000	n/a	0	0	-6.640625e-02
177.861080	1.650071	dec_nonsocial_low	1.650071	32.000000	n/a	0	-2.304688e-01	-2.304688e-01
177.861080	1.650071	dec_nonsocial_reject_low	1.650071	32.000000	n/a	2	-6.640625e-02	-1.289062e-01
188.727020	1.084235	dec_nonsocial_choice	1.084235	32.000000	n/a	16	2.695312e-01	2.695312e-01
188.727020	1.084235	dec_choice	1.084235	32.000000	n/a	16	2.695312e-01	2.695312e-01
188.727020	1.084235	dec_nonsocial_accept	1.084235	32.000000	n/a	16	1.985887e-01	1.985887e-01
188.727020	1.084235	dec_accept	1.084235	32.000000	n/a	16	2.187500e-01	2.187500e-01
188.727020	1.084235	dec_nonsocial_accept_high	1.084235	32.000000	n/a	16	1.770833e-01	1.770833e-01
196.378080	1.315352	dec_social_choice	1.315352	16.000000	n/a	0	0	-2.304688e-01
196.378080	1.315352	dec_choice	1.315352	16.000000	n/a	0	0	-2.304688e-01
196.378080	1.315352	dec_social_reject	1.315352	16.000000	n/a	0	0	-3.860294e-02
196.378080	1.315352	dec_reject	1.315352	16.000000	n/a	0	0	-1.388889e-02
196.378080	1.315352	dec_social_reject_low	1.315352	16.000000	n/a	1	-1.679688e-01	-2.304688e-01
203.212110	2.231903	dec_nonsocial_choice	2.231903	16.000000	n/a	0	0	-2.304688e-01
203.212110	2.231903	dec_choice	2.231903	16.000000	n/a	0	0	-2.304688e-01
203.212110	2.231903	dec_nonsocial_reject	2.231903	16.000000	n/a	0	0	3.988971e-01
203.212110	2.231903	dec_reject	2.231903	16.000000	n/a	0	0	3.710938e-01
203.212110	2.231903	dec_nonsocial_low	2.231903	16.000000	n/a	0	-2.304688e-01	-2.304688e-01
203.212110	2.231903	dec_nonsocial_reject_low	2.231903	16.000000	n/a	8	3.710938e-01	-1.289062e-01
210.045070	1.032757	dec_social_choice	1.032757	32.000000	n/a	16	2.695312e-01	2.695312e-01
210.045070	1.032757	dec_choice	1.032757	32.000000	n/a	16	2.695312e-01	2.695312e-01
210.045070	1.032757	dec_social_accept	1.032757	32.000000	n/a	16	1.985887e-01	1.985887e-01
210.045070	1.032757	dec_accept	1.032757	32.000000	n/a	16	1.770833e-01	1.770833e-01
210.045070	1.032757	dec_social_accept_high	1.032757	32.000000	n/a	16	2.695312e-01	2.695312e-01
216.877210	1.250277	dec_nonsocial_choice	1.250277	16.000000	n/a	0	0	-2.304688e-01
216.877210	1.250277	dec_choice	1.250277	16.000000	n/a	0	0	-2.304688e-01
216.877210	1.250277	dec_nonsocial_reject	1.250277	16.000000	n/a	0	0	-3.860294e-02
216.877210	1.250277	dec_reject	1.250277	16.000000	n/a	0	0	-6.640625e-02
216.877210	1.250277	dec_nonsocial_reject_low	1.250277	16.000000	n/a	1	-1.388889e-02	-7.638889e-02
223.710500	2.183671	dec_nonsocial_choice	2.183671	16.000000	n/a	4	1.953125e-02	1.953125e-02
223.710500	2.183671	dec_choice	2.183671	16.000000	n/a	4	1.953125e-02	1.953125e-02
223.710500	2.183671	dec_nonsocial_accept	2.183671	16.000000	n/a	4	-5.141129e-02	-5.141129e-02
223.710500	2.183671	dec_accept	2.183671	16.000000	n/a	4	-3.125000e-02	-3.125000e-02
223.710500	2.183671	dec_nonsocial_high	2.183671	16.000000	n/a	4	1.953125e-02	1.953125e-02
223.710500	2.183671	dec_nonsocial_accept_high	2.183671	16.000000	n/a	4	-3.125000e-02	-3.125000e-02
232.961200	1.265555	dec_nonsocial_choice	1.265555	32.000000	n/a	16	2.695312e-01	2.695312e-01
232.961200	1.265555	dec_choice	1.265555	32.000000	n/a	16	2.695312e-01	2.695312e-01
232.961200	1.265555	dec_nonsocial_accept	1.265555	32.000000	n/a	16	1.985887e-01	1.985887e-01
232.961200	1.265555	dec_accept	1.265555	32.000000	n/a	16	2.187500e-01	2.187500e-01
232.961200	1.265555	dec_nonsocial_accept_high	1.265555	32.000000	n/a	16	1.770833e-01	1.770833e-01
239.794050	0.949709	dec_nonsocial_choice	0.949709	32.000000	n/a	16	2.695312e-01	2.695312e-01
239.794050	0.949709	dec_choice	0.949709	32.000000	n/a	16	2.695312e-01	2.695312e-01
239.794050	0.949709	dec_nonsocial_accept	0.949709	32.000000	n/a	16	1.985887e-01	1.985887e-01
239.794050	0.949709	dec_accept	0.949709	32.000000	n/a	16	2.187500e-01	2.187500e-01
239.794050	0.949709	dec_nonsocial_accept_high	0.949709	32.000000	n/a	16	1.770833e-01	1.770833e-01
247.444080	1.516262	dec_nonsocial_choice	1.516262	32.000000	n/a	3	-1.367188e-01	-1.367188e-01
247.444080	1.516262	dec_choice	1.516262	32.000000	n/a	3	-1.367188e-01	-1.367188e-01
247.444080	1.516262	dec_nonsocial_accept	1.516262	32.000000	n/a	3	-2.076613e-01	-2.076613e-01
247.444080	1.516262	dec_accept	1.516262	32.000000	n/a	3	-1.875000e-01	-1.875000e-01
247.444080	1.516262	dec_nonsocial_accept_low	1.516262	32.000000	n/a	3	-2.291667e-01	-2.291667e-01
256.710420	2.033526	dec_nonsocial_choice	2.033526	32.000000	n/a	0	0	-2.304688e-01
256.710420	2.033526	dec_choice	2.033526	32.000000	n/a	0	0	-2.304688e-01
256.710420	2.033526	dec_nonsocial_reject	2.033526	32.000000	n/a	0	0	-3.860294e-02
256.710420	2.033526	dec_reject	2.033526	32.000000	n/a	0	0	-6.640625e-02
256.710420	2.033526	dec_nonsocial_low	2.033526	32.000000	n/a	0	-2.304688e-01	-2.304688e-01
256.710420	2.033526	dec_nonsocial_reject_low	2.033526	32.000000	n/a	2	-6.640625e-02	-1.289062e-01
263.544100	2.100561	dec_nonsocial_choice	2.100561	32.000000	n/a	0	0	-2.304688e-01
263.544100	2.100561	dec_choice	2.100561	32.000000	n/a	0	0	-2.304688e-01
263.544100	2.100561	dec_nonsocial_reject	2.100561	32.000000	n/a	0	0	-3.860294e-02
263.544100	2.100561	dec_reject	2.100561	32.000000	n/a	0	0	-6.640625e-02
263.544100	2.100561	dec_nonsocial_reject_low	2.100561	32.000000	n/a	2	-1.388889e-02	-7.638889e-02
270.377470	1.099870	dec_social_choice	1.099870	16.000000	n/a	4	1.953125e-02	1.953125e-02
270.377470	1.099870	dec_choice	1.099870	16.000000	n/a	4	1.953125e-02	1.953125e-02
270.377470	1.099870	dec_social_accept	1.099870	16.000000	n/a	4	-5.141129e-02	-5.141129e-02
270.377470	1.099870	dec_accept	1.099870	16.000000	n/a	4	-7.291667e-02	-7.291667e-02
270.377470	1.099870	dec_social_high	1.099870	16.000000	n/a	4	1.953125e-02	1.953125e-02
270.377470	1.099870	dec_social_accept_high	1.099870	16.000000	n/a	4	1.953125e-02	1.953125e-02
277.210880	1.949696	dec_nonsocial_choice	1.949696	32.000000	n/a	3	-1.367188e-01	-1.367188e-01
277.210880	1.949696	dec_choice	1.949696	32.000000	n/a	3	-1.367188e-01	-1.367188e-01
277.210880	1.949696	dec_nonsocial_accept	1.949696	32.000000	n/a	3	-2.076613e-01	-2.076613e-01
277.210880	1.949696	dec_accept	1.949696	32.000000	n/a	3	-1.875000e-01	-1.875000e-01
277.210880	1.949696	dec_nonsocial_accept_low	1.949696	32.000000	n/a	3	-2.291667e-01	-2.291667e-01
284.043520	1.333783	dec_social_choice	1.333783	16.000000	n/a	4	1.953125e-02	1.953125e-02
284.043520	1.333783	dec_choice	1.333783	16.000000	n/a	4	1.953125e-02	1.953125e-02
284.043520	1.333783	dec_social_accept	1.333783	16.000000	n/a	4	-5.141129e-02	-5.141129e-02
284.043520	1.333783	dec_accept	1.333783	16.000000	n/a	4	-7.291667e-02	-7.291667e-02
284.043520	1.333783	dec_social_high	1.333783	16.000000	n/a	4	1.953125e-02	1.953125e-02
284.043520	1.333783	dec_social_accept_high	1.333783	16.000000	n/a	4	1.953125e-02	1.953125e-02
293.294070	1.266304	dec_social_choice	1.266304	32.000000	n/a	8	1.953125e-02	1.953125e-02
293.294070	1.266304	dec_choice	1.266304	32.000000	n/a	8	1.953125e-02	1.953125e-02
293.294070	1.266304	dec_social_accept	1.266304	32.000000	n/a	8	-5.141129e-02	-5.141129e-02
293.294070	1.266304	dec_accept	1.266304	32.000000	n/a	8	-7.291667e-02	-7.291667e-02
293.294070	1.266304	dec_social_high	1.266304	32.000000	n/a	8	1.953125e-02	1.953125e-02
293.294070	1.266304	dec_social_accept_high	1.266304	32.000000	n/a	8	1.953125e-02	1.953125e-02
300.944550	1.349626	dec_social_choice	1.349626	32.000000	n/a	3	-1.367188e-01	-1.367188e-01
300.944550	1.349626	dec_choice	1.349626	32.000000	n/a	3	-1.367188e-01	-1.367188e-01
300.944550	1.349626	dec_social_accept	1.349626	32.000000	n/a	3	-2.076613e-01	-2.076613e-01
300.944550	1.349626	dec_accept	1.349626	32.000000	n/a	3	-2.291667e-01	-2.291667e-01
300.944550	1.349626	dec_social_accept_low	1.349626	32.000000	n/a	3	-1.367188e-01	-1.367188e-01
307.777070	2.600201	dec_social_choice	2.600201	16.000000	n/a	0	0	-2.304688e-01
307.777070	2.600201	dec_choice	2.600201	16.000000	n/a	0	0	-2.304688e-01
307.777070	2.600201	dec_social_reject	2.600201	16.000000	n/a	0	0	2.389706e-02
307.777070	2.600201	dec_reject	2.600201	16.000000	n/a	0	0	4.861111e-02
307.777070	2.600201	dec_social_reject_low	2.600201	16.000000	n/a	2	-1.054688e-01	-2.304688e-01
314.611100	1.282945	dec_nonsocial_choice	1.282945	32.000000	n/a	8	1.953125e-02	1.953125e-02
314.611100	1.282945	dec_choice	1.282945	32.000000	n/a	8	1.953125e-02	1.953125e-02
314.611100	1.282945	dec_nonsocial_accept	1.282945	32.000000	n/a	8	-5.141129e-02	-5.141129e-02
314.611100	1.282945	dec_accept	1.282945	32.000000	n/a	8	-3.125000e-02	-3.125000e-02
314.611100	1.282945	dec_nonsocial_accept_high	1.282945	32.000000	n/a	8	-7.291667e-02	-7.291667e-02
327.094600	1.532548	dec_nonsocial_choice	1.532548	16.000000	n/a	4	1.953125e-02	1.953125e-02
327.094600	1.532548	dec_choice	1.532548	16.000000	n/a	4	1.953125e-02	1.953125e-02
327.094600	1.532548	dec_nonsocial_accept	1.532548	16.000000	n/a	4	-5.141129e-02	-5.141129e-02
327.094600	1.532548	dec_accept	1.532548	16.000000	n/a	4	-3.125000e-02	-3.125000e-02
327.094600	1.532548	dec_nonsocial_high	1.532548	16.000000	n/a	4	1.953125e-02	1.953125e-02
327.094600	1.532548	dec_nonsocial_accept_high	1.532548	16.000000	n/a	4	-3.125000e-02	-3.125000e-02
333.927730	1.366002	dec_social_choice	1.366002	16.000000	n/a	0	0	-2.304688e-01
333.927730	1.366002	dec_choice	1.366002	16.000000	n/a	0	0	-2.304688e-01
333.927730	1.366002	dec_social_reject	1.366002	16.000000	n/a	0	0	-3.860294e-02
333.927730	1.366002	dec_reject	1.366002	16.000000	n/a	0	0	-1.388889e-02
333.927730	1.366002	dec_social_low	1.366002	16.000000	n/a	0	-2.304688e-01	-2.304688e-01
333.927730	1.366002	dec_social_reject_low	1.366002	16.000000	n/a	1	-1.679688e-01	-2.304688e-01
341.578120	1.099198	dec_social_choice	1.099198	32.000000	n/a	16	2.695312e-01	2.695312e-01
341.578120	1.099198	dec_choice	1.099198	32.000000	n/a	16	2.695312e-01	2.695312e-01
341.578120	1.099198	dec_social_accept	1.099198	32.000000	n/a	16	1.985887e-01	1.985887e-01
341.578120	1.099198	dec_accept	1.099198	32.000000	n/a	16	1.770833e-01	1.770833e-01
341.578120	1.099198	dec_social_accept_high	1.099198	32.000000	n/a	16	2.695312e-01	2.695312e-01
348.410640	1.050102	dec_nonsocial_choice	1.050102	32.000000	n/a	16	2.695312e-01	2.695312e-01
348.410640	1.050102	dec_choice	1.050102	32.000000	n/a	16	2.695312e-01	2.695312e-01
348.410640	1.050102	dec_nonsocial_accept	1.050102	32.000000	n/a	16	1.985887e-01	1.985887e-01
348.410640	1.050102	dec_accept	1.050102	32.000000	n/a	16	2.187500e-01	2.187500e-01
348.410640	1.050102	dec_nonsocial_accept_high	1.050102	32.000000	n/a	16	1.770833e-01	1.770833e-01
356.043180	1.666681	dec_social_choice	1.666681	32.000000	n/a	0	0	-2.304688e-01
356.043180	1.666681	dec_choice	1.666681	32.000000	n/a	0	0	-2.304688e-01
356.043180	1.666681	dec_social_reject	1.666681	32.000000	n/a	0	0	-7.352941e-03
356.043180	1.666681	dec_reject	1.666681	32.000000	n/a	0	0	1.736111e-02
356.043180	1.666681	dec_social_reject_low	1.666681	32.000000	n/a	3	-1.367188e-01	-2.304688e-01
362.876900	1.333597	dec_social_choice	1.333597	32.000000	n/a	0	0	-2.304688e-01
362.876900	1.333597	dec_choice	1.333597	32.000000	n/a	0	0	-2.304688e-01
362.876900	1.333597	dec_social_reject	1.333597	32.000000	n/a	0	0	-3.860294e-02
362.876900	1.333597	dec_reject	1.333597	32.000000	n/a	0	0	-1.388889e-02
362.876900	1.333597	dec_social_reject_low	1.333597	32.000000	n/a	2	-1.679688e-01	-2.304688e-01
370.527600	1.815724	dec_nonsocial_choice	1.815724	16.000000	n/a	0	0	-2.304688e-01
370.527600	1.815724	dec_choice	1.815724	16.000000	n/a	0	0	-2.304688e-01
370.527600	1.815724	dec_nonsocial_reject	1.815724	16.000000	n/a	0	0	2.389706e-02
370.527600	1.815724	dec_reject	1.815724	16.000000	n/a	0	0	-3.906250e-03
370.527600	1.815724	dec_nonsocial_reject_low	1.815724	16.000000	n/a	2	4.861111e-02	-7.638889e-02
