instrText,stimDoor,stimDoorLure,stimFace,stimFaceLure,Instructions.thisRepN,Instructions.thisTrialN,Instructions.thisN,Instructions.thisIndex,Trials.thisRepN,Trials.thisTrialN,Trials.thisN,Trials.thisIndex,Func,Keys,Text,RespTime,Onset,Offset,SystemTime_Start,SystemTime_Stop,Stim,Lure,Participant*,Age,date,expName,psychopyVersion,frameRate,
"In the earlier Feedback Games, you chose which doors contained a prize, and which peers liked you. 

You then saw positive or negative feedback (green check mark or red X) from the door or peer you selected.

You will now see a series of doors and peers, some of which you saw during the earlier Feedback Games, and some that you have never seen before.

Please press the spacebar to continue.",,,,,0,0,0,0,,,,,instrFunc,space,"In the earlier Feedback Games, you chose which doors contained a prize, and which peers liked you. 

You then saw positive or negative feedback (green check mark or red X) from the door or peer you selected.

You will now see a series of doors and peers, some of which you saw during the earlier Feedback Games, and some that you have never seen before.

Please press the spacebar to continue.",27.406375600025058,17.469120500027202,44.944000619929284,2023-11-16 13:42:36.977665,2023-11-16 13:43:04.442934,,,10834,30-49,2023-11-16_13h42.34.547,Recall,2021.2.3,59.91148675110432,
"For doors/peers that you remember selecting and getting feedback from, your job is to RECALL what feedback you received. 

Press '1' if you recall positive feedback. 

Press '2' if you recall negative feedback

Press the spacebar to continue.",,,,,0,1,1,1,,,,,instrFunc,space,"For doors/peers that you remember selecting and getting feedback from, your job is to RECALL what feedback you received. 

Press '1' if you recall positive feedback. 

Press '2' if you recall negative feedback

Press the spacebar to continue.",12.70780910004396,44.91948699997738,57.67573208990507,2023-11-16 13:43:04.443934,2023-11-16 13:43:17.184771,,,10834,30-49,2023-11-16_13h42.34.547,Recall,2021.2.3,59.91148675110432,
"For doors/peers that you don't remember getting feedback from, your job is to PREDICT what feedback you WOULD HAVE received.

Press '9' if you predict positive feedback.

Press '0' if you predict negative feedback. 

Please press the spacebar to continue.",,,,,0,2,2,2,,,,,instrFunc,space,"For doors/peers that you don't remember getting feedback from, your job is to PREDICT what feedback you WOULD HAVE received.

Press '9' if you predict positive feedback.

Press '0' if you predict negative feedback. 

Please press the spacebar to continue.",10.66101639997214,57.66215630003717,68.38431369001046,2023-11-16 13:43:17.185772,2023-11-16 13:43:27.892427,,,10834,30-49,2023-11-16_13h42.34.547,Recall,2021.2.3,59.91148675110432,
"This task is self-paced, and the prompts will always stay on the screen so that you know which buttons to press.

On the next screen we will show you what those prompts look like, so that you know exactly what to expect. 

You will start with either doors or peers, and then switch halfway through. 

Please press the spacebar to continue.",,,,,0,3,3,3,,,,,instrFunc,space,"This task is self-paced, and the prompts will always stay on the screen so that you know which buttons to press.

On the next screen we will show you what those prompts look like, so that you know exactly what to expect. 

You will start with either doors or peers, and then switch halfway through. 

Please press the spacebar to continue.",6.349104900029488,68.36638280004263,74.7691684900783,2023-11-16 13:43:27.893427,2023-11-16 13:43:34.280642,,,10834,30-49,2023-11-16_13h42.34.547,Recall,2021.2.3,59.91148675110432,
,,,,,,,,,,,,,imgtextFunc,space,"Here is what the screen will look like while you make your ratings.
The green circles remind you to press 1 or 9 for positive feedback.
The red circles remind you to press 2 or 0 for negative feedback.









Please let the experimenter know if you have any questions.

Whenever you're ready, press the spacebar to start the task.",19.8762216999894,74.88712430000305,94.93100629001856,2023-11-16 13:43:34.290618,2023-11-16 13:43:54.329116,,,10834,30-49,2023-11-16_13h42.34.547,Recall,2021.2.3,59.91148675110432,
,SD025.jpg,0,MF025.jpg,0,,,,,0,0,0,74,imgFunc,9,NA,11.86448540003039,94.93094190000556,106.9248085700674,2023-11-16 13:43:54.369116,2023-11-16 13:44:06.353707,MF025.jpg,0,10834,30-49,2023-11-16_13h42.34.547,Recall,2021.2.3,59.91148675110432,
,DD040.jpg,0,FF040.jpg,0,,,,,0,1,1,39,imgFunc,1,NA,3.4254898000508547,106.91384020005353,110.46426359005272,2023-11-16 13:44:06.362685,2023-11-16 13:44:09.906078,FF040.jpg,0,10834,30-49,2023-11-16_13h42.34.547,Recall,2021.2.3,59.91148675110432,
,SD027.jpg,0,MF027.jpg,0,,,,,0,2,2,76,imgFunc,1,NA,3.56244989996776,110.46495050005615,114.15122199000325,2023-11-16 13:44:09.914088,2023-11-16 13:44:13.592202,MF027.jpg,0,10834,30-49,2023-11-16_13h42.34.547,Recall,2021.2.3,59.91148675110432,
,SD013.jpg,0,MF013.jpg,0,,,,,0,3,3,62,imgFunc,2,NA,3.158771499991417,114.14040580007713,117.40228948998265,2023-11-16 13:44:13.603174,2023-11-16 13:44:16.860949,MF013.jpg,0,10834,30-49,2023-11-16_13h42.34.547,Recall,2021.2.3,59.91148675110432,
,DD003.jpg,0,FF003.jpg,0,,,,,0,4,4,2,imgFunc,0,NA,7.0761623999569565,117.39127660007216,124.56480808998458,2023-11-16 13:44:16.867932,2023-11-16 13:44:24.032904,FF003.jpg,0,10834,30-49,2023-11-16_13h42.34.547,Recall,2021.2.3,59.91148675110432,
,DD005.jpg,0,FF005.jpg,0,,,,,0,5,5,4,imgFunc,0,NA,5.745519699994475,124.58557380002458,130.43689438991714,2023-11-16 13:44:24.041882,2023-11-16 13:44:29.886795,FF005.jpg,0,10834,30-49,2023-11-16_13h42.34.547,Recall,2021.2.3,59.91148675110432,
,DD025.jpg,0,FF025.jpg,0,,,,,0,6,6,24,imgFunc,2,NA,6.475630300003104,130.44766529998742,137.04806938988622,2023-11-16 13:44:29.896766,2023-11-16 13:44:36.491694,FF025.jpg,0,10834,30-49,2023-11-16_13h42.34.547,Recall,2021.2.3,59.91148675110432,
,L_DD507.jpg,1,L_FF507.jpg,1,,,,,0,7,7,46,imgFunc,9,NA,8.743137500016019,137.06028510001488,145.91807488992345,2023-11-16 13:44:36.507674,2023-11-16 13:44:45.364975,L_FF507.jpg,1,10834,30-49,2023-11-16_13h42.34.547,Recall,2021.2.3,59.91148675110432,
,L_DD509.jpg,1,L_FF509.jpg,1,,,,,0,8,8,48,imgFunc,9,NA,2.521056800032966,145.91421529999934,148.54750309011433,2023-11-16 13:44:45.373954,2023-11-16 13:44:47.999934,L_FF509.jpg,1,10834,30-49,2023-11-16_13h42.34.547,Recall,2021.2.3,59.91148675110432,
,SD007.jpg,0,MF007.jpg,0,,,,,0,9,9,56,imgFunc,9,NA,3.0815888999495655,148.55342320003547,151.75622268987354,2023-11-16 13:44:48.007914,2023-11-16 13:44:51.201710,MF007.jpg,0,10834,30-49,2023-11-16_13h42.34.547,Recall,2021.2.3,59.91148675110432,
,SD012.jpg,0,MF012.jpg,0,,,,,0,10,10,61,imgFunc,1,NA,2.9283337999368086,151.7465957000386,154.78375509008765,2023-11-16 13:44:51.209692,2023-11-16 13:44:54.237240,MF012.jpg,0,10834,30-49,2023-11-16_13h42.34.547,Recall,2021.2.3,59.91148675110432,
,SD037.jpg,0,MF037.jpg,0,,,,,0,11,11,86,imgFunc,9,NA,3.9194320999085903,154.8035662000766,158.85570378997363,2023-11-16 13:44:54.246177,2023-11-16 13:44:58.289948,MF037.jpg,0,10834,30-49,2023-11-16_13h42.34.547,Recall,2021.2.3,59.91148675110432,
,L_SD504.jpg,1,L_MF504.jpg,1,,,,,0,12,12,93,imgFunc,9,NA,2.8784180999500677,158.844525200082,161.8331082899822,2023-11-16 13:44:58.304893,2023-11-16 13:45:01.291847,L_MF504.jpg,1,10834,30-49,2023-11-16_13h42.34.547,Recall,2021.2.3,59.91148675110432,
,DD022.jpg,0,FF022.jpg,0,,,,,0,13,13,21,imgFunc,9,NA,3.6292067000176758,161.82989970000926,165.56734678999055,2023-11-16 13:45:01.299824,2023-11-16 13:45:05.028211,FF022.jpg,0,10834,30-49,2023-11-16_13h42.34.547,Recall,2021.2.3,59.91148675110432,
,SD031.jpg,0,MF031.jpg,0,,,,,0,14,14,80,imgFunc,1,NA,4.099931600037962,165.56697819998953,169.7709875900764,2023-11-16 13:45:05.036191,2023-11-16 13:45:09.231548,MF031.jpg,0,10834,30-49,2023-11-16_13h42.34.547,Recall,2021.2.3,59.91148675110432,
,DD020.jpg,0,FF020.jpg,0,,,,,0,15,15,19,imgFunc,9,NA,3.3656658999389037,169.78931810008362,173.27494799008127,2023-11-16 13:45:09.239515,2023-11-16 13:45:12.717666,FF020.jpg,0,10834,30-49,2023-11-16_13h42.34.547,Recall,2021.2.3,59.91148675110432,
,SD003.jpg,0,MF003.jpg,0,,,,,0,16,16,52,imgFunc,1,NA,2.622748599969782,173.27651840006,176.00794459006283,2023-11-16 13:45:12.727661,2023-11-16 13:45:15.452362,MF003.jpg,0,10834,30-49,2023-11-16_13h42.34.547,Recall,2021.2.3,59.91148675110432,
,L_SD510.jpg,1,L_MF510.jpg,1,,,,,0,17,17,99,imgFunc,9,NA,4.1056517999386415,175.9856516000582,180.18981539004017,2023-11-16 13:45:15.460365,2023-11-16 13:45:19.655818,L_MF510.jpg,1,10834,30-49,2023-11-16_13h42.34.547,Recall,2021.2.3,59.91148675110432,
,DD019.jpg,0,FF019.jpg,0,,,,,0,18,18,18,imgFunc,9,NA,4.95883659995161,180.19637979997788,185.25111598987132,2023-11-16 13:45:19.662801,2023-11-16 13:45:24.709526,FF019.jpg,0,10834,30-49,2023-11-16_13h42.34.547,Recall,2021.2.3,59.91148675110432,
,SD006.jpg,0,MF006.jpg,0,,,,,0,19,19,55,imgFunc,9,NA,2.3547918000258505,185.25646569998935,187.7227759899106,2023-11-16 13:45:24.718504,2023-11-16 13:45:27.177672,MF006.jpg,0,10834,30-49,2023-11-16_13h42.34.547,Recall,2021.2.3,59.91148675110432,
,DD039.jpg,0,FF039.jpg,0,,,,,0,20,20,38,imgFunc,0,NA,6.589356099953875,187.73389100003988,194.43912549002562,2023-11-16 13:45:27.185652,2023-11-16 13:45:33.882651,FF039.jpg,0,10834,30-49,2023-11-16_13h42.34.547,Recall,2021.2.3,59.91148675110432,
,L_DD506.jpg,1,L_FF506.jpg,1,,,,,0,21,21,45,imgFunc,1,NA,2.9055178000126034,194.44965249998495,197.47092178987805,2023-11-16 13:45:33.897612,2023-11-16 13:45:36.918060,L_FF506.jpg,1,10834,30-49,2023-11-16_13h42.34.547,Recall,2021.2.3,59.91148675110432,
,DD015.jpg,0,FF015.jpg,0,,,,,0,22,22,14,imgFunc,1,NA,1.6353845000267029,197.4559041999746,199.19233018998057,2023-11-16 13:45:36.925043,2023-11-16 13:45:38.652687,FF015.jpg,0,10834,30-49,2023-11-16_13h42.34.547,Recall,2021.2.3,59.91148675110432,
,DD029.jpg,0,FF029.jpg,0,,,,,0,23,23,28,imgFunc,2,NA,2.1549293999560177,199.20036900008563,201.4697411900852,2023-11-16 13:45:38.660668,2023-11-16 13:45:40.921040,FF029.jpg,0,10834,30-49,2023-11-16_13h42.34.547,Recall,2021.2.3,59.91148675110432,
,DD028.jpg,0,FF028.jpg,0,,,,,0,24,24,27,imgFunc,9,NA,1.8308382999384776,201.4604842000408,203.39671479002573,2023-11-16 13:45:40.928023,2023-11-16 13:45:42.855760,FF028.jpg,0,10834,30-49,2023-11-16_13h42.34.547,Recall,2021.2.3,59.91148675110432,
,SD005.jpg,0,MF005.jpg,0,,,,,0,25,25,54,imgFunc,9,NA,7.643554999958724,203.39969540003221,211.1570105899591,2023-11-16 13:45:42.862743,2023-11-16 13:45:50.611289,MF005.jpg,0,10834,30-49,2023-11-16_13h42.34.547,Recall,2021.2.3,59.91148675110432,
,DD032.jpg,0,FF032.jpg,0,,,,,0,26,26,31,imgFunc,9,NA,2.4683848000131547,211.16685180005152,213.75152818020433,2023-11-16 13:45:50.628275,2023-11-16 13:45:53.196456,FF032.jpg,0,10834,30-49,2023-11-16_13h42.34.547,Recall,2021.2.3,59.91148675110432,
,DD021.jpg,0,FF021.jpg,0,,,,,0,27,27,20,imgFunc,2,NA,4.225099100032821,213.73790800001007,218.07542649004608,2023-11-16 13:45:53.203439,2023-11-16 13:45:57.532379,FF021.jpg,0,10834,30-49,2023-11-16_13h42.34.547,Recall,2021.2.3,59.91148675110432,
,DD014.jpg,0,FF014.jpg,0,,,,,0,28,28,13,imgFunc,0,NA,2.535700999898836,218.06747910007834,220.70356589008588,2023-11-16 13:45:57.540357,2023-11-16 13:46:00.167826,FF014.jpg,0,10834,30-49,2023-11-16_13h42.34.547,Recall,2021.2.3,59.91148675110432,
,SD002.jpg,0,MF002.jpg,0,,,,,0,29,29,51,imgFunc,0,NA,2.4014465000946075,220.71371849998832,223.2170854898868,2023-11-16 13:46:00.175789,2023-11-16 13:46:02.670152,MF002.jpg,0,10834,30-49,2023-11-16_13h42.34.547,Recall,2021.2.3,59.91148675110432,
,SD011.jpg,0,MF011.jpg,0,,,,,0,30,30,60,imgFunc,9,NA,4.261194000020623,223.23011790006422,227.61793559009675,2023-11-16 13:46:02.677135,2023-11-16 13:46:07.056311,MF011.jpg,0,10834,30-49,2023-11-16_13h42.34.547,Recall,2021.2.3,59.91148675110432,
,DD010.jpg,0,FF010.jpg,0,,,,,0,31,31,9,imgFunc,1,NA,2.4691755999810994,227.59803380002268,230.16615118982736,2023-11-16 13:46:07.064291,2023-11-16 13:46:09.624907,FF010.jpg,0,10834,30-49,2023-11-16_13h42.34.547,Recall,2021.2.3,59.91148675110432,
,DD008.jpg,0,FF008.jpg,0,,,,,0,32,32,7,imgFunc,1,NA,2.553130800020881,230.17015220003668,232.84053408994805,2023-11-16 13:46:09.631890,2023-11-16 13:46:12.293643,FF008.jpg,0,10834,30-49,2023-11-16_13h42.34.547,Recall,2021.2.3,59.91148675110432,
,L_DD510.jpg,1,L_FF510.jpg,1,,,,,0,33,33,49,imgFunc,9,NA,8.00457109999843,232.83864079997875,240.94605039001908,2023-11-16 13:46:12.300624,2023-11-16 13:46:20.399333,L_FF510.jpg,1,10834,30-49,2023-11-16_13h42.34.547,Recall,2021.2.3,59.91148675110432,
,DD004.jpg,0,FF004.jpg,0,,,,,0,34,34,3,imgFunc,9,NA,3.374704199959524,240.95634440006688,244.43936399009544,2023-11-16 13:46:20.408450,2023-11-16 13:46:23.884537,FF004.jpg,0,10834,30-49,2023-11-16_13h42.34.547,Recall,2021.2.3,59.91148675110432,
,DD002.jpg,0,FF002.jpg,0,,,,,0,35,35,1,imgFunc,0,NA,3.012964599998668,244.43820850003976,247.5634158900939,2023-11-16 13:46:23.898524,2023-11-16 13:46:27.020630,FF002.jpg,0,10834,30-49,2023-11-16_13h42.34.547,Recall,2021.2.3,59.91148675110432,
,DD011.jpg,0,FF011.jpg,0,,,,,0,36,36,10,imgFunc,2,NA,3.7193830999312922,247.55575260007754,251.37542879011016,2023-11-16 13:46:27.028611,2023-11-16 13:46:30.839755,FF011.jpg,0,10834,30-49,2023-11-16_13h42.34.547,Recall,2021.2.3,59.91148675110432,
,DD031.jpg,0,FF031.jpg,0,,,,,0,37,37,30,imgFunc,9,NA,4.431597899994813,251.3794695000397,255.91736308997497,2023-11-16 13:46:30.847608,2023-11-16 13:46:35.376449,FF031.jpg,0,10834,30-49,2023-11-16_13h42.34.547,Recall,2021.2.3,59.91148675110432,
,DD007.jpg,0,FF007.jpg,0,,,,,0,38,38,6,imgFunc,9,NA,4.08277320000343,255.92829270008951,260.1285196900135,2023-11-16 13:46:35.385427,2023-11-16 13:46:39.579323,FF007.jpg,0,10834,30-49,2023-11-16_13h42.34.547,Recall,2021.2.3,59.91148675110432,
,SD016.jpg,0,MF016.jpg,0,,,,,0,39,39,65,imgFunc,1,NA,2.8500833000289276,260.13712020008825,263.10670449002646,2023-11-16 13:46:39.587304,2023-11-16 13:46:42.548208,MF016.jpg,0,10834,30-49,2023-11-16_13h42.34.547,Recall,2021.2.3,59.91148675110432,
,SD038.jpg,0,MF038.jpg,0,,,,,0,40,40,87,imgFunc,0,NA,3.0799999000737444,263.1071238000877,266.2948982900707,2023-11-16 13:46:42.563170,2023-11-16 13:46:45.750468,MF038.jpg,0,10834,30-49,2023-11-16_13h42.34.547,Recall,2021.2.3,59.91148675110432,
,SD040.jpg,0,MF040.jpg,0,,,,,0,41,41,89,imgFunc,0,NA,5.874760799924843,266.2881416999735,272.26054778997786,2023-11-16 13:46:45.757473,2023-11-16 13:46:51.721364,MF040.jpg,0,10834,30-49,2023-11-16_13h42.34.547,Recall,2021.2.3,59.91148675110432,
,L_DD504.jpg,1,L_FF504.jpg,1,,,,,0,42,42,43,imgFunc,0,NA,3.0770142000401393,272.2702308000298,275.45336668996606,2023-11-16 13:46:51.730650,2023-11-16 13:46:54.906827,L_FF504.jpg,1,10834,30-49,2023-11-16_13h42.34.547,Recall,2021.2.3,59.91148675110432,
,DD037.jpg,0,FF037.jpg,0,,,,,0,43,43,36,imgFunc,9,NA,2.6934683000436053,275.45355800003745,278.2552303901175,2023-11-16 13:46:54.914834,2023-11-16 13:46:57.709049,FF037.jpg,0,10834,30-49,2023-11-16_13h42.34.547,Recall,2021.2.3,59.91148675110432,
,DD024.jpg,0,FF024.jpg,0,,,,,0,44,44,23,imgFunc,9,NA,2.0663634999655187,278.2566888000583,280.42622349003796,2023-11-16 13:46:57.716043,2023-11-16 13:46:59.877274,FF024.jpg,0,10834,30-49,2023-11-16_13h42.34.547,Recall,2021.2.3,59.91148675110432,
,L_DD508.jpg,1,L_FF508.jpg,1,,,,,0,45,45,47,imgFunc,9,NA,2.8182349000126123,280.4248486000579,283.3463847899111,2023-11-16 13:46:59.892236,2023-11-16 13:47:02.812512,L_FF508.jpg,1,10834,30-49,2023-11-16_13h42.34.547,Recall,2021.2.3,59.91148675110432,
,SD017.jpg,0,MF017.jpg,0,,,,,0,46,46,66,imgFunc,9,NA,8.896606899914332,283.35435480007436,292.36261049017776,2023-11-16 13:47:02.819495,2023-11-16 13:47:11.819174,MF017.jpg,0,10834,30-49,2023-11-16_13h42.34.547,Recall,2021.2.3,59.91148675110432,
,L_SD509.jpg,1,L_MF509.jpg,1,,,,,0,47,47,98,imgFunc,0,NA,3.4121674000052735,292.3748997000512,295.90850049001165,2023-11-16 13:47:11.828181,2023-11-16 13:47:15.354805,L_MF509.jpg,1,10834,30-49,2023-11-16_13h42.34.547,Recall,2021.2.3,59.91148675110432,
,SD034.jpg,0,MF034.jpg,0,,,,,0,48,48,83,imgFunc,0,NA,4.514614499988966,295.9124731000047,300.5489915899234,2023-11-16 13:47:15.362808,2023-11-16 13:47:19.991572,MF034.jpg,0,10834,30-49,2023-11-16_13h42.34.547,Recall,2021.2.3,59.91148675110432,
,SD036.jpg,0,MF036.jpg,0,,,,,0,49,49,85,imgFunc,0,NA,2.054486499982886,300.5484837000258,302.71508289000485,2023-11-16 13:47:20.000680,2023-11-16 13:47:22.159628,MF036.jpg,0,10834,30-49,2023-11-16_13h42.34.547,Recall,2021.2.3,59.91148675110432,
,DD035.jpg,0,FF035.jpg,0,,,,,0,50,50,34,imgFunc,2,NA,3.530673500034027,302.6963730000425,306.3333154899301,2023-11-16 13:47:22.167609,2023-11-16 13:47:25.795679,FF035.jpg,0,10834,30-49,2023-11-16_13h42.34.547,Recall,2021.2.3,59.91148675110432,
,SD009.jpg,0,MF009.jpg,0,,,,,0,51,51,58,imgFunc,0,NA,8.873532600002363,306.3294896000298,315.3039176899474,2023-11-16 13:47:25.802662,2023-11-16 13:47:34.768752,MF009.jpg,0,10834,30-49,2023-11-16_13h42.34.547,Recall,2021.2.3,59.91148675110432,
,DD001.jpg,0,FF001.jpg,0,,,,,0,52,52,0,imgFunc,0,NA,2.972896800027229,315.32620380003937,318.4089220899623,2023-11-16 13:47:34.777729,2023-11-16 13:47:37.854426,FF001.jpg,0,10834,30-49,2023-11-16_13h42.34.547,Recall,2021.2.3,59.91148675110432,
,L_SD502.jpg,1,L_MF502.jpg,1,,,,,0,53,53,91,imgFunc,0,NA,2.0478975999867544,318.41916859999765,320.5876807899913,2023-11-16 13:47:37.862407,2023-11-16 13:47:40.022859,L_MF502.jpg,1,10834,30-49,2023-11-16_13h42.34.547,Recall,2021.2.3,59.91148675110432,
,SD035.jpg,0,MF035.jpg,0,,,,,0,54,54,84,imgFunc,9,NA,2.0007673000218347,320.5702900000615,322.67425119003747,2023-11-16 13:47:40.037820,2023-11-16 13:47:42.140590,MF035.jpg,0,10834,30-49,2023-11-16_13h42.34.547,Recall,2021.2.3,59.91148675110432,
,DD006.jpg,0,FF006.jpg,0,,,,,0,55,55,5,imgFunc,0,NA,3.2676407999824733,322.6714029000141,326.02651309000794,2023-11-16 13:47:42.147573,2023-11-16 13:47:45.493591,FF006.jpg,0,10834,30-49,2023-11-16_13h42.34.547,Recall,2021.2.3,59.91148675110432,
,DD017.jpg,0,FF017.jpg,0,,,,,0,56,56,16,imgFunc,0,NA,1.8676295999903232,326.03143800003454,328.00084038998466,2023-11-16 13:47:45.500574,2023-11-16 13:47:47.461141,FF017.jpg,0,10834,30-49,2023-11-16_13h42.34.547,Recall,2021.2.3,59.91148675110432,
,SD022.jpg,0,MF022.jpg,0,,,,,0,57,57,71,imgFunc,0,NA,4.145238299970515,328.0096740000881,332.2632759900298,2023-11-16 13:47:47.469121,2023-11-16 13:47:51.714189,MF022.jpg,0,10834,30-49,2023-11-16_13h42.34.547,Recall,2021.2.3,59.91148675110432,
,L_SD501.jpg,1,L_MF501.jpg,1,,,,,0,58,58,90,imgFunc,9,NA,1.542647899943404,332.2684893000405,333.92085699003655,2023-11-16 13:47:51.721172,2023-11-16 13:47:53.365764,L_MF501.jpg,1,10834,30-49,2023-11-16_13h42.34.547,Recall,2021.2.3,59.91148675110432,
,SD024.jpg,0,MF024.jpg,0,,,,,0,59,59,73,imgFunc,1,NA,2.6794358999468386,333.9077545000473,336.6798255899921,2023-11-16 13:47:53.379748,2023-11-16 13:47:56.150555,MF024.jpg,0,10834,30-49,2023-11-16_13h42.34.547,Recall,2021.2.3,59.91148675110432,
,SD032.jpg,0,MF032.jpg,0,,,,,0,60,60,81,imgFunc,0,NA,5.014221400022507,336.69291760004126,341.8147839899175,2023-11-16 13:47:56.157563,2023-11-16 13:48:01.271103,MF032.jpg,0,10834,30-49,2023-11-16_13h42.34.547,Recall,2021.2.3,59.91148675110432,
,SD014.jpg,0,MF014.jpg,0,,,,,0,61,61,63,imgFunc,2,NA,2.0311720999889076,341.80371090001427,343.92053878994193,2023-11-16 13:48:01.280081,2023-11-16 13:48:03.389377,MF014.jpg,0,10834,30-49,2023-11-16_13h42.34.547,Recall,2021.2.3,59.91148675110432,
,SD023.jpg,0,MF023.jpg,0,,,,,0,62,62,72,imgFunc,9,NA,3.119674599962309,343.9314412000822,347.15227009006776,2023-11-16 13:48:03.396360,2023-11-16 13:48:06.608279,MF023.jpg,0,10834,30-49,2023-11-16_13h42.34.547,Recall,2021.2.3,59.91148675110432,
,SD008.jpg,0,MF008.jpg,0,,,,,0,63,63,57,imgFunc,0,NA,2.012767900014296,347.1582380000036,349.2778538900893,2023-11-16 13:48:06.615262,2023-11-16 13:48:08.726371,MF008.jpg,0,10834,30-49,2023-11-16_13h42.34.547,Recall,2021.2.3,59.91148675110432,
,DD016.jpg,0,FF016.jpg,0,,,,,0,64,64,15,imgFunc,0,NA,3.6100510000251234,349.265029400005,352.9847846899647,2023-11-16 13:48:08.734351,2023-11-16 13:48:12.445595,FF016.jpg,0,10834,30-49,2023-11-16_13h42.34.547,Recall,2021.2.3,59.91148675110432,
,SD010.jpg,0,MF010.jpg,0,,,,,0,65,65,59,imgFunc,9,NA,1.5121620999416336,352.9786484000506,354.5810518900398,2023-11-16 13:48:12.452578,2023-11-16 13:48:14.045942,MF010.jpg,0,10834,30-49,2023-11-16_13h42.34.547,Recall,2021.2.3,59.91148675110432,
,L_DD502.jpg,1,L_FF502.jpg,1,,,,,0,66,66,41,imgFunc,9,NA,2.267721700016409,354.607096199994,356.99331278994214,2023-11-16 13:48:14.053920,2023-11-16 13:48:16.431480,L_FF502.jpg,1,10834,30-49,2023-11-16_13h42.34.547,Recall,2021.2.3,59.91148675110432,
,SD004.jpg,0,MF004.jpg,0,,,,,0,67,67,53,imgFunc,9,NA,1.7632334000663832,356.9676809000084,358.83753668994177,2023-11-16 13:48:16.438461,2023-11-16 13:48:18.299941,MF004.jpg,0,10834,30-49,2023-11-16_13h42.34.547,Recall,2021.2.3,59.91148675110432,
,SD026.jpg,0,MF026.jpg,0,,,,,0,68,68,75,imgFunc,9,NA,4.3452884999569505,358.84986080008093,363.29012098989915,2023-11-16 13:48:18.313905,2023-11-16 13:48:22.752625,MF026.jpg,0,10834,30-49,2023-11-16_13h42.34.547,Recall,2021.2.3,59.91148675110432,
,DD027.jpg,0,FF027.jpg,0,,,,,0,69,69,26,imgFunc,9,NA,1.7471521999686956,363.28787510003895,365.13996818999294,2023-11-16 13:48:22.760606,2023-11-16 13:48:24.604231,FF027.jpg,0,10834,30-49,2023-11-16_13h42.34.547,Recall,2021.2.3,59.91148675110432,
,SD028.jpg,0,MF028.jpg,0,,,,,0,70,70,77,imgFunc,9,NA,2.8347073999466375,365.1444278000854,368.08150069008116,2023-11-16 13:48:24.611214,2023-11-16 13:48:27.539574,MF028.jpg,0,10834,30-49,2023-11-16_13h42.34.547,Recall,2021.2.3,59.91148675110432,
,SD039.jpg,0,MF039.jpg,0,,,,,0,71,71,88,imgFunc,0,NA,2.08211640000809,368.08099669998046,370.26771608984563,2023-11-16 13:48:27.546557,2023-11-16 13:48:29.724570,MF039.jpg,0,10834,30-49,2023-11-16_13h42.34.547,Recall,2021.2.3,59.91148675110432,
,L_SD505.jpg,1,L_MF505.jpg,1,,,,,0,72,72,94,imgFunc,0,NA,1.9386406000703573,370.2724911000114,372.3254136899486,2023-11-16 13:48:29.731553,2023-11-16 13:48:31.776002,L_MF505.jpg,1,10834,30-49,2023-11-16_13h42.34.547,Recall,2021.2.3,59.91148675110432,
,DD038.jpg,0,FF038.jpg,0,,,,,0,73,73,37,imgFunc,9,NA,2.6662292999681085,372.3210232000565,375.07755928998813,2023-11-16 13:48:31.789966,2023-11-16 13:48:34.544954,FF038.jpg,0,10834,30-49,2023-11-16_13h42.34.547,Recall,2021.2.3,59.91148675110432,
,SD019.jpg,0,MF019.jpg,0,,,,,0,74,74,68,imgFunc,9,NA,5.159082600031979,375.08393720001914,380.33956568990834,2023-11-16 13:48:34.551937,2023-11-16 13:48:39.798547,MF019.jpg,0,10834,30-49,2023-11-16_13h42.34.547,Recall,2021.2.3,59.91148675110432,
,DD036.jpg,0,FF036.jpg,0,,,,,0,75,75,35,imgFunc,9,NA,1.7265967999119312,380.34041000006255,382.1729991900502,2023-11-16 13:48:39.807525,2023-11-16 13:48:41.633214,FF036.jpg,0,10834,30-49,2023-11-16_13h42.34.547,Recall,2021.2.3,59.91148675110432,
,DD033.jpg,0,FF033.jpg,0,,,,,0,76,76,32,imgFunc,0,NA,2.275169499916956,382.1758452000795,384.56131699006073,2023-11-16 13:48:41.641194,2023-11-16 13:48:44.018059,FF033.jpg,0,10834,30-49,2023-11-16_13h42.34.547,Recall,2021.2.3,59.91148675110432,
,L_SD507.jpg,1,L_MF507.jpg,1,,,,,0,77,77,96,imgFunc,0,NA,1.9155086999526247,384.55954370007385,386.5794518899638,2023-11-16 13:48:44.025042,2023-11-16 13:48:46.036230,L_MF507.jpg,1,10834,30-49,2023-11-16_13h42.34.547,Recall,2021.2.3,59.91148675110432,
,DD018.jpg,0,FF018.jpg,0,,,,,0,78,78,17,imgFunc,0,NA,2.005761899985373,386.57300830003805,388.67612668999936,2023-11-16 13:48:46.043213,2023-11-16 13:48:48.138145,FF018.jpg,0,10834,30-49,2023-11-16_13h42.34.547,Recall,2021.2.3,59.91148675110432,
,DD026.jpg,0,FF026.jpg,0,,,,,0,79,79,25,imgFunc,9,NA,6.697789099998772,388.67316230002325,395.46142169006635,2023-11-16 13:48:48.146125,2023-11-16 13:48:54.926005,FF026.jpg,0,10834,30-49,2023-11-16_13h42.34.547,Recall,2021.2.3,59.91148675110432,
,DD034.jpg,0,FF034.jpg,0,,,,,0,80,80,33,imgFunc,9,NA,2.2033374999882653,395.47974260000046,397.79633298993576,2023-11-16 13:48:54.934983,2023-11-16 13:48:57.244033,FF034.jpg,0,10834,30-49,2023-11-16_13h42.34.547,Recall,2021.2.3,59.91148675110432,
,SD021.jpg,0,MF021.jpg,0,,,,,0,81,81,70,imgFunc,0,NA,4.563003699993715,397.79974490008317,402.4860152900219,2023-11-16 13:48:57.252036,2023-11-16 13:49:01.930264,MF021.jpg,0,10834,30-49,2023-11-16_13h42.34.547,Recall,2021.2.3,59.91148675110432,
,SD020.jpg,0,MF020.jpg,0,,,,,0,82,82,69,imgFunc,0,NA,1.4294871999882162,402.50957870006096,404.0749350800179,2023-11-16 13:49:01.948187,2023-11-16 13:49:03.498479,MF020.jpg,0,10834,30-49,2023-11-16_13h42.34.547,Recall,2021.2.3,59.91148675110432,
,SD030.jpg,0,MF030.jpg,0,,,,,0,83,83,79,imgFunc,9,NA,2.0878781999927014,404.0351589000784,406.22159348998684,2023-11-16 13:49:03.505462,2023-11-16 13:49:05.683441,MF030.jpg,0,10834,30-49,2023-11-16_13h42.34.547,Recall,2021.2.3,59.91148675110432,
,SD018.jpg,0,MF018.jpg,0,,,,,0,84,84,67,imgFunc,1,NA,2.945053199888207,406.21782830008306,409.25533548998646,2023-11-16 13:49:05.690425,2023-11-16 13:49:08.718761,MF018.jpg,0,10834,30-49,2023-11-16_13h42.34.547,Recall,2021.2.3,59.91148675110432,
,L_SD508.jpg,1,L_MF508.jpg,1,,,,,0,85,85,97,imgFunc,0,NA,3.0568397999741137,409.2579561000457,412.41140338999685,2023-11-16 13:49:08.726764,2023-11-16 13:49:11.871331,L_MF508.jpg,1,10834,30-49,2023-11-16_13h42.34.547,Recall,2021.2.3,59.91148675110432,
,DD023.jpg,0,FF023.jpg,0,,,,,0,86,86,22,imgFunc,0,NA,1.495344200055115,412.41965579998214,414.02257388993166,2023-11-16 13:49:11.878314,2023-11-16 13:49:13.472186,FF023.jpg,0,10834,30-49,2023-11-16_13h42.34.547,Recall,2021.2.3,59.91148675110432,
,DD012.jpg,0,FF012.jpg,0,,,,,0,87,87,11,imgFunc,9,NA,1.6663064999738708,414.0247392000165,415.7960099900374,2023-11-16 13:49:13.487170,2023-11-16 13:49:15.256898,FF012.jpg,0,10834,30-49,2023-11-16_13h42.34.547,Recall,2021.2.3,59.91148675110432,
,DD009.jpg,0,FF009.jpg,0,,,,,0,88,88,8,imgFunc,0,NA,2.0935267000459135,415.7970916000195,417.9992972899927,2023-11-16 13:49:15.264879,2023-11-16 13:49:17.457904,FF009.jpg,0,10834,30-49,2023-11-16_13h42.34.547,Recall,2021.2.3,59.91148675110432,
,L_DD501.jpg,1,L_FF501.jpg,1,,,,,0,89,89,40,imgFunc,9,NA,3.8422071000095457,418.00074779998977,421.95491408987436,2023-11-16 13:49:17.465882,2023-11-16 13:49:21.411461,L_FF501.jpg,1,10834,30-49,2023-11-16_13h42.34.547,Recall,2021.2.3,59.91148675110432,
,SD033.jpg,0,MF033.jpg,0,,,,,0,90,90,82,imgFunc,9,NA,1.867410699953325,421.95166670007166,423.92146469000727,2023-11-16 13:49:21.418444,2023-11-16 13:49:23.379358,MF033.jpg,0,10834,30-49,2023-11-16_13h42.34.547,Recall,2021.2.3,59.91148675110432,
,SD029.jpg,0,MF029.jpg,0,,,,,0,91,91,78,imgFunc,9,NA,1.5303482000017539,423.9206412000349,425.5570461900206,2023-11-16 13:49:23.386341,2023-11-16 13:49:25.014057,MF029.jpg,0,10834,30-49,2023-11-16_13h42.34.547,Recall,2021.2.3,59.91148675110432,
,L_SD506.jpg,1,L_MF506.jpg,1,,,,,0,92,92,95,imgFunc,9,NA,1.6314643999794498,425.55561230005696,427.2919868900208,2023-11-16 13:49:25.021040,2023-11-16 13:49:26.748651,L_MF506.jpg,1,10834,30-49,2023-11-16_13h42.34.547,Recall,2021.2.3,59.91148675110432,
,SD001.jpg,0,MF001.jpg,0,,,,,0,93,93,50,imgFunc,9,NA,2.9978134999983013,427.2931217000587,430.39706429000944,2023-11-16 13:49:26.755634,2023-11-16 13:49:29.850518,MF001.jpg,0,10834,30-49,2023-11-16_13h42.34.547,Recall,2021.2.3,59.91148675110432,
,L_DD505.jpg,1,L_FF505.jpg,1,,,,,0,94,94,44,imgFunc,0,NA,2.477019299985841,430.3978924000403,432.9842792900745,2023-11-16 13:49:29.858499,2023-11-16 13:49:32.435949,L_FF505.jpg,1,10834,30-49,2023-11-16_13h42.34.547,Recall,2021.2.3,59.91148675110432,
,DD030.jpg,0,FF030.jpg,0,,,,,0,95,95,29,imgFunc,9,NA,3.4164854999398813,432.9865110000828,436.52430149004795,2023-11-16 13:49:32.442931,2023-11-16 13:49:35.971699,FF030.jpg,0,10834,30-49,2023-11-16_13h42.34.547,Recall,2021.2.3,59.91148675110432,
,L_SD503.jpg,1,L_MF503.jpg,1,,,,,0,96,96,92,imgFunc,9,NA,1.779879599926062,436.52706710004713,438.4148323900299,2023-11-16 13:49:35.986292,2023-11-16 13:49:37.873090,L_MF503.jpg,1,10834,30-49,2023-11-16_13h42.34.547,Recall,2021.2.3,59.91148675110432,
,DD013.jpg,0,FF013.jpg,0,,,,,0,97,97,12,imgFunc,9,NA,1.725413199979812,438.41353590006474,440.249976990046,2023-11-16 13:49:37.880073,2023-11-16 13:49:39.707910,FF013.jpg,0,10834,30-49,2023-11-16_13h42.34.547,Recall,2021.2.3,59.91148675110432,
,L_DD503.jpg,1,L_FF503.jpg,1,,,,,0,98,98,42,imgFunc,9,NA,2.0089614999014884,440.25771410006564,442.3769091900904,2023-11-16 13:49:39.714894,2023-11-16 13:49:41.826039,L_FF503.jpg,1,10834,30-49,2023-11-16_13h42.34.547,Recall,2021.2.3,59.91148675110432,
,SD015.jpg,0,MF015.jpg,0,,,,,0,99,99,64,imgFunc,0,NA,1.8708073999732733,442.38022490008734,444.36632549006026,2023-11-16 13:49:41.833022,2023-11-16 13:49:43.810497,MF015.jpg,0,10834,30-49,2023-11-16_13h42.34.547,Recall,2021.2.3,59.91148675110432,
,,,,,,,,,,,,,instrFunc,space,"Great work! 

 Now you will switch to the other image type.

 Press the spacebar whenever you are ready to start.",2.5749133999925107,444.27599049999844,446.89160749001894,2023-11-16 13:49:43.811499,2023-11-16 13:49:46.411116,,,10834,30-49,2023-11-16_13h42.34.547,Recall,2021.2.3,59.91148675110432,
,DD029.jpg,0,FF029.jpg,0,,,,,0,0,0,28,imgFunc,9,NA,9.240876900032163,446.9699258999899,456.30408846994396,2023-11-16 13:49:46.447961,2023-11-16 13:49:55.769308,DD029.jpg,0,10834,30-49,2023-11-16_13h42.34.547,Recall,2021.2.3,59.91148675110432,
,DD026.jpg,0,FF026.jpg,0,,,,,0,1,1,25,imgFunc,9,NA,5.835457800072618,456.3034176999936,462.2395061899442,2023-11-16 13:49:55.778286,2023-11-16 13:50:01.706909,DD026.jpg,0,10834,30-49,2023-11-16_13h42.34.547,Recall,2021.2.3,59.91148675110432,
,SD001.jpg,0,MF001.jpg,0,,,,,0,2,2,50,imgFunc,2,NA,4.53557899990119,462.2753893000772,466.9435960899573,2023-11-16 13:50:01.715886,2023-11-16 13:50:06.376734,SD001.jpg,0,10834,30-49,2023-11-16_13h42.34.547,Recall,2021.2.3,59.91148675110432,
,L_SD505.jpg,1,L_MF505.jpg,1,,,,,0,3,3,94,imgFunc,2,NA,3.48942740005441,466.91350480006076,470.4893887899816,2023-11-16 13:50:06.389701,2023-11-16 13:50:09.962700,L_SD505.jpg,1,10834,30-49,2023-11-16_13h42.34.547,Recall,2021.2.3,59.91148675110432,
,SD009.jpg,0,MF009.jpg,0,,,,,0,4,4,58,imgFunc,9,NA,3.343482800060883,470.4993794000475,473.9369302899577,2023-11-16 13:50:09.969683,2023-11-16 13:50:13.398606,SD009.jpg,0,10834,30-49,2023-11-16_13h42.34.547,Recall,2021.2.3,59.91148675110432,
,DD003.jpg,0,FF003.jpg,0,,,,,0,5,5,2,imgFunc,0,NA,4.996693599969149,473.93420140002854,479.0391617900459,2023-11-16 13:50:13.405589,2023-11-16 13:50:18.502048,DD003.jpg,0,10834,30-49,2023-11-16_13h42.34.547,Recall,2021.2.3,59.91148675110432,
,SD040.jpg,0,MF040.jpg,0,,,,,0,6,6,89,imgFunc,1,NA,2.146701099933125,479.0480621000752,481.29841789009515,2023-11-16 13:50:18.511026,2023-11-16 13:50:20.753935,SD040.jpg,0,10834,30-49,2023-11-16_13h42.34.547,Recall,2021.2.3,59.91148675110432,
,SD035.jpg,0,MF035.jpg,0,,,,,0,7,7,84,imgFunc,2,NA,1.978181999991648,481.28859180002473,483.3581488899654,2023-11-16 13:50:20.760918,2023-11-16 13:50:22.822113,SD035.jpg,0,10834,30-49,2023-11-16_13h42.34.547,Recall,2021.2.3,59.91148675110432,
,DD017.jpg,0,FF017.jpg,0,,,,,0,8,8,16,imgFunc,2,NA,2.56409649993293,483.3588351000799,486.0289550900925,2023-11-16 13:50:22.829111,2023-11-16 13:50:25.490387,DD017.jpg,0,10834,30-49,2023-11-16_13h42.34.547,Recall,2021.2.3,59.91148675110432,
,DD015.jpg,0,FF015.jpg,0,,,,,0,9,9,14,imgFunc,9,NA,9.60380369995255,486.0150400000857,495.70662279007956,2023-11-16 13:50:25.497370,2023-11-16 13:50:35.180465,DD015.jpg,0,10834,30-49,2023-11-16_13h42.34.547,Recall,2021.2.3,59.91148675110432,
,DD021.jpg,0,FF021.jpg,0,,,,,0,10,10,20,imgFunc,9,NA,1.4296648000599816,495.7252642000094,497.2577857900178,2023-11-16 13:50:35.189797,2023-11-16 13:50:36.715029,DD021.jpg,0,10834,30-49,2023-11-16_13h42.34.547,Recall,2021.2.3,59.91148675110432,
,L_DD510.jpg,1,L_FF510.jpg,1,,,,,0,11,11,49,imgFunc,0,NA,2.9541914999717847,497.25653790007345,500.3106396900257,2023-11-16 13:50:36.722012,2023-11-16 13:50:39.767300,L_DD510.jpg,1,10834,30-49,2023-11-16_13h42.34.547,Recall,2021.2.3,59.91148675110432,
,DD023.jpg,0,FF023.jpg,0,,,,,0,12,12,22,imgFunc,9,NA,2.1174700000556186,500.32509800000116,502.54999579000287,2023-11-16 13:50:39.780266,2023-11-16 13:50:42.002117,DD023.jpg,0,10834,30-49,2023-11-16_13h42.34.547,Recall,2021.2.3,59.91148675110432,
,DD001.jpg,0,FF001.jpg,0,,,,,0,13,13,0,imgFunc,0,NA,6.500607299967669,502.5262842000229,509.11607319000177,2023-11-16 13:50:42.009100,2023-11-16 13:50:48.590159,DD001.jpg,0,10834,30-49,2023-11-16_13h42.34.547,Recall,2021.2.3,59.91148675110432,
,SD029.jpg,0,MF029.jpg,0,,,,,0,14,14,78,imgFunc,0,NA,3.5377501000184566,509.1207478999859,512.7547075898619,2023-11-16 13:50:48.599137,2023-11-16 13:50:52.225859,SD029.jpg,0,10834,30-49,2023-11-16_13h42.34.547,Recall,2021.2.3,59.91148675110432,
,DD022.jpg,0,FF022.jpg,0,,,,,0,15,15,21,imgFunc,9,NA,2.055019599967636,512.7636253000237,514.9168643900193,2023-11-16 13:50:52.232869,2023-11-16 13:50:54.377659,DD022.jpg,0,10834,30-49,2023-11-16_13h42.34.547,Recall,2021.2.3,59.91148675110432,
,L_SD510.jpg,1,L_MF510.jpg,1,,,,,0,16,16,99,imgFunc,9,NA,1.8601190999615937,514.9108776000794,516.8642237898894,2023-11-16 13:50:54.384642,2023-11-16 13:50:56.329047,L_SD510.jpg,1,10834,30-49,2023-11-16_13h42.34.547,Recall,2021.2.3,59.91148675110432,
,SD031.jpg,0,MF031.jpg,0,,,,,0,17,17,80,imgFunc,2,NA,3.2727243999252096,516.8736952000763,520.2448176899925,2023-11-16 13:50:56.344009,2023-11-16 13:50:59.714689,SD031.jpg,0,10834,30-49,2023-11-16_13h42.34.547,Recall,2021.2.3,59.91148675110432,
,SD026.jpg,0,MF026.jpg,0,,,,,0,18,18,75,imgFunc,2,NA,2.2092280999058858,520.2494420000585,522.5522989899619,2023-11-16 13:50:59.722670,2023-11-16 13:51:02.016519,SD026.jpg,0,10834,30-49,2023-11-16_13h42.34.547,Recall,2021.2.3,59.91148675110432,
,SD004.jpg,0,MF004.jpg,0,,,,,0,19,19,53,imgFunc,9,NA,2.8938048999989405,522.541078099981,525.5281794900075,2023-11-16 13:51:02.023502,2023-11-16 13:51:05.001786,SD004.jpg,0,10834,30-49,2023-11-16_13h42.34.547,Recall,2021.2.3,59.91148675110432,
,L_DD509.jpg,1,L_FF509.jpg,1,,,,,0,20,20,48,imgFunc,9,NA,2.827528900001198,525.5352539999876,528.4556629899889,2023-11-16 13:51:05.008769,2023-11-16 13:51:07.920683,L_DD509.jpg,1,10834,30-49,2023-11-16_13h42.34.547,Recall,2021.2.3,59.91148675110432,
,SD015.jpg,0,MF015.jpg,0,,,,,0,21,21,64,imgFunc,9,NA,2.9817688000621274,528.4610125999898,531.5479795899009,2023-11-16 13:51:07.927666,2023-11-16 13:51:11.006102,SD015.jpg,0,10834,30-49,2023-11-16_13h42.34.547,Recall,2021.2.3,59.91148675110432,
,SD030.jpg,0,MF030.jpg,0,,,,,0,22,22,79,imgFunc,0,NA,2.097456799936481,531.5533987000817,533.7429273900343,2023-11-16 13:51:11.020067,2023-11-16 13:51:13.207905,SD030.jpg,0,10834,30-49,2023-11-16_13h42.34.547,Recall,2021.2.3,59.91148675110432,
,L_DD505.jpg,1,L_FF505.jpg,1,,,,,0,23,23,44,imgFunc,0,NA,3.445017599966377,533.7415924000088,537.2790588899516,2023-11-16 13:51:13.214888,2023-11-16 13:51:16.743558,L_DD505.jpg,1,10834,30-49,2023-11-16_13h42.34.547,Recall,2021.2.3,59.91148675110432,
,DD040.jpg,0,FF040.jpg,0,,,,,0,24,24,39,imgFunc,0,NA,4.248421899974346,537.274227600079,541.6119800900342,2023-11-16 13:51:16.750560,2023-11-16 13:51:21.080053,DD040.jpg,0,10834,30-49,2023-11-16_13h42.34.547,Recall,2021.2.3,59.91148675110432,
,L_SD501.jpg,1,L_MF501.jpg,1,,,,,0,25,25,90,imgFunc,9,NA,1.5039845999563113,541.6105160000734,543.2123402899597,2023-11-16 13:51:21.087037,2023-11-16 13:51:22.680689,L_SD501.jpg,1,10834,30-49,2023-11-16_13h42.34.547,Recall,2021.2.3,59.91148675110432,
,DD012.jpg,0,FF012.jpg,0,,,,,0,26,26,11,imgFunc,0,NA,2.445507299969904,543.2132484000176,545.749970289995,2023-11-16 13:51:22.688671,2023-11-16 13:51:25.216417,DD012.jpg,0,10834,30-49,2023-11-16_13h42.34.547,Recall,2021.2.3,59.91148675110432,
,DD011.jpg,0,FF011.jpg,0,,,,,0,27,27,10,imgFunc,1,NA,3.704080400057137,545.7467757000122,549.5510367898969,2023-11-16 13:51:25.223400,2023-11-16 13:51:29.018912,DD011.jpg,0,10834,30-49,2023-11-16_13h42.34.547,Recall,2021.2.3,59.91148675110432,
,SD006.jpg,0,MF006.jpg,0,,,,,0,28,28,55,imgFunc,0,NA,3.2254663000348955,549.5530824000016,552.8737478900002,2023-11-16 13:51:29.025895,2023-11-16 13:51:32.338070,SD006.jpg,0,10834,30-49,2023-11-16_13h42.34.547,Recall,2021.2.3,59.91148675110432,
,SD020.jpg,0,MF020.jpg,0,,,,,0,29,29,69,imgFunc,9,NA,2.711929799988866,552.8748190000188,555.6946420900058,2023-11-16 13:51:32.345053,2023-11-16 13:51:35.156637,SD020.jpg,0,10834,30-49,2023-11-16_13h42.34.547,Recall,2021.2.3,59.91148675110432,
,SD027.jpg,0,MF027.jpg,0,,,,,0,30,30,76,imgFunc,0,NA,1.7907498000422493,555.6997279999778,557.598442389979,2023-11-16 13:51:35.166349,2023-11-16 13:51:37.057701,SD027.jpg,0,10834,30-49,2023-11-16_13h42.34.547,Recall,2021.2.3,59.91148675110432,
,L_SD503.jpg,1,L_MF503.jpg,1,,,,,0,31,31,92,imgFunc,9,NA,3.9561205999925733,557.6144836000167,561.6712199900066,2023-11-16 13:51:37.072661,2023-11-16 13:51:41.127502,L_SD503.jpg,1,10834,30-49,2023-11-16_13h42.34.547,Recall,2021.2.3,59.91148675110432,
,L_DD501.jpg,1,L_FF501.jpg,1,,,,,0,32,32,40,imgFunc,9,NA,2.2813279000110924,561.6573020999786,564.0280290900264,2023-11-16 13:51:41.134486,2023-11-16 13:51:43.496236,L_DD501.jpg,1,10834,30-49,2023-11-16_13h42.34.547,Recall,2021.2.3,59.91148675110432,
,DD039.jpg,0,FF039.jpg,0,,,,,0,33,33,38,imgFunc,0,NA,1.5518424999900162,564.0269561000168,565.6795203899965,2023-11-16 13:51:43.503219,2023-11-16 13:51:45.147236,DD039.jpg,0,10834,30-49,2023-11-16_13h42.34.547,Recall,2021.2.3,59.91148675110432,
,DD034.jpg,0,FF034.jpg,0,,,,,0,34,34,33,imgFunc,2,NA,4.187875299947336,565.6868795000482,569.9745178900193,2023-11-16 13:51:45.154220,2023-11-16 13:51:49.433634,DD034.jpg,0,10834,30-49,2023-11-16_13h42.34.547,Recall,2021.2.3,59.91148675110432,
,L_SD507.jpg,1,L_MF507.jpg,1,,,,,0,35,35,96,imgFunc,9,NA,2.393522800062783,569.9772043999983,572.4796085898997,2023-11-16 13:51:49.441615,2023-11-16 13:51:51.935250,L_SD507.jpg,1,10834,30-49,2023-11-16_13h42.34.547,Recall,2021.2.3,59.91148675110432,
,SD034.jpg,0,MF034.jpg,0,,,,,0,36,36,83,imgFunc,0,NA,1.6717411000281572,572.4829884000355,574.2547200899571,2023-11-16 13:51:51.950212,2023-11-16 13:51:53.719965,SD034.jpg,0,10834,30-49,2023-11-16_13h42.34.547,Recall,2021.2.3,59.91148675110432,
,DD019.jpg,0,FF019.jpg,0,,,,,0,37,37,18,imgFunc,0,NA,2.2086434999946505,574.2579821000108,576.5774123900337,2023-11-16 13:51:53.726948,2023-11-16 13:51:56.038130,DD019.jpg,0,10834,30-49,2023-11-16_13h42.34.547,Recall,2021.2.3,59.91148675110432,
,SD039.jpg,0,MF039.jpg,0,,,,,0,38,38,88,imgFunc,9,NA,1.5298691000789404,576.5769927999936,578.2124816899886,2023-11-16 13:51:56.046111,2023-11-16 13:51:57.672701,SD039.jpg,0,10834,30-49,2023-11-16_13h42.34.547,Recall,2021.2.3,59.91148675110432,
,SD002.jpg,0,MF002.jpg,0,,,,,0,39,39,51,imgFunc,9,NA,1.6307919999817386,578.2119098000694,579.9484695900464,2023-11-16 13:51:57.679684,2023-11-16 13:51:59.407423,SD002.jpg,0,10834,30-49,2023-11-16_13h42.34.547,Recall,2021.2.3,59.91148675110432,
,SD037.jpg,0,MF037.jpg,0,,,,,0,40,40,86,imgFunc,1,NA,4.743221200071275,579.9474668999901,584.803016389953,2023-11-16 13:51:59.414405,2023-11-16 13:52:04.260913,SD037.jpg,0,10834,30-49,2023-11-16_13h42.34.547,Recall,2021.2.3,59.91148675110432,
,L_SD508.jpg,1,L_MF508.jpg,1,,,,,0,41,41,97,imgFunc,0,NA,2.9535376999992877,584.8092387000797,587.8780028800247,2023-11-16 13:52:04.276872,2023-11-16 13:52:07.329700,L_SD508.jpg,1,10834,30-49,2023-11-16_13h42.34.547,Recall,2021.2.3,59.91148675110432,
,DD008.jpg,0,FF008.jpg,0,,,,,0,42,42,7,imgFunc,9,NA,1.5240478999912739,587.862846700009,589.4819074899424,2023-11-16 13:52:07.336683,2023-11-16 13:52:08.947343,DD008.jpg,0,10834,30-49,2023-11-16_13h42.34.547,Recall,2021.2.3,59.91148675110432,
,SD032.jpg,0,MF032.jpg,0,,,,,0,43,43,81,imgFunc,0,NA,3.312007100088522,589.4825676999753,592.8867786899209,2023-11-16 13:52:08.954326,2023-11-16 13:52:12.349354,SD032.jpg,0,10834,30-49,2023-11-16_13h42.34.547,Recall,2021.2.3,59.91148675110432,
,SD025.jpg,0,MF025.jpg,0,,,,,0,44,44,74,imgFunc,9,NA,6.995201400015503,592.887484200066,599.9765385900391,2023-11-16 13:52:12.357357,2023-11-16 13:52:19.438187,SD025.jpg,0,10834,30-49,2023-11-16_13h42.34.547,Recall,2021.2.3,59.91148675110432,
,L_SD509.jpg,1,L_MF509.jpg,1,,,,,0,45,45,98,imgFunc,0,NA,1.5767348000081256,600.0018823000137,601.700976789929,2023-11-16 13:52:19.447165,2023-11-16 13:52:21.139165,L_SD509.jpg,1,10834,30-49,2023-11-16_13h42.34.547,Recall,2021.2.3,59.91148675110432,
,DD033.jpg,0,FF033.jpg,0,,,,,0,46,46,32,imgFunc,0,NA,1.884502400062047,601.6860789000057,603.6899619898759,2023-11-16 13:52:21.146148,2023-11-16 13:52:23.140837,DD033.jpg,0,10834,30-49,2023-11-16_13h42.34.547,Recall,2021.2.3,59.91148675110432,
,SD024.jpg,0,MF024.jpg,0,,,,,0,47,47,73,imgFunc,9,NA,2.3132098000496626,603.6655330000212,606.0693900899496,2023-11-16 13:52:23.147820,2023-11-16 13:52:25.542515,SD024.jpg,0,10834,30-49,2023-11-16_13h42.34.547,Recall,2021.2.3,59.91148675110432,
,L_DD502.jpg,1,L_FF502.jpg,1,,,,,0,48,48,41,imgFunc,9,NA,4.295471000019461,606.075255200034,610.4635253900196,2023-11-16 13:52:25.549498,2023-11-16 13:52:29.929163,L_DD502.jpg,1,10834,30-49,2023-11-16_13h42.34.547,Recall,2021.2.3,59.91148675110432,
,SD011.jpg,0,MF011.jpg,0,,,,,0,49,49,60,imgFunc,9,NA,4.916939600021578,610.4698939999798,615.490541589912,2023-11-16 13:52:29.937143,2023-11-16 13:52:34.949265,SD011.jpg,0,10834,30-49,2023-11-16_13h42.34.547,Recall,2021.2.3,59.91148675110432,
,SD038.jpg,0,MF038.jpg,0,,,,,0,50,50,87,imgFunc,0,NA,3.0680944999912754,615.4866415000288,618.6405001899693,2023-11-16 13:52:34.965224,2023-11-16 13:52:38.118197,SD038.jpg,0,10834,30-49,2023-11-16_13h42.34.547,Recall,2021.2.3,59.91148675110432,
,DD007.jpg,0,FF007.jpg,0,,,,,0,51,51,6,imgFunc,1,NA,2.5026669000508264,618.6520759999985,621.255211090087,2023-11-16 13:52:38.125180,2023-11-16 13:52:40.720155,DD007.jpg,0,10834,30-49,2023-11-16_13h42.34.547,Recall,2021.2.3,59.91148675110432,
,DD004.jpg,0,FF004.jpg,0,,,,,0,52,52,3,imgFunc,0,NA,6.000960399978794,621.2576947000343,627.3638431899017,2023-11-16 13:52:40.727138,2023-11-16 13:52:46.824393,DD004.jpg,0,10834,30-49,2023-11-16_13h42.34.547,Recall,2021.2.3,59.91148675110432,
,DD036.jpg,0,FF036.jpg,0,,,,,0,53,53,35,imgFunc,9,NA,1.904276299988851,627.3621707999846,629.3616646899609,2023-11-16 13:52:46.833370,2023-11-16 13:52:48.825825,DD036.jpg,0,10834,30-49,2023-11-16_13h42.34.547,Recall,2021.2.3,59.91148675110432,
,DD013.jpg,0,FF013.jpg,0,,,,,0,54,54,12,imgFunc,9,NA,1.5713625000789762,629.383191299974,631.0623107899446,2023-11-16 13:52:48.836820,2023-11-16 13:52:50.510419,DD013.jpg,0,10834,30-49,2023-11-16_13h42.34.547,Recall,2021.2.3,59.91148675110432,
,SD008.jpg,0,MF008.jpg,0,,,,,0,55,55,57,imgFunc,0,NA,2.4920277000637725,631.0546257999958,633.6445846899878,2023-11-16 13:52:50.524383,2023-11-16 13:52:53.112405,SD008.jpg,0,10834,30-49,2023-11-16_13h42.34.547,Recall,2021.2.3,59.91148675110432,
,L_SD502.jpg,1,L_MF502.jpg,1,,,,,0,56,56,91,imgFunc,0,NA,3.758902799920179,633.6356174000539,637.4902185901301,2023-11-16 13:52:53.119388,2023-11-16 13:52:56.964835,L_SD502.jpg,1,10834,30-49,2023-11-16_13h42.34.547,Recall,2021.2.3,59.91148675110432,
,SD033.jpg,0,MF033.jpg,0,,,,,0,57,57,82,imgFunc,1,NA,3.815200199955143,637.4914426000323,641.3961460900027,2023-11-16 13:52:56.971818,2023-11-16 13:53:00.867644,SD033.jpg,0,10834,30-49,2023-11-16_13h42.34.547,Recall,2021.2.3,59.91148675110432,
,DD028.jpg,0,FF028.jpg,0,,,,,0,58,58,27,imgFunc,9,NA,2.044599200016819,641.4060307000764,643.5609041900607,2023-11-16 13:53:00.874627,2023-11-16 13:53:03.020751,DD028.jpg,0,10834,30-49,2023-11-16_13h42.34.547,Recall,2021.2.3,59.91148675110432,
,SD018.jpg,0,MF018.jpg,0,,,,,0,59,59,67,imgFunc,2,NA,3.481041799997911,643.5777188000502,647.1771641899832,2023-11-16 13:53:03.029729,2023-11-16 13:53:06.621739,SD018.jpg,0,10834,30-49,2023-11-16_13h42.34.547,Recall,2021.2.3,59.91148675110432,
,L_DD508.jpg,1,L_FF508.jpg,1,,,,,0,60,60,47,imgFunc,1,NA,3.145756300073117,647.1688299999805,650.4090090899263,2023-11-16 13:53:06.635703,2023-11-16 13:53:09.874111,L_DD508.jpg,1,10834,30-49,2023-11-16_13h42.34.547,Recall,2021.2.3,59.91148675110432,
,DD030.jpg,0,FF030.jpg,0,,,,,0,61,61,29,imgFunc,0,NA,7.0118823000229895,650.406821200042,657.5129914900754,2023-11-16 13:53:09.881094,2023-11-16 13:53:16.979234,DD030.jpg,0,10834,30-49,2023-11-16_13h42.34.547,Recall,2021.2.3,59.91148675110432,
,SD003.jpg,0,MF003.jpg,0,,,,,0,62,62,52,imgFunc,9,NA,2.978186700027436,657.5203917999752,660.6042378899874,2023-11-16 13:53:16.988212,2023-11-16 13:53:20.064668,SD003.jpg,0,10834,30-49,2023-11-16_13h42.34.547,Recall,2021.2.3,59.91148675110432,
,DD025.jpg,0,FF025.jpg,0,,,,,0,63,63,24,imgFunc,9,NA,1.526473900070414,660.6122341000009,662.2474705900531,2023-11-16 13:53:20.072649,2023-11-16 13:53:21.699107,DD025.jpg,0,10834,30-49,2023-11-16_13h42.34.547,Recall,2021.2.3,59.91148675110432,
,DD006.jpg,0,FF006.jpg,0,,,,,0,64,64,5,imgFunc,0,NA,4.130465500056744,662.2320992000168,666.4550203899853,2023-11-16 13:53:21.706091,2023-11-16 13:53:25.920408,DD006.jpg,0,10834,30-49,2023-11-16_13h42.34.547,Recall,2021.2.3,59.91148675110432,
,SD019.jpg,0,MF019.jpg,0,,,,,0,65,65,68,imgFunc,0,NA,1.3308819000376388,666.4477091000881,667.8642772899475,2023-11-16 13:53:25.928388,2023-11-16 13:53:27.336642,SD019.jpg,0,10834,30-49,2023-11-16_13h42.34.547,Recall,2021.2.3,59.91148675110432,
,DD016.jpg,0,FF016.jpg,0,,,,,0,66,66,15,imgFunc,9,NA,0.9362733999732882,667.8740685000084,668.9098124898737,2023-11-16 13:53:27.343625,2023-11-16 13:53:28.370684,DD016.jpg,0,10834,30-49,2023-11-16_13h42.34.547,Recall,2021.2.3,59.91148675110432,
,L_SD506.jpg,1,L_MF506.jpg,1,,,,,0,67,67,95,imgFunc,9,NA,1.6653780000051484,668.9052454000339,670.6748471899191,2023-11-16 13:53:28.377674,2023-11-16 13:53:30.138608,L_SD506.jpg,1,10834,30-49,2023-11-16_13h42.34.547,Recall,2021.2.3,59.91148675110432,
,DD037.jpg,0,FF037.jpg,0,,,,,0,68,68,36,imgFunc,0,NA,4.4358783001080155,670.6787361999741,675.2169648900162,2023-11-16 13:53:30.145591,2023-11-16 13:53:34.675094,DD037.jpg,0,10834,30-49,2023-11-16_13h42.34.547,Recall,2021.2.3,59.91148675110432,
,SD036.jpg,0,MF036.jpg,0,,,,,0,69,69,85,imgFunc,0,NA,3.0738577999873087,675.232440300053,678.4201962900115,2023-11-16 13:53:34.690055,2023-11-16 13:53:37.877324,SD036.jpg,0,10834,30-49,2023-11-16_13h42.34.547,Recall,2021.2.3,59.91148675110432,
,SD022.jpg,0,MF022.jpg,0,,,,,0,70,70,71,imgFunc,9,NA,1.3605257999151945,678.4099453000817,679.8627548899967,2023-11-16 13:53:37.884307,2023-11-16 13:53:39.328564,SD022.jpg,0,10834,30-49,2023-11-16_13h42.34.547,Recall,2021.2.3,59.91148675110432,
,DD024.jpg,0,FF024.jpg,0,,,,,0,71,71,23,imgFunc,9,NA,2.0406899999361485,679.8658781000413,682.0016227898886,2023-11-16 13:53:39.336545,2023-11-16 13:53:41.463394,DD024.jpg,0,10834,30-49,2023-11-16_13h42.34.547,Recall,2021.2.3,59.91148675110432,
,SD021.jpg,0,MF021.jpg,0,,,,,0,72,72,70,imgFunc,9,NA,2.0089324000291526,682.001708600088,684.1211100900546,2023-11-16 13:53:41.470377,2023-11-16 13:53:43.581663,SD021.jpg,0,10834,30-49,2023-11-16_13h42.34.547,Recall,2021.2.3,59.91148675110432,
,SD013.jpg,0,MF013.jpg,0,,,,,0,73,73,62,imgFunc,0,NA,1.3269446999765933,684.1315443000058,685.5646611901466,2023-11-16 13:53:43.590641,2023-11-16 13:53:45.016271,SD013.jpg,0,10834,30-49,2023-11-16_13h42.34.547,Recall,2021.2.3,59.91148675110432,
,L_DD504.jpg,1,L_FF504.jpg,1,,,,,0,74,74,43,imgFunc,9,NA,2.6838829000480473,685.5666612000205,688.3520799899707,2023-11-16 13:53:45.032230,2023-11-16 13:53:47.817754,L_DD504.jpg,1,10834,30-49,2023-11-16_13h42.34.547,Recall,2021.2.3,59.91148675110432,
,SD014.jpg,0,MF014.jpg,0,,,,,0,75,75,63,imgFunc,0,NA,1.3241395000368357,688.3583930999739,689.7912956898799,2023-11-16 13:53:47.826732,2023-11-16 13:53:49.252119,SD014.jpg,0,10834,30-49,2023-11-16_13h42.34.547,Recall,2021.2.3,59.91148675110432,
,SD016.jpg,0,MF016.jpg,0,,,,,0,76,76,65,imgFunc,9,NA,1.73220119997859,689.7822056000587,691.600973290042,2023-11-16 13:53:49.260121,2023-11-16 13:53:51.070128,SD016.jpg,0,10834,30-49,2023-11-16_13h42.34.547,Recall,2021.2.3,59.91148675110432,
,DD005.jpg,0,FF005.jpg,0,,,,,0,77,77,4,imgFunc,0,NA,1.837026400025934,691.6056258999743,693.5419119899161,2023-11-16 13:53:51.077111,2023-11-16 13:53:53.004927,DD005.jpg,0,10834,30-49,2023-11-16_13h42.34.547,Recall,2021.2.3,59.91148675110432,
,DD010.jpg,0,FF010.jpg,0,,,,,0,78,78,9,imgFunc,0,NA,2.7567760000238195,693.5416772000026,696.3950162900146,2023-11-16 13:53:53.011910,2023-11-16 13:53:55.857097,DD010.jpg,0,10834,30-49,2023-11-16_13h42.34.547,Recall,2021.2.3,59.91148675110432,
,L_DD507.jpg,1,L_FF507.jpg,1,,,,,0,79,79,46,imgFunc,9,NA,1.6358274000231177,696.4067840999924,698.142995089991,2023-11-16 13:53:55.872058,2023-11-16 13:53:57.608088,L_DD507.jpg,1,10834,30-49,2023-11-16_13h42.34.547,Recall,2021.2.3,59.91148675110432,
,SD007.jpg,0,MF007.jpg,0,,,,,0,80,80,56,imgFunc,0,NA,1.4736650999402627,698.1369907000335,699.7061614900595,2023-11-16 13:53:57.615072,2023-11-16 13:53:59.175857,SD007.jpg,0,10834,30-49,2023-11-16_13h42.34.547,Recall,2021.2.3,59.91148675110432,
,L_SD504.jpg,1,L_MF504.jpg,1,,,,,0,81,81,93,imgFunc,0,NA,1.3721538999816403,699.7184534000698,701.2026174899656,2023-11-16 13:53:59.183838,2023-11-16 13:54:00.660214,L_SD504.jpg,1,10834,30-49,2023-11-16_13h42.34.547,Recall,2021.2.3,59.91148675110432,
,DD002.jpg,0,FF002.jpg,0,,,,,0,82,82,1,imgFunc,0,NA,1.7408293000189587,701.2057137000374,703.0577232899377,2023-11-16 13:54:00.668195,2023-11-16 13:54:02.511511,DD002.jpg,0,10834,30-49,2023-11-16_13h42.34.547,Recall,2021.2.3,59.91148675110432,
,SD010.jpg,0,MF010.jpg,0,,,,,0,83,83,59,imgFunc,9,NA,1.724649199983105,703.0541667999933,704.8900656900369,2023-11-16 13:54:02.518517,2023-11-16 13:54:04.346251,SD010.jpg,0,10834,30-49,2023-11-16_13h42.34.547,Recall,2021.2.3,59.91148675110432,
,DD032.jpg,0,FF032.jpg,0,,,,,0,84,84,31,imgFunc,0,NA,2.063738299999386,704.875206100056,707.0284854901256,2023-11-16 13:54:04.353234,2023-11-16 13:54:06.498435,DD032.jpg,0,10834,30-49,2023-11-16_13h42.34.547,Recall,2021.2.3,59.91148675110432,
,DD038.jpg,0,FF038.jpg,0,,,,,0,85,85,37,imgFunc,9,NA,2.089081999962218,707.0330927000614,709.2170062900987,2023-11-16 13:54:06.506440,2023-11-16 13:54:08.682270,DD038.jpg,0,10834,30-49,2023-11-16_13h42.34.547,Recall,2021.2.3,59.91148675110432,
,L_DD503.jpg,1,L_FF503.jpg,1,,,,,0,86,86,42,imgFunc,9,NA,1.635056700091809,709.2394482999807,710.9789529899135,2023-11-16 13:54:08.696234,2023-11-16 13:54:10.433998,L_DD503.jpg,1,10834,30-49,2023-11-16_13h42.34.547,Recall,2021.2.3,59.91148675110432,
,DD009.jpg,0,FF009.jpg,0,,,,,0,87,87,8,imgFunc,0,NA,1.6457820000359789,710.9808555999771,712.7323268899927,2023-11-16 13:54:10.441979,2023-11-16 13:54:12.185290,DD009.jpg,0,10834,30-49,2023-11-16_13h42.34.547,Recall,2021.2.3,59.91148675110432,
,SD028.jpg,0,MF028.jpg,0,,,,,0,88,88,77,imgFunc,9,NA,1.7305491999723017,712.7284323000349,714.552137790015,2023-11-16 13:54:12.198256,2023-11-16 13:54:14.019648,SD028.jpg,0,10834,30-49,2023-11-16_13h42.34.547,Recall,2021.2.3,59.91148675110432,
,DD027.jpg,0,FF027.jpg,0,,,,,0,89,89,26,imgFunc,0,NA,1.1787280000280589,714.5598110000137,715.8426116899354,2023-11-16 13:54:14.028626,2023-11-16 13:54:15.304037,DD027.jpg,0,10834,30-49,2023-11-16_13h42.34.547,Recall,2021.2.3,59.91148675110432,
,DD018.jpg,0,FF018.jpg,0,,,,,0,90,90,17,imgFunc,0,NA,2.2173828000668436,715.8412230000831,718.1613082900876,2023-11-16 13:54:15.311020,2023-11-16 13:54:17.622447,DD018.jpg,0,10834,30-49,2023-11-16_13h42.34.547,Recall,2021.2.3,59.91148675110432,
,SD017.jpg,0,MF017.jpg,0,,,,,0,91,91,66,imgFunc,9,NA,2.5226765000261366,718.1520069000544,720.772031890112,2023-11-16 13:54:17.629430,2023-11-16 13:54:20.240892,SD017.jpg,0,10834,30-49,2023-11-16_13h42.34.547,Recall,2021.2.3,59.91148675110432,
,SD005.jpg,0,MF005.jpg,0,,,,,0,92,92,54,imgFunc,0,NA,1.9924047000240535,720.7778308000416,722.8639458899852,2023-11-16 13:54:20.247897,2023-11-16 13:54:22.325471,SD005.jpg,0,10834,30-49,2023-11-16_13h42.34.547,Recall,2021.2.3,59.91148675110432,
,SD012.jpg,0,MF012.jpg,0,,,,,0,93,93,61,imgFunc,9,NA,1.0721435999730602,722.8744378000265,724.0583000801271,2023-11-16 13:54:22.342425,2023-11-16 13:54:23.510062,SD012.jpg,0,10834,30-49,2023-11-16_13h42.34.547,Recall,2021.2.3,59.91148675110432,
,DD031.jpg,0,FF031.jpg,0,,,,,0,94,94,30,imgFunc,0,NA,2.6958358000265434,724.042597200023,726.8293098900467,2023-11-16 13:54:23.517067,2023-11-16 13:54:26.295244,DD031.jpg,0,10834,30-49,2023-11-16_13h42.34.547,Recall,2021.2.3,59.91148675110432,
,DD014.jpg,0,FF014.jpg,0,,,,,0,95,95,13,imgFunc,9,NA,1.0009397000540048,726.8336783000268,727.9362139899749,2023-11-16 13:54:26.302227,2023-11-16 13:54:27.395810,DD014.jpg,0,10834,30-49,2023-11-16_13h42.34.547,Recall,2021.2.3,59.91148675110432,
,SD023.jpg,0,MF023.jpg,0,,,,,0,96,96,72,imgFunc,1,NA,4.608429700019769,727.9302097000182,732.6355155899655,2023-11-16 13:54:27.402794,2023-11-16 13:54:32.099171,SD023.jpg,0,10834,30-49,2023-11-16_13h42.34.547,Recall,2021.2.3,59.91148675110432,
,L_DD506.jpg,1,L_FF506.jpg,1,,,,,0,97,97,45,imgFunc,2,NA,2.0643311000894755,732.6423061999958,734.8091257900232,2023-11-16 13:54:32.108150,2023-11-16 13:54:34.267016,L_DD506.jpg,1,10834,30-49,2023-11-16_13h42.34.547,Recall,2021.2.3,59.91148675110432,
,DD020.jpg,0,FF020.jpg,0,,,,,0,98,98,19,imgFunc,0,NA,3.1609628000296652,734.8174707000144,738.0730242899153,2023-11-16 13:54:34.282002,2023-11-16 13:54:37.536584,DD020.jpg,0,10834,30-49,2023-11-16_13h42.34.547,Recall,2021.2.3,59.91148675110432,
,DD035.jpg,0,FF035.jpg,0,,,,,0,99,99,34,imgFunc,9,NA,1.7668477999977767,738.0757388999918,739.94488678989,2023-11-16 13:54:37.543567,2023-11-16 13:54:39.404457,DD035.jpg,0,10834,30-49,2023-11-16_13h42.34.547,Recall,2021.2.3,59.91148675110432,
