onset	duration	trial_type	response_time	Endowment	Endowment_pmod	Decision	Decision_pmod	Offer_pmod
4.506829	2	cue_nonsocial	n/a	16	-10	n/a	n/a	n/a
4.506829	2	cue_nonsocial_low	n/a	16	-9	n/a	n/a	n/a
12.156573	2	cue_nonsocial	n/a	32	6	n/a	n/a	n/a
12.156573	2	cue_nonsocial_high	n/a	32	7	n/a	n/a	n/a
19.059414	2	cue_social	n/a	16	-9	n/a	n/a	n/a
19.059414	2	cue_social_low	n/a	16	-10	n/a	n/a	n/a
26.710762	2	cue_social	n/a	32	7	n/a	n/a	n/a
26.710762	2	cue_social_high	n/a	32	6	n/a	n/a	n/a
34.281075	2	cue_social	n/a	16	-9	n/a	n/a	n/a
34.281075	2	cue_social_low	n/a	16	-10	n/a	n/a	n/a
41.225600	2	cue_social	n/a	16	-9	n/a	n/a	n/a
41.225600	2	cue_social_low	n/a	16	-10	n/a	n/a	n/a
50.453217	2	cue_social	n/a	16	-9	n/a	n/a	n/a
50.453217	2	cue_social_low	n/a	16	-10	n/a	n/a	n/a
58.023075	2	cue_nonsocial	n/a	16	-10	n/a	n/a	n/a
58.023075	2	cue_nonsocial_low	n/a	16	-9	n/a	n/a	n/a
64.855970	2	cue_nonsocial	n/a	16	-10	n/a	n/a	n/a
64.855970	2	cue_nonsocial_low	n/a	16	-9	n/a	n/a	n/a
71.689680	2	cue_nonsocial	n/a	32	6	n/a	n/a	n/a
71.689680	2	cue_nonsocial_high	n/a	32	7	n/a	n/a	n/a
78.602554	2	cue_social	n/a	32	7	n/a	n/a	n/a
78.602554	2	cue_social_high	n/a	32	6	n/a	n/a	n/a
85.420660	2	cue_social	n/a	32	7	n/a	n/a	n/a
85.420660	2	cue_social_high	n/a	32	6	n/a	n/a	n/a
93.078255	2	cue_social	n/a	32	7	n/a	n/a	n/a
93.078255	2	cue_social_high	n/a	32	6	n/a	n/a	n/a
100.656150	2	cue_nonsocial	n/a	32	6	n/a	n/a	n/a
100.656150	2	cue_nonsocial_high	n/a	32	7	n/a	n/a	n/a
109.906000	2	cue_nonsocial	n/a	16	-10	n/a	n/a	n/a
109.906000	2	cue_nonsocial_low	n/a	16	-9	n/a	n/a	n/a
117.616066	2	cue_social	n/a	16	-9	n/a	n/a	n/a
117.616066	2	cue_social_low	n/a	16	-10	n/a	n/a	n/a
124.389680	2	cue_nonsocial	n/a	32	6	n/a	n/a	n/a
124.389680	2	cue_nonsocial_high	n/a	32	7	n/a	n/a	n/a
135.255980	2	cue_nonsocial	n/a	32	6	n/a	n/a	n/a
135.255980	2	cue_nonsocial_high	n/a	32	7	n/a	n/a	n/a
142.145900	2	cue_social	n/a	32	7	n/a	n/a	n/a
142.145900	2	cue_social_high	n/a	32	6	n/a	n/a	n/a
152.985750	2	cue_social	n/a	32	7	n/a	n/a	n/a
152.985750	2	cue_social_high	n/a	32	6	n/a	n/a	n/a
159.849750	2	cue_social	n/a	32	7	n/a	n/a	n/a
159.849750	2	cue_social_high	n/a	32	6	n/a	n/a	n/a
169.105030	2	cue_social	n/a	16	-9	n/a	n/a	n/a
169.105030	2	cue_social_low	n/a	16	-10	n/a	n/a	n/a
175.872850	2	cue_nonsocial	n/a	32	6	n/a	n/a	n/a
175.872850	2	cue_nonsocial_high	n/a	32	7	n/a	n/a	n/a
186.756060	2	cue_nonsocial	n/a	32	6	n/a	n/a	n/a
186.756060	2	cue_nonsocial_high	n/a	32	7	n/a	n/a	n/a
194.454300	2	cue_social	n/a	16	-9	n/a	n/a	n/a
194.454300	2	cue_social_low	n/a	16	-10	n/a	n/a	n/a
201.239330	2	cue_nonsocial	n/a	16	-10	n/a	n/a	n/a
201.239330	2	cue_nonsocial_low	n/a	16	-9	n/a	n/a	n/a
208.143170	2	cue_social	n/a	32	7	n/a	n/a	n/a
208.143170	2	cue_social_high	n/a	32	6	n/a	n/a	n/a
214.905670	2	cue_nonsocial	n/a	16	-10	n/a	n/a	n/a
214.905670	2	cue_nonsocial_low	n/a	16	-9	n/a	n/a	n/a
221.739240	2	cue_nonsocial	n/a	16	-10	n/a	n/a	n/a
221.739240	2	cue_nonsocial_low	n/a	16	-9	n/a	n/a	n/a
230.989200	2	cue_nonsocial	n/a	32	6	n/a	n/a	n/a
230.989200	2	cue_nonsocial_high	n/a	32	7	n/a	n/a	n/a
237.822510	2	cue_nonsocial	n/a	32	6	n/a	n/a	n/a
237.822510	2	cue_nonsocial_high	n/a	32	7	n/a	n/a	n/a
245.472500	2	cue_nonsocial	n/a	32	6	n/a	n/a	n/a
245.472500	2	cue_nonsocial_high	n/a	32	7	n/a	n/a	n/a
254.722500	2	cue_nonsocial	n/a	32	6	n/a	n/a	n/a
254.722500	2	cue_nonsocial_high	n/a	32	7	n/a	n/a	n/a
261.555570	2	cue_nonsocial	n/a	32	6	n/a	n/a	n/a
261.555570	2	cue_nonsocial_high	n/a	32	7	n/a	n/a	n/a
268.450380	2	cue_social	n/a	16	-9	n/a	n/a	n/a
268.450380	2	cue_social_low	n/a	16	-10	n/a	n/a	n/a
275.222260	2	cue_nonsocial	n/a	32	6	n/a	n/a	n/a
275.222260	2	cue_nonsocial_high	n/a	32	7	n/a	n/a	n/a
282.112980	2	cue_social	n/a	16	-9	n/a	n/a	n/a
282.112980	2	cue_social_low	n/a	16	-10	n/a	n/a	n/a
291.378540	2	cue_social	n/a	32	7	n/a	n/a	n/a
291.378540	2	cue_social_high	n/a	32	6	n/a	n/a	n/a
299.052640	2	cue_social	n/a	32	7	n/a	n/a	n/a
299.052640	2	cue_social_high	n/a	32	6	n/a	n/a	n/a
305.873900	2	cue_social	n/a	16	-9	n/a	n/a	n/a
305.873900	2	cue_social_low	n/a	16	-10	n/a	n/a	n/a
312.622440	2	cue_nonsocial	n/a	32	6	n/a	n/a	n/a
312.622440	2	cue_nonsocial_high	n/a	32	7	n/a	n/a	n/a
325.106000	2	cue_nonsocial	n/a	16	-10	n/a	n/a	n/a
325.106000	2	cue_nonsocial_low	n/a	16	-9	n/a	n/a	n/a
331.997400	2	cue_social	n/a	16	-9	n/a	n/a	n/a
331.997400	2	cue_social_low	n/a	16	-10	n/a	n/a	n/a
339.646330	2	cue_social	n/a	32	7	n/a	n/a	n/a
339.646330	2	cue_social_high	n/a	32	6	n/a	n/a	n/a
346.422330	2	cue_nonsocial	n/a	32	6	n/a	n/a	n/a
346.422330	2	cue_nonsocial_high	n/a	32	7	n/a	n/a	n/a
354.129180	2	cue_social	n/a	32	7	n/a	n/a	n/a
354.129180	2	cue_social_high	n/a	32	6	n/a	n/a	n/a
361.009430	2	cue_social	n/a	32	7	n/a	n/a	n/a
361.009430	2	cue_social_high	n/a	32	6	n/a	n/a	n/a
368.555700	2	cue_nonsocial	n/a	16	-10	n/a	n/a	n/a
368.555700	2	cue_nonsocial_low	n/a	16	-9	n/a	n/a	n/a
6.512913	2.233144	dec_nonsocial_choice	2.233144	16.000000	n/a	0	0	-2.304688e-01
6.512913	2.233144	dec_choice	2.233144	16.000000	n/a	0	0	-2.304688e-01
6.512913	2.233144	dec_nonsocial_reject	2.233144	16.000000	n/a	0	0	1.575000e-01
6.512913	2.233144	dec_reject	2.233144	16.000000	n/a	0	0	1.514423e-01
6.512913	2.233144	dec_nonsocial_reject_low	2.233144	16.000000	n/a	4	1.640625e-01	-8.593750e-02
14.161913	1.817045	dec_nonsocial_choice	1.817045	32.000000	n/a	0	0	-2.304688e-01
14.161913	1.817045	dec_choice	1.817045	32.000000	n/a	0	0	-2.304688e-01
14.161913	1.817045	dec_nonsocial_reject	1.817045	32.000000	n/a	0	0	-3.000000e-02
14.161913	1.817045	dec_reject	1.817045	32.000000	n/a	0	0	-3.605769e-02
14.161913	1.817045	dec_nonsocial_low	1.817045	32.000000	n/a	0	-2.304688e-01	-2.304688e-01
14.161913	1.817045	dec_nonsocial_reject_low	1.817045	32.000000	n/a	2	-3.605769e-02	-9.855769e-02
20.996695	2.099530	dec_social_choice	2.099530	16.000000	n/a	0	0	-2.304688e-01
20.996695	2.099530	dec_choice	2.099530	16.000000	n/a	0	0	-2.304688e-01
20.996695	2.099530	dec_social_reject	2.099530	16.000000	n/a	0	0	3.250000e-02
20.996695	2.099530	dec_reject	2.099530	16.000000	n/a	0	0	3.906250e-02
20.996695	2.099530	dec_social_reject_low	2.099530	16.000000	n/a	2	-1.054688e-01	-2.304688e-01
28.645927	1.266262	dec_social_choice	1.266262	32.000000	n/a	8	1.953125e-02	1.953125e-02
28.645927	1.266262	dec_choice	1.266262	32.000000	n/a	8	1.953125e-02	1.953125e-02
28.645927	1.266262	dec_social_accept	1.266262	32.000000	n/a	8	-1.304348e-01	-1.304348e-01
28.645927	1.266262	dec_accept	1.266262	32.000000	n/a	8	-1.250000e-01	-1.250000e-01
28.645927	1.266262	dec_social_accept_high	1.266262	32.000000	n/a	8	1.953125e-02	1.953125e-02
36.296690	1.215654	dec_social_choice	1.215654	16.000000	n/a	8	2.695312e-01	2.695312e-01
36.296690	1.215654	dec_choice	1.215654	16.000000	n/a	8	2.695312e-01	2.695312e-01
36.296690	1.215654	dec_social_accept	1.215654	16.000000	n/a	8	1.195652e-01	1.195652e-01
36.296690	1.215654	dec_accept	1.215654	16.000000	n/a	8	1.250000e-01	1.250000e-01
36.296690	1.215654	dec_social_high	1.215654	16.000000	n/a	8	2.695312e-01	2.695312e-01
36.296690	1.215654	dec_social_accept_high	1.215654	16.000000	n/a	8	2.695312e-01	2.695312e-01
43.130200	1.032654	dec_social_choice	1.032654	16.000000	n/a	0	0	-2.304688e-01
43.130200	1.032654	dec_choice	1.032654	16.000000	n/a	0	0	-2.304688e-01
43.130200	1.032654	dec_social_reject	1.032654	16.000000	n/a	0	0	3.250000e-02
43.130200	1.032654	dec_reject	1.032654	16.000000	n/a	0	0	3.906250e-02
43.130200	1.032654	dec_social_low	1.032654	16.000000	n/a	0	-2.304688e-01	-2.304688e-01
43.130200	1.032654	dec_social_reject_low	1.032654	16.000000	n/a	2	-1.054688e-01	-2.304688e-01
52.378975	0.983257	dec_social_choice	0.983257	16.000000	n/a	4	1.953125e-02	1.953125e-02
52.378975	0.983257	dec_choice	0.983257	16.000000	n/a	4	1.953125e-02	1.953125e-02
52.378975	0.983257	dec_social_accept	0.983257	16.000000	n/a	4	-1.304348e-01	-1.304348e-01
52.378975	0.983257	dec_accept	0.983257	16.000000	n/a	4	-1.250000e-01	-1.250000e-01
52.378975	0.983257	dec_social_accept_high	0.983257	16.000000	n/a	4	1.953125e-02	1.953125e-02
60.029000	1.450446	dec_nonsocial_choice	1.450446	16.000000	n/a	4	1.953125e-02	1.953125e-02
60.029000	1.450446	dec_choice	1.450446	16.000000	n/a	4	1.953125e-02	1.953125e-02
60.029000	1.450446	dec_nonsocial_accept	1.450446	16.000000	n/a	4	-1.304348e-01	-1.304348e-01
60.029000	1.450446	dec_accept	1.450446	16.000000	n/a	4	-1.363636e-01	-1.363636e-01
60.029000	1.450446	dec_nonsocial_high	1.450446	16.000000	n/a	4	1.953125e-02	1.953125e-02
60.029000	1.450446	dec_nonsocial_accept_high	1.450446	16.000000	n/a	4	-1.363636e-01	-1.363636e-01
66.862620	1.133653	dec_nonsocial_choice	1.133653	16.000000	n/a	0	0	-2.304688e-01
66.862620	1.133653	dec_choice	1.133653	16.000000	n/a	0	0	-2.304688e-01
66.862620	1.133653	dec_nonsocial_reject	1.133653	16.000000	n/a	0	0	3.250000e-02
66.862620	1.133653	dec_reject	1.133653	16.000000	n/a	0	0	2.644231e-02
66.862620	1.133653	dec_nonsocial_low	1.133653	16.000000	n/a	0	-2.304688e-01	-2.304688e-01
66.862620	1.133653	dec_nonsocial_reject_low	1.133653	16.000000	n/a	2	2.644231e-02	-9.855769e-02
73.696610	1.115790	dec_nonsocial_choice	1.115790	32.000000	n/a	0	0	-2.304688e-01
73.696610	1.115790	dec_choice	1.115790	32.000000	n/a	0	0	-2.304688e-01
73.696610	1.115790	dec_nonsocial_reject	1.115790	32.000000	n/a	0	0	1.250000e-03
73.696610	1.115790	dec_reject	1.115790	32.000000	n/a	0	0	-4.807692e-03
73.696610	1.115790	dec_nonsocial_reject_low	1.115790	32.000000	n/a	3	7.812500e-03	-8.593750e-02
80.528725	1.367212	dec_social_choice	1.367212	32.000000	n/a	16	2.695312e-01	2.695312e-01
80.528725	1.367212	dec_choice	1.367212	32.000000	n/a	16	2.695312e-01	2.695312e-01
80.528725	1.367212	dec_social_accept	1.367212	32.000000	n/a	16	1.195652e-01	1.195652e-01
80.528725	1.367212	dec_accept	1.367212	32.000000	n/a	16	1.250000e-01	1.250000e-01
80.528725	1.367212	dec_social_accept_high	1.367212	32.000000	n/a	16	2.695312e-01	2.695312e-01
87.363350	1.099604	dec_social_choice	1.099604	32.000000	n/a	0	0	-2.304688e-01
87.363350	1.099604	dec_choice	1.099604	32.000000	n/a	0	0	-2.304688e-01
87.363350	1.099604	dec_social_reject	1.099604	32.000000	n/a	0	0	1.250000e-03
87.363350	1.099604	dec_reject	1.099604	32.000000	n/a	0	0	7.812500e-03
87.363350	1.099604	dec_social_reject_low	1.099604	32.000000	n/a	3	-1.367188e-01	-2.304688e-01
95.011925	1.251447	dec_social_choice	1.251447	32.000000	n/a	0	0	-2.304688e-01
95.011925	1.251447	dec_choice	1.251447	32.000000	n/a	0	0	-2.304688e-01
95.011925	1.251447	dec_social_reject	1.251447	32.000000	n/a	0	0	-3.000000e-02
95.011925	1.251447	dec_reject	1.251447	32.000000	n/a	0	0	-2.343750e-02
95.011925	1.251447	dec_social_low	1.251447	32.000000	n/a	0	-2.304688e-01	-2.304688e-01
95.011925	1.251447	dec_social_reject_low	1.251447	32.000000	n/a	2	-1.679688e-01	-2.304688e-01
102.661950	0.934122	dec_nonsocial_choice	0.934122	32.000000	n/a	16	2.695312e-01	2.695312e-01
102.661950	0.934122	dec_choice	0.934122	32.000000	n/a	16	2.695312e-01	2.695312e-01
102.661950	0.934122	dec_nonsocial_accept	0.934122	32.000000	n/a	16	1.195652e-01	1.195652e-01
102.661950	0.934122	dec_accept	0.934122	32.000000	n/a	16	1.136364e-01	1.136364e-01
102.661950	0.934122	dec_nonsocial_accept_high	0.934122	32.000000	n/a	16	1.250000e-01	1.250000e-01
111.912940	1.033071	dec_nonsocial_choice	1.033071	16.000000	n/a	0	0	-2.304688e-01
111.912940	1.033071	dec_choice	1.033071	16.000000	n/a	0	0	-2.304688e-01
111.912940	1.033071	dec_nonsocial_reject	1.033071	16.000000	n/a	0	0	3.250000e-02
111.912940	1.033071	dec_reject	1.033071	16.000000	n/a	0	0	2.644231e-02
111.912940	1.033071	dec_nonsocial_reject_low	1.033071	16.000000	n/a	2	3.906250e-02	-8.593750e-02
119.562750	1.433731	dec_social_choice	1.433731	16.000000	n/a	4	1.953125e-02	1.953125e-02
119.562750	1.433731	dec_choice	1.433731	16.000000	n/a	4	1.953125e-02	1.953125e-02
119.562750	1.433731	dec_social_accept	1.433731	16.000000	n/a	4	-1.304348e-01	-1.304348e-01
119.562750	1.433731	dec_accept	1.433731	16.000000	n/a	4	-1.250000e-01	-1.250000e-01
119.562750	1.433731	dec_social_high	1.433731	16.000000	n/a	4	1.953125e-02	1.953125e-02
119.562750	1.433731	dec_social_accept_high	1.433731	16.000000	n/a	4	1.953125e-02	1.953125e-02
126.395210	2.066958	dec_nonsocial_choice	2.066958	32.000000	n/a	8	1.953125e-02	1.953125e-02
126.395210	2.066958	dec_choice	2.066958	32.000000	n/a	8	1.953125e-02	1.953125e-02
126.395210	2.066958	dec_nonsocial_accept	2.066958	32.000000	n/a	8	-1.304348e-01	-1.304348e-01
126.395210	2.066958	dec_accept	2.066958	32.000000	n/a	8	-1.363636e-01	-1.363636e-01
126.395210	2.066958	dec_nonsocial_high	2.066958	32.000000	n/a	8	1.953125e-02	1.953125e-02
126.395210	2.066958	dec_nonsocial_accept_high	2.066958	32.000000	n/a	8	-1.363636e-01	-1.363636e-01
137.262440	1.450258	dec_nonsocial_choice	1.450258	32.000000	n/a	0	0	-2.304688e-01
137.262440	1.450258	dec_choice	1.450258	32.000000	n/a	0	0	-2.304688e-01
137.262440	1.450258	dec_nonsocial_reject	1.450258	32.000000	n/a	0	0	-3.000000e-02
137.262440	1.450258	dec_reject	1.450258	32.000000	n/a	0	0	-3.605769e-02
137.262440	1.450258	dec_nonsocial_low	1.450258	32.000000	n/a	0	-2.304688e-01	-2.304688e-01
137.262440	1.450258	dec_nonsocial_reject_low	1.450258	32.000000	n/a	2	-3.605769e-02	-9.855769e-02
144.096100	1.083219	dec_social_choice	1.083219	32.000000	n/a	0	0	-2.304688e-01
144.096100	1.083219	dec_choice	1.083219	32.000000	n/a	0	0	-2.304688e-01
144.096100	1.083219	dec_social_reject	1.083219	32.000000	n/a	0	0	-3.000000e-02
144.096100	1.083219	dec_reject	1.083219	32.000000	n/a	0	0	-2.343750e-02
144.096100	1.083219	dec_social_reject_low	1.083219	32.000000	n/a	2	-1.679688e-01	-2.304688e-01
154.961800	1.100889	dec_social_choice	1.100889	32.000000	n/a	0	0	-2.304688e-01
154.961800	1.100889	dec_choice	1.100889	32.000000	n/a	0	0	-2.304688e-01
154.961800	1.100889	dec_social_reject	1.100889	32.000000	n/a	0	0	-3.000000e-02
154.961800	1.100889	dec_reject	1.100889	32.000000	n/a	0	0	-2.343750e-02
154.961800	1.100889	dec_social_low	1.100889	32.000000	n/a	0	-2.304688e-01	-2.304688e-01
154.961800	1.100889	dec_social_reject_low	1.100889	32.000000	n/a	2	-1.679688e-01	-2.304688e-01
161.795780	1.100074	dec_social_choice	1.100074	32.000000	n/a	16	2.695312e-01	2.695312e-01
161.795780	1.100074	dec_choice	1.100074	32.000000	n/a	16	2.695312e-01	2.695312e-01
161.795780	1.100074	dec_social_accept	1.100074	32.000000	n/a	16	1.195652e-01	1.195652e-01
161.795780	1.100074	dec_accept	1.100074	32.000000	n/a	16	1.250000e-01	1.250000e-01
161.795780	1.100074	dec_social_high	1.100074	32.000000	n/a	16	2.695312e-01	2.695312e-01
161.795780	1.100074	dec_social_accept_high	1.100074	32.000000	n/a	16	2.695312e-01	2.695312e-01
171.046780	1.248993	dec_social_choice	1.248993	16.000000	n/a	8	2.695312e-01	2.695312e-01
171.046780	1.248993	dec_choice	1.248993	16.000000	n/a	8	2.695312e-01	2.695312e-01
171.046780	1.248993	dec_social_accept	1.248993	16.000000	n/a	8	1.195652e-01	1.195652e-01
171.046780	1.248993	dec_accept	1.248993	16.000000	n/a	8	1.250000e-01	1.250000e-01
171.046780	1.248993	dec_social_high	1.248993	16.000000	n/a	8	2.695312e-01	2.695312e-01
171.046780	1.248993	dec_social_accept_high	1.248993	16.000000	n/a	8	2.695312e-01	2.695312e-01
177.879710	1.215538	dec_nonsocial_choice	1.215538	32.000000	n/a	0	0	-2.304688e-01
177.879710	1.215538	dec_choice	1.215538	32.000000	n/a	0	0	-2.304688e-01
177.879710	1.215538	dec_nonsocial_reject	1.215538	32.000000	n/a	0	0	-3.000000e-02
177.879710	1.215538	dec_reject	1.215538	32.000000	n/a	0	0	-3.605769e-02
177.879710	1.215538	dec_nonsocial_low	1.215538	32.000000	n/a	0	-2.304688e-01	-2.304688e-01
177.879710	1.215538	dec_nonsocial_reject_low	1.215538	32.000000	n/a	2	-3.605769e-02	-9.855769e-02
188.762680	1.283264	dec_nonsocial_choice	1.283264	32.000000	n/a	16	2.695312e-01	2.695312e-01
188.762680	1.283264	dec_choice	1.283264	32.000000	n/a	16	2.695312e-01	2.695312e-01
188.762680	1.283264	dec_nonsocial_accept	1.283264	32.000000	n/a	16	1.195652e-01	1.195652e-01
188.762680	1.283264	dec_accept	1.283264	32.000000	n/a	16	1.136364e-01	1.136364e-01
188.762680	1.283264	dec_nonsocial_accept_high	1.283264	32.000000	n/a	16	1.250000e-01	1.250000e-01
196.413990	1.164791	dec_social_choice	1.164791	16.000000	n/a	0	0	-2.304688e-01
196.413990	1.164791	dec_choice	1.164791	16.000000	n/a	0	0	-2.304688e-01
196.413990	1.164791	dec_social_reject	1.164791	16.000000	n/a	0	0	-3.000000e-02
196.413990	1.164791	dec_reject	1.164791	16.000000	n/a	0	0	-2.343750e-02
196.413990	1.164791	dec_social_reject_low	1.164791	16.000000	n/a	1	-1.679688e-01	-2.304688e-01
203.245990	1.733110	dec_nonsocial_choice	1.733110	16.000000	n/a	8	2.695312e-01	2.695312e-01
203.245990	1.733110	dec_choice	1.733110	16.000000	n/a	8	2.695312e-01	2.695312e-01
203.245990	1.733110	dec_nonsocial_accept	1.733110	16.000000	n/a	8	1.195652e-01	1.195652e-01
203.245990	1.733110	dec_accept	1.733110	16.000000	n/a	8	1.136364e-01	1.136364e-01
203.245990	1.733110	dec_nonsocial_accept_high	1.733110	16.000000	n/a	8	1.250000e-01	1.250000e-01
210.079330	0.916038	dec_social_choice	0.916038	32.000000	n/a	16	2.695312e-01	2.695312e-01
210.079330	0.916038	dec_choice	0.916038	32.000000	n/a	16	2.695312e-01	2.695312e-01
210.079330	0.916038	dec_social_accept	0.916038	32.000000	n/a	16	1.195652e-01	1.195652e-01
210.079330	0.916038	dec_accept	0.916038	32.000000	n/a	16	1.250000e-01	1.250000e-01
210.079330	0.916038	dec_social_accept_high	0.916038	32.000000	n/a	16	2.695312e-01	2.695312e-01
216.911760	1.034315	dec_nonsocial_choice	1.034315	16.000000	n/a	0	0	-2.304688e-01
216.911760	1.034315	dec_choice	1.034315	16.000000	n/a	0	0	-2.304688e-01
216.911760	1.034315	dec_nonsocial_reject	1.034315	16.000000	n/a	0	0	-3.000000e-02
216.911760	1.034315	dec_reject	1.034315	16.000000	n/a	0	0	-3.605769e-02
216.911760	1.034315	dec_nonsocial_reject_low	1.034315	16.000000	n/a	1	-2.343750e-02	-8.593750e-02
223.745570	1.666543	dec_nonsocial_choice	1.666543	16.000000	n/a	4	1.953125e-02	1.953125e-02
223.745570	1.666543	dec_choice	1.666543	16.000000	n/a	4	1.953125e-02	1.953125e-02
223.745570	1.666543	dec_nonsocial_accept	1.666543	16.000000	n/a	4	-1.304348e-01	-1.304348e-01
223.745570	1.666543	dec_accept	1.666543	16.000000	n/a	4	-1.363636e-01	-1.363636e-01
223.745570	1.666543	dec_nonsocial_high	1.666543	16.000000	n/a	4	1.953125e-02	1.953125e-02
223.745570	1.666543	dec_nonsocial_accept_high	1.666543	16.000000	n/a	4	-1.363636e-01	-1.363636e-01
232.995820	1.116280	dec_nonsocial_choice	1.116280	32.000000	n/a	16	2.695312e-01	2.695312e-01
232.995820	1.116280	dec_choice	1.116280	32.000000	n/a	16	2.695312e-01	2.695312e-01
232.995820	1.116280	dec_nonsocial_accept	1.116280	32.000000	n/a	16	1.195652e-01	1.195652e-01
232.995820	1.116280	dec_accept	1.116280	32.000000	n/a	16	1.136364e-01	1.136364e-01
232.995820	1.116280	dec_nonsocial_accept_high	1.116280	32.000000	n/a	16	1.250000e-01	1.250000e-01
239.829150	1.000048	dec_nonsocial_choice	1.000048	32.000000	n/a	16	2.695312e-01	2.695312e-01
239.829150	1.000048	dec_choice	1.000048	32.000000	n/a	16	2.695312e-01	2.695312e-01
239.829150	1.000048	dec_nonsocial_accept	1.000048	32.000000	n/a	16	1.195652e-01	1.195652e-01
239.829150	1.000048	dec_accept	1.000048	32.000000	n/a	16	1.136364e-01	1.136364e-01
239.829150	1.000048	dec_nonsocial_accept_high	1.000048	32.000000	n/a	16	1.250000e-01	1.250000e-01
247.479700	1.115642	dec_nonsocial_choice	1.115642	32.000000	n/a	0	0	-2.304688e-01
247.479700	1.115642	dec_choice	1.115642	32.000000	n/a	0	0	-2.304688e-01
247.479700	1.115642	dec_nonsocial_reject	1.115642	32.000000	n/a	0	0	1.250000e-03
247.479700	1.115642	dec_reject	1.115642	32.000000	n/a	0	0	-4.807692e-03
247.479700	1.115642	dec_nonsocial_low	1.115642	32.000000	n/a	0	-2.304688e-01	-2.304688e-01
247.479700	1.115642	dec_nonsocial_reject_low	1.115642	32.000000	n/a	3	-4.807692e-03	-9.855769e-02
256.728240	1.317127	dec_nonsocial_choice	1.317127	32.000000	n/a	0	0	-2.304688e-01
256.728240	1.317127	dec_choice	1.317127	32.000000	n/a	0	0	-2.304688e-01
256.728240	1.317127	dec_nonsocial_reject	1.317127	32.000000	n/a	0	0	-3.000000e-02
256.728240	1.317127	dec_reject	1.317127	32.000000	n/a	0	0	-3.605769e-02
256.728240	1.317127	dec_nonsocial_low	1.317127	32.000000	n/a	0	-2.304688e-01	-2.304688e-01
256.728240	1.317127	dec_nonsocial_reject_low	1.317127	32.000000	n/a	2	-3.605769e-02	-9.855769e-02
263.562040	1.183577	dec_nonsocial_choice	1.183577	32.000000	n/a	0	0	-2.304688e-01
263.562040	1.183577	dec_choice	1.183577	32.000000	n/a	0	0	-2.304688e-01
263.562040	1.183577	dec_nonsocial_reject	1.183577	32.000000	n/a	0	0	-3.000000e-02
263.562040	1.183577	dec_reject	1.183577	32.000000	n/a	0	0	-3.605769e-02
263.562040	1.183577	dec_nonsocial_reject_low	1.183577	32.000000	n/a	2	-2.343750e-02	-8.593750e-02
270.395540	1.166329	dec_social_choice	1.166329	16.000000	n/a	4	1.953125e-02	1.953125e-02
270.395540	1.166329	dec_choice	1.166329	16.000000	n/a	4	1.953125e-02	1.953125e-02
270.395540	1.166329	dec_social_accept	1.166329	16.000000	n/a	4	-1.304348e-01	-1.304348e-01
270.395540	1.166329	dec_accept	1.166329	16.000000	n/a	4	-1.250000e-01	-1.250000e-01
270.395540	1.166329	dec_social_high	1.166329	16.000000	n/a	4	1.953125e-02	1.953125e-02
270.395540	1.166329	dec_social_accept_high	1.166329	16.000000	n/a	4	1.953125e-02	1.953125e-02
277.229200	1.249927	dec_nonsocial_choice	1.249927	32.000000	n/a	0	0	-2.304688e-01
277.229200	1.249927	dec_choice	1.249927	32.000000	n/a	0	0	-2.304688e-01
277.229200	1.249927	dec_nonsocial_reject	1.249927	32.000000	n/a	0	0	1.250000e-03
277.229200	1.249927	dec_reject	1.249927	32.000000	n/a	0	0	-4.807692e-03
277.229200	1.249927	dec_nonsocial_low	1.249927	32.000000	n/a	0	-2.304688e-01	-2.304688e-01
277.229200	1.249927	dec_nonsocial_reject_low	1.249927	32.000000	n/a	3	-4.807692e-03	-9.855769e-02
284.063100	1.265397	dec_social_choice	1.265397	16.000000	n/a	4	1.953125e-02	1.953125e-02
284.063100	1.265397	dec_choice	1.265397	16.000000	n/a	4	1.953125e-02	1.953125e-02
284.063100	1.265397	dec_social_accept	1.265397	16.000000	n/a	4	-1.304348e-01	-1.304348e-01
284.063100	1.265397	dec_accept	1.265397	16.000000	n/a	4	-1.250000e-01	-1.250000e-01
284.063100	1.265397	dec_social_high	1.265397	16.000000	n/a	4	1.953125e-02	1.953125e-02
284.063100	1.265397	dec_social_accept_high	1.265397	16.000000	n/a	4	1.953125e-02	1.953125e-02
293.328740	2.066568	dec_social_choice	2.066568	32.000000	n/a	8	1.953125e-02	1.953125e-02
293.328740	2.066568	dec_choice	2.066568	32.000000	n/a	8	1.953125e-02	1.953125e-02
293.328740	2.066568	dec_social_accept	2.066568	32.000000	n/a	8	-1.304348e-01	-1.304348e-01
293.328740	2.066568	dec_accept	2.066568	32.000000	n/a	8	-1.250000e-01	-1.250000e-01
293.328740	2.066568	dec_social_high	2.066568	32.000000	n/a	8	1.953125e-02	1.953125e-02
293.328740	2.066568	dec_social_accept_high	2.066568	32.000000	n/a	8	1.953125e-02	1.953125e-02
300.961980	1.166581	dec_social_choice	1.166581	32.000000	n/a	0	0	-2.304688e-01
300.961980	1.166581	dec_choice	1.166581	32.000000	n/a	0	0	-2.304688e-01
300.961980	1.166581	dec_social_reject	1.166581	32.000000	n/a	0	0	1.250000e-03
300.961980	1.166581	dec_reject	1.166581	32.000000	n/a	0	0	7.812500e-03
300.961980	1.166581	dec_social_low	1.166581	32.000000	n/a	0	-2.304688e-01	-2.304688e-01
300.961980	1.166581	dec_social_reject_low	1.166581	32.000000	n/a	3	-1.367188e-01	-2.304688e-01
307.795960	1.199806	dec_social_choice	1.199806	16.000000	n/a	0	0	-2.304688e-01
307.795960	1.199806	dec_choice	1.199806	16.000000	n/a	0	0	-2.304688e-01
307.795960	1.199806	dec_social_reject	1.199806	16.000000	n/a	0	0	3.250000e-02
307.795960	1.199806	dec_reject	1.199806	16.000000	n/a	0	0	3.906250e-02
307.795960	1.199806	dec_social_reject_low	1.199806	16.000000	n/a	2	-1.054688e-01	-2.304688e-01
314.628970	1.183488	dec_nonsocial_choice	1.183488	32.000000	n/a	8	1.953125e-02	1.953125e-02
314.628970	1.183488	dec_choice	1.183488	32.000000	n/a	8	1.953125e-02	1.953125e-02
314.628970	1.183488	dec_nonsocial_accept	1.183488	32.000000	n/a	8	-1.304348e-01	-1.304348e-01
314.628970	1.183488	dec_accept	1.183488	32.000000	n/a	8	-1.363636e-01	-1.363636e-01
314.628970	1.183488	dec_nonsocial_accept_high	1.183488	32.000000	n/a	8	-1.250000e-01	-1.250000e-01
327.112000	1.050572	dec_nonsocial_choice	1.050572	16.000000	n/a	4	1.953125e-02	1.953125e-02
327.112000	1.050572	dec_choice	1.050572	16.000000	n/a	4	1.953125e-02	1.953125e-02
327.112000	1.050572	dec_nonsocial_accept	1.050572	16.000000	n/a	4	-1.304348e-01	-1.304348e-01
327.112000	1.050572	dec_accept	1.050572	16.000000	n/a	4	-1.363636e-01	-1.363636e-01
327.112000	1.050572	dec_nonsocial_high	1.050572	16.000000	n/a	4	1.953125e-02	1.953125e-02
327.112000	1.050572	dec_nonsocial_accept_high	1.050572	16.000000	n/a	4	-1.363636e-01	-1.363636e-01
333.945830	1.149771	dec_social_choice	1.149771	16.000000	n/a	0	0	-2.304688e-01
333.945830	1.149771	dec_choice	1.149771	16.000000	n/a	0	0	-2.304688e-01
333.945830	1.149771	dec_social_reject	1.149771	16.000000	n/a	0	0	-3.000000e-02
333.945830	1.149771	dec_reject	1.149771	16.000000	n/a	0	0	-2.343750e-02
333.945830	1.149771	dec_social_low	1.149771	16.000000	n/a	0	-2.304688e-01	-2.304688e-01
333.945830	1.149771	dec_social_reject_low	1.149771	16.000000	n/a	1	-1.679688e-01	-2.304688e-01
341.596130	1.682773	dec_social_choice	1.682773	32.000000	n/a	16	2.695312e-01	2.695312e-01
341.596130	1.682773	dec_choice	1.682773	32.000000	n/a	16	2.695312e-01	2.695312e-01
341.596130	1.682773	dec_social_accept	1.682773	32.000000	n/a	16	1.195652e-01	1.195652e-01
341.596130	1.682773	dec_accept	1.682773	32.000000	n/a	16	1.250000e-01	1.250000e-01
341.596130	1.682773	dec_social_accept_high	1.682773	32.000000	n/a	16	2.695312e-01	2.695312e-01
348.428680	1.000079	dec_nonsocial_choice	1.000079	32.000000	n/a	16	2.695312e-01	2.695312e-01
348.428680	1.000079	dec_choice	1.000079	32.000000	n/a	16	2.695312e-01	2.695312e-01
348.428680	1.000079	dec_nonsocial_accept	1.000079	32.000000	n/a	16	1.195652e-01	1.195652e-01
348.428680	1.000079	dec_accept	1.000079	32.000000	n/a	16	1.136364e-01	1.136364e-01
348.428680	1.000079	dec_nonsocial_accept_high	1.000079	32.000000	n/a	16	1.250000e-01	1.250000e-01
356.078830	1.283487	dec_social_choice	1.283487	32.000000	n/a	0	0	-2.304688e-01
356.078830	1.283487	dec_choice	1.283487	32.000000	n/a	0	0	-2.304688e-01
356.078830	1.283487	dec_social_reject	1.283487	32.000000	n/a	0	0	1.250000e-03
356.078830	1.283487	dec_reject	1.283487	32.000000	n/a	0	0	7.812500e-03
356.078830	1.283487	dec_social_reject_low	1.283487	32.000000	n/a	3	-1.367188e-01	-2.304688e-01
362.912050	1.016426	dec_social_choice	1.016426	32.000000	n/a	0	0	-2.304688e-01
362.912050	1.016426	dec_choice	1.016426	32.000000	n/a	0	0	-2.304688e-01
362.912050	1.016426	dec_social_reject	1.016426	32.000000	n/a	0	0	-3.000000e-02
362.912050	1.016426	dec_reject	1.016426	32.000000	n/a	0	0	-2.343750e-02
362.912050	1.016426	dec_social_reject_low	1.016426	32.000000	n/a	2	-1.679688e-01	-2.304688e-01
370.563000	0.849283	dec_nonsocial_choice	0.849283	16.000000	n/a	0	0	-2.304688e-01
370.563000	0.849283	dec_choice	0.849283	16.000000	n/a	0	0	-2.304688e-01
370.563000	0.849283	dec_nonsocial_reject	0.849283	16.000000	n/a	0	0	3.250000e-02
370.563000	0.849283	dec_reject	0.849283	16.000000	n/a	0	0	2.644231e-02
370.563000	0.849283	dec_nonsocial_reject_low	0.849283	16.000000	n/a	2	3.906250e-02	-8.593750e-02
