onset	duration	trial_type	response_time	Endowment	Endowment_pmod	Decision	Decision_pmod	Offer_pmod
4.562613	2	cue_social	n/a	16	-2	n/a	n/a	n/a
4.562613	2	cue_social_low	n/a	16	-5	n/a	n/a	n/a
11.388849	2	cue_social	n/a	16	-2	n/a	n/a	n/a
11.388849	2	cue_social_low	n/a	16	-5	n/a	n/a	n/a
18.172232	2	cue_nonsocial	n/a	32	11	n/a	n/a	n/a
18.172232	2	cue_nonsocial_high	n/a	32	14	n/a	n/a	n/a
25.005844	2	cue_nonsocial	n/a	16	-5	n/a	n/a	n/a
25.005844	2	cue_nonsocial_low	n/a	16	-2	n/a	n/a	n/a
37.536797	2	cue_social	n/a	16	-2	n/a	n/a	n/a
37.536797	2	cue_social_low	n/a	16	-5	n/a	n/a	n/a
45.175330	2	cue_social	n/a	16	-2	n/a	n/a	n/a
45.175330	2	cue_social_low	n/a	16	-5	n/a	n/a	n/a
52.062180	2	cue_social	n/a	16	-2	n/a	n/a	n/a
52.062180	2	cue_social_low	n/a	16	-5	n/a	n/a	n/a
58.881960	2	cue_social	n/a	16	-2	n/a	n/a	n/a
58.881960	2	cue_social_low	n/a	16	-5	n/a	n/a	n/a
65.638664	2	cue_nonsocial	n/a	32	11	n/a	n/a	n/a
65.638664	2	cue_nonsocial_high	n/a	32	14	n/a	n/a	n/a
72.472330	2	cue_nonsocial	n/a	16	-5	n/a	n/a	n/a
72.472330	2	cue_nonsocial_low	n/a	16	-2	n/a	n/a	n/a
79.347374	2	cue_social	n/a	32	14	n/a	n/a	n/a
79.347374	2	cue_social_high	n/a	32	11	n/a	n/a	n/a
86.997160	2	cue_social	n/a	16	-2	n/a	n/a	n/a
86.997160	2	cue_social_low	n/a	16	-5	n/a	n/a	n/a
96.205320	2	cue_nonsocial	n/a	16	-5	n/a	n/a	n/a
96.205320	2	cue_nonsocial_low	n/a	16	-2	n/a	n/a	n/a
103.855850	2	cue_nonsocial	n/a	16	-5	n/a	n/a	n/a
103.855850	2	cue_nonsocial_low	n/a	16	-2	n/a	n/a	n/a
111.542500	2	cue_social	n/a	16	-2	n/a	n/a	n/a
111.542500	2	cue_social_low	n/a	16	-5	n/a	n/a	n/a
119.192200	2	cue_social	n/a	16	-2	n/a	n/a	n/a
119.192200	2	cue_social_low	n/a	16	-5	n/a	n/a	n/a
126.836490	2	cue_social	n/a	16	-2	n/a	n/a	n/a
126.836490	2	cue_social_low	n/a	16	-5	n/a	n/a	n/a
134.438770	2	cue_nonsocial	n/a	16	-5	n/a	n/a	n/a
134.438770	2	cue_nonsocial_low	n/a	16	-2	n/a	n/a	n/a
141.271820	2	cue_nonsocial	n/a	32	11	n/a	n/a	n/a
141.271820	2	cue_nonsocial_high	n/a	32	14	n/a	n/a	n/a
150.587340	2	cue_social	n/a	32	14	n/a	n/a	n/a
150.587340	2	cue_social_high	n/a	32	11	n/a	n/a	n/a
157.441450	2	cue_social	n/a	16	-2	n/a	n/a	n/a
157.441450	2	cue_social_low	n/a	16	-5	n/a	n/a	n/a
168.293120	2	cue_social	n/a	16	-2	n/a	n/a	n/a
168.293120	2	cue_social_low	n/a	16	-5	n/a	n/a	n/a
177.545970	2	cue_social	n/a	16	-2	n/a	n/a	n/a
177.545970	2	cue_social_low	n/a	16	-5	n/a	n/a	n/a
188.376160	2	cue_nonsocial	n/a	16	-5	n/a	n/a	n/a
188.376160	2	cue_nonsocial_low	n/a	16	-2	n/a	n/a	n/a
196.067760	2	cue_social	n/a	16	-2	n/a	n/a	n/a
196.067760	2	cue_social_low	n/a	16	-5	n/a	n/a	n/a
202.838710	2	cue_nonsocial	n/a	16	-5	n/a	n/a	n/a
202.838710	2	cue_nonsocial_low	n/a	16	-2	n/a	n/a	n/a
210.565700	2	cue_social	n/a	16	-2	n/a	n/a	n/a
210.565700	2	cue_social_low	n/a	16	-5	n/a	n/a	n/a
219.738360	2	cue_nonsocial	n/a	32	11	n/a	n/a	n/a
219.738360	2	cue_nonsocial_high	n/a	32	14	n/a	n/a	n/a
226.572540	2	cue_nonsocial	n/a	32	11	n/a	n/a	n/a
226.572540	2	cue_nonsocial_high	n/a	32	14	n/a	n/a	n/a
233.457200	2	cue_social	n/a	32	14	n/a	n/a	n/a
233.457200	2	cue_social_high	n/a	32	11	n/a	n/a	n/a
240.238630	2	cue_nonsocial	n/a	16	-5	n/a	n/a	n/a
240.238630	2	cue_nonsocial_low	n/a	16	-2	n/a	n/a	n/a
249.580020	2	cue_social	n/a	16	-2	n/a	n/a	n/a
249.580020	2	cue_social_low	n/a	16	-5	n/a	n/a	n/a
256.321600	2	cue_nonsocial	n/a	32	11	n/a	n/a	n/a
256.321600	2	cue_nonsocial_high	n/a	32	14	n/a	n/a	n/a
265.571870	2	cue_nonsocial	n/a	16	-5	n/a	n/a	n/a
265.571870	2	cue_nonsocial_low	n/a	16	-2	n/a	n/a	n/a
272.493870	2	cue_social	n/a	16	-2	n/a	n/a	n/a
272.493870	2	cue_social_low	n/a	16	-5	n/a	n/a	n/a
279.298400	2	cue_social	n/a	16	-2	n/a	n/a	n/a
279.298400	2	cue_social_low	n/a	16	-5	n/a	n/a	n/a
286.071800	2	cue_nonsocial	n/a	16	-5	n/a	n/a	n/a
286.071800	2	cue_nonsocial_low	n/a	16	-2	n/a	n/a	n/a
293.002380	2	cue_social	n/a	16	-2	n/a	n/a	n/a
293.002380	2	cue_social_low	n/a	16	-5	n/a	n/a	n/a
300.554800	2	cue_nonsocial	n/a	32	11	n/a	n/a	n/a
300.554800	2	cue_nonsocial_high	n/a	32	14	n/a	n/a	n/a
307.388000	2	cue_nonsocial	n/a	16	-5	n/a	n/a	n/a
307.388000	2	cue_nonsocial_low	n/a	16	-2	n/a	n/a	n/a
314.221340	2	cue_nonsocial	n/a	16	-5	n/a	n/a	n/a
314.221340	2	cue_nonsocial_low	n/a	16	-2	n/a	n/a	n/a
325.087980	2	cue_nonsocial	n/a	16	-5	n/a	n/a	n/a
325.087980	2	cue_nonsocial_low	n/a	16	-2	n/a	n/a	n/a
331.921720	2	cue_nonsocial	n/a	16	-5	n/a	n/a	n/a
331.921720	2	cue_nonsocial_low	n/a	16	-2	n/a	n/a	n/a
339.571440	2	cue_nonsocial	n/a	16	-5	n/a	n/a	n/a
339.571440	2	cue_nonsocial_low	n/a	16	-2	n/a	n/a	n/a
347.270480	2	cue_social	n/a	16	-2	n/a	n/a	n/a
347.270480	2	cue_social_low	n/a	16	-5	n/a	n/a	n/a
354.871600	2	cue_nonsocial	n/a	16	-5	n/a	n/a	n/a
354.871600	2	cue_nonsocial_low	n/a	16	-2	n/a	n/a	n/a
361.753940	2	cue_social	n/a	16	-2	n/a	n/a	n/a
361.753940	2	cue_social_low	n/a	16	-5	n/a	n/a	n/a
370.971740	2	cue_nonsocial	n/a	16	-5	n/a	n/a	n/a
370.971740	2	cue_nonsocial_low	n/a	16	-2	n/a	n/a	n/a
6.512042	0.866365	dec_social_choice	0.866365	16.000000	n/a	8	2.669271e-01	2.669271e-01
6.512042	0.866365	dec_choice	0.866365	16.000000	n/a	8	2.682292e-01	2.682292e-01
6.512042	0.866365	dec_social_accept	0.866365	16.000000	n/a	8	2.187500e-01	2.187500e-01
6.512042	0.866365	dec_accept	0.866365	16.000000	n/a	8	1.250000e-01	1.250000e-01
6.512042	0.866365	dec_social_high	0.866365	16.000000	n/a	8	2.682292e-01	2.682292e-01
6.512042	0.866365	dec_social_accept_high	0.866365	16.000000	n/a	8	2.682292e-01	2.682292e-01
13.346362	1.182696	dec_social_choice	1.182696	16.000000	n/a	0	0	-2.330729e-01
13.346362	1.182696	dec_choice	1.182696	16.000000	n/a	0	0	-2.317708e-01
13.346362	1.182696	dec_social_reject	1.182696	16.000000	n/a	0	0	-1.923077e-02
13.346362	1.182696	dec_reject	1.182696	16.000000	n/a	0	0	-2.604167e-02
13.346362	1.182696	dec_social_low	1.182696	16.000000	n/a	0	-2.317708e-01	-2.317708e-01
13.346362	1.182696	dec_social_reject_low	1.182696	16.000000	n/a	1	-1.692708e-01	-2.317708e-01
20.178617	0.966301	dec_nonsocial_choice	0.966301	32.000000	n/a	8	1.692708e-02	1.692708e-02
20.178617	0.966301	dec_choice	0.966301	32.000000	n/a	8	1.562500e-02	1.562500e-02
20.178617	0.966301	dec_nonsocial_accept	0.966301	32.000000	n/a	8	-3.125000e-02	-3.125000e-02
20.178617	0.966301	dec_accept	0.966301	32.000000	n/a	8	1.562500e-02	1.562500e-02
20.178617	0.966301	dec_nonsocial_accept_high	0.966301	32.000000	n/a	8	-1.250000e-01	-1.250000e-01
27.011944	0.899949	dec_nonsocial_choice	0.899949	16.000000	n/a	2	-1.080729e-01	-1.080729e-01
27.011944	0.899949	dec_choice	0.899949	16.000000	n/a	2	-1.093750e-01	-1.093750e-01
27.011944	0.899949	dec_nonsocial_accept	0.899949	16.000000	n/a	2	-1.562500e-01	-1.562500e-01
27.011944	0.899949	dec_accept	0.899949	16.000000	n/a	2	-1.093750e-01	-1.093750e-01
27.011944	0.899949	dec_nonsocial_low	0.899949	16.000000	n/a	2	-1.093750e-01	-1.093750e-01
27.011944	0.899949	dec_nonsocial_accept_low	0.899949	16.000000	n/a	2	-1.093750e-01	-1.093750e-01
39.496193	1.098903	dec_social_choice	1.098903	16.000000	n/a	4	1.692708e-02	1.692708e-02
39.496193	1.098903	dec_choice	1.098903	16.000000	n/a	4	1.822917e-02	1.822917e-02
39.496193	1.098903	dec_social_accept	1.098903	16.000000	n/a	4	-3.125000e-02	-3.125000e-02
39.496193	1.098903	dec_accept	1.098903	16.000000	n/a	4	-1.250000e-01	-1.250000e-01
39.496193	1.098903	dec_social_accept_high	1.098903	16.000000	n/a	4	1.822917e-02	1.822917e-02
47.144947	0.967229	dec_social_choice	0.967229	16.000000	n/a	4	1.692708e-02	1.692708e-02
47.144947	0.967229	dec_choice	0.967229	16.000000	n/a	4	1.822917e-02	1.822917e-02
47.144947	0.967229	dec_social_accept	0.967229	16.000000	n/a	4	-3.125000e-02	-3.125000e-02
47.144947	0.967229	dec_accept	0.967229	16.000000	n/a	4	-1.250000e-01	-1.250000e-01
47.144947	0.967229	dec_social_accept_high	0.967229	16.000000	n/a	4	1.822917e-02	1.822917e-02
53.978610	0.916217	dec_social_choice	0.916217	16.000000	n/a	8	2.669271e-01	2.669271e-01
53.978610	0.916217	dec_choice	0.916217	16.000000	n/a	8	2.682292e-01	2.682292e-01
53.978610	0.916217	dec_social_accept	0.916217	16.000000	n/a	8	2.187500e-01	2.187500e-01
53.978610	0.916217	dec_accept	0.916217	16.000000	n/a	8	1.250000e-01	1.250000e-01
53.978610	0.916217	dec_social_accept_high	0.916217	16.000000	n/a	8	2.682292e-01	2.682292e-01
60.811604	0.866783	dec_social_choice	0.866783	16.000000	n/a	0	0	-2.330729e-01
60.811604	0.866783	dec_choice	0.866783	16.000000	n/a	0	0	-2.317708e-01
60.811604	0.866783	dec_social_reject	0.866783	16.000000	n/a	0	0	-1.923077e-02
60.811604	0.866783	dec_reject	0.866783	16.000000	n/a	0	0	-2.604167e-02
60.811604	0.866783	dec_social_low	0.866783	16.000000	n/a	0	-2.317708e-01	-2.317708e-01
60.811604	0.866783	dec_social_reject_low	0.866783	16.000000	n/a	1	-1.692708e-01	-2.317708e-01
67.645920	1.033000	dec_nonsocial_choice	1.033000	32.000000	n/a	16	2.669271e-01	2.669271e-01
67.645920	1.033000	dec_choice	1.033000	32.000000	n/a	16	2.656250e-01	2.656250e-01
67.645920	1.033000	dec_nonsocial_accept	1.033000	32.000000	n/a	16	2.187500e-01	2.187500e-01
67.645920	1.033000	dec_accept	1.033000	32.000000	n/a	16	2.656250e-01	2.656250e-01
67.645920	1.033000	dec_nonsocial_accept_high	1.033000	32.000000	n/a	16	1.250000e-01	1.250000e-01
74.478806	0.783042	dec_nonsocial_choice	0.783042	16.000000	n/a	1	-1.705729e-01	-1.705729e-01
74.478806	0.783042	dec_choice	0.783042	16.000000	n/a	1	-1.718750e-01	-1.718750e-01
74.478806	0.783042	dec_nonsocial_accept	0.783042	16.000000	n/a	1	-2.187500e-01	-2.187500e-01
74.478806	0.783042	dec_accept	0.783042	16.000000	n/a	1	-1.718750e-01	-1.718750e-01
74.478806	0.783042	dec_nonsocial_low	0.783042	16.000000	n/a	1	-1.718750e-01	-1.718750e-01
74.478806	0.783042	dec_nonsocial_accept_low	0.783042	16.000000	n/a	1	-1.718750e-01	-1.718750e-01
81.311370	0.816798	dec_social_choice	0.816798	32.000000	n/a	0	0	-2.330729e-01
81.311370	0.816798	dec_choice	0.816798	32.000000	n/a	0	0	-2.317708e-01
81.311370	0.816798	dec_social_reject	0.816798	32.000000	n/a	0	0	1.201923e-02
81.311370	0.816798	dec_reject	0.816798	32.000000	n/a	0	0	5.208333e-03
81.311370	0.816798	dec_social_reject_low	0.816798	32.000000	n/a	3	-1.380208e-01	-2.317708e-01
88.962850	1.599282	dec_social_choice	1.599282	16.000000	n/a	0	0	-2.330729e-01
88.962850	1.599282	dec_choice	1.599282	16.000000	n/a	0	0	-2.317708e-01
88.962850	1.599282	dec_social_reject	1.599282	16.000000	n/a	0	0	-1.923077e-02
88.962850	1.599282	dec_reject	1.599282	16.000000	n/a	0	0	-2.604167e-02
88.962850	1.599282	dec_social_low	1.599282	16.000000	n/a	0	-2.317708e-01	-2.317708e-01
88.962850	1.599282	dec_social_reject_low	1.599282	16.000000	n/a	1	-1.692708e-01	-2.317708e-01
98.211870	0.933090	dec_nonsocial_choice	0.933090	16.000000	n/a	2	-1.080729e-01	-1.080729e-01
98.211870	0.933090	dec_choice	0.933090	16.000000	n/a	2	-1.093750e-01	-1.093750e-01
98.211870	0.933090	dec_nonsocial_accept	0.933090	16.000000	n/a	2	-1.562500e-01	-1.562500e-01
98.211870	0.933090	dec_accept	0.933090	16.000000	n/a	2	-1.093750e-01	-1.093750e-01
98.211870	0.933090	dec_nonsocial_low	0.933090	16.000000	n/a	2	-1.093750e-01	-1.093750e-01
98.211870	0.933090	dec_nonsocial_accept_low	0.933090	16.000000	n/a	2	-1.093750e-01	-1.093750e-01
105.861046	1.234323	dec_nonsocial_choice	1.234323	16.000000	n/a	1	-1.705729e-01	-1.705729e-01
105.861046	1.234323	dec_choice	1.234323	16.000000	n/a	1	-1.718750e-01	-1.718750e-01
105.861046	1.234323	dec_nonsocial_accept	1.234323	16.000000	n/a	1	-2.187500e-01	-2.187500e-01
105.861046	1.234323	dec_accept	1.234323	16.000000	n/a	1	-1.718750e-01	-1.718750e-01
105.861046	1.234323	dec_nonsocial_low	1.234323	16.000000	n/a	1	-1.718750e-01	-1.718750e-01
105.861046	1.234323	dec_nonsocial_accept_low	1.234323	16.000000	n/a	1	-1.718750e-01	-1.718750e-01
113.511826	1.333147	dec_social_choice	1.333147	16.000000	n/a	0	0	-2.330729e-01
113.511826	1.333147	dec_choice	1.333147	16.000000	n/a	0	0	-2.317708e-01
113.511826	1.333147	dec_social_reject	1.333147	16.000000	n/a	0	0	-1.923077e-02
113.511826	1.333147	dec_reject	1.333147	16.000000	n/a	0	0	-2.604167e-02
113.511826	1.333147	dec_social_low	1.333147	16.000000	n/a	0	-2.317708e-01	-2.317708e-01
113.511826	1.333147	dec_social_reject_low	1.333147	16.000000	n/a	1	-1.692708e-01	-2.317708e-01
121.145280	1.549546	dec_social_choice	1.549546	16.000000	n/a	4	1.692708e-02	1.692708e-02
121.145280	1.549546	dec_choice	1.549546	16.000000	n/a	4	1.822917e-02	1.822917e-02
121.145280	1.549546	dec_social_accept	1.549546	16.000000	n/a	4	-3.125000e-02	-3.125000e-02
121.145280	1.549546	dec_accept	1.549546	16.000000	n/a	4	-1.250000e-01	-1.250000e-01
121.145280	1.549546	dec_social_high	1.549546	16.000000	n/a	4	1.822917e-02	1.822917e-02
121.145280	1.549546	dec_social_accept_high	1.549546	16.000000	n/a	4	1.822917e-02	1.822917e-02
128.794560	1.434008	dec_social_choice	1.434008	16.000000	n/a	8	2.669271e-01	2.669271e-01
128.794560	1.434008	dec_choice	1.434008	16.000000	n/a	8	2.682292e-01	2.682292e-01
128.794560	1.434008	dec_social_accept	1.434008	16.000000	n/a	8	2.187500e-01	2.187500e-01
128.794560	1.434008	dec_accept	1.434008	16.000000	n/a	8	1.250000e-01	1.250000e-01
128.794560	1.434008	dec_social_high	1.434008	16.000000	n/a	8	2.682292e-01	2.682292e-01
128.794560	1.434008	dec_social_accept_high	1.434008	16.000000	n/a	8	2.682292e-01	2.682292e-01
136.444820	0.866495	dec_nonsocial_choice	0.866495	16.000000	n/a	1	-1.705729e-01	-1.705729e-01
136.444820	0.866495	dec_choice	0.866495	16.000000	n/a	1	-1.718750e-01	-1.718750e-01
136.444820	0.866495	dec_nonsocial_accept	0.866495	16.000000	n/a	1	-2.187500e-01	-2.187500e-01
136.444820	0.866495	dec_accept	0.866495	16.000000	n/a	1	-1.718750e-01	-1.718750e-01
136.444820	0.866495	dec_nonsocial_low	0.866495	16.000000	n/a	1	-1.718750e-01	-1.718750e-01
136.444820	0.866495	dec_nonsocial_accept_low	0.866495	16.000000	n/a	1	-1.718750e-01	-1.718750e-01
143.278840	0.915620	dec_nonsocial_choice	0.915620	32.000000	n/a	16	2.669271e-01	2.669271e-01
143.278840	0.915620	dec_choice	0.915620	32.000000	n/a	16	2.656250e-01	2.656250e-01
143.278840	0.915620	dec_nonsocial_accept	0.915620	32.000000	n/a	16	2.187500e-01	2.187500e-01
143.278840	0.915620	dec_accept	0.915620	32.000000	n/a	16	2.656250e-01	2.656250e-01
143.278840	0.915620	dec_nonsocial_high	0.915620	32.000000	n/a	16	2.656250e-01	2.656250e-01
143.278840	0.915620	dec_nonsocial_accept_high	0.915620	32.000000	n/a	16	2.656250e-01	2.656250e-01
152.544710	1.350244	dec_social_choice	1.350244	32.000000	n/a	8	1.692708e-02	1.692708e-02
152.544710	1.350244	dec_choice	1.350244	32.000000	n/a	8	1.822917e-02	1.822917e-02
152.544710	1.350244	dec_social_accept	1.350244	32.000000	n/a	8	-3.125000e-02	-3.125000e-02
152.544710	1.350244	dec_accept	1.350244	32.000000	n/a	8	-1.250000e-01	-1.250000e-01
152.544710	1.350244	dec_social_accept_high	1.350244	32.000000	n/a	8	1.822917e-02	1.822917e-02
159.377800	0.933672	dec_social_choice	0.933672	16.000000	n/a	0	0	-2.330729e-01
159.377800	0.933672	dec_choice	0.933672	16.000000	n/a	0	0	-2.317708e-01
159.377800	0.933672	dec_social_reject	0.933672	16.000000	n/a	0	0	-1.923077e-02
159.377800	0.933672	dec_reject	0.933672	16.000000	n/a	0	0	-2.604167e-02
159.377800	0.933672	dec_social_reject_low	0.933672	16.000000	n/a	1	-1.692708e-01	-2.317708e-01
170.244370	0.734025	dec_social_choice	0.734025	16.000000	n/a	0	0	-2.330729e-01
170.244370	0.734025	dec_choice	0.734025	16.000000	n/a	0	0	-2.317708e-01
170.244370	0.734025	dec_social_reject	0.734025	16.000000	n/a	0	0	-1.923077e-02
170.244370	0.734025	dec_reject	0.734025	16.000000	n/a	0	0	-2.604167e-02
170.244370	0.734025	dec_social_reject_low	0.734025	16.000000	n/a	1	-1.692708e-01	-2.317708e-01
179.495790	1.165183	dec_social_choice	1.165183	16.000000	n/a	8	2.669271e-01	2.669271e-01
179.495790	1.165183	dec_choice	1.165183	16.000000	n/a	8	2.682292e-01	2.682292e-01
179.495790	1.165183	dec_social_accept	1.165183	16.000000	n/a	8	2.187500e-01	2.187500e-01
179.495790	1.165183	dec_accept	1.165183	16.000000	n/a	8	1.250000e-01	1.250000e-01
179.495790	1.165183	dec_social_high	1.165183	16.000000	n/a	8	2.682292e-01	2.682292e-01
179.495790	1.165183	dec_social_accept_high	1.165183	16.000000	n/a	8	2.682292e-01	2.682292e-01
190.360870	0.851016	dec_nonsocial_choice	0.851016	16.000000	n/a	8	2.669271e-01	2.669271e-01
190.360870	0.851016	dec_choice	0.851016	16.000000	n/a	8	2.656250e-01	2.656250e-01
190.360870	0.851016	dec_nonsocial_accept	0.851016	16.000000	n/a	8	2.187500e-01	2.187500e-01
190.360870	0.851016	dec_accept	0.851016	16.000000	n/a	8	2.656250e-01	2.656250e-01
190.360870	0.851016	dec_nonsocial_high	0.851016	16.000000	n/a	8	2.656250e-01	2.656250e-01
190.360870	0.851016	dec_nonsocial_accept_high	0.851016	16.000000	n/a	8	2.656250e-01	2.656250e-01
198.011950	1.249629	dec_social_choice	1.249629	16.000000	n/a	0	0	-2.330729e-01
198.011950	1.249629	dec_choice	1.249629	16.000000	n/a	0	0	-2.317708e-01
198.011950	1.249629	dec_social_reject	1.249629	16.000000	n/a	0	0	4.326923e-02
198.011950	1.249629	dec_reject	1.249629	16.000000	n/a	0	0	3.645833e-02
198.011950	1.249629	dec_social_low	1.249629	16.000000	n/a	0	-2.317708e-01	-2.317708e-01
198.011950	1.249629	dec_social_reject_low	1.249629	16.000000	n/a	2	-1.067708e-01	-2.317708e-01
204.844770	0.883509	dec_nonsocial_choice	0.883509	16.000000	n/a	1	-1.705729e-01	-1.705729e-01
204.844770	0.883509	dec_choice	0.883509	16.000000	n/a	1	-1.718750e-01	-1.718750e-01
204.844770	0.883509	dec_nonsocial_accept	0.883509	16.000000	n/a	1	-2.187500e-01	-2.187500e-01
204.844770	0.883509	dec_accept	0.883509	16.000000	n/a	1	-1.718750e-01	-1.718750e-01
204.844770	0.883509	dec_nonsocial_accept_low	0.883509	16.000000	n/a	1	-3.125000e-01	-3.125000e-01
212.494800	0.983393	dec_social_choice	0.983393	16.000000	n/a	8	2.669271e-01	2.669271e-01
212.494800	0.983393	dec_choice	0.983393	16.000000	n/a	8	2.682292e-01	2.682292e-01
212.494800	0.983393	dec_social_accept	0.983393	16.000000	n/a	8	2.187500e-01	2.187500e-01
212.494800	0.983393	dec_accept	0.983393	16.000000	n/a	8	1.250000e-01	1.250000e-01
212.494800	0.983393	dec_social_high	0.983393	16.000000	n/a	8	2.682292e-01	2.682292e-01
212.494800	0.983393	dec_social_accept_high	0.983393	16.000000	n/a	8	2.682292e-01	2.682292e-01
221.744960	1.033162	dec_nonsocial_choice	1.033162	32.000000	n/a	8	1.692708e-02	1.692708e-02
221.744960	1.033162	dec_choice	1.033162	32.000000	n/a	8	1.562500e-02	1.562500e-02
221.744960	1.033162	dec_nonsocial_accept	1.033162	32.000000	n/a	8	-3.125000e-02	-3.125000e-02
221.744960	1.033162	dec_accept	1.033162	32.000000	n/a	8	1.562500e-02	1.562500e-02
221.744960	1.033162	dec_nonsocial_high	1.033162	32.000000	n/a	8	1.562500e-02	1.562500e-02
221.744960	1.033162	dec_nonsocial_accept_high	1.033162	32.000000	n/a	8	1.562500e-02	1.562500e-02
228.578860	1.332081	dec_nonsocial_choice	1.332081	32.000000	n/a	8	1.692708e-02	1.692708e-02
228.578860	1.332081	dec_choice	1.332081	32.000000	n/a	8	1.562500e-02	1.562500e-02
228.578860	1.332081	dec_nonsocial_accept	1.332081	32.000000	n/a	8	-3.125000e-02	-3.125000e-02
228.578860	1.332081	dec_accept	1.332081	32.000000	n/a	8	1.562500e-02	1.562500e-02
228.578860	1.332081	dec_nonsocial_accept_high	1.332081	32.000000	n/a	8	-1.250000e-01	-1.250000e-01
235.411620	1.033119	dec_social_choice	1.033119	32.000000	n/a	0	0	-2.330729e-01
235.411620	1.033119	dec_choice	1.033119	32.000000	n/a	0	0	-2.317708e-01
235.411620	1.033119	dec_social_reject	1.033119	32.000000	n/a	0	0	1.201923e-02
235.411620	1.033119	dec_reject	1.033119	32.000000	n/a	0	0	5.208333e-03
235.411620	1.033119	dec_social_low	1.033119	32.000000	n/a	0	-2.317708e-01	-2.317708e-01
235.411620	1.033119	dec_social_reject_low	1.033119	32.000000	n/a	3	-1.380208e-01	-2.317708e-01
242.244770	0.783224	dec_nonsocial_choice	0.783224	16.000000	n/a	8	2.669271e-01	2.669271e-01
242.244770	0.783224	dec_choice	0.783224	16.000000	n/a	8	2.656250e-01	2.656250e-01
242.244770	0.783224	dec_nonsocial_accept	0.783224	16.000000	n/a	8	2.187500e-01	2.187500e-01
242.244770	0.783224	dec_accept	0.783224	16.000000	n/a	8	2.656250e-01	2.656250e-01
242.244770	0.783224	dec_nonsocial_accept_high	0.783224	16.000000	n/a	8	1.250000e-01	1.250000e-01
251.495770	1.165942	dec_social_choice	1.165942	16.000000	n/a	4	1.692708e-02	1.692708e-02
251.495770	1.165942	dec_choice	1.165942	16.000000	n/a	4	1.822917e-02	1.822917e-02
251.495770	1.165942	dec_social_accept	1.165942	16.000000	n/a	4	-3.125000e-02	-3.125000e-02
251.495770	1.165942	dec_accept	1.165942	16.000000	n/a	4	-1.250000e-01	-1.250000e-01
251.495770	1.165942	dec_social_high	1.165942	16.000000	n/a	4	1.822917e-02	1.822917e-02
251.495770	1.165942	dec_social_accept_high	1.165942	16.000000	n/a	4	1.822917e-02	1.822917e-02
258.328250	0.983666	dec_nonsocial_choice	0.983666	32.000000	n/a	8	1.692708e-02	1.692708e-02
258.328250	0.983666	dec_choice	0.983666	32.000000	n/a	8	1.562500e-02	1.562500e-02
258.328250	0.983666	dec_nonsocial_accept	0.983666	32.000000	n/a	8	-3.125000e-02	-3.125000e-02
258.328250	0.983666	dec_accept	0.983666	32.000000	n/a	8	1.562500e-02	1.562500e-02
258.328250	0.983666	dec_nonsocial_high	0.983666	32.000000	n/a	8	1.562500e-02	1.562500e-02
258.328250	0.983666	dec_nonsocial_accept_high	0.983666	32.000000	n/a	8	1.562500e-02	1.562500e-02
267.578860	0.832307	dec_nonsocial_choice	0.832307	16.000000	n/a	1	-1.705729e-01	-1.705729e-01
267.578860	0.832307	dec_choice	0.832307	16.000000	n/a	1	-1.718750e-01	-1.718750e-01
267.578860	0.832307	dec_nonsocial_accept	0.832307	16.000000	n/a	1	-2.187500e-01	-2.187500e-01
267.578860	0.832307	dec_accept	0.832307	16.000000	n/a	1	-1.718750e-01	-1.718750e-01
267.578860	0.832307	dec_nonsocial_low	0.832307	16.000000	n/a	1	-1.718750e-01	-1.718750e-01
267.578860	0.832307	dec_nonsocial_accept_low	0.832307	16.000000	n/a	1	-1.718750e-01	-1.718750e-01
274.411560	1.016033	dec_social_choice	1.016033	16.000000	n/a	0	0	-2.330729e-01
274.411560	1.016033	dec_choice	1.016033	16.000000	n/a	0	0	-2.317708e-01
274.411560	1.016033	dec_social_reject	1.016033	16.000000	n/a	0	0	4.326923e-02
274.411560	1.016033	dec_reject	1.016033	16.000000	n/a	0	0	3.645833e-02
274.411560	1.016033	dec_social_reject_low	1.016033	16.000000	n/a	2	-1.067708e-01	-2.317708e-01
281.244570	0.983315	dec_social_choice	0.983315	16.000000	n/a	0	0	-2.330729e-01
281.244570	0.983315	dec_choice	0.983315	16.000000	n/a	0	0	-2.317708e-01
281.244570	0.983315	dec_social_reject	0.983315	16.000000	n/a	0	0	4.326923e-02
281.244570	0.983315	dec_reject	0.983315	16.000000	n/a	0	0	3.645833e-02
281.244570	0.983315	dec_social_low	0.983315	16.000000	n/a	0	-2.317708e-01	-2.317708e-01
281.244570	0.983315	dec_social_reject_low	0.983315	16.000000	n/a	2	-1.067708e-01	-2.317708e-01
288.078520	0.915580	dec_nonsocial_choice	0.915580	16.000000	n/a	8	2.669271e-01	2.669271e-01
288.078520	0.915580	dec_choice	0.915580	16.000000	n/a	8	2.656250e-01	2.656250e-01
288.078520	0.915580	dec_nonsocial_accept	0.915580	16.000000	n/a	8	2.187500e-01	2.187500e-01
288.078520	0.915580	dec_accept	0.915580	16.000000	n/a	8	2.656250e-01	2.656250e-01
288.078520	0.915580	dec_nonsocial_accept_high	0.915580	16.000000	n/a	8	1.250000e-01	1.250000e-01
294.911830	1.015454	dec_social_choice	1.015454	16.000000	n/a	4	1.692708e-02	1.692708e-02
294.911830	1.015454	dec_choice	1.015454	16.000000	n/a	4	1.822917e-02	1.822917e-02
294.911830	1.015454	dec_social_accept	1.015454	16.000000	n/a	4	-3.125000e-02	-3.125000e-02
294.911830	1.015454	dec_accept	1.015454	16.000000	n/a	4	-1.250000e-01	-1.250000e-01
294.911830	1.015454	dec_social_high	1.015454	16.000000	n/a	4	1.822917e-02	1.822917e-02
294.911830	1.015454	dec_social_accept_high	1.015454	16.000000	n/a	4	1.822917e-02	1.822917e-02
302.561830	0.932751	dec_nonsocial_choice	0.932751	32.000000	n/a	8	1.692708e-02	1.692708e-02
302.561830	0.932751	dec_choice	0.932751	32.000000	n/a	8	1.562500e-02	1.562500e-02
302.561830	0.932751	dec_nonsocial_accept	0.932751	32.000000	n/a	8	-3.125000e-02	-3.125000e-02
302.561830	0.932751	dec_accept	0.932751	32.000000	n/a	8	1.562500e-02	1.562500e-02
302.561830	0.932751	dec_nonsocial_high	0.932751	32.000000	n/a	8	1.562500e-02	1.562500e-02
302.561830	0.932751	dec_nonsocial_accept_high	0.932751	32.000000	n/a	8	1.562500e-02	1.562500e-02
309.394740	0.866044	dec_nonsocial_choice	0.866044	16.000000	n/a	2	-1.080729e-01	-1.080729e-01
309.394740	0.866044	dec_choice	0.866044	16.000000	n/a	2	-1.093750e-01	-1.093750e-01
309.394740	0.866044	dec_nonsocial_accept	0.866044	16.000000	n/a	2	-1.562500e-01	-1.562500e-01
309.394740	0.866044	dec_accept	0.866044	16.000000	n/a	2	-1.093750e-01	-1.093750e-01
309.394740	0.866044	dec_nonsocial_accept_low	0.866044	16.000000	n/a	2	-2.500000e-01	-2.500000e-01
316.228360	1.032844	dec_nonsocial_choice	1.032844	16.000000	n/a	2	-1.080729e-01	-1.080729e-01
316.228360	1.032844	dec_choice	1.032844	16.000000	n/a	2	-1.093750e-01	-1.093750e-01
316.228360	1.032844	dec_nonsocial_accept	1.032844	16.000000	n/a	2	-1.562500e-01	-1.562500e-01
316.228360	1.032844	dec_accept	1.032844	16.000000	n/a	2	-1.093750e-01	-1.093750e-01
316.228360	1.032844	dec_nonsocial_low	1.032844	16.000000	n/a	2	-1.093750e-01	-1.093750e-01
316.228360	1.032844	dec_nonsocial_accept_low	1.032844	16.000000	n/a	2	-1.093750e-01	-1.093750e-01
327.095400	0.899017	dec_nonsocial_choice	0.899017	16.000000	n/a	4	1.692708e-02	1.692708e-02
327.095400	0.899017	dec_choice	0.899017	16.000000	n/a	4	1.562500e-02	1.562500e-02
327.095400	0.899017	dec_nonsocial_accept	0.899017	16.000000	n/a	4	-3.125000e-02	-3.125000e-02
327.095400	0.899017	dec_accept	0.899017	16.000000	n/a	4	1.562500e-02	1.562500e-02
327.095400	0.899017	dec_nonsocial_high	0.899017	16.000000	n/a	4	1.562500e-02	1.562500e-02
327.095400	0.899017	dec_nonsocial_accept_high	0.899017	16.000000	n/a	4	1.562500e-02	1.562500e-02
333.927580	0.866744	dec_nonsocial_choice	0.866744	16.000000	n/a	2	-1.080729e-01	-1.080729e-01
333.927580	0.866744	dec_choice	0.866744	16.000000	n/a	2	-1.093750e-01	-1.093750e-01
333.927580	0.866744	dec_nonsocial_accept	0.866744	16.000000	n/a	2	-1.562500e-01	-1.562500e-01
333.927580	0.866744	dec_accept	0.866744	16.000000	n/a	2	-1.093750e-01	-1.093750e-01
333.927580	0.866744	dec_nonsocial_low	0.866744	16.000000	n/a	2	-1.093750e-01	-1.093750e-01
333.927580	0.866744	dec_nonsocial_accept_low	0.866744	16.000000	n/a	2	-1.093750e-01	-1.093750e-01
341.577730	0.966110	dec_nonsocial_choice	0.966110	16.000000	n/a	2	-1.080729e-01	-1.080729e-01
341.577730	0.966110	dec_choice	0.966110	16.000000	n/a	2	-1.093750e-01	-1.093750e-01
341.577730	0.966110	dec_nonsocial_accept	0.966110	16.000000	n/a	2	-1.562500e-01	-1.562500e-01
341.577730	0.966110	dec_accept	0.966110	16.000000	n/a	2	-1.093750e-01	-1.093750e-01
341.577730	0.966110	dec_nonsocial_accept_low	0.966110	16.000000	n/a	2	-2.500000e-01	-2.500000e-01
349.226800	0.884515	dec_social_choice	0.884515	16.000000	n/a	0	0	-2.330729e-01
349.226800	0.884515	dec_choice	0.884515	16.000000	n/a	0	0	-2.317708e-01
349.226800	0.884515	dec_social_reject	0.884515	16.000000	n/a	0	0	4.326923e-02
349.226800	0.884515	dec_reject	0.884515	16.000000	n/a	0	0	3.645833e-02
349.226800	0.884515	dec_social_reject_low	0.884515	16.000000	n/a	2	-1.067708e-01	-2.317708e-01
356.877840	0.966451	dec_nonsocial_choice	0.966451	16.000000	n/a	1	-1.705729e-01	-1.705729e-01
356.877840	0.966451	dec_choice	0.966451	16.000000	n/a	1	-1.718750e-01	-1.718750e-01
356.877840	0.966451	dec_nonsocial_accept	0.966451	16.000000	n/a	1	-2.187500e-01	-2.187500e-01
356.877840	0.966451	dec_accept	0.966451	16.000000	n/a	1	-1.718750e-01	-1.718750e-01
356.877840	0.966451	dec_nonsocial_low	0.966451	16.000000	n/a	1	-1.718750e-01	-1.718750e-01
356.877840	0.966451	dec_nonsocial_accept_low	0.966451	16.000000	n/a	1	-1.718750e-01	-1.718750e-01
363.712160	1.832302	dec_social_choice	1.832302	16.000000	n/a	8	2.669271e-01	2.669271e-01
363.712160	1.832302	dec_choice	1.832302	16.000000	n/a	8	2.682292e-01	2.682292e-01
363.712160	1.832302	dec_social_accept	1.832302	16.000000	n/a	8	2.187500e-01	2.187500e-01
363.712160	1.832302	dec_accept	1.832302	16.000000	n/a	8	1.250000e-01	1.250000e-01
363.712160	1.832302	dec_social_high	1.832302	16.000000	n/a	8	2.682292e-01	2.682292e-01
363.712160	1.832302	dec_social_accept_high	1.832302	16.000000	n/a	8	2.682292e-01	2.682292e-01
372.977500	0.716402	dec_nonsocial_choice	0.716402	16.000000	n/a	8	2.669271e-01	2.669271e-01
372.977500	0.716402	dec_choice	0.716402	16.000000	n/a	8	2.656250e-01	2.656250e-01
372.977500	0.716402	dec_nonsocial_accept	0.716402	16.000000	n/a	8	2.187500e-01	2.187500e-01
372.977500	0.716402	dec_accept	0.716402	16.000000	n/a	8	2.656250e-01	2.656250e-01
372.977500	0.716402	dec_nonsocial_accept_high	0.716402	16.000000	n/a	8	1.250000e-01	1.250000e-01
