onset	duration	trial_type	response_time	Endowment	Endowment_pmod	Decision	Decision_pmod	Offer_pmod
4.510410	2	cue_nonsocial	n/a	16	-5	n/a	n/a	n/a
4.510410	2	cue_nonsocial_low	n/a	16	-2	n/a	n/a	n/a
13.858710	2	cue_social	n/a	16	-2	n/a	n/a	n/a
13.858710	2	cue_social_low	n/a	16	-5	n/a	n/a	n/a
20.706924	2	cue_social	n/a	16	-2	n/a	n/a	n/a
20.706924	2	cue_social_low	n/a	16	-5	n/a	n/a	n/a
27.540314	2	cue_social	n/a	16	-2	n/a	n/a	n/a
27.540314	2	cue_social_low	n/a	16	-5	n/a	n/a	n/a
38.310150	2	cue_nonsocial	n/a	16	-5	n/a	n/a	n/a
38.310150	2	cue_nonsocial_low	n/a	16	-2	n/a	n/a	n/a
45.143612	2	cue_nonsocial	n/a	32	11	n/a	n/a	n/a
45.143612	2	cue_nonsocial_high	n/a	32	14	n/a	n/a	n/a
51.976303	2	cue_nonsocial	n/a	16	-5	n/a	n/a	n/a
51.976303	2	cue_nonsocial_low	n/a	16	-2	n/a	n/a	n/a
59.627506	2	cue_nonsocial	n/a	16	-5	n/a	n/a	n/a
59.627506	2	cue_nonsocial_low	n/a	16	-2	n/a	n/a	n/a
68.978340	2	cue_social	n/a	16	-2	n/a	n/a	n/a
68.978340	2	cue_social_low	n/a	16	-5	n/a	n/a	n/a
75.726880	2	cue_nonsocial	n/a	32	11	n/a	n/a	n/a
75.726880	2	cue_nonsocial_high	n/a	32	14	n/a	n/a	n/a
82.560020	2	cue_nonsocial	n/a	16	-5	n/a	n/a	n/a
82.560020	2	cue_nonsocial_low	n/a	16	-2	n/a	n/a	n/a
90.200806	2	cue_social	n/a	32	14	n/a	n/a	n/a
90.200806	2	cue_social_high	n/a	32	11	n/a	n/a	n/a
97.859550	2	cue_nonsocial	n/a	16	-5	n/a	n/a	n/a
97.859550	2	cue_nonsocial_low	n/a	16	-2	n/a	n/a	n/a
104.797935	2	cue_social	n/a	32	14	n/a	n/a	n/a
104.797935	2	cue_social_high	n/a	32	11	n/a	n/a	n/a
111.641810	2	cue_social	n/a	16	-2	n/a	n/a	n/a
111.641810	2	cue_social_low	n/a	16	-5	n/a	n/a	n/a
118.359420	2	cue_nonsocial	n/a	16	-5	n/a	n/a	n/a
118.359420	2	cue_nonsocial_low	n/a	16	-2	n/a	n/a	n/a
125.297670	2	cue_social	n/a	16	-2	n/a	n/a	n/a
125.297670	2	cue_social_low	n/a	16	-5	n/a	n/a	n/a
132.134840	2	cue_social	n/a	16	-2	n/a	n/a	n/a
132.134840	2	cue_social_low	n/a	16	-5	n/a	n/a	n/a
138.939220	2	cue_social	n/a	16	-2	n/a	n/a	n/a
138.939220	2	cue_social_low	n/a	16	-5	n/a	n/a	n/a
145.692370	2	cue_nonsocial	n/a	32	11	n/a	n/a	n/a
145.692370	2	cue_nonsocial_high	n/a	32	14	n/a	n/a	n/a
153.413680	2	cue_social	n/a	16	-2	n/a	n/a	n/a
153.413680	2	cue_social_low	n/a	16	-5	n/a	n/a	n/a
160.975650	2	cue_nonsocial	n/a	16	-5	n/a	n/a	n/a
160.975650	2	cue_nonsocial_low	n/a	16	-2	n/a	n/a	n/a
167.809300	2	cue_nonsocial	n/a	16	-5	n/a	n/a	n/a
167.809300	2	cue_nonsocial_low	n/a	16	-2	n/a	n/a	n/a
174.642750	2	cue_nonsocial	n/a	32	11	n/a	n/a	n/a
174.642750	2	cue_nonsocial_high	n/a	32	14	n/a	n/a	n/a
181.475920	2	cue_nonsocial	n/a	32	11	n/a	n/a	n/a
181.475920	2	cue_nonsocial_high	n/a	32	14	n/a	n/a	n/a
188.308910	2	cue_nonsocial	n/a	16	-5	n/a	n/a	n/a
188.308910	2	cue_nonsocial_low	n/a	16	-2	n/a	n/a	n/a
199.175550	2	cue_nonsocial	n/a	16	-5	n/a	n/a	n/a
199.175550	2	cue_nonsocial_low	n/a	16	-2	n/a	n/a	n/a
206.825870	2	cue_nonsocial	n/a	32	11	n/a	n/a	n/a
206.825870	2	cue_nonsocial_high	n/a	32	14	n/a	n/a	n/a
213.743880	2	cue_social	n/a	16	-2	n/a	n/a	n/a
213.743880	2	cue_social_low	n/a	16	-5	n/a	n/a	n/a
220.493200	2	cue_nonsocial	n/a	16	-5	n/a	n/a	n/a
220.493200	2	cue_nonsocial_low	n/a	16	-2	n/a	n/a	n/a
232.975480	2	cue_nonsocial	n/a	16	-5	n/a	n/a	n/a
232.975480	2	cue_nonsocial_low	n/a	16	-2	n/a	n/a	n/a
242.278520	2	cue_social	n/a	16	-2	n/a	n/a	n/a
242.278520	2	cue_social_low	n/a	16	-5	n/a	n/a	n/a
249.875460	2	cue_nonsocial	n/a	16	-5	n/a	n/a	n/a
249.875460	2	cue_nonsocial_low	n/a	16	-2	n/a	n/a	n/a
260.772770	2	cue_social	n/a	16	-2	n/a	n/a	n/a
260.772770	2	cue_social_low	n/a	16	-5	n/a	n/a	n/a
270.050700	2	cue_social	n/a	16	-2	n/a	n/a	n/a
270.050700	2	cue_social_low	n/a	16	-5	n/a	n/a	n/a
276.878540	2	cue_social	n/a	16	-2	n/a	n/a	n/a
276.878540	2	cue_social_low	n/a	16	-5	n/a	n/a	n/a
283.708700	2	cue_social	n/a	16	-2	n/a	n/a	n/a
283.708700	2	cue_social_low	n/a	16	-5	n/a	n/a	n/a
291.368320	2	cue_social	n/a	16	-2	n/a	n/a	n/a
291.368320	2	cue_social_low	n/a	16	-5	n/a	n/a	n/a
298.942440	2	cue_nonsocial	n/a	16	-5	n/a	n/a	n/a
298.942440	2	cue_nonsocial_low	n/a	16	-2	n/a	n/a	n/a
308.192050	2	cue_nonsocial	n/a	16	-5	n/a	n/a	n/a
308.192050	2	cue_nonsocial_low	n/a	16	-2	n/a	n/a	n/a
317.504060	2	cue_social	n/a	16	-2	n/a	n/a	n/a
317.504060	2	cue_social_low	n/a	16	-5	n/a	n/a	n/a
325.140260	2	cue_social	n/a	16	-2	n/a	n/a	n/a
325.140260	2	cue_social_low	n/a	16	-5	n/a	n/a	n/a
331.925320	2	cue_nonsocial	n/a	32	11	n/a	n/a	n/a
331.925320	2	cue_nonsocial_high	n/a	32	14	n/a	n/a	n/a
338.819700	2	cue_social	n/a	16	-2	n/a	n/a	n/a
338.819700	2	cue_social_low	n/a	16	-5	n/a	n/a	n/a
346.447330	2	cue_social	n/a	16	-2	n/a	n/a	n/a
346.447330	2	cue_social_low	n/a	16	-5	n/a	n/a	n/a
353.291530	2	cue_social	n/a	32	14	n/a	n/a	n/a
353.291530	2	cue_social_high	n/a	32	11	n/a	n/a	n/a
360.926100	2	cue_social	n/a	16	-2	n/a	n/a	n/a
360.926100	2	cue_social_low	n/a	16	-5	n/a	n/a	n/a
368.542270	2	cue_nonsocial	n/a	16	-5	n/a	n/a	n/a
368.542270	2	cue_nonsocial_low	n/a	16	-2	n/a	n/a	n/a
6.515841	1.183836	dec_nonsocial_choice	1.183836	16.000000	n/a	4	1.888021e-02	1.888021e-02
6.515841	1.183836	dec_choice	1.183836	16.000000	n/a	4	1.822917e-02	1.822917e-02
6.515841	1.183836	dec_nonsocial_accept	1.183836	16.000000	n/a	4	-1.009615e-01	-1.009615e-01
6.515841	1.183836	dec_accept	1.183836	16.000000	n/a	4	-8.035714e-02	-8.035714e-02
6.515841	1.183836	dec_nonsocial_high	1.183836	16.000000	n/a	4	1.822917e-02	1.822917e-02
6.515841	1.183836	dec_nonsocial_accept_high	1.183836	16.000000	n/a	4	-8.035714e-02	-8.035714e-02
15.782870	1.166641	dec_social_choice	1.166641	16.000000	n/a	8	2.688802e-01	2.688802e-01
15.782870	1.166641	dec_choice	1.166641	16.000000	n/a	8	2.695312e-01	2.695312e-01
15.782870	1.166641	dec_social_accept	1.166641	16.000000	n/a	8	1.490385e-01	1.490385e-01
15.782870	1.166641	dec_accept	1.166641	16.000000	n/a	8	1.250000e-01	1.250000e-01
15.782870	1.166641	dec_social_high	1.166641	16.000000	n/a	8	2.695312e-01	2.695312e-01
15.782870	1.166641	dec_social_accept_high	1.166641	16.000000	n/a	8	2.695312e-01	2.695312e-01
22.615904	1.199963	dec_social_choice	1.199963	16.000000	n/a	4	1.888021e-02	1.888021e-02
22.615904	1.199963	dec_choice	1.199963	16.000000	n/a	4	1.953125e-02	1.953125e-02
22.615904	1.199963	dec_social_accept	1.199963	16.000000	n/a	4	-1.009615e-01	-1.009615e-01
22.615904	1.199963	dec_accept	1.199963	16.000000	n/a	4	-1.250000e-01	-1.250000e-01
22.615904	1.199963	dec_social_high	1.199963	16.000000	n/a	4	1.953125e-02	1.953125e-02
22.615904	1.199963	dec_social_accept_high	1.199963	16.000000	n/a	4	1.953125e-02	1.953125e-02
29.449379	0.699936	dec_social_choice	0.699936	16.000000	n/a	8	2.688802e-01	2.688802e-01
29.449379	0.699936	dec_choice	0.699936	16.000000	n/a	8	2.695312e-01	2.695312e-01
29.449379	0.699936	dec_social_accept	0.699936	16.000000	n/a	8	1.490385e-01	1.490385e-01
29.449379	0.699936	dec_accept	0.699936	16.000000	n/a	8	1.250000e-01	1.250000e-01
29.449379	0.699936	dec_social_high	0.699936	16.000000	n/a	8	2.695312e-01	2.695312e-01
29.449379	0.699936	dec_social_accept_high	0.699936	16.000000	n/a	8	2.695312e-01	2.695312e-01
40.316860	1.398823	dec_nonsocial_choice	1.398823	16.000000	n/a	0	0	-2.311198e-01
40.316860	1.398823	dec_choice	1.398823	16.000000	n/a	0	0	-2.317708e-01
40.316860	1.398823	dec_nonsocial_reject	1.398823	16.000000	n/a	0	0	-2.698864e-02
40.316860	1.398823	dec_reject	1.398823	16.000000	n/a	0	0	-3.125000e-02
40.316860	1.398823	dec_nonsocial_low	1.398823	16.000000	n/a	0	-2.317708e-01	-2.317708e-01
40.316860	1.398823	dec_nonsocial_reject_low	1.398823	16.000000	n/a	1	-3.125000e-02	-9.375000e-02
47.149452	1.433081	dec_nonsocial_choice	1.433081	32.000000	n/a	0	0	-2.311198e-01
47.149452	1.433081	dec_choice	1.433081	32.000000	n/a	0	0	-2.317708e-01
47.149452	1.433081	dec_nonsocial_reject	1.433081	32.000000	n/a	0	0	4.261364e-03
47.149452	1.433081	dec_reject	1.433081	32.000000	n/a	0	0	0
47.149452	1.433081	dec_nonsocial_reject_low	1.433081	32.000000	n/a	3	7.812500e-03	-8.593750e-02
53.982010	1.133837	dec_nonsocial_choice	1.133837	16.000000	n/a	4	1.888021e-02	1.888021e-02
53.982010	1.133837	dec_choice	1.133837	16.000000	n/a	4	1.822917e-02	1.822917e-02
53.982010	1.133837	dec_nonsocial_accept	1.133837	16.000000	n/a	4	-1.009615e-01	-1.009615e-01
53.982010	1.133837	dec_accept	1.133837	16.000000	n/a	4	-8.035714e-02	-8.035714e-02
53.982010	1.133837	dec_nonsocial_high	1.133837	16.000000	n/a	4	1.822917e-02	1.822917e-02
53.982010	1.133837	dec_nonsocial_accept_high	1.133837	16.000000	n/a	4	-8.035714e-02	-8.035714e-02
61.632843	1.083306	dec_nonsocial_choice	1.083306	16.000000	n/a	0	0	-2.311198e-01
61.632843	1.083306	dec_choice	1.083306	16.000000	n/a	0	0	-2.317708e-01
61.632843	1.083306	dec_nonsocial_reject	1.083306	16.000000	n/a	0	0	-2.698864e-02
61.632843	1.083306	dec_reject	1.083306	16.000000	n/a	0	0	-3.125000e-02
61.632843	1.083306	dec_nonsocial_reject_low	1.083306	16.000000	n/a	1	-2.343750e-02	-8.593750e-02
70.897835	1.650713	dec_social_choice	1.650713	16.000000	n/a	0	0	-2.311198e-01
70.897835	1.650713	dec_choice	1.650713	16.000000	n/a	0	0	-2.304688e-01
70.897835	1.650713	dec_social_reject	1.650713	16.000000	n/a	0	0	-2.698864e-02
70.897835	1.650713	dec_reject	1.650713	16.000000	n/a	0	0	-2.343750e-02
70.897835	1.650713	dec_social_reject_low	1.650713	16.000000	n/a	1	-1.679688e-01	-2.304688e-01
77.732170	1.215966	dec_nonsocial_choice	1.215966	32.000000	n/a	8	1.888021e-02	1.888021e-02
77.732170	1.215966	dec_choice	1.215966	32.000000	n/a	8	1.822917e-02	1.822917e-02
77.732170	1.215966	dec_nonsocial_accept	1.215966	32.000000	n/a	8	-1.009615e-01	-1.009615e-01
77.732170	1.215966	dec_accept	1.215966	32.000000	n/a	8	-8.035714e-02	-8.035714e-02
77.732170	1.215966	dec_nonsocial_high	1.215966	32.000000	n/a	8	1.822917e-02	1.822917e-02
77.732170	1.215966	dec_nonsocial_accept_high	1.215966	32.000000	n/a	8	-8.035714e-02	-8.035714e-02
84.565956	1.316005	dec_nonsocial_choice	1.316005	16.000000	n/a	0	0	-2.311198e-01
84.565956	1.316005	dec_choice	1.316005	16.000000	n/a	0	0	-2.317708e-01
84.565956	1.316005	dec_nonsocial_reject	1.316005	16.000000	n/a	0	0	3.551136e-02
84.565956	1.316005	dec_reject	1.316005	16.000000	n/a	0	0	3.125000e-02
84.565956	1.316005	dec_nonsocial_reject_low	1.316005	16.000000	n/a	2	3.906250e-02	-8.593750e-02
92.214820	1.434432	dec_social_choice	1.434432	32.000000	n/a	0	0	-2.311198e-01
92.214820	1.434432	dec_choice	1.434432	32.000000	n/a	0	0	-2.304688e-01
92.214820	1.434432	dec_social_reject	1.434432	32.000000	n/a	0	0	4.261364e-03
92.214820	1.434432	dec_reject	1.434432	32.000000	n/a	0	0	7.812500e-03
92.214820	1.434432	dec_social_low	1.434432	32.000000	n/a	0	-2.304688e-01	-2.304688e-01
92.214820	1.434432	dec_social_reject_low	1.434432	32.000000	n/a	3	-1.367188e-01	-2.304688e-01
99.865814	1.149624	dec_nonsocial_choice	1.149624	16.000000	n/a	4	1.888021e-02	1.888021e-02
99.865814	1.149624	dec_choice	1.149624	16.000000	n/a	4	1.822917e-02	1.822917e-02
99.865814	1.149624	dec_nonsocial_accept	1.149624	16.000000	n/a	4	-1.009615e-01	-1.009615e-01
99.865814	1.149624	dec_accept	1.149624	16.000000	n/a	4	-8.035714e-02	-8.035714e-02
99.865814	1.149624	dec_nonsocial_high	1.149624	16.000000	n/a	4	1.822917e-02	1.822917e-02
99.865814	1.149624	dec_nonsocial_accept_high	1.149624	16.000000	n/a	4	-8.035714e-02	-8.035714e-02
106.699710	1.315545	dec_social_choice	1.315545	32.000000	n/a	0	0	-2.311198e-01
106.699710	1.315545	dec_choice	1.315545	32.000000	n/a	0	0	-2.304688e-01
106.699710	1.315545	dec_social_reject	1.315545	32.000000	n/a	0	0	4.261364e-03
106.699710	1.315545	dec_reject	1.315545	32.000000	n/a	0	0	7.812500e-03
106.699710	1.315545	dec_social_low	1.315545	32.000000	n/a	0	-2.304688e-01	-2.304688e-01
106.699710	1.315545	dec_social_reject_low	1.315545	32.000000	n/a	3	-1.367188e-01	-2.304688e-01
113.531840	0.983935	dec_social_choice	0.983935	16.000000	n/a	8	2.688802e-01	2.688802e-01
113.531840	0.983935	dec_choice	0.983935	16.000000	n/a	8	2.695312e-01	2.695312e-01
113.531840	0.983935	dec_social_accept	0.983935	16.000000	n/a	8	1.490385e-01	1.490385e-01
113.531840	0.983935	dec_accept	0.983935	16.000000	n/a	8	1.250000e-01	1.250000e-01
113.531840	0.983935	dec_social_high	0.983935	16.000000	n/a	8	2.695312e-01	2.695312e-01
113.531840	0.983935	dec_social_accept_high	0.983935	16.000000	n/a	8	2.695312e-01	2.695312e-01
120.365960	1.015421	dec_nonsocial_choice	1.015421	16.000000	n/a	0	0	-2.311198e-01
120.365960	1.015421	dec_choice	1.015421	16.000000	n/a	0	0	-2.317708e-01
120.365960	1.015421	dec_nonsocial_reject	1.015421	16.000000	n/a	0	0	3.551136e-02
120.365960	1.015421	dec_reject	1.015421	16.000000	n/a	0	0	3.125000e-02
120.365960	1.015421	dec_nonsocial_reject_low	1.015421	16.000000	n/a	2	3.906250e-02	-8.593750e-02
127.198910	0.966568	dec_social_choice	0.966568	16.000000	n/a	8	2.688802e-01	2.688802e-01
127.198910	0.966568	dec_choice	0.966568	16.000000	n/a	8	2.695312e-01	2.695312e-01
127.198910	0.966568	dec_social_accept	0.966568	16.000000	n/a	8	1.490385e-01	1.490385e-01
127.198910	0.966568	dec_accept	0.966568	16.000000	n/a	8	1.250000e-01	1.250000e-01
127.198910	0.966568	dec_social_high	0.966568	16.000000	n/a	8	2.695312e-01	2.695312e-01
127.198910	0.966568	dec_social_accept_high	0.966568	16.000000	n/a	8	2.695312e-01	2.695312e-01
134.032940	0.915395	dec_social_choice	0.915395	16.000000	n/a	0	0	-2.311198e-01
134.032940	0.915395	dec_choice	0.915395	16.000000	n/a	0	0	-2.304688e-01
134.032940	0.915395	dec_social_reject	0.915395	16.000000	n/a	0	0	-2.698864e-02
134.032940	0.915395	dec_reject	0.915395	16.000000	n/a	0	0	-2.343750e-02
134.032940	0.915395	dec_social_reject_low	0.915395	16.000000	n/a	1	-1.679688e-01	-2.304688e-01
140.865860	1.282975	dec_social_choice	1.282975	16.000000	n/a	0	0	-2.311198e-01
140.865860	1.282975	dec_choice	1.282975	16.000000	n/a	0	0	-2.304688e-01
140.865860	1.282975	dec_social_reject	1.282975	16.000000	n/a	0	0	3.551136e-02
140.865860	1.282975	dec_reject	1.282975	16.000000	n/a	0	0	3.906250e-02
140.865860	1.282975	dec_social_low	1.282975	16.000000	n/a	0	-2.304688e-01	-2.304688e-01
140.865860	1.282975	dec_social_reject_low	1.282975	16.000000	n/a	2	-1.054688e-01	-2.304688e-01
147.698930	1.100213	dec_nonsocial_choice	1.100213	32.000000	n/a	16	2.688802e-01	2.688802e-01
147.698930	1.100213	dec_choice	1.100213	32.000000	n/a	16	2.682292e-01	2.682292e-01
147.698930	1.100213	dec_nonsocial_accept	1.100213	32.000000	n/a	16	1.490385e-01	1.490385e-01
147.698930	1.100213	dec_accept	1.100213	32.000000	n/a	16	1.696429e-01	1.696429e-01
147.698930	1.100213	dec_nonsocial_high	1.100213	32.000000	n/a	16	2.682292e-01	2.682292e-01
147.698930	1.100213	dec_nonsocial_accept_high	1.100213	32.000000	n/a	16	1.696429e-01	1.696429e-01
155.347870	1.051312	dec_social_choice	1.051312	16.000000	n/a	8	2.688802e-01	2.688802e-01
155.347870	1.051312	dec_choice	1.051312	16.000000	n/a	8	2.695312e-01	2.695312e-01
155.347870	1.051312	dec_social_accept	1.051312	16.000000	n/a	8	1.490385e-01	1.490385e-01
155.347870	1.051312	dec_accept	1.051312	16.000000	n/a	8	1.250000e-01	1.250000e-01
155.347870	1.051312	dec_social_accept_high	1.051312	16.000000	n/a	8	2.695312e-01	2.695312e-01
162.982280	0.865786	dec_nonsocial_choice	0.865786	16.000000	n/a	8	2.688802e-01	2.688802e-01
162.982280	0.865786	dec_choice	0.865786	16.000000	n/a	8	2.682292e-01	2.682292e-01
162.982280	0.865786	dec_nonsocial_accept	0.865786	16.000000	n/a	8	1.490385e-01	1.490385e-01
162.982280	0.865786	dec_accept	0.865786	16.000000	n/a	8	1.696429e-01	1.696429e-01
162.982280	0.865786	dec_nonsocial_accept_high	0.865786	16.000000	n/a	8	1.250000e-01	1.250000e-01
169.815890	1.065845	dec_nonsocial_choice	1.065845	16.000000	n/a	0	0	-2.311198e-01
169.815890	1.065845	dec_choice	1.065845	16.000000	n/a	0	0	-2.317708e-01
169.815890	1.065845	dec_nonsocial_reject	1.065845	16.000000	n/a	0	0	-2.698864e-02
169.815890	1.065845	dec_reject	1.065845	16.000000	n/a	0	0	-3.125000e-02
169.815890	1.065845	dec_nonsocial_reject_low	1.065845	16.000000	n/a	1	-2.343750e-02	-8.593750e-02
176.649770	0.899118	dec_nonsocial_choice	0.899118	32.000000	n/a	0	0	-2.311198e-01
176.649770	0.899118	dec_choice	0.899118	32.000000	n/a	0	0	-2.317708e-01
176.649770	0.899118	dec_nonsocial_reject	0.899118	32.000000	n/a	0	0	-2.698864e-02
176.649770	0.899118	dec_reject	0.899118	32.000000	n/a	0	0	-3.125000e-02
176.649770	0.899118	dec_nonsocial_reject_low	0.899118	32.000000	n/a	2	-2.343750e-02	-8.593750e-02
183.482480	1.015832	dec_nonsocial_choice	1.015832	32.000000	n/a	16	2.688802e-01	2.688802e-01
183.482480	1.015832	dec_choice	1.015832	32.000000	n/a	16	2.682292e-01	2.682292e-01
183.482480	1.015832	dec_nonsocial_accept	1.015832	32.000000	n/a	16	1.490385e-01	1.490385e-01
183.482480	1.015832	dec_accept	1.015832	32.000000	n/a	16	1.696429e-01	1.696429e-01
183.482480	1.015832	dec_nonsocial_accept_high	1.015832	32.000000	n/a	16	1.250000e-01	1.250000e-01
190.315800	1.049931	dec_nonsocial_choice	1.049931	16.000000	n/a	0	0	-2.311198e-01
190.315800	1.049931	dec_choice	1.049931	16.000000	n/a	0	0	-2.317708e-01
190.315800	1.049931	dec_nonsocial_reject	1.049931	16.000000	n/a	0	0	3.551136e-02
190.315800	1.049931	dec_reject	1.049931	16.000000	n/a	0	0	3.125000e-02
190.315800	1.049931	dec_nonsocial_reject_low	1.049931	16.000000	n/a	2	3.906250e-02	-8.593750e-02
201.182310	1.549676	dec_nonsocial_choice	1.549676	16.000000	n/a	4	1.888021e-02	1.888021e-02
201.182310	1.549676	dec_choice	1.549676	16.000000	n/a	4	1.822917e-02	1.822917e-02
201.182310	1.549676	dec_nonsocial_accept	1.549676	16.000000	n/a	4	-1.009615e-01	-1.009615e-01
201.182310	1.549676	dec_accept	1.549676	16.000000	n/a	4	-8.035714e-02	-8.035714e-02
201.182310	1.549676	dec_nonsocial_high	1.549676	16.000000	n/a	4	1.822917e-02	1.822917e-02
201.182310	1.549676	dec_nonsocial_accept_high	1.549676	16.000000	n/a	4	-8.035714e-02	-8.035714e-02
208.831850	1.116344	dec_nonsocial_choice	1.116344	32.000000	n/a	16	2.688802e-01	2.688802e-01
208.831850	1.116344	dec_choice	1.116344	32.000000	n/a	16	2.682292e-01	2.682292e-01
208.831850	1.116344	dec_nonsocial_accept	1.116344	32.000000	n/a	16	1.490385e-01	1.490385e-01
208.831850	1.116344	dec_accept	1.116344	32.000000	n/a	16	1.696429e-01	1.696429e-01
208.831850	1.116344	dec_nonsocial_high	1.116344	32.000000	n/a	16	2.682292e-01	2.682292e-01
208.831850	1.116344	dec_nonsocial_accept_high	1.116344	32.000000	n/a	16	1.696429e-01	1.696429e-01
215.665200	0.833119	dec_social_choice	0.833119	16.000000	n/a	0	0	-2.311198e-01
215.665200	0.833119	dec_choice	0.833119	16.000000	n/a	0	0	-2.304688e-01
215.665200	0.833119	dec_social_reject	0.833119	16.000000	n/a	0	0	-2.698864e-02
215.665200	0.833119	dec_reject	0.833119	16.000000	n/a	0	0	-2.343750e-02
215.665200	0.833119	dec_social_reject_low	0.833119	16.000000	n/a	1	-1.679688e-01	-2.304688e-01
222.499660	0.799437	dec_nonsocial_choice	0.799437	16.000000	n/a	8	2.688802e-01	2.688802e-01
222.499660	0.799437	dec_choice	0.799437	16.000000	n/a	8	2.682292e-01	2.682292e-01
222.499660	0.799437	dec_nonsocial_accept	0.799437	16.000000	n/a	8	1.490385e-01	1.490385e-01
222.499660	0.799437	dec_accept	0.799437	16.000000	n/a	8	1.696429e-01	1.696429e-01
222.499660	0.799437	dec_nonsocial_accept_high	0.799437	16.000000	n/a	8	1.250000e-01	1.250000e-01
234.982760	0.933134	dec_nonsocial_choice	0.933134	16.000000	n/a	0	0	-2.311198e-01
234.982760	0.933134	dec_choice	0.933134	16.000000	n/a	0	0	-2.317708e-01
234.982760	0.933134	dec_nonsocial_reject	0.933134	16.000000	n/a	0	0	3.551136e-02
234.982760	0.933134	dec_reject	0.933134	16.000000	n/a	0	0	3.125000e-02
234.982760	0.933134	dec_nonsocial_reject_low	0.933134	16.000000	n/a	2	3.906250e-02	-8.593750e-02
244.247540	1.151089	dec_social_choice	1.151089	16.000000	n/a	4	1.888021e-02	1.888021e-02
244.247540	1.151089	dec_choice	1.151089	16.000000	n/a	4	1.953125e-02	1.953125e-02
244.247540	1.151089	dec_social_accept	1.151089	16.000000	n/a	4	-1.009615e-01	-1.009615e-01
244.247540	1.151089	dec_accept	1.151089	16.000000	n/a	4	-1.250000e-01	-1.250000e-01
244.247540	1.151089	dec_social_high	1.151089	16.000000	n/a	4	1.953125e-02	1.953125e-02
244.247540	1.151089	dec_social_accept_high	1.151089	16.000000	n/a	4	1.953125e-02	1.953125e-02
251.882750	0.999200	dec_nonsocial_choice	0.999200	16.000000	n/a	8	2.688802e-01	2.688802e-01
251.882750	0.999200	dec_choice	0.999200	16.000000	n/a	8	2.682292e-01	2.682292e-01
251.882750	0.999200	dec_nonsocial_accept	0.999200	16.000000	n/a	8	1.490385e-01	1.490385e-01
251.882750	0.999200	dec_accept	0.999200	16.000000	n/a	8	1.696429e-01	1.696429e-01
251.882750	0.999200	dec_nonsocial_high	0.999200	16.000000	n/a	8	2.682292e-01	2.682292e-01
251.882750	0.999200	dec_nonsocial_accept_high	0.999200	16.000000	n/a	8	1.696429e-01	1.696429e-01
262.748780	1.066332	dec_social_choice	1.066332	16.000000	n/a	8	2.688802e-01	2.688802e-01
262.748780	1.066332	dec_choice	1.066332	16.000000	n/a	8	2.695312e-01	2.695312e-01
262.748780	1.066332	dec_social_accept	1.066332	16.000000	n/a	8	1.490385e-01	1.490385e-01
262.748780	1.066332	dec_accept	1.066332	16.000000	n/a	8	1.250000e-01	1.250000e-01
262.748780	1.066332	dec_social_high	1.066332	16.000000	n/a	8	2.695312e-01	2.695312e-01
262.748780	1.066332	dec_social_accept_high	1.066332	16.000000	n/a	8	2.695312e-01	2.695312e-01
271.998780	1.516061	dec_social_choice	1.516061	16.000000	n/a	0	0	-2.311198e-01
271.998780	1.516061	dec_choice	1.516061	16.000000	n/a	0	0	-2.304688e-01
271.998780	1.516061	dec_social_reject	1.516061	16.000000	n/a	0	0	3.551136e-02
271.998780	1.516061	dec_reject	1.516061	16.000000	n/a	0	0	3.906250e-02
271.998780	1.516061	dec_social_low	1.516061	16.000000	n/a	0	-2.304688e-01	-2.304688e-01
271.998780	1.516061	dec_social_reject_low	1.516061	16.000000	n/a	2	-1.054688e-01	-2.304688e-01
278.831850	0.917417	dec_social_choice	0.917417	16.000000	n/a	0	0	-2.311198e-01
278.831850	0.917417	dec_choice	0.917417	16.000000	n/a	0	0	-2.304688e-01
278.831850	0.917417	dec_social_reject	0.917417	16.000000	n/a	0	0	-2.698864e-02
278.831850	0.917417	dec_reject	0.917417	16.000000	n/a	0	0	-2.343750e-02
278.831850	0.917417	dec_social_reject_low	0.917417	16.000000	n/a	1	-1.679688e-01	-2.304688e-01
285.665200	1.066370	dec_social_choice	1.066370	16.000000	n/a	0	0	-2.311198e-01
285.665200	1.066370	dec_choice	1.066370	16.000000	n/a	0	0	-2.304688e-01
285.665200	1.066370	dec_social_reject	1.066370	16.000000	n/a	0	0	-2.698864e-02
285.665200	1.066370	dec_reject	1.066370	16.000000	n/a	0	0	-2.343750e-02
285.665200	1.066370	dec_social_low	1.066370	16.000000	n/a	0	-2.304688e-01	-2.304688e-01
285.665200	1.066370	dec_social_reject_low	1.066370	16.000000	n/a	1	-1.679688e-01	-2.304688e-01
293.314820	1.200447	dec_social_choice	1.200447	16.000000	n/a	4	1.888021e-02	1.888021e-02
293.314820	1.200447	dec_choice	1.200447	16.000000	n/a	4	1.953125e-02	1.953125e-02
293.314820	1.200447	dec_social_accept	1.200447	16.000000	n/a	4	-1.009615e-01	-1.009615e-01
293.314820	1.200447	dec_accept	1.200447	16.000000	n/a	4	-1.250000e-01	-1.250000e-01
293.314820	1.200447	dec_social_accept_high	1.200447	16.000000	n/a	4	1.953125e-02	1.953125e-02
300.948730	0.982898	dec_nonsocial_choice	0.982898	16.000000	n/a	1	-1.686198e-01	-1.686198e-01
300.948730	0.982898	dec_choice	0.982898	16.000000	n/a	1	-1.692708e-01	-1.692708e-01
300.948730	0.982898	dec_nonsocial_accept	0.982898	16.000000	n/a	1	-2.884615e-01	-2.884615e-01
300.948730	0.982898	dec_accept	0.982898	16.000000	n/a	1	-2.678571e-01	-2.678571e-01
300.948730	0.982898	dec_nonsocial_low	0.982898	16.000000	n/a	1	-1.692708e-01	-1.692708e-01
300.948730	0.982898	dec_nonsocial_accept_low	0.982898	16.000000	n/a	1	-2.678571e-01	-2.678571e-01
310.198120	0.950484	dec_nonsocial_choice	0.950484	16.000000	n/a	1	-1.686198e-01	-1.686198e-01
310.198120	0.950484	dec_choice	0.950484	16.000000	n/a	1	-1.692708e-01	-1.692708e-01
310.198120	0.950484	dec_nonsocial_accept	0.950484	16.000000	n/a	1	-2.884615e-01	-2.884615e-01
310.198120	0.950484	dec_accept	0.950484	16.000000	n/a	1	-2.678571e-01	-2.678571e-01
310.198120	0.950484	dec_nonsocial_accept_low	0.950484	16.000000	n/a	1	-3.125000e-01	-3.125000e-01
319.448580	1.716004	dec_social_choice	1.716004	16.000000	n/a	0	0	-2.311198e-01
319.448580	1.716004	dec_choice	1.716004	16.000000	n/a	0	0	-2.304688e-01
319.448580	1.716004	dec_social_reject	1.716004	16.000000	n/a	0	0	-2.698864e-02
319.448580	1.716004	dec_reject	1.716004	16.000000	n/a	0	0	-2.343750e-02
319.448580	1.716004	dec_social_low	1.716004	16.000000	n/a	0	-2.304688e-01	-2.304688e-01
319.448580	1.716004	dec_social_reject_low	1.716004	16.000000	n/a	1	-1.679688e-01	-2.304688e-01
327.097750	1.350591	dec_social_choice	1.350591	16.000000	n/a	4	1.888021e-02	1.888021e-02
327.097750	1.350591	dec_choice	1.350591	16.000000	n/a	4	1.953125e-02	1.953125e-02
327.097750	1.350591	dec_social_accept	1.350591	16.000000	n/a	4	-1.009615e-01	-1.009615e-01
327.097750	1.350591	dec_accept	1.350591	16.000000	n/a	4	-1.250000e-01	-1.250000e-01
327.097750	1.350591	dec_social_high	1.350591	16.000000	n/a	4	1.953125e-02	1.953125e-02
327.097750	1.350591	dec_social_accept_high	1.350591	16.000000	n/a	4	1.953125e-02	1.953125e-02
333.932700	1.282557	dec_nonsocial_choice	1.282557	32.000000	n/a	0	0	-2.311198e-01
333.932700	1.282557	dec_choice	1.282557	32.000000	n/a	0	0	-2.317708e-01
333.932700	1.282557	dec_nonsocial_reject	1.282557	32.000000	n/a	0	0	4.261364e-03
333.932700	1.282557	dec_reject	1.282557	32.000000	n/a	0	0	0
333.932700	1.282557	dec_nonsocial_reject_low	1.282557	32.000000	n/a	3	7.812500e-03	-8.593750e-02
340.765000	1.366064	dec_social_choice	1.366064	16.000000	n/a	0	0	-2.311198e-01
340.765000	1.366064	dec_choice	1.366064	16.000000	n/a	0	0	-2.304688e-01
340.765000	1.366064	dec_social_reject	1.366064	16.000000	n/a	0	0	3.551136e-02
340.765000	1.366064	dec_reject	1.366064	16.000000	n/a	0	0	3.906250e-02
340.765000	1.366064	dec_social_reject_low	1.366064	16.000000	n/a	2	-1.054688e-01	-2.304688e-01
348.414800	0.999805	dec_social_choice	0.999805	16.000000	n/a	4	1.888021e-02	1.888021e-02
348.414800	0.999805	dec_choice	0.999805	16.000000	n/a	4	1.953125e-02	1.953125e-02
348.414800	0.999805	dec_social_accept	0.999805	16.000000	n/a	4	-1.009615e-01	-1.009615e-01
348.414800	0.999805	dec_accept	0.999805	16.000000	n/a	4	-1.250000e-01	-1.250000e-01
348.414800	0.999805	dec_social_accept_high	0.999805	16.000000	n/a	4	1.953125e-02	1.953125e-02
355.248600	1.233618	dec_social_choice	1.233618	32.000000	n/a	0	0	-2.311198e-01
355.248600	1.233618	dec_choice	1.233618	32.000000	n/a	0	0	-2.304688e-01
355.248600	1.233618	dec_social_reject	1.233618	32.000000	n/a	0	0	4.261364e-03
355.248600	1.233618	dec_reject	1.233618	32.000000	n/a	0	0	7.812500e-03
355.248600	1.233618	dec_social_reject_low	1.233618	32.000000	n/a	3	-1.367188e-01	-2.304688e-01
362.898160	0.967164	dec_social_choice	0.967164	16.000000	n/a	4	1.888021e-02	1.888021e-02
362.898160	0.967164	dec_choice	0.967164	16.000000	n/a	4	1.953125e-02	1.953125e-02
362.898160	0.967164	dec_social_accept	0.967164	16.000000	n/a	4	-1.009615e-01	-1.009615e-01
362.898160	0.967164	dec_accept	0.967164	16.000000	n/a	4	-1.250000e-01	-1.250000e-01
362.898160	0.967164	dec_social_accept_high	0.967164	16.000000	n/a	4	1.953125e-02	1.953125e-02
370.548770	1.082853	dec_nonsocial_choice	1.082853	16.000000	n/a	4	1.888021e-02	1.888021e-02
370.548770	1.082853	dec_choice	1.082853	16.000000	n/a	4	1.822917e-02	1.822917e-02
370.548770	1.082853	dec_nonsocial_accept	1.082853	16.000000	n/a	4	-1.009615e-01	-1.009615e-01
370.548770	1.082853	dec_accept	1.082853	16.000000	n/a	4	-8.035714e-02	-8.035714e-02
370.548770	1.082853	dec_nonsocial_high	1.082853	16.000000	n/a	4	1.822917e-02	1.822917e-02
370.548770	1.082853	dec_nonsocial_accept_high	1.082853	16.000000	n/a	4	-8.035714e-02	-8.035714e-02
