TrialNumber,nTrial,Block,Endowment,ITI,ISI,L_Option,R_Option,ran,order,cue_Onset,endowment_onset,endowment_offset,ISI_onset,ISI_offset,decision_onset,resp,rt,resp_onset,decision_offset,trialDuration,ITIonset,ITIoffset
1,1,3,16,0.5575,1,8,0,1.0,0.0,4.5626125,5.4946504,5.511936,5.5120916,6.511883,6.5120416,1.0,0.8663647,7.378406,10.279774,3.7682676,10.280418,10.840375
2,2,3,16,0.5575,1,0,1,1.0,1.0,11.388849,12.328868,12.345782,12.345907,13.346228,13.346362,1.0,1.1826963,14.529058,17.112648,3.76676,17.113218,17.672323
3,3,2,32,0.5575,1,0,8,1.0,2.0,18.172232,19.161018,19.178585,19.17865,20.178488,20.178617,2.0,0.966301,21.14492,23.944923,3.7668006,23.945517,24.504845
4,4,2,16,6.21,1,2,0,1.0,3.0,25.005844,25.994455,26.01162,26.011684,27.011808,27.011944,1.0,0.8999487,27.911892,30.778646,3.767171,30.779207,36.98976
5,5,3,16,1.365,1,0,4,1.0,4.0,37.536797,38.47819,38.49496,38.495045,39.496063,39.496193,2.0,1.0989027,40.595097,43.263638,3.7679162,43.264206,44.630882
6,6,3,16,0.5575,1,0,4,1.0,5.0,45.17533,46.128223,46.14449,46.14456,47.144814,47.144947,2.0,0.9672286,48.112175,50.910973,3.766496,50.91158,51.47064
7,7,3,16,0.5575,1,0,8,1.0,6.0,52.06218,52.96158,52.978245,52.978367,53.97848,53.97861,2.0,0.9162174,54.89483,57.745743,3.7676015,57.746307,58.305428
8,8,3,16,0.5575,1,0,1,1.0,7.0,58.88196,59.795288,59.810997,59.81106,60.811474,60.811604,1.0,0.8667834,61.678387,64.579185,3.7680557,64.57975,65.13988
9,9,2,32,0.5575,1,0,16,1.0,8.0,65.638664,66.62783,66.645004,66.6451,67.645775,67.64592,2.0,1.0330001,68.67892,71.41285,3.7673912,71.4134,71.97287
10,10,2,16,0.5575,1,1,0,1.0,9.0,72.47233,73.46139,73.478615,73.47874,74.478676,74.478806,1.0,0.7830418,75.26185,78.24508,3.7667482,78.24564,78.804726
11,11,3,32,1.365,1,3,0,1.0,10.0,79.347374,80.29469,80.31138,80.31145,81.31123,81.31137,2.0,0.8167983,82.12817,85.079056,3.7681499,85.07961,86.44578
12,12,3,16,2.98,1,0,1,1.0,11.0,86.99716,87.944954,87.96184,87.96195,88.96272,88.96285,1.0,1.5992825,90.56213,92.728935,3.766554,92.7295,95.7108
13,13,2,16,1.365,1,2,0,1.0,12.0,96.20532,97.194336,97.211525,97.21162,98.21173,98.21187,1.0,0.93309,99.14496,101.978386,3.766975,101.978935,103.34583
14,14,2,16,1.365,1,1,0,1.0,13.0,103.85585,104.8443,104.86148,104.86156,105.860916,105.861046,1.0,1.2343233,107.09537,109.62787,3.7672932,109.62843,110.99474
15,15,3,16,1.365,1,0,1,1.0,14.0,111.5425,112.49483,112.51105,112.51111,113.511696,113.511826,1.0,1.3331469,114.84497,117.27769,3.7663417,117.27827,118.64419
16,16,3,16,1.365,1,4,0,1.0,15.0,119.1922,120.128716,120.14521,120.145325,121.14514,121.14528,1.0,1.5495455,122.694824,124.9117,3.766889,124.91227,126.278824
17,17,3,16,1.365,1,8,0,1.0,16.0,126.83649,127.778175,127.79473,127.79481,128.79442,128.79456,1.0,1.4340076,130.22856,132.5608,3.7667322,132.56139,133.92838
18,18,2,16,0.5575,1,1,0,1.0,17.0,134.43877,135.42757,135.4448,135.44489,136.4447,136.44482,1.0,0.8664953,137.31133,140.21217,3.767826,140.21275,140.77267
19,19,2,32,2.98,1,16,0,1.0,18.0,141.27182,142.26077,142.27835,142.27843,143.27869,143.27884,1.0,0.9156195,144.19446,147.04668,3.7683215,147.04726,150.02881
20,20,3,32,0.5575,1,0,8,1.0,19.0,150.58734,151.5284,151.54483,151.54495,152.54457,152.54471,2.0,1.3502438,153.89494,156.31255,3.768318,156.31313,156.87373
21,21,3,16,4.595,1,1,0,1.0,20.0,157.44145,158.36096,158.37811,158.37819,159.37767,159.3778,2.0,0.9336722,160.31148,163.14566,3.7683253,163.14622,167.74283
22,22,3,16,2.98,1,1,0,1.0,21.0,168.29312,169.22755,169.24457,169.24463,170.24425,170.24437,2.0,0.7340252,170.9784,174.01051,3.7666092,174.01108,176.99286
23,23,3,16,4.595,1,8,0,1.0,22.0,177.54597,178.47762,178.4946,178.49467,179.49565,179.49579,1.0,1.165183,180.66096,183.26337,3.768059,183.26395,187.85982
24,24,2,16,1.365,1,8,0,1.0,23.0,188.37616,189.34451,189.36082,189.36089,190.36073,190.36087,1.0,0.8510157,191.21188,194.12782,3.7674282,194.12839,195.4948
25,25,3,16,0.5575,1,0,2,1.0,24.0,196.06776,196.994,197.01128,197.01135,198.01181,198.01195,1.0,1.249629,199.26158,201.77768,3.7662008,201.77824,202.33783
26,26,2,16,1.365,1,0,1,1.0,25.0,202.83871,203.8275,203.84456,203.84465,204.84465,204.84477,2.0,0.8835092,205.72829,208.61096,3.766667,208.61154,209.9778
27,27,3,16,2.98,1,8,0,1.0,26.0,210.5657,211.47797,211.49411,211.49419,212.49467,212.4948,1.0,0.983393,213.4782,216.26064,3.766314,216.26122,219.24226
28,28,2,32,0.5575,1,8,0,1.0,27.0,219.73836,220.7273,220.74483,220.74495,221.74483,221.74496,1.0,1.0331624,222.77812,225.51147,3.7669754,225.51204,226.07243
29,29,2,32,0.5575,1,0,8,1.0,28.0,226.57254,227.56097,227.57802,227.57817,228.57872,228.57886,2.0,1.3320812,229.91093,232.3449,3.7664964,232.34544,232.90477
30,30,3,32,0.5575,1,0,3,1.0,29.0,233.4572,234.39447,234.41121,234.41129,235.41148,235.41162,1.0,1.0331188,236.44475,239.17868,3.7675283,239.17924,239.73889
31,31,2,16,2.98,1,0,8,1.0,30.0,240.23863,241.227,241.24463,241.24469,242.24463,242.24477,2.0,0.7832242,243.02798,246.01064,3.766359,246.01122,248.99234
32,32,3,16,0.5575,1,4,0,1.0,31.0,249.58002,250.47803,250.49483,250.49495,251.49564,251.49577,1.0,1.1659418,252.66171,255.26273,3.7674325,255.26329,255.82237
33,33,2,32,2.98,1,8,0,1.0,32.0,256.3216,257.31067,257.32794,257.328,258.32812,258.32825,1.0,0.983666,259.31192,262.09467,3.7668836,262.0952,265.07666
34,34,2,16,0.5575,1,1,0,1.0,33.0,265.57187,266.56064,266.578,266.57806,267.57874,267.57886,1.0,0.8323073,268.41116,271.34567,3.767269,271.34622,271.90536
35,35,3,16,0.5575,1,2,0,1.0,34.0,272.49387,273.39468,273.41132,273.41144,274.41144,274.41156,2.0,1.0160332,275.4276,278.17874,3.767642,278.17932,278.73868
36,36,3,16,0.5575,1,0,2,1.0,35.0,279.2984,280.2271,280.24435,280.24442,281.24445,281.24457,1.0,0.9833147,282.22787,285.01154,3.7674317,285.0121,285.5709
37,37,2,16,0.5575,1,0,8,1.0,36.0,286.0718,287.06055,287.0776,287.07767,288.0784,288.07852,2.0,0.9155804,288.9941,291.8452,3.767163,291.8458,292.40674
38,38,3,16,1.365,1,4,0,1.0,37.0,293.00238,293.89377,293.91098,293.91107,294.9117,294.91183,1.0,1.015454,295.92728,298.67963,3.7682467,298.68018,300.04623
39,39,2,32,0.5575,1,8,0,1.0,38.0,300.5548,301.54367,301.56134,301.56155,302.5617,302.56183,1.0,0.9327511,303.4946,306.32883,3.7674725,306.3294,306.88867
40,40,2,16,0.5575,1,0,2,1.0,39.0,307.388,308.3771,308.39447,308.39453,309.39462,309.39474,2.0,0.8660436,310.2608,313.1617,3.767432,313.16226,313.7214
41,41,2,16,4.595,1,2,0,1.0,40.0,314.22134,315.2105,315.22757,315.22763,316.22824,316.22836,1.0,1.0328442,317.26123,319.99576,3.767849,319.9963,324.59235
42,42,2,16,0.5575,1,4,0,1.0,41.0,325.08798,326.077,326.09415,326.09424,327.09528,327.0954,1.0,0.8990168,327.99442,330.86246,3.7675288,330.86304,331.42273
43,43,2,16,1.365,1,2,0,1.0,42.0,331.92172,332.91046,332.9275,332.92755,333.92746,333.92758,1.0,0.8667438,334.79434,337.69473,3.7676237,337.6953,339.06262
44,44,2,16,1.365,1,0,2,1.0,43.0,339.57144,340.56046,340.5775,340.5776,341.5776,341.57773,2.0,0.9661102,342.54385,345.34555,3.7683423,345.3462,346.71313
45,45,3,16,1.365,1,2,0,1.0,44.0,347.27048,348.21106,348.22745,348.22754,349.22668,349.2268,2.0,0.8845148,350.11133,352.99457,3.7682357,352.99515,354.3613
46,46,2,16,0.5575,1,1,0,1.0,45.0,354.8716,355.86066,355.87744,355.87756,356.8777,356.87784,1.0,0.9664513,357.84427,360.644,3.766673,360.64462,361.2036
47,47,3,16,2.98,1,8,0,1.0,46.0,361.75394,362.6946,362.7114,362.71152,363.712,363.71216,1.0,1.8323025,365.54443,367.4787,3.7670336,367.47928,370.46173
48,48,2,16,0.5575,1,0,8,1.0,47.0,370.97174,371.96017,371.97742,371.97748,372.97736,372.9775,2.0,0.7164021,373.6939,376.7457,3.7686813,376.74628,377.30637
