onset	duration	trial_type	response_time	Endowment	Endowment_pmod	Decision	Decision_pmod	Offer_pmod
4.506882	2	cue_nonsocial	n/a	16	-10	n/a	n/a	n/a
4.506882	2	cue_nonsocial_low	n/a	16	-9	n/a	n/a	n/a
12.156973	2	cue_nonsocial	n/a	32	6	n/a	n/a	n/a
12.156973	2	cue_nonsocial_high	n/a	32	7	n/a	n/a	n/a
19.095425	2	cue_social	n/a	16	-9	n/a	n/a	n/a
19.095425	2	cue_social_low	n/a	16	-10	n/a	n/a	n/a
26.691994	2	cue_social	n/a	32	7	n/a	n/a	n/a
26.691994	2	cue_social_high	n/a	32	6	n/a	n/a	n/a
34.361910	2	cue_social	n/a	16	-9	n/a	n/a	n/a
34.361910	2	cue_social_low	n/a	16	-10	n/a	n/a	n/a
41.194008	2	cue_social	n/a	16	-9	n/a	n/a	n/a
41.194008	2	cue_social_low	n/a	16	-10	n/a	n/a	n/a
50.458897	2	cue_social	n/a	16	-9	n/a	n/a	n/a
50.458897	2	cue_social_low	n/a	16	-10	n/a	n/a	n/a
58.040520	2	cue_nonsocial	n/a	16	-10	n/a	n/a	n/a
58.040520	2	cue_nonsocial_low	n/a	16	-9	n/a	n/a	n/a
64.873500	2	cue_nonsocial	n/a	16	-10	n/a	n/a	n/a
64.873500	2	cue_nonsocial_low	n/a	16	-9	n/a	n/a	n/a
71.706764	2	cue_nonsocial	n/a	32	6	n/a	n/a	n/a
71.706764	2	cue_nonsocial_high	n/a	32	7	n/a	n/a	n/a
78.647480	2	cue_social	n/a	32	7	n/a	n/a	n/a
78.647480	2	cue_social_high	n/a	32	6	n/a	n/a	n/a
85.481080	2	cue_social	n/a	32	7	n/a	n/a	n/a
85.481080	2	cue_social_high	n/a	32	6	n/a	n/a	n/a
93.126460	2	cue_social	n/a	32	7	n/a	n/a	n/a
93.126460	2	cue_social_high	n/a	32	6	n/a	n/a	n/a
100.658180	2	cue_nonsocial	n/a	32	6	n/a	n/a	n/a
100.658180	2	cue_nonsocial_high	n/a	32	7	n/a	n/a	n/a
109.906430	2	cue_nonsocial	n/a	16	-10	n/a	n/a	n/a
109.906430	2	cue_nonsocial_low	n/a	16	-9	n/a	n/a	n/a
117.606804	2	cue_social	n/a	16	-9	n/a	n/a	n/a
117.606804	2	cue_social_low	n/a	16	-10	n/a	n/a	n/a
124.390320	2	cue_nonsocial	n/a	32	6	n/a	n/a	n/a
124.390320	2	cue_nonsocial_high	n/a	32	7	n/a	n/a	n/a
135.256500	2	cue_nonsocial	n/a	32	6	n/a	n/a	n/a
135.256500	2	cue_nonsocial_high	n/a	32	7	n/a	n/a	n/a
142.152250	2	cue_social	n/a	32	7	n/a	n/a	n/a
142.152250	2	cue_social_high	n/a	32	6	n/a	n/a	n/a
153.021760	2	cue_social	n/a	32	7	n/a	n/a	n/a
153.021760	2	cue_social_high	n/a	32	6	n/a	n/a	n/a
159.843400	2	cue_social	n/a	32	7	n/a	n/a	n/a
159.843400	2	cue_social_high	n/a	32	6	n/a	n/a	n/a
169.098420	2	cue_social	n/a	16	-9	n/a	n/a	n/a
169.098420	2	cue_social_low	n/a	16	-10	n/a	n/a	n/a
175.873640	2	cue_nonsocial	n/a	32	6	n/a	n/a	n/a
175.873640	2	cue_nonsocial_high	n/a	32	7	n/a	n/a	n/a
186.740000	2	cue_nonsocial	n/a	32	6	n/a	n/a	n/a
186.740000	2	cue_nonsocial_high	n/a	32	7	n/a	n/a	n/a
194.453740	2	cue_social	n/a	16	-9	n/a	n/a	n/a
194.453740	2	cue_social_low	n/a	16	-10	n/a	n/a	n/a
201.223340	2	cue_nonsocial	n/a	16	-10	n/a	n/a	n/a
201.223340	2	cue_nonsocial_low	n/a	16	-9	n/a	n/a	n/a
208.114550	2	cue_social	n/a	32	7	n/a	n/a	n/a
208.114550	2	cue_social_high	n/a	32	6	n/a	n/a	n/a
214.889800	2	cue_nonsocial	n/a	16	-10	n/a	n/a	n/a
214.889800	2	cue_nonsocial_low	n/a	16	-9	n/a	n/a	n/a
221.723200	2	cue_nonsocial	n/a	16	-10	n/a	n/a	n/a
221.723200	2	cue_nonsocial_low	n/a	16	-9	n/a	n/a	n/a
230.973450	2	cue_nonsocial	n/a	32	6	n/a	n/a	n/a
230.973450	2	cue_nonsocial_high	n/a	32	7	n/a	n/a	n/a
237.806460	2	cue_nonsocial	n/a	32	6	n/a	n/a	n/a
237.806460	2	cue_nonsocial_high	n/a	32	7	n/a	n/a	n/a
245.456470	2	cue_nonsocial	n/a	32	6	n/a	n/a	n/a
245.456470	2	cue_nonsocial_high	n/a	32	7	n/a	n/a	n/a
254.723080	2	cue_nonsocial	n/a	32	6	n/a	n/a	n/a
254.723080	2	cue_nonsocial_high	n/a	32	7	n/a	n/a	n/a
261.556400	2	cue_nonsocial	n/a	32	6	n/a	n/a	n/a
261.556400	2	cue_nonsocial_high	n/a	32	7	n/a	n/a	n/a
268.439450	2	cue_social	n/a	16	-9	n/a	n/a	n/a
268.439450	2	cue_social_low	n/a	16	-10	n/a	n/a	n/a
275.223300	2	cue_nonsocial	n/a	32	6	n/a	n/a	n/a
275.223300	2	cue_nonsocial_high	n/a	32	7	n/a	n/a	n/a
282.081300	2	cue_social	n/a	16	-9	n/a	n/a	n/a
282.081300	2	cue_social_low	n/a	16	-10	n/a	n/a	n/a
291.333920	2	cue_social	n/a	32	7	n/a	n/a	n/a
291.333920	2	cue_social_high	n/a	32	6	n/a	n/a	n/a
298.974900	2	cue_social	n/a	32	7	n/a	n/a	n/a
298.974900	2	cue_social_high	n/a	32	6	n/a	n/a	n/a
305.855770	2	cue_social	n/a	16	-9	n/a	n/a	n/a
305.855770	2	cue_social_low	n/a	16	-10	n/a	n/a	n/a
312.622740	2	cue_nonsocial	n/a	32	6	n/a	n/a	n/a
312.622740	2	cue_nonsocial_high	n/a	32	7	n/a	n/a	n/a
325.106600	2	cue_nonsocial	n/a	16	-10	n/a	n/a	n/a
325.106600	2	cue_nonsocial_low	n/a	16	-9	n/a	n/a	n/a
331.992370	2	cue_social	n/a	16	-9	n/a	n/a	n/a
331.992370	2	cue_social_low	n/a	16	-10	n/a	n/a	n/a
339.637300	2	cue_social	n/a	32	7	n/a	n/a	n/a
339.637300	2	cue_social_high	n/a	32	6	n/a	n/a	n/a
346.422820	2	cue_nonsocial	n/a	32	6	n/a	n/a	n/a
346.422820	2	cue_nonsocial_high	n/a	32	7	n/a	n/a	n/a
354.122220	2	cue_social	n/a	32	7	n/a	n/a	n/a
354.122220	2	cue_social_high	n/a	32	6	n/a	n/a	n/a
360.952600	2	cue_social	n/a	32	7	n/a	n/a	n/a
360.952600	2	cue_social_high	n/a	32	6	n/a	n/a	n/a
368.556150	2	cue_nonsocial	n/a	16	-10	n/a	n/a	n/a
368.556150	2	cue_nonsocial_low	n/a	16	-9	n/a	n/a	n/a
6.514060	2.350179	dec_nonsocial_choice	2.350179	16.000000	n/a	4	1.953125e-02	1.953125e-02
6.514060	2.350179	dec_choice	2.350179	16.000000	n/a	4	1.953125e-02	1.953125e-02
6.514060	2.350179	dec_nonsocial_accept	2.350179	16.000000	n/a	4	1.953125e-02	1.953125e-02
6.514060	2.350179	dec_accept	2.350179	16.000000	n/a	4	1.953125e-02	1.953125e-02
6.514060	2.350179	dec_nonsocial_high	2.350179	16.000000	n/a	4	1.953125e-02	1.953125e-02
6.514060	2.350179	dec_nonsocial_accept_high	2.350179	16.000000	n/a	4	1.953125e-02	1.953125e-02
14.164324	2.582905	dec_nonsocial_choice	2.582905	32.000000	n/a	2	-1.679688e-01	-1.679688e-01
14.164324	2.582905	dec_choice	2.582905	32.000000	n/a	2	-1.679688e-01	-1.679688e-01
14.164324	2.582905	dec_nonsocial_accept	2.582905	32.000000	n/a	2	-1.679688e-01	-1.679688e-01
14.164324	2.582905	dec_accept	2.582905	32.000000	n/a	2	-1.679688e-01	-1.679688e-01
14.164324	2.582905	dec_nonsocial_accept_low	2.582905	32.000000	n/a	2	-1.679688e-01	-1.679688e-01
20.998064	2.165491	dec_social_choice	2.165491	16.000000	n/a	2	-1.054688e-01	-1.054688e-01
20.998064	2.165491	dec_choice	2.165491	16.000000	n/a	2	-1.054688e-01	-1.054688e-01
20.998064	2.165491	dec_social_accept	2.165491	16.000000	n/a	2	-1.054688e-01	-1.054688e-01
20.998064	2.165491	dec_accept	2.165491	16.000000	n/a	2	-1.054688e-01	-1.054688e-01
20.998064	2.165491	dec_social_low	2.165491	16.000000	n/a	2	-1.054688e-01	-1.054688e-01
20.998064	2.165491	dec_social_accept_low	2.165491	16.000000	n/a	2	-1.054688e-01	-1.054688e-01
28.647062	1.783604	dec_social_choice	1.783604	32.000000	n/a	8	1.953125e-02	1.953125e-02
28.647062	1.783604	dec_choice	1.783604	32.000000	n/a	8	1.953125e-02	1.953125e-02
28.647062	1.783604	dec_social_accept	1.783604	32.000000	n/a	8	1.953125e-02	1.953125e-02
28.647062	1.783604	dec_accept	1.783604	32.000000	n/a	8	1.953125e-02	1.953125e-02
28.647062	1.783604	dec_social_accept_high	1.783604	32.000000	n/a	8	1.953125e-02	1.953125e-02
36.297054	1.967007	dec_social_choice	1.967007	16.000000	n/a	8	2.695312e-01	2.695312e-01
36.297054	1.967007	dec_choice	1.967007	16.000000	n/a	8	2.695312e-01	2.695312e-01
36.297054	1.967007	dec_social_accept	1.967007	16.000000	n/a	8	2.695312e-01	2.695312e-01
36.297054	1.967007	dec_accept	1.967007	16.000000	n/a	8	2.695312e-01	2.695312e-01
36.297054	1.967007	dec_social_high	1.967007	16.000000	n/a	8	2.695312e-01	2.695312e-01
36.297054	1.967007	dec_social_accept_high	1.967007	16.000000	n/a	8	2.695312e-01	2.695312e-01
43.131260	2.365626	dec_social_choice	2.365626	16.000000	n/a	2	-1.054688e-01	-1.054688e-01
43.131260	2.365626	dec_choice	2.365626	16.000000	n/a	2	-1.054688e-01	-1.054688e-01
43.131260	2.365626	dec_social_accept	2.365626	16.000000	n/a	2	-1.054688e-01	-1.054688e-01
43.131260	2.365626	dec_accept	2.365626	16.000000	n/a	2	-1.054688e-01	-1.054688e-01
43.131260	2.365626	dec_social_accept_low	2.365626	16.000000	n/a	2	-1.054688e-01	-1.054688e-01
52.397068	2.466199	dec_social_choice	2.466199	16.000000	n/a	4	1.953125e-02	1.953125e-02
52.397068	2.466199	dec_choice	2.466199	16.000000	n/a	4	1.953125e-02	1.953125e-02
52.397068	2.466199	dec_social_accept	2.466199	16.000000	n/a	4	1.953125e-02	1.953125e-02
52.397068	2.466199	dec_accept	2.466199	16.000000	n/a	4	1.953125e-02	1.953125e-02
52.397068	2.466199	dec_social_accept_high	2.466199	16.000000	n/a	4	1.953125e-02	1.953125e-02
60.047047	2.166422	dec_nonsocial_choice	2.166422	16.000000	n/a	4	1.953125e-02	1.953125e-02
60.047047	2.166422	dec_choice	2.166422	16.000000	n/a	4	1.953125e-02	1.953125e-02
60.047047	2.166422	dec_nonsocial_accept	2.166422	16.000000	n/a	4	1.953125e-02	1.953125e-02
60.047047	2.166422	dec_accept	2.166422	16.000000	n/a	4	1.953125e-02	1.953125e-02
60.047047	2.166422	dec_nonsocial_high	2.166422	16.000000	n/a	4	1.953125e-02	1.953125e-02
60.047047	2.166422	dec_nonsocial_accept_high	2.166422	16.000000	n/a	4	1.953125e-02	1.953125e-02
66.880070	2.116773	dec_nonsocial_choice	2.116773	16.000000	n/a	2	-1.054688e-01	-1.054688e-01
66.880070	2.116773	dec_choice	2.116773	16.000000	n/a	2	-1.054688e-01	-1.054688e-01
66.880070	2.116773	dec_nonsocial_accept	2.116773	16.000000	n/a	2	-1.054688e-01	-1.054688e-01
66.880070	2.116773	dec_accept	2.116773	16.000000	n/a	2	-1.054688e-01	-1.054688e-01
66.880070	2.116773	dec_nonsocial_accept_low	2.116773	16.000000	n/a	2	-1.054688e-01	-1.054688e-01
73.714066	1.899995	dec_nonsocial_choice	1.899995	32.000000	n/a	3	-1.367188e-01	-1.367188e-01
73.714066	1.899995	dec_choice	1.899995	32.000000	n/a	3	-1.367188e-01	-1.367188e-01
73.714066	1.899995	dec_nonsocial_accept	1.899995	32.000000	n/a	3	-1.367188e-01	-1.367188e-01
73.714066	1.899995	dec_accept	1.899995	32.000000	n/a	3	-1.367188e-01	-1.367188e-01
73.714066	1.899995	dec_nonsocial_low	1.899995	32.000000	n/a	3	-1.367188e-01	-1.367188e-01
73.714066	1.899995	dec_nonsocial_accept_low	1.899995	32.000000	n/a	3	-1.367188e-01	-1.367188e-01
80.547070	1.683615	dec_social_choice	1.683615	32.000000	n/a	16	2.695312e-01	2.695312e-01
80.547070	1.683615	dec_choice	1.683615	32.000000	n/a	16	2.695312e-01	2.695312e-01
80.547070	1.683615	dec_social_accept	1.683615	32.000000	n/a	16	2.695312e-01	2.695312e-01
80.547070	1.683615	dec_accept	1.683615	32.000000	n/a	16	2.695312e-01	2.695312e-01
80.547070	1.683615	dec_social_accept_high	1.683615	32.000000	n/a	16	2.695312e-01	2.695312e-01
87.380070	1.850846	dec_social_choice	1.850846	32.000000	n/a	3	-1.367188e-01	-1.367188e-01
87.380070	1.850846	dec_choice	1.850846	32.000000	n/a	3	-1.367188e-01	-1.367188e-01
87.380070	1.850846	dec_social_accept	1.850846	32.000000	n/a	3	-1.367188e-01	-1.367188e-01
87.380070	1.850846	dec_accept	1.850846	32.000000	n/a	3	-1.367188e-01	-1.367188e-01
87.380070	1.850846	dec_social_low	1.850846	32.000000	n/a	3	-1.367188e-01	-1.367188e-01
87.380070	1.850846	dec_social_accept_low	1.850846	32.000000	n/a	3	-1.367188e-01	-1.367188e-01
95.014100	1.715900	dec_social_choice	1.715900	32.000000	n/a	2	-1.679688e-01	-1.679688e-01
95.014100	1.715900	dec_choice	1.715900	32.000000	n/a	2	-1.679688e-01	-1.679688e-01
95.014100	1.715900	dec_social_accept	1.715900	32.000000	n/a	2	-1.679688e-01	-1.679688e-01
95.014100	1.715900	dec_accept	1.715900	32.000000	n/a	2	-1.679688e-01	-1.679688e-01
95.014100	1.715900	dec_social_accept_low	1.715900	32.000000	n/a	2	-1.679688e-01	-1.679688e-01
102.664085	1.683048	dec_nonsocial_choice	1.683048	32.000000	n/a	16	2.695312e-01	2.695312e-01
102.664085	1.683048	dec_choice	1.683048	32.000000	n/a	16	2.695312e-01	2.695312e-01
102.664085	1.683048	dec_nonsocial_accept	1.683048	32.000000	n/a	16	2.695312e-01	2.695312e-01
102.664085	1.683048	dec_accept	1.683048	32.000000	n/a	16	2.695312e-01	2.695312e-01
102.664085	1.683048	dec_nonsocial_accept_high	1.683048	32.000000	n/a	16	2.695312e-01	2.695312e-01
111.913270	1.983436	dec_nonsocial_choice	1.983436	16.000000	n/a	2	-1.054688e-01	-1.054688e-01
111.913270	1.983436	dec_choice	1.983436	16.000000	n/a	2	-1.054688e-01	-1.054688e-01
111.913270	1.983436	dec_nonsocial_accept	1.983436	16.000000	n/a	2	-1.054688e-01	-1.054688e-01
111.913270	1.983436	dec_accept	1.983436	16.000000	n/a	2	-1.054688e-01	-1.054688e-01
111.913270	1.983436	dec_nonsocial_low	1.983436	16.000000	n/a	2	-1.054688e-01	-1.054688e-01
111.913270	1.983436	dec_nonsocial_accept_low	1.983436	16.000000	n/a	2	-1.054688e-01	-1.054688e-01
119.564130	1.816015	dec_social_choice	1.816015	16.000000	n/a	4	1.953125e-02	1.953125e-02
119.564130	1.816015	dec_choice	1.816015	16.000000	n/a	4	1.953125e-02	1.953125e-02
119.564130	1.816015	dec_social_accept	1.816015	16.000000	n/a	4	1.953125e-02	1.953125e-02
119.564130	1.816015	dec_accept	1.816015	16.000000	n/a	4	1.953125e-02	1.953125e-02
119.564130	1.816015	dec_social_high	1.816015	16.000000	n/a	4	1.953125e-02	1.953125e-02
119.564130	1.816015	dec_social_accept_high	1.816015	16.000000	n/a	4	1.953125e-02	1.953125e-02
126.397830	1.599131	dec_nonsocial_choice	1.599131	32.000000	n/a	8	1.953125e-02	1.953125e-02
126.397830	1.599131	dec_choice	1.599131	32.000000	n/a	8	1.953125e-02	1.953125e-02
126.397830	1.599131	dec_nonsocial_accept	1.599131	32.000000	n/a	8	1.953125e-02	1.953125e-02
126.397830	1.599131	dec_accept	1.599131	32.000000	n/a	8	1.953125e-02	1.953125e-02
126.397830	1.599131	dec_nonsocial_high	1.599131	32.000000	n/a	8	1.953125e-02	1.953125e-02
126.397830	1.599131	dec_nonsocial_accept_high	1.599131	32.000000	n/a	8	1.953125e-02	1.953125e-02
137.264530	2.999320	dec_nonsocial_choice	2.999320	32.000000	n/a	2	-1.679688e-01	-1.679688e-01
137.264530	2.999320	dec_choice	2.999320	32.000000	n/a	2	-1.679688e-01	-1.679688e-01
137.264530	2.999320	dec_nonsocial_accept	2.999320	32.000000	n/a	2	-1.679688e-01	-1.679688e-01
137.264530	2.999320	dec_accept	2.999320	32.000000	n/a	2	-1.679688e-01	-1.679688e-01
137.264530	2.999320	dec_nonsocial_accept_low	2.999320	32.000000	n/a	2	-1.679688e-01	-1.679688e-01
144.098070	1.715221	dec_social_choice	1.715221	32.000000	n/a	2	-1.679688e-01	-1.679688e-01
144.098070	1.715221	dec_choice	1.715221	32.000000	n/a	2	-1.679688e-01	-1.679688e-01
144.098070	1.715221	dec_social_accept	1.715221	32.000000	n/a	2	-1.679688e-01	-1.679688e-01
144.098070	1.715221	dec_accept	1.715221	32.000000	n/a	2	-1.679688e-01	-1.679688e-01
144.098070	1.715221	dec_social_low	1.715221	32.000000	n/a	2	-1.679688e-01	-1.679688e-01
144.098070	1.715221	dec_social_accept_low	1.715221	32.000000	n/a	2	-1.679688e-01	-1.679688e-01
154.963090	1.484045	dec_social_choice	1.484045	32.000000	n/a	2	-1.679688e-01	-1.679688e-01
154.963090	1.484045	dec_choice	1.484045	32.000000	n/a	2	-1.679688e-01	-1.679688e-01
154.963090	1.484045	dec_social_accept	1.484045	32.000000	n/a	2	-1.679688e-01	-1.679688e-01
154.963090	1.484045	dec_accept	1.484045	32.000000	n/a	2	-1.679688e-01	-1.679688e-01
154.963090	1.484045	dec_social_accept_low	1.484045	32.000000	n/a	2	-1.679688e-01	-1.679688e-01
161.797070	1.349617	dec_social_choice	1.349617	32.000000	n/a	16	2.695312e-01	2.695312e-01
161.797070	1.349617	dec_choice	1.349617	32.000000	n/a	16	2.695312e-01	2.695312e-01
161.797070	1.349617	dec_social_accept	1.349617	32.000000	n/a	16	2.695312e-01	2.695312e-01
161.797070	1.349617	dec_accept	1.349617	32.000000	n/a	16	2.695312e-01	2.695312e-01
161.797070	1.349617	dec_social_high	1.349617	32.000000	n/a	16	2.695312e-01	2.695312e-01
161.797070	1.349617	dec_social_accept_high	1.349617	32.000000	n/a	16	2.695312e-01	2.695312e-01
171.047230	1.233007	dec_social_choice	1.233007	16.000000	n/a	8	2.695312e-01	2.695312e-01
171.047230	1.233007	dec_choice	1.233007	16.000000	n/a	8	2.695312e-01	2.695312e-01
171.047230	1.233007	dec_social_accept	1.233007	16.000000	n/a	8	2.695312e-01	2.695312e-01
171.047230	1.233007	dec_accept	1.233007	16.000000	n/a	8	2.695312e-01	2.695312e-01
171.047230	1.233007	dec_social_high	1.233007	16.000000	n/a	8	2.695312e-01	2.695312e-01
171.047230	1.233007	dec_social_accept_high	1.233007	16.000000	n/a	8	2.695312e-01	2.695312e-01
177.880520	2.083223	dec_nonsocial_choice	2.083223	32.000000	n/a	2	-1.679688e-01	-1.679688e-01
177.880520	2.083223	dec_choice	2.083223	32.000000	n/a	2	-1.679688e-01	-1.679688e-01
177.880520	2.083223	dec_nonsocial_accept	2.083223	32.000000	n/a	2	-1.679688e-01	-1.679688e-01
177.880520	2.083223	dec_accept	2.083223	32.000000	n/a	2	-1.679688e-01	-1.679688e-01
177.880520	2.083223	dec_nonsocial_accept_low	2.083223	32.000000	n/a	2	-1.679688e-01	-1.679688e-01
188.747060	1.233440	dec_nonsocial_choice	1.233440	32.000000	n/a	16	2.695312e-01	2.695312e-01
188.747060	1.233440	dec_choice	1.233440	32.000000	n/a	16	2.695312e-01	2.695312e-01
188.747060	1.233440	dec_nonsocial_accept	1.233440	32.000000	n/a	16	2.695312e-01	2.695312e-01
188.747060	1.233440	dec_accept	1.233440	32.000000	n/a	16	2.695312e-01	2.695312e-01
188.747060	1.233440	dec_nonsocial_accept_high	1.233440	32.000000	n/a	16	2.695312e-01	2.695312e-01
196.396990	1.733055	dec_social_choice	1.733055	16.000000	n/a	1	-1.679688e-01	-1.679688e-01
196.396990	1.733055	dec_choice	1.733055	16.000000	n/a	1	-1.679688e-01	-1.679688e-01
196.396990	1.733055	dec_social_accept	1.733055	16.000000	n/a	1	-1.679688e-01	-1.679688e-01
196.396990	1.733055	dec_accept	1.733055	16.000000	n/a	1	-1.679688e-01	-1.679688e-01
196.396990	1.733055	dec_social_low	1.733055	16.000000	n/a	1	-1.679688e-01	-1.679688e-01
196.396990	1.733055	dec_social_accept_low	1.733055	16.000000	n/a	1	-1.679688e-01	-1.679688e-01
203.230970	1.782646	dec_nonsocial_choice	1.782646	16.000000	n/a	8	2.695312e-01	2.695312e-01
203.230970	1.782646	dec_choice	1.782646	16.000000	n/a	8	2.695312e-01	2.695312e-01
203.230970	1.782646	dec_nonsocial_accept	1.782646	16.000000	n/a	8	2.695312e-01	2.695312e-01
203.230970	1.782646	dec_accept	1.782646	16.000000	n/a	8	2.695312e-01	2.695312e-01
203.230970	1.782646	dec_nonsocial_accept_high	1.782646	16.000000	n/a	8	2.695312e-01	2.695312e-01
210.063980	1.333661	dec_social_choice	1.333661	32.000000	n/a	16	2.695312e-01	2.695312e-01
210.063980	1.333661	dec_choice	1.333661	32.000000	n/a	16	2.695312e-01	2.695312e-01
210.063980	1.333661	dec_social_accept	1.333661	32.000000	n/a	16	2.695312e-01	2.695312e-01
210.063980	1.333661	dec_accept	1.333661	32.000000	n/a	16	2.695312e-01	2.695312e-01
210.063980	1.333661	dec_social_accept_high	1.333661	32.000000	n/a	16	2.695312e-01	2.695312e-01
216.897130	1.249929	dec_nonsocial_choice	1.249929	16.000000	n/a	1	-1.679688e-01	-1.679688e-01
216.897130	1.249929	dec_choice	1.249929	16.000000	n/a	1	-1.679688e-01	-1.679688e-01
216.897130	1.249929	dec_nonsocial_accept	1.249929	16.000000	n/a	1	-1.679688e-01	-1.679688e-01
216.897130	1.249929	dec_accept	1.249929	16.000000	n/a	1	-1.679688e-01	-1.679688e-01
216.897130	1.249929	dec_nonsocial_low	1.249929	16.000000	n/a	1	-1.679688e-01	-1.679688e-01
216.897130	1.249929	dec_nonsocial_accept_low	1.249929	16.000000	n/a	1	-1.679688e-01	-1.679688e-01
223.730100	1.433694	dec_nonsocial_choice	1.433694	16.000000	n/a	4	1.953125e-02	1.953125e-02
223.730100	1.433694	dec_choice	1.433694	16.000000	n/a	4	1.953125e-02	1.953125e-02
223.730100	1.433694	dec_nonsocial_accept	1.433694	16.000000	n/a	4	1.953125e-02	1.953125e-02
223.730100	1.433694	dec_accept	1.433694	16.000000	n/a	4	1.953125e-02	1.953125e-02
223.730100	1.433694	dec_nonsocial_high	1.433694	16.000000	n/a	4	1.953125e-02	1.953125e-02
223.730100	1.433694	dec_nonsocial_accept_high	1.433694	16.000000	n/a	4	1.953125e-02	1.953125e-02
232.980220	1.549789	dec_nonsocial_choice	1.549789	32.000000	n/a	16	2.695312e-01	2.695312e-01
232.980220	1.549789	dec_choice	1.549789	32.000000	n/a	16	2.695312e-01	2.695312e-01
232.980220	1.549789	dec_nonsocial_accept	1.549789	32.000000	n/a	16	2.695312e-01	2.695312e-01
232.980220	1.549789	dec_accept	1.549789	32.000000	n/a	16	2.695312e-01	2.695312e-01
232.980220	1.549789	dec_nonsocial_accept_high	1.549789	32.000000	n/a	16	2.695312e-01	2.695312e-01
239.814120	1.582686	dec_nonsocial_choice	1.582686	32.000000	n/a	16	2.695312e-01	2.695312e-01
239.814120	1.582686	dec_choice	1.582686	32.000000	n/a	16	2.695312e-01	2.695312e-01
239.814120	1.582686	dec_nonsocial_accept	1.582686	32.000000	n/a	16	2.695312e-01	2.695312e-01
239.814120	1.582686	dec_accept	1.582686	32.000000	n/a	16	2.695312e-01	2.695312e-01
239.814120	1.582686	dec_nonsocial_accept_high	1.582686	32.000000	n/a	16	2.695312e-01	2.695312e-01
247.463070	1.966695	dec_nonsocial_choice	1.966695	32.000000	n/a	3	-1.367188e-01	-1.367188e-01
247.463070	1.966695	dec_choice	1.966695	32.000000	n/a	3	-1.367188e-01	-1.367188e-01
247.463070	1.966695	dec_nonsocial_accept	1.966695	32.000000	n/a	3	-1.367188e-01	-1.367188e-01
247.463070	1.966695	dec_accept	1.966695	32.000000	n/a	3	-1.367188e-01	-1.367188e-01
247.463070	1.966695	dec_nonsocial_accept_low	1.966695	32.000000	n/a	3	-1.367188e-01	-1.367188e-01
256.730960	1.482613	dec_nonsocial_choice	1.482613	32.000000	n/a	2	-1.679688e-01	-1.679688e-01
256.730960	1.482613	dec_choice	1.482613	32.000000	n/a	2	-1.679688e-01	-1.679688e-01
256.730960	1.482613	dec_nonsocial_accept	1.482613	32.000000	n/a	2	-1.679688e-01	-1.679688e-01
256.730960	1.482613	dec_accept	1.482613	32.000000	n/a	2	-1.679688e-01	-1.679688e-01
256.730960	1.482613	dec_nonsocial_accept_low	1.482613	32.000000	n/a	2	-1.679688e-01	-1.679688e-01
263.564100	1.665703	dec_nonsocial_choice	1.665703	32.000000	n/a	2	-1.679688e-01	-1.679688e-01
263.564100	1.665703	dec_choice	1.665703	32.000000	n/a	2	-1.679688e-01	-1.679688e-01
263.564100	1.665703	dec_nonsocial_accept	1.665703	32.000000	n/a	2	-1.679688e-01	-1.679688e-01
263.564100	1.665703	dec_accept	1.665703	32.000000	n/a	2	-1.679688e-01	-1.679688e-01
263.564100	1.665703	dec_nonsocial_low	1.665703	32.000000	n/a	2	-1.679688e-01	-1.679688e-01
263.564100	1.665703	dec_nonsocial_accept_low	1.665703	32.000000	n/a	2	-1.679688e-01	-1.679688e-01
270.397100	1.699774	dec_social_choice	1.699774	16.000000	n/a	4	1.953125e-02	1.953125e-02
270.397100	1.699774	dec_choice	1.699774	16.000000	n/a	4	1.953125e-02	1.953125e-02
270.397100	1.699774	dec_social_accept	1.699774	16.000000	n/a	4	1.953125e-02	1.953125e-02
270.397100	1.699774	dec_accept	1.699774	16.000000	n/a	4	1.953125e-02	1.953125e-02
270.397100	1.699774	dec_social_high	1.699774	16.000000	n/a	4	1.953125e-02	1.953125e-02
270.397100	1.699774	dec_social_accept_high	1.699774	16.000000	n/a	4	1.953125e-02	1.953125e-02
277.230680	1.599343	dec_nonsocial_choice	1.599343	32.000000	n/a	3	-1.367188e-01	-1.367188e-01
277.230680	1.599343	dec_choice	1.599343	32.000000	n/a	3	-1.367188e-01	-1.367188e-01
277.230680	1.599343	dec_nonsocial_accept	1.599343	32.000000	n/a	3	-1.367188e-01	-1.367188e-01
277.230680	1.599343	dec_accept	1.599343	32.000000	n/a	3	-1.367188e-01	-1.367188e-01
277.230680	1.599343	dec_nonsocial_accept_low	1.599343	32.000000	n/a	3	-1.367188e-01	-1.367188e-01
284.062470	1.517804	dec_social_choice	1.517804	16.000000	n/a	4	1.953125e-02	1.953125e-02
284.062470	1.517804	dec_choice	1.517804	16.000000	n/a	4	1.953125e-02	1.953125e-02
284.062470	1.517804	dec_social_accept	1.517804	16.000000	n/a	4	1.953125e-02	1.953125e-02
284.062470	1.517804	dec_accept	1.517804	16.000000	n/a	4	1.953125e-02	1.953125e-02
284.062470	1.517804	dec_social_high	1.517804	16.000000	n/a	4	1.953125e-02	1.953125e-02
284.062470	1.517804	dec_social_accept_high	1.517804	16.000000	n/a	4	1.953125e-02	1.953125e-02
293.313960	1.149088	dec_social_choice	1.149088	32.000000	n/a	8	1.953125e-02	1.953125e-02
293.313960	1.149088	dec_choice	1.149088	32.000000	n/a	8	1.953125e-02	1.953125e-02
293.313960	1.149088	dec_social_accept	1.149088	32.000000	n/a	8	1.953125e-02	1.953125e-02
293.313960	1.149088	dec_accept	1.149088	32.000000	n/a	8	1.953125e-02	1.953125e-02
293.313960	1.149088	dec_social_high	1.149088	32.000000	n/a	8	1.953125e-02	1.953125e-02
293.313960	1.149088	dec_social_accept_high	1.149088	32.000000	n/a	8	1.953125e-02	1.953125e-02
300.964080	1.482712	dec_social_choice	1.482712	32.000000	n/a	3	-1.367188e-01	-1.367188e-01
300.964080	1.482712	dec_choice	1.482712	32.000000	n/a	3	-1.367188e-01	-1.367188e-01
300.964080	1.482712	dec_social_accept	1.482712	32.000000	n/a	3	-1.367188e-01	-1.367188e-01
300.964080	1.482712	dec_accept	1.482712	32.000000	n/a	3	-1.367188e-01	-1.367188e-01
300.964080	1.482712	dec_social_accept_low	1.482712	32.000000	n/a	3	-1.367188e-01	-1.367188e-01
307.797060	1.465782	dec_social_choice	1.465782	16.000000	n/a	2	-1.054688e-01	-1.054688e-01
307.797060	1.465782	dec_choice	1.465782	16.000000	n/a	2	-1.054688e-01	-1.054688e-01
307.797060	1.465782	dec_social_accept	1.465782	16.000000	n/a	2	-1.054688e-01	-1.054688e-01
307.797060	1.465782	dec_accept	1.465782	16.000000	n/a	2	-1.054688e-01	-1.054688e-01
307.797060	1.465782	dec_social_low	1.465782	16.000000	n/a	2	-1.054688e-01	-1.054688e-01
307.797060	1.465782	dec_social_accept_low	1.465782	16.000000	n/a	2	-1.054688e-01	-1.054688e-01
314.630070	1.150095	dec_nonsocial_choice	1.150095	32.000000	n/a	8	1.953125e-02	1.953125e-02
314.630070	1.150095	dec_choice	1.150095	32.000000	n/a	8	1.953125e-02	1.953125e-02
314.630070	1.150095	dec_nonsocial_accept	1.150095	32.000000	n/a	8	1.953125e-02	1.953125e-02
314.630070	1.150095	dec_accept	1.150095	32.000000	n/a	8	1.953125e-02	1.953125e-02
314.630070	1.150095	dec_nonsocial_accept_high	1.150095	32.000000	n/a	8	1.953125e-02	1.953125e-02
327.113070	1.616401	dec_nonsocial_choice	1.616401	16.000000	n/a	4	1.953125e-02	1.953125e-02
327.113070	1.616401	dec_choice	1.616401	16.000000	n/a	4	1.953125e-02	1.953125e-02
327.113070	1.616401	dec_nonsocial_accept	1.616401	16.000000	n/a	4	1.953125e-02	1.953125e-02
327.113070	1.616401	dec_accept	1.616401	16.000000	n/a	4	1.953125e-02	1.953125e-02
327.113070	1.616401	dec_nonsocial_high	1.616401	16.000000	n/a	4	1.953125e-02	1.953125e-02
327.113070	1.616401	dec_nonsocial_accept_high	1.616401	16.000000	n/a	4	1.953125e-02	1.953125e-02
333.946100	1.416773	dec_social_choice	1.416773	16.000000	n/a	1	-1.679688e-01	-1.679688e-01
333.946100	1.416773	dec_choice	1.416773	16.000000	n/a	1	-1.679688e-01	-1.679688e-01
333.946100	1.416773	dec_social_accept	1.416773	16.000000	n/a	1	-1.679688e-01	-1.679688e-01
333.946100	1.416773	dec_accept	1.416773	16.000000	n/a	1	-1.679688e-01	-1.679688e-01
333.946100	1.416773	dec_social_accept_low	1.416773	16.000000	n/a	1	-1.679688e-01	-1.679688e-01
341.596100	1.566643	dec_social_choice	1.566643	32.000000	n/a	16	2.695312e-01	2.695312e-01
341.596100	1.566643	dec_choice	1.566643	32.000000	n/a	16	2.695312e-01	2.695312e-01
341.596100	1.566643	dec_social_accept	1.566643	32.000000	n/a	16	2.695312e-01	2.695312e-01
341.596100	1.566643	dec_accept	1.566643	32.000000	n/a	16	2.695312e-01	2.695312e-01
341.596100	1.566643	dec_social_accept_high	1.566643	32.000000	n/a	16	2.695312e-01	2.695312e-01
348.430100	1.549647	dec_nonsocial_choice	1.549647	32.000000	n/a	16	2.695312e-01	2.695312e-01
348.430100	1.549647	dec_choice	1.549647	32.000000	n/a	16	2.695312e-01	2.695312e-01
348.430100	1.549647	dec_nonsocial_accept	1.549647	32.000000	n/a	16	2.695312e-01	2.695312e-01
348.430100	1.549647	dec_accept	1.549647	32.000000	n/a	16	2.695312e-01	2.695312e-01
348.430100	1.549647	dec_nonsocial_accept_high	1.549647	32.000000	n/a	16	2.695312e-01	2.695312e-01
356.080380	1.532772	dec_social_choice	1.532772	32.000000	n/a	3	-1.367188e-01	-1.367188e-01
356.080380	1.532772	dec_choice	1.532772	32.000000	n/a	3	-1.367188e-01	-1.367188e-01
356.080380	1.532772	dec_social_accept	1.532772	32.000000	n/a	3	-1.367188e-01	-1.367188e-01
356.080380	1.532772	dec_accept	1.532772	32.000000	n/a	3	-1.367188e-01	-1.367188e-01
356.080380	1.532772	dec_social_low	1.532772	32.000000	n/a	3	-1.367188e-01	-1.367188e-01
356.080380	1.532772	dec_social_accept_low	1.532772	32.000000	n/a	3	-1.367188e-01	-1.367188e-01
362.913120	1.449812	dec_social_choice	1.449812	32.000000	n/a	2	-1.679688e-01	-1.679688e-01
362.913120	1.449812	dec_choice	1.449812	32.000000	n/a	2	-1.679688e-01	-1.679688e-01
362.913120	1.449812	dec_social_accept	1.449812	32.000000	n/a	2	-1.679688e-01	-1.679688e-01
362.913120	1.449812	dec_accept	1.449812	32.000000	n/a	2	-1.679688e-01	-1.679688e-01
362.913120	1.449812	dec_social_low	1.449812	32.000000	n/a	2	-1.679688e-01	-1.679688e-01
362.913120	1.449812	dec_social_accept_low	1.449812	32.000000	n/a	2	-1.679688e-01	-1.679688e-01
370.563300	1.815916	dec_nonsocial_choice	1.815916	16.000000	n/a	2	-1.054688e-01	-1.054688e-01
370.563300	1.815916	dec_choice	1.815916	16.000000	n/a	2	-1.054688e-01	-1.054688e-01
370.563300	1.815916	dec_nonsocial_accept	1.815916	16.000000	n/a	2	-1.054688e-01	-1.054688e-01
370.563300	1.815916	dec_accept	1.815916	16.000000	n/a	2	-1.054688e-01	-1.054688e-01
370.563300	1.815916	dec_nonsocial_low	1.815916	16.000000	n/a	2	-1.054688e-01	-1.054688e-01
370.563300	1.815916	dec_nonsocial_accept_low	1.815916	16.000000	n/a	2	-1.054688e-01	-1.054688e-01
