TrialNumber,Trialn,TrialType,Partner,Feedback,ITI,ISI,ran,order,studyStart,InitFixOnset,decision_onset,resp,resp_onset,rt,ISI_onset,isi_for_trial,ISI_offset,outcome_val,outcome_onset,outcome_offset,trialDuration,ITIonset,ITIoffset,final_fix_offset
1,1,3,1,3,4.037500e+00,1.615000e+00,1.0,0.0,2.6000198e-06,0.0093482,4.015746,1.0,5.8831406,1.8673944,5.9836173,2.4476056,8.433395,3.0,8.433542,9.04169,5.0259433,9.041898,13.08288,--
2,2,4,2,1,5.652500e+00,1.615000e+00,1.0,1.0,--,--,13.097103,1.0,14.23495,1.1378475,14.335304,3.1771524,17.515327,8.0,17.515444,18.121805,5.0247035,18.121965,23.776344,--
3,3,6,2,3,8.075000e-01,2.422500e+00,1.0,2.0,--,--,23.789104,1.0,24.516405,0.7273006,24.616823,4.3951993,29.014791,1.0,29.014914,29.621187,5.832084,29.62134,30.430769,--
4,4,3,1,3,2.422500e+00,1.615000e+00,1.0,3.0,--,--,30.434963,1.0,31.166348,0.7313843,31.266764,3.5836158,34.852047,3.0,34.852165,35.45583,5.020865,35.45598,37.880383,--
5,5,6,2,3,4.037500e+00,1.615000e+00,1.0,4.0,--,--,37.89184,1.0,38.93288,1.041038,39.033295,3.273962,42.308968,3.0,42.30909,42.913376,5.0215354,42.91357,46.95389,--
6,6,9,3,3,8.075000e-01,1.615000e+00,1.0,5.0,--,--,46.964554,1.0,47.499653,0.5350998,47.600082,3.7799003,51.38195,4.0,51.382065,51.987995,5.0234423,51.988144,52.79786,--
7,7,6,2,3,8.075000e-01,2.422500e+00,1.0,6.0,--,--,52.809486,1.0,54.466133,1.656646,54.566498,3.465854,58.034367,1.0,58.034496,58.639076,5.829588,58.639225,59.449047,--
8,8,1,1,1,7.267500e+00,1.615000e+00,1.0,7.0,--,--,59.452015,1.0,60.182743,0.7307279,60.283085,3.5842721,63.869915,6.0,63.87003,64.47604,5.0240283,64.47619,71.746056,--
9,9,5,2,2,8.075000e-01,8.075000e-01,1.0,8.0,--,--,71.75748,1.0,72.39945,0.6419755,72.49984,2.8655245,75.366974,5.0,75.36709,75.97409,4.2166142,75.974236,76.78408,--
10,10,3,1,3,8.075000e-01,8.075000e-01,1.0,9.0,--,--,76.78727,1.0,77.73284,0.9455711,77.8332,2.561929,80.39597,2.0,80.39609,81.0016,4.214332,81.001755,81.810974,--
11,11,7,3,1,8.075000e-01,2.422500e+00,1.0,10.0,--,--,81.82907,1.0,82.76643,0.9373663,82.866844,4.185134,87.053955,8.0,87.05408,87.65908,5.830014,87.659225,88.46908,--
12,12,4,2,1,2.422500e+00,8.075000e-01,1.0,11.0,--,--,88.48038,1.0,89.21648,0.736093,89.31687,2.771407,92.09094,7.0,92.09106,92.69609,4.2157125,92.69626,95.12123,--
13,13,6,2,3,2.422500e+00,2.422500e+00,1.0,12.0,--,--,95.13262,1.0,96.06607,0.9334452,96.16641,4.189055,100.35799,1.0,100.35809,100.968475,5.8358493,100.96862,103.39373,--
14,14,2,1,2,8.075000e-01,1.615000e+00,1.0,13.0,--,--,103.396675,1.0,104.13268,0.7360102,104.233086,3.5789897,107.812965,5.0,107.81308,108.417595,5.0209155,108.41775,109.22797,--
15,15,6,2,3,8.075000e-01,2.422500e+00,1.0,14.0,--,--,109.23915,1.0,110.18287,0.9437155,110.283195,4.1787844,114.46418,2.0,114.46429,115.06904,5.829891,115.06919,115.87895,--
16,16,9,3,3,5.652500e+00,8.075000e-01,1.0,15.0,--,--,115.8866,1.0,116.61682,0.7302213,116.717224,2.7772787,119.49707,3.0,119.497185,120.10108,4.2144885,120.10125,125.755974,--
17,17,7,3,1,8.075000e-01,1.615000e+00,1.0,16.0,--,--,125.76265,1.0,126.399475,0.636829,126.49986,3.678171,130.18047,9.0,130.18057,130.78722,5.024563,130.78738,131.597,--
18,18,4,2,1,5.652500e+00,8.075000e-01,1.0,17.0,--,--,131.6083,1.0,132.33278,0.7244812,132.43314,2.7830188,135.2184,7.0,135.21852,135.82307,4.214774,135.82323,141.47757,--
19,19,1,1,1,2.422500e+00,2.422500e+00,1.0,18.0,--,--,141.4805,1.0,141.99963,0.5191234,142.1,4.6033764,146.7054,6.0,146.7055,147.31552,5.8350215,147.31569,149.74036,--
20,20,7,3,1,8.075000e-01,1.615000e+00,1.0,19.0,--,--,149.74788,1.0,150.48262,0.7347309,150.58298,3.580269,154.16599,7.0,154.1661,154.77022,5.022336,154.77039,155.5808,--
21,21,4,2,1,8.075000e-01,2.422500e+00,1.0,20.0,--,--,155.59207,1.0,156.53275,0.9406665,156.63309,4.1818333,160.81596,9.0,160.81607,161.4201,5.828034,161.42027,162.2301,--
22,22,1,1,1,8.075000e-01,1.615000e+00,1.0,21.0,--,--,162.233,0.0,165.01099,2.7779865,165.11134,1.5370135,166.65099,999.0,166.6511,167.25705,5.024053,167.25722,168.06667,--
23,23,4,2,1,8.075000e-01,8.075000e-01,1.0,22.0,--,--,168.07779,1.0,168.70132,0.623542,168.80168,2.883958,171.68689,7.0,171.68701,172.29167,4.213887,172.29184,173.10188,--
24,24,7,3,1,2.422500e+00,2.422500e+00,1.0,23.0,--,--,173.10962,1.0,174.04948,0.9398788,174.14984,4.182621,178.335,8.0,178.33511,178.93881,5.829194,178.93895,181.36417,--
25,25,2,1,2,2.422500e+00,2.422500e+00,1.0,24.0,--,--,181.36705,1.0,181.79962,0.432575,181.90001,4.689925,186.591,5.0,186.59113,187.19582,5.82877,187.19598,189.621,--
26,26,7,3,1,8.075000e-01,2.422500e+00,1.0,25.0,--,--,189.62857,1.0,190.36615,0.7375781,190.4665,4.384922,194.85301,9.0,194.85312,195.45772,5.8291416,195.45789,196.2671,--
27,27,1,1,1,4.037500e+00,8.075000e-01,1.0,26.0,--,--,196.27007,2.0,197.51604,1.2459795,197.61638,2.2615204,199.88004,1.0,199.88016,200.48384,4.213774,200.484,204.52403,--
28,28,8,3,2,8.075000e-01,1.615000e+00,1.0,27.0,--,--,204.5316,2.0,205.05124,0.5196291,205.15158,3.7953708,208.9489,5.0,208.949,209.55388,5.0222793,209.55403,210.36401,--
29,29,4,2,1,8.075000e-01,1.615000e+00,1.0,28.0,--,--,210.37538,2.0,211.4163,1.0409347,211.51671,3.2740653,214.79364,4.0,214.79376,215.39822,5.0228443,215.39838,216.20793,--
30,30,9,3,3,8.075000e-01,8.075000e-01,1.0,29.0,--,--,216.21556,2.0,217.14915,0.9335831,217.2495,2.573917,219.82603,8.0,219.82616,220.43117,4.2155967,220.43132,221.24092,--
31,31,3,1,3,4.037500e+00,1.615000e+00,1.0,30.0,--,--,221.24449,2.0,221.86688,0.6223974,221.96724,3.6926026,225.66156,9.0,225.6617,226.26707,5.0225906,226.26724,230.30702,--
32,32,1,1,1,8.075000e-01,8.075000e-01,1.0,31.0,--,--,230.3088,2.0,231.033,0.7241868,231.13335,2.7833133,233.91852,2.0,233.91864,234.52354,4.2147374,234.52371,235.33293,--
33,33,6,2,3,8.075000e-01,2.422500e+00,1.0,32.0,--,--,235.34473,1.0,236.18248,0.8377525,236.28294,4.2847476,240.57005,2.0,240.57018,241.17485,5.8301263,241.17502,241.98428,--
34,34,3,1,3,8.075000e-01,1.615000e+00,1.0,33.0,--,--,241.98721,1.0,242.61577,0.6285688,242.7163,3.6864312,246.40477,2.0,246.40489,247.00859,5.0213914,247.00874,247.81802,--
35,35,3,1,3,2.422500e+00,8.075000e-01,1.0,34.0,--,--,247.81984,1.0,249.36794,1.5480998,249.46829,1.9594003,251.43004,4.0,251.43016,252.03514,4.2153063,252.03531,254.46042,--
36,36,9,3,3,7.267500e+00,8.075000e-01,1.0,35.0,--,--,254.46811,2.0,255.1992,0.7310925,255.29953,2.7764075,258.07828,8.0,258.0784,258.68192,4.2137895,258.68207,265.95135,--
37,37,1,1,1,8.075000e-01,8.075000e-01,1.0,36.0,--,--,265.95422,2.0,266.59912,0.6448879,266.6995,2.862612,269.56393,2.0,269.56406,270.16855,4.214302,270.1687,270.979,--
38,38,6,2,3,8.075000e-01,8.075000e-01,1.0,37.0,--,--,270.99017,2.0,271.51572,0.5255374,271.61606,2.9819627,274.59903,6.0,274.59915,275.20386,4.2136784,275.204,276.01413,--
39,39,9,3,3,8.075000e-01,1.615000e+00,1.0,38.0,--,--,276.02173,2.0,276.85052,0.8288018,276.9509,3.4861982,280.4401,9.0,280.44022,281.04413,5.0223937,281.04428,281.8542,--
40,40,7,3,1,4.037500e+00,1.615000e+00,1.0,39.0,--,--,281.8608,2.0,282.69907,0.8382542,282.79944,3.4767458,286.27707,2.0,286.2772,286.8823,5.021473,286.88245,290.9215,--
41,41,9,3,3,2.422500e+00,2.422500e+00,1.0,40.0,--,--,290.92807,2.0,291.4493,0.5212388,291.5497,4.601261,296.15396,8.0,296.15408,296.7588,5.830721,296.75894,299.18314,--
42,42,7,3,1,4.037500e+00,8.075000e-01,1.0,41.0,--,--,299.18994,2.0,300.13242,0.9424721,300.23276,2.565028,302.8001,4.0,302.8002,303.4051,4.2151537,303.40527,307.4442,--
43,43,4,2,1,2.422500e+00,8.075000e-01,1.0,42.0,--,--,307.4555,2.0,308.08252,0.6270004,308.18286,2.8804996,311.06482,2.0,311.06494,311.66916,4.2136335,311.6693,314.09406,--
44,44,3,1,3,8.075000e-01,2.422500e+00,1.0,43.0,--,--,314.097,2.0,314.93262,0.8356509,315.03305,4.286849,319.32184,9.0,319.32193,319.92642,5.829445,319.92657,320.73618,--
45,45,8,3,2,8.075000e-01,2.422500e+00,1.0,44.0,--,--,320.7438,2.0,321.3667,0.6229177,321.46707,4.4995823,325.96808,5.0,325.9682,326.5732,5.829422,326.57336,327.38318,--
46,46,5,2,2,4.037500e+00,8.075000e-01,1.0,45.0,--,--,327.39438,2.0,328.13254,0.7381833,328.2329,2.7693167,331.0045,5.0,331.0046,331.60822,4.213858,331.6084,335.64786,--
47,47,9,3,3,2.422500e+00,1.615000e+00,1.0,46.0,--,--,335.6555,2.0,336.3823,0.7267948,336.48264,3.588205,340.0741,6.0,340.0742,340.67886,5.023358,340.67902,343.10358,--
48,48,4,2,1,8.882500e+00,2.422500e+00,1.0,47.0,--,--,343.11545,2.0,343.7492,0.6337813,343.84958,4.4887185,348.3401,3.0,348.3402,348.9452,5.829744,348.94534,357.83005,--
49,49,1,1,1,5.652500e+00,2.422500e+00,1.0,48.0,--,--,357.83298,2.0,358.6825,0.8495215,358.78293,4.2729783,363.0581,4.0,363.05823,363.6617,5.828754,363.6619,369.31613,--
50,50,7,3,1,2.422500e+00,2.422500e+00,1.0,49.0,--,--,369.324,2.0,370.26553,0.9415472,370.36594,4.180953,374.54813,4.0,374.54825,375.1521,5.8281174,375.15228,377.57623,--
51,51,9,3,3,2.422500e+00,2.422500e+00,1.0,50.0,--,--,377.5827,2.0,378.11584,0.5331451,378.21622,4.589355,382.8081,6.0,382.80823,383.41327,5.83057,383.41342,385.83804,--
52,52,6,2,3,8.075000e-01,8.075000e-01,1.0,51.0,--,--,385.84906,2.0,386.38257,0.533507,386.48294,2.973993,389.4591,7.0,389.45923,390.0629,4.213829,390.06302,390.87222,--
53,53,3,1,3,2.422500e+00,1.615000e+00,1.0,52.0,--,--,390.87518,2.0,392.11548,1.240297,392.21582,3.074703,395.29205,7.0,395.29214,395.89673,5.0215425,395.89688,398.32114,--
54,54,1,1,1,8.075000e-01,8.075000e-01,1.0,53.0,--,--,398.32294,2.0,399.15173,0.8287954,399.25208,2.6787045,401.93216,3.0,401.93228,402.53677,4.2138333,402.53693,403.3471,412.0013
