TrialNumber,nTrial,Block,Endowment,ITI,ISI,L_Option,R_Option,ran,order,cue_Onset,endowment_onset,endowment_offset,ISI_onset,ISI_offset,decision_onset,resp,rt,resp_onset,decision_offset,trialDuration,ITIonset,ITIoffset
1,1,2,32,0.5575,1,0,8,1.0,0.0,4.5054755,5.495036,5.5121026,5.5122623,6.512873,6.513045,2.0,1.2156858,7.7287307,10.280894,3.768479,10.281652,10.841874
2,2,3,16,0.5575,1,8,0,1.0,1.0,11.3472805,12.328252,12.34535,12.345424,13.344903,13.345043,1.0,0.9002969,14.24534,17.111362,3.7668662,17.112015,17.67169
3,3,2,32,0.5575,1,3,0,1.0,2.0,18.172031,19.161665,19.178669,19.178741,20.178856,20.178997,2.0,0.8331097,21.012108,23.944908,3.7664452,23.945547,24.504555
4,4,2,16,0.5575,1,4,0,1.0,3.0,25.005241,25.994925,26.012005,26.012087,27.011864,27.01201,1.0,1.0663958,28.078405,30.778759,3.7672913,30.779404,31.338861
5,5,2,32,4.595,1,3,0,1.0,4.0,31.838537,32.828197,32.845356,32.845432,33.845226,33.84537,2.0,1.3168654,35.162235,37.61286,3.7681038,37.61358,42.209534
6,6,3,32,2.98,1,0,8,1.0,5.0,42.7206,43.694946,43.712013,43.71209,44.712856,44.713,2.0,1.4325776,46.145576,48.47985,3.7673836,48.480484,51.46188
7,7,2,32,0.5575,1,16,0,1.0,6.0,51.97185,52.961494,52.978573,52.978645,53.977863,53.97801,1.0,0.9340234,54.91203,57.744812,3.767341,57.745453,58.304478
8,8,2,32,0.5575,1,0,3,1.0,7.0,58.80504,59.79488,59.81195,59.812023,60.811813,60.81196,1.0,1.2835727,62.09553,64.57885,3.7674284,64.57949,65.138535
9,9,3,32,2.98,1,2,0,1.0,8.0,65.67151,66.62876,66.64513,66.645256,67.645004,67.64516,2.0,0.8830578,68.52822,71.41183,3.7672074,71.41247,74.39381
10,10,2,16,1.365,1,0,8,1.0,9.0,74.888214,75.878296,75.89582,75.89595,76.8968,76.89694,2.0,1.0317357,77.92867,80.66482,3.7684152,80.66546,82.03148
11,11,3,32,0.5575,1,0,2,1.0,10.0,82.55411,83.52804,83.54524,83.54532,84.54522,84.545364,1.0,0.9502095,85.495575,88.31179,3.766963,88.31242,88.87187
12,12,2,16,1.365,1,0,2,1.0,11.0,89.37181,90.36136,90.378456,90.37853,91.378265,91.3784,1.0,1.1005751,92.47897,95.14582,3.7679539,95.14646,96.51242
13,13,3,32,0.5575,1,0,16,1.0,12.0,97.03444,98.01133,98.02843,98.0285,99.02784,99.027985,2.0,0.9006857,99.92867,102.79521,3.7677555,102.795845,103.354805
14,14,2,16,1.365,1,0,1,1.0,13.0,103.85605,104.84474,104.861755,104.86183,105.86122,105.86137,1.0,0.8503244,106.71169,109.62878,3.7679396,109.62941,110.99588
15,15,3,32,1.365,1,0,8,1.0,14.0,111.55657,112.495125,112.511696,112.51177,113.511856,113.51199,2.0,0.95001,114.462006,117.277794,3.7663372,117.278435,118.644775
16,16,3,16,0.5575,1,0,1,1.0,15.0,119.16487,120.144745,120.1619,120.16209,121.161766,121.1619,1.0,0.866501,122.028404,124.92976,3.768389,124.9304,125.48938
17,17,2,32,1.365,1,16,0,1.0,16.0,125.98823,126.978,126.99507,126.99514,127.99537,127.99552,1.0,1.0160382,129.01157,131.76175,3.7667572,131.76237,133.12842
18,18,2,16,1.365,1,1,0,1.0,17.0,133.63832,134.62798,134.64507,134.64514,135.64473,135.64488,2.0,1.3340667,136.97894,139.41177,3.767424,139.4124,140.77873
19,19,3,16,0.5575,1,0,8,1.0,18.0,141.30121,142.27795,142.29503,142.29509,143.29512,143.29527,2.0,1.1333368,144.4286,147.06192,3.7671814,147.06255,147.6217
20,20,2,16,0.5575,1,2,0,1.0,19.0,148.12149,149.11122,149.12836,149.12842,150.12775,150.12788,2.0,1.6169829,151.74487,153.89572,3.7683718,153.89636,154.45549
21,21,2,32,0.5575,1,0,16,1.0,20.0,154.95486,155.94458,155.96161,155.96169,156.96173,156.96187,2.0,0.766303,157.72816,160.72873,3.7674377,160.7294,161.28894
22,22,3,32,2.98,1,0,3,1.0,21.0,161.80418,162.7779,162.79495,162.79503,163.79471,163.79485,1.0,1.0164628,164.81131,167.56178,3.767459,167.56241,170.54364
23,23,2,16,2.98,1,4,0,1.0,22.0,171.03864,172.02786,172.04492,172.045,173.04572,173.04587,1.0,1.2992867,174.34515,176.8119,3.7665665,176.81253,179.7939
24,24,3,16,1.365,1,0,8,1.0,23.0,180.316,181.27824,181.29448,181.29456,182.29472,182.29488,2.0,1.0834715,183.37834,186.06172,3.7673986,186.06238,187.42871
25,25,3,32,0.5575,1,2,0,1.0,24.0,187.9328,188.92822,188.94485,188.94493,189.94469,189.94484,2.0,1.4502287,191.39507,193.71104,3.766739,193.71167,194.2707
26,26,3,32,0.5575,1,0,3,1.0,25.0,194.82683,195.76103,195.77827,195.77835,196.77869,196.77882,1.0,1.0658613,197.8447,200.54587,3.7675717,200.54651,201.10562
27,27,3,32,0.5575,1,3,0,1.0,26.0,201.62857,202.59546,202.61082,202.6109,203.61166,203.61182,2.0,0.9828155,204.59462,207.37871,3.7674406,207.37935,207.93971
28,28,3,16,0.5575,1,0,4,1.0,27.0,208.45888,209.42807,209.4451,209.44524,210.44568,210.44583,2.0,1.4995506,211.94537,214.21268,3.767387,214.21332,214.77237
29,29,3,16,2.98,1,4,0,1.0,28.0,215.29845,216.26126,216.27762,216.2777,217.27765,217.27779,1.0,1.4829891,218.76077,221.04668,3.7694302,221.04732,224.02838
30,30,3,16,0.5575,1,0,1,1.0,29.0,224.5421,225.52808,225.54474,225.5448,226.54466,226.5448,1.0,1.116482,227.66129,230.31267,3.7683938,230.31331,230.87234
31,31,2,16,0.5575,1,1,0,1.0,30.0,231.37123,232.36118,232.37836,232.3785,233.37866,233.3788,2.0,0.8996359,234.27843,237.14577,3.7675014,237.1464,237.70558
32,32,3,16,0.5575,1,0,4,1.0,31.0,238.23703,239.19461,239.21118,239.21132,240.21158,240.21173,2.0,1.099809,241.31154,243.97842,3.7672381,243.97906,244.53865
33,33,2,32,0.5575,1,8,0,1.0,32.0,245.03764,246.02751,246.0446,246.04468,247.04463,247.04478,1.0,0.9338984,247.97868,250.81163,3.7673945,250.81229,251.37233
34,34,3,32,1.365,1,2,0,1.0,33.0,251.89954,252.86137,252.87769,252.8778,253.8774,253.87753,2.0,0.751095,254.62862,257.64365,3.7666779,257.64432,259.01083
35,35,2,32,1.365,1,2,0,1.0,34.0,259.5211,260.51086,260.52798,260.52805,261.52795,261.5281,2.0,1.1501086,262.6782,265.29462,3.7670698,265.29526,266.66162
36,36,2,16,1.365,1,0,4,1.0,35.0,267.17114,268.16064,268.17804,268.17813,269.1774,269.17755,2.0,1.300461,270.478,272.94376,3.766742,272.9444,274.31076
37,37,3,16,0.5575,1,2,0,1.0,36.0,274.8392,275.79486,275.81113,275.81125,276.8116,276.81174,2.0,1.4498112,278.26157,280.5786,3.7673955,280.57925,281.13828
38,38,2,32,1.365,1,3,0,1.0,37.0,281.63782,282.6275,282.6445,282.64456,283.6446,283.64474,2.0,1.0503882,284.69513,287.4116,3.767375,287.41223,288.7786
39,39,3,32,0.5575,1,0,3,1.0,38.0,289.28473,290.27777,290.29446,290.29456,291.2946,291.29474,2.0,0.8999768,292.1947,295.06158,3.767396,295.06223,295.62125
40,40,3,16,2.98,1,0,8,1.0,39.0,296.16882,297.11118,297.12784,297.1279,298.1286,298.12872,2.0,1.1652675,299.294,301.89658,3.7683856,301.89722,304.87857
41,41,3,16,4.595,1,2,0,1.0,40.0,305.39355,306.37738,306.39432,306.3944,307.39456,307.3947,2.0,0.9331479,308.32788,311.16107,3.7669084,311.16174,315.75763
42,42,3,16,2.98,1,4,0,1.0,41.0,316.28186,317.24435,317.2607,317.26083,318.26163,318.26175,1.0,1.0823469,319.34412,322.0286,3.7673657,322.02924,325.01028
43,43,2,32,0.5575,1,0,16,1.0,42.0,325.50412,326.4939,326.5111,326.51117,327.5116,327.51175,2.0,0.982813,328.49454,331.27856,3.767368,331.2792,331.83823
44,44,3,32,1.365,1,0,16,1.0,43.0,332.36542,333.32764,333.3439,333.344,334.34457,334.3447,2.0,0.7168807,335.06158,338.11142,3.7672427,338.11206,339.4789
45,45,2,32,4.595,1,2,0,1.0,44.0,339.98758,340.97733,340.99426,340.99435,341.9936,341.99374,2.0,1.2671579,343.2609,345.76053,3.7673447,345.76117,350.35754
46,46,2,32,0.5575,1,8,0,1.0,45.0,350.85443,351.84363,351.861,351.86105,352.86053,352.8607,1.0,1.2168221,354.07748,356.62756,3.7674196,356.6282,357.18787
47,47,2,32,1.365,1,2,0,1.0,46.0,357.6874,358.67712,358.6942,358.69427,359.69455,359.69467,2.0,0.7332077,360.4279,363.4615,3.7673476,363.46213,364.8282
48,48,2,32,6.21,1,16,0,1.0,47.0,365.3376,366.32715,366.3443,366.3444,367.3441,367.3442,1.0,1.7003753,369.0446,371.1105,3.7668412,371.11118,377.32254
