onset	duration	trial_type	response_time	Endowment	Endowment_pmod	Decision	Decision_pmod	Offer_pmod
4.576060	2	cue_social	n/a	32	7	n/a	n/a	n/a
4.576060	2	cue_social_high	n/a	32	7	n/a	n/a	n/a
13.876808	2	cue_social	n/a	16	-9	n/a	n/a	n/a
13.876808	2	cue_social_low	n/a	16	-9	n/a	n/a	n/a
21.521494	2	cue_social	n/a	16	-9	n/a	n/a	n/a
21.521494	2	cue_social_low	n/a	16	-9	n/a	n/a	n/a
28.269672	2	cue_nonsocial	n/a	32	7	n/a	n/a	n/a
28.269672	2	cue_nonsocial_high	n/a	32	7	n/a	n/a	n/a
35.971554	2	cue_social	n/a	16	-9	n/a	n/a	n/a
35.971554	2	cue_social_low	n/a	16	-9	n/a	n/a	n/a
43.569763	2	cue_nonsocial	n/a	16	-9	n/a	n/a	n/a
43.569763	2	cue_nonsocial_low	n/a	16	-9	n/a	n/a	n/a
54.436460	2	cue_nonsocial	n/a	32	7	n/a	n/a	n/a
54.436460	2	cue_nonsocial_high	n/a	32	7	n/a	n/a	n/a
65.396454	2	cue_social	n/a	32	7	n/a	n/a	n/a
65.396454	2	cue_social_high	n/a	32	7	n/a	n/a	n/a
74.630440	2	cue_social	n/a	16	-9	n/a	n/a	n/a
74.630440	2	cue_social_low	n/a	16	-9	n/a	n/a	n/a
81.403000	2	cue_nonsocial	n/a	32	7	n/a	n/a	n/a
81.403000	2	cue_nonsocial_high	n/a	32	7	n/a	n/a	n/a
88.236400	2	cue_nonsocial	n/a	32	7	n/a	n/a	n/a
88.236400	2	cue_nonsocial_high	n/a	32	7	n/a	n/a	n/a
95.069565	2	cue_nonsocial	n/a	32	7	n/a	n/a	n/a
95.069565	2	cue_nonsocial_high	n/a	32	7	n/a	n/a	n/a
104.336334	2	cue_nonsocial	n/a	16	-9	n/a	n/a	n/a
104.336334	2	cue_nonsocial_low	n/a	16	-9	n/a	n/a	n/a
111.169540	2	cue_nonsocial	n/a	32	7	n/a	n/a	n/a
111.169540	2	cue_nonsocial_high	n/a	32	7	n/a	n/a	n/a
120.539430	2	cue_social	n/a	32	7	n/a	n/a	n/a
120.539430	2	cue_social_high	n/a	32	7	n/a	n/a	n/a
128.134700	2	cue_social	n/a	32	7	n/a	n/a	n/a
128.134700	2	cue_social_high	n/a	32	7	n/a	n/a	n/a
134.902950	2	cue_nonsocial	n/a	16	-9	n/a	n/a	n/a
134.902950	2	cue_nonsocial_low	n/a	16	-9	n/a	n/a	n/a
142.625720	2	cue_social	n/a	32	7	n/a	n/a	n/a
142.625720	2	cue_social_high	n/a	32	7	n/a	n/a	n/a
151.886900	2	cue_social	n/a	32	7	n/a	n/a	n/a
151.886900	2	cue_social_high	n/a	32	7	n/a	n/a	n/a
158.652730	2	cue_nonsocial	n/a	32	7	n/a	n/a	n/a
158.652730	2	cue_nonsocial_high	n/a	32	7	n/a	n/a	n/a
166.378280	2	cue_social	n/a	16	-9	n/a	n/a	n/a
166.378280	2	cue_social_low	n/a	16	-9	n/a	n/a	n/a
178.786120	2	cue_nonsocial	n/a	16	-9	n/a	n/a	n/a
178.786120	2	cue_nonsocial_low	n/a	16	-9	n/a	n/a	n/a
185.695800	2	cue_social	n/a	16	-9	n/a	n/a	n/a
185.695800	2	cue_social_low	n/a	16	-9	n/a	n/a	n/a
192.452930	2	cue_nonsocial	n/a	16	-9	n/a	n/a	n/a
192.452930	2	cue_nonsocial_low	n/a	16	-9	n/a	n/a	n/a
199.286070	2	cue_nonsocial	n/a	16	-9	n/a	n/a	n/a
199.286070	2	cue_nonsocial_low	n/a	16	-9	n/a	n/a	n/a
206.182080	2	cue_social	n/a	32	7	n/a	n/a	n/a
206.182080	2	cue_social_high	n/a	32	7	n/a	n/a	n/a
213.816070	2	cue_social	n/a	32	7	n/a	n/a	n/a
213.816070	2	cue_social_high	n/a	32	7	n/a	n/a	n/a
220.652540	2	cue_social	n/a	16	-9	n/a	n/a	n/a
220.652540	2	cue_social_low	n/a	16	-9	n/a	n/a	n/a
227.435910	2	cue_nonsocial	n/a	32	7	n/a	n/a	n/a
227.435910	2	cue_nonsocial_high	n/a	32	7	n/a	n/a	n/a
234.269300	2	cue_nonsocial	n/a	32	7	n/a	n/a	n/a
234.269300	2	cue_nonsocial_high	n/a	32	7	n/a	n/a	n/a
241.169570	2	cue_social	n/a	16	-9	n/a	n/a	n/a
241.169570	2	cue_social_low	n/a	16	-9	n/a	n/a	n/a
248.753000	2	cue_nonsocial	n/a	32	7	n/a	n/a	n/a
248.753000	2	cue_nonsocial_high	n/a	32	7	n/a	n/a	n/a
256.402700	2	cue_nonsocial	n/a	16	-9	n/a	n/a	n/a
256.402700	2	cue_nonsocial_low	n/a	16	-9	n/a	n/a	n/a
264.152300	2	cue_social	n/a	32	7	n/a	n/a	n/a
264.152300	2	cue_social_high	n/a	32	7	n/a	n/a	n/a
273.380100	2	cue_social	n/a	32	7	n/a	n/a	n/a
273.380100	2	cue_social_high	n/a	32	7	n/a	n/a	n/a
280.135800	2	cue_nonsocial	n/a	32	7	n/a	n/a	n/a
280.135800	2	cue_nonsocial_high	n/a	32	7	n/a	n/a	n/a
287.046480	2	cue_social	n/a	16	-9	n/a	n/a	n/a
287.046480	2	cue_social_low	n/a	16	-9	n/a	n/a	n/a
293.802550	2	cue_nonsocial	n/a	32	7	n/a	n/a	n/a
293.802550	2	cue_nonsocial_high	n/a	32	7	n/a	n/a	n/a
301.508800	2	cue_social	n/a	32	7	n/a	n/a	n/a
301.508800	2	cue_social_high	n/a	32	7	n/a	n/a	n/a
309.102600	2	cue_nonsocial	n/a	16	-9	n/a	n/a	n/a
309.102600	2	cue_nonsocial_low	n/a	16	-9	n/a	n/a	n/a
316.752380	2	cue_nonsocial	n/a	32	7	n/a	n/a	n/a
316.752380	2	cue_nonsocial_high	n/a	32	7	n/a	n/a	n/a
323.663800	2	cue_social	n/a	32	7	n/a	n/a	n/a
323.663800	2	cue_social_high	n/a	32	7	n/a	n/a	n/a
330.488500	2	cue_social	n/a	16	-9	n/a	n/a	n/a
330.488500	2	cue_social_low	n/a	16	-9	n/a	n/a	n/a
337.252560	2	cue_nonsocial	n/a	16	-9	n/a	n/a	n/a
337.252560	2	cue_nonsocial_low	n/a	16	-9	n/a	n/a	n/a
346.518950	2	cue_nonsocial	n/a	32	7	n/a	n/a	n/a
346.518950	2	cue_nonsocial_high	n/a	32	7	n/a	n/a	n/a
353.415130	2	cue_social	n/a	16	-9	n/a	n/a	n/a
353.415130	2	cue_social_low	n/a	16	-9	n/a	n/a	n/a
360.185520	2	cue_nonsocial	n/a	16	-9	n/a	n/a	n/a
360.185520	2	cue_nonsocial_low	n/a	16	-9	n/a	n/a	n/a
367.055500	2	cue_social	n/a	32	7	n/a	n/a	n/a
367.055500	2	cue_social_high	n/a	32	7	n/a	n/a	n/a
6.527038	2.116312	dec_social_choice	2.116312	32.000000	n/a	0	0	-2.298177e-01
6.527038	2.116312	dec_choice	2.116312	32.000000	n/a	0	0	-2.304688e-01
6.527038	2.116312	dec_social_reject	2.116312	32.000000	n/a	0	0	-2.343750e-02
6.527038	2.116312	dec_reject	2.116312	32.000000	n/a	0	0	-1.442308e-02
6.527038	2.116312	dec_social_reject_low	2.116312	32.000000	n/a	3	-1.367188e-01	-2.304688e-01
15.794144	1.582883	dec_social_choice	1.582883	16.000000	n/a	8	2.701823e-01	2.701823e-01
15.794144	1.582883	dec_choice	1.582883	16.000000	n/a	8	2.695312e-01	2.695312e-01
15.794144	1.582883	dec_social_accept	1.582883	16.000000	n/a	8	1.125000e-01	1.125000e-01
15.794144	1.582883	dec_accept	1.582883	16.000000	n/a	8	1.250000e-01	1.250000e-01
15.794144	1.582883	dec_social_high	1.582883	16.000000	n/a	8	2.695312e-01	2.695312e-01
15.794144	1.582883	dec_social_accept_high	1.582883	16.000000	n/a	8	2.695312e-01	2.695312e-01
23.443010	1.733445	dec_social_choice	1.733445	16.000000	n/a	0	0	-2.298177e-01
23.443010	1.733445	dec_choice	1.733445	16.000000	n/a	0	0	-2.304688e-01
23.443010	1.733445	dec_social_reject	1.733445	16.000000	n/a	0	0	7.812500e-03
23.443010	1.733445	dec_reject	1.733445	16.000000	n/a	0	0	1.682692e-02
23.443010	1.733445	dec_social_reject_low	1.733445	16.000000	n/a	2	-1.054688e-01	-2.304688e-01
30.277061	1.749948	dec_nonsocial_choice	1.749948	32.000000	n/a	16	2.701823e-01	2.701823e-01
30.277061	1.749948	dec_choice	1.749948	32.000000	n/a	16	2.708333e-01	2.708333e-01
30.277061	1.749948	dec_nonsocial_accept	1.749948	32.000000	n/a	16	1.125000e-01	1.125000e-01
30.277061	1.749948	dec_accept	1.749948	32.000000	n/a	16	9.722222e-02	9.722222e-02
30.277061	1.749948	dec_nonsocial_accept_high	1.749948	32.000000	n/a	16	1.250000e-01	1.250000e-01
37.926983	2.549894	dec_social_choice	2.549894	16.000000	n/a	2	-1.048177e-01	-1.048177e-01
37.926983	2.549894	dec_choice	2.549894	16.000000	n/a	2	-1.054688e-01	-1.054688e-01
37.926983	2.549894	dec_social_accept	2.549894	16.000000	n/a	2	-2.625000e-01	-2.625000e-01
37.926983	2.549894	dec_accept	2.549894	16.000000	n/a	2	-2.500000e-01	-2.500000e-01
37.926983	2.549894	dec_social_accept_low	2.549894	16.000000	n/a	2	-1.054688e-01	-1.054688e-01
45.576244	2.100298	dec_nonsocial_choice	2.100298	16.000000	n/a	2	-1.048177e-01	-1.048177e-01
45.576244	2.100298	dec_choice	2.100298	16.000000	n/a	2	-1.041667e-01	-1.041667e-01
45.576244	2.100298	dec_nonsocial_accept	2.100298	16.000000	n/a	2	-2.625000e-01	-2.625000e-01
45.576244	2.100298	dec_accept	2.100298	16.000000	n/a	2	-2.777778e-01	-2.777778e-01
45.576244	2.100298	dec_nonsocial_accept_low	2.100298	16.000000	n/a	2	-2.500000e-01	-2.500000e-01
56.444016	1.699401	dec_nonsocial_choice	1.699401	32.000000	n/a	0	0	-2.298177e-01
56.444016	1.699401	dec_choice	1.699401	32.000000	n/a	0	0	-2.291667e-01
56.444016	1.699401	dec_nonsocial_reject	1.699401	32.000000	n/a	0	0	-5.468750e-02
56.444016	1.699401	dec_reject	1.699401	32.000000	n/a	0	0	-6.250000e-02
56.444016	1.699401	dec_nonsocial_low	1.699401	32.000000	n/a	0	-2.291667e-01	-2.291667e-01
56.444016	1.699401	dec_nonsocial_reject_low	1.699401	32.000000	n/a	2	-6.250000e-02	-1.250000e-01
67.310040	2.666342	dec_social_choice	2.666342	32.000000	n/a	0	0	-2.298177e-01
67.310040	2.666342	dec_choice	2.666342	32.000000	n/a	0	0	-2.304688e-01
67.310040	2.666342	dec_social_reject	2.666342	32.000000	n/a	0	0	-5.468750e-02
67.310040	2.666342	dec_reject	2.666342	32.000000	n/a	0	0	-4.567308e-02
67.310040	2.666342	dec_social_low	2.666342	32.000000	n/a	0	-2.304688e-01	-2.304688e-01
67.310040	2.666342	dec_social_reject_low	2.666342	32.000000	n/a	2	-1.679688e-01	-2.304688e-01
76.577060	1.933069	dec_social_choice	1.933069	16.000000	n/a	0	0	-2.298177e-01
76.577060	1.933069	dec_choice	1.933069	16.000000	n/a	0	0	-2.304688e-01
76.577060	1.933069	dec_social_reject	1.933069	16.000000	n/a	0	0	-5.468750e-02
76.577060	1.933069	dec_reject	1.933069	16.000000	n/a	0	0	-4.567308e-02
76.577060	1.933069	dec_social_reject_low	1.933069	16.000000	n/a	1	-1.679688e-01	-2.304688e-01
83.410230	2.249842	dec_nonsocial_choice	2.249842	32.000000	n/a	8	2.018229e-02	2.018229e-02
83.410230	2.249842	dec_choice	2.249842	32.000000	n/a	8	2.083333e-02	2.083333e-02
83.410230	2.249842	dec_nonsocial_accept	2.249842	32.000000	n/a	8	-1.375000e-01	-1.375000e-01
83.410230	2.249842	dec_accept	2.249842	32.000000	n/a	8	-1.527778e-01	-1.527778e-01
83.410230	2.249842	dec_nonsocial_high	2.249842	32.000000	n/a	8	2.083333e-02	2.083333e-02
83.410230	2.249842	dec_nonsocial_accept_high	2.249842	32.000000	n/a	8	-1.527778e-01	-1.527778e-01
90.243980	1.099229	dec_nonsocial_choice	1.099229	32.000000	n/a	0	0	-2.298177e-01
90.243980	1.099229	dec_choice	1.099229	32.000000	n/a	0	0	-2.291667e-01
90.243980	1.099229	dec_nonsocial_reject	1.099229	32.000000	n/a	0	0	-2.343750e-02
90.243980	1.099229	dec_reject	1.099229	32.000000	n/a	0	0	-3.125000e-02
90.243980	1.099229	dec_nonsocial_reject_low	1.099229	32.000000	n/a	3	-1.442308e-02	-1.081731e-01
97.077450	1.465323	dec_nonsocial_choice	1.465323	32.000000	n/a	0	0	-2.298177e-01
97.077450	1.465323	dec_choice	1.465323	32.000000	n/a	0	0	-2.291667e-01
97.077450	1.465323	dec_nonsocial_reject	1.465323	32.000000	n/a	0	0	-2.343750e-02
97.077450	1.465323	dec_reject	1.465323	32.000000	n/a	0	0	-3.125000e-02
97.077450	1.465323	dec_nonsocial_reject_low	1.465323	32.000000	n/a	3	-1.442308e-02	-1.081731e-01
106.344025	1.382502	dec_nonsocial_choice	1.382502	16.000000	n/a	8	2.701823e-01	2.701823e-01
106.344025	1.382502	dec_choice	1.382502	16.000000	n/a	8	2.708333e-01	2.708333e-01
106.344025	1.382502	dec_nonsocial_accept	1.382502	16.000000	n/a	8	1.125000e-01	1.125000e-01
106.344025	1.382502	dec_accept	1.382502	16.000000	n/a	8	9.722222e-02	9.722222e-02
106.344025	1.382502	dec_nonsocial_high	1.382502	16.000000	n/a	8	2.708333e-01	2.708333e-01
106.344025	1.382502	dec_nonsocial_accept_high	1.382502	16.000000	n/a	8	9.722222e-02	9.722222e-02
113.177020	1.183182	dec_nonsocial_choice	1.183182	32.000000	n/a	8	2.018229e-02	2.018229e-02
113.177020	1.183182	dec_choice	1.183182	32.000000	n/a	8	2.083333e-02	2.083333e-02
113.177020	1.183182	dec_nonsocial_accept	1.183182	32.000000	n/a	8	-1.375000e-01	-1.375000e-01
113.177020	1.183182	dec_accept	1.183182	32.000000	n/a	8	-1.527778e-01	-1.527778e-01
113.177020	1.183182	dec_nonsocial_high	1.183182	32.000000	n/a	8	2.083333e-02	2.083333e-02
113.177020	1.183182	dec_nonsocial_accept_high	1.183182	32.000000	n/a	8	-1.527778e-01	-1.527778e-01
122.427055	1.749442	dec_social_choice	1.749442	32.000000	n/a	8	2.018229e-02	2.018229e-02
122.427055	1.749442	dec_choice	1.749442	32.000000	n/a	8	1.953125e-02	1.953125e-02
122.427055	1.749442	dec_social_accept	1.749442	32.000000	n/a	8	-1.375000e-01	-1.375000e-01
122.427055	1.749442	dec_accept	1.749442	32.000000	n/a	8	-1.250000e-01	-1.250000e-01
122.427055	1.749442	dec_social_accept_high	1.749442	32.000000	n/a	8	1.953125e-02	1.953125e-02
130.076370	1.550382	dec_social_choice	1.550382	32.000000	n/a	16	2.701823e-01	2.701823e-01
130.076370	1.550382	dec_choice	1.550382	32.000000	n/a	16	2.695312e-01	2.695312e-01
130.076370	1.550382	dec_social_accept	1.550382	32.000000	n/a	16	1.125000e-01	1.125000e-01
130.076370	1.550382	dec_accept	1.550382	32.000000	n/a	16	1.250000e-01	1.250000e-01
130.076370	1.550382	dec_social_high	1.550382	32.000000	n/a	16	2.695312e-01	2.695312e-01
130.076370	1.550382	dec_social_accept_high	1.550382	32.000000	n/a	16	2.695312e-01	2.695312e-01
136.911060	1.298995	dec_nonsocial_choice	1.298995	16.000000	n/a	8	2.701823e-01	2.701823e-01
136.911060	1.298995	dec_choice	1.298995	16.000000	n/a	8	2.708333e-01	2.708333e-01
136.911060	1.298995	dec_nonsocial_accept	1.298995	16.000000	n/a	8	1.125000e-01	1.125000e-01
136.911060	1.298995	dec_accept	1.298995	16.000000	n/a	8	9.722222e-02	9.722222e-02
136.911060	1.298995	dec_nonsocial_high	1.298995	16.000000	n/a	8	2.708333e-01	2.708333e-01
136.911060	1.298995	dec_nonsocial_accept_high	1.298995	16.000000	n/a	8	9.722222e-02	9.722222e-02
144.560040	1.699990	dec_social_choice	1.699990	32.000000	n/a	0	0	-2.298177e-01
144.560040	1.699990	dec_choice	1.699990	32.000000	n/a	0	0	-2.304688e-01
144.560040	1.699990	dec_social_reject	1.699990	32.000000	n/a	0	0	-5.468750e-02
144.560040	1.699990	dec_reject	1.699990	32.000000	n/a	0	0	-4.567308e-02
144.560040	1.699990	dec_social_low	1.699990	32.000000	n/a	0	-2.304688e-01	-2.304688e-01
144.560040	1.699990	dec_social_reject_low	1.699990	32.000000	n/a	2	-1.679688e-01	-2.304688e-01
153.827040	1.265776	dec_social_choice	1.265776	32.000000	n/a	8	2.018229e-02	2.018229e-02
153.827040	1.265776	dec_choice	1.265776	32.000000	n/a	8	1.953125e-02	1.953125e-02
153.827040	1.265776	dec_social_accept	1.265776	32.000000	n/a	8	-1.375000e-01	-1.375000e-01
153.827040	1.265776	dec_accept	1.265776	32.000000	n/a	8	-1.250000e-01	-1.250000e-01
153.827040	1.265776	dec_social_high	1.265776	32.000000	n/a	8	1.953125e-02	1.953125e-02
153.827040	1.265776	dec_social_accept_high	1.265776	32.000000	n/a	8	1.953125e-02	1.953125e-02
160.660110	1.232947	dec_nonsocial_choice	1.232947	32.000000	n/a	0	0	-2.298177e-01
160.660110	1.232947	dec_choice	1.232947	32.000000	n/a	0	0	-2.291667e-01
160.660110	1.232947	dec_nonsocial_reject	1.232947	32.000000	n/a	0	0	-5.468750e-02
160.660110	1.232947	dec_reject	1.232947	32.000000	n/a	0	0	-6.250000e-02
160.660110	1.232947	dec_nonsocial_reject_low	1.232947	32.000000	n/a	2	-4.567308e-02	-1.081731e-01
168.308880	0.967798	dec_social_choice	0.967798	16.000000	n/a	8	2.701823e-01	2.701823e-01
168.308880	0.967798	dec_choice	0.967798	16.000000	n/a	8	2.695312e-01	2.695312e-01
168.308880	0.967798	dec_social_accept	0.967798	16.000000	n/a	8	1.125000e-01	1.125000e-01
168.308880	0.967798	dec_accept	0.967798	16.000000	n/a	8	1.250000e-01	1.250000e-01
168.308880	0.967798	dec_social_high	0.967798	16.000000	n/a	8	2.695312e-01	2.695312e-01
168.308880	0.967798	dec_social_accept_high	0.967798	16.000000	n/a	8	2.695312e-01	2.695312e-01
180.793400	1.432928	dec_nonsocial_choice	1.432928	16.000000	n/a	0	0	-2.298177e-01
180.793400	1.432928	dec_choice	1.432928	16.000000	n/a	0	0	-2.291667e-01
180.793400	1.432928	dec_nonsocial_reject	1.432928	16.000000	n/a	0	0	1.328125e-01
180.793400	1.432928	dec_reject	1.432928	16.000000	n/a	0	0	1.250000e-01
180.793400	1.432928	dec_nonsocial_low	1.432928	16.000000	n/a	0	-2.291667e-01	-2.291667e-01
180.793400	1.432928	dec_nonsocial_reject_low	1.432928	16.000000	n/a	4	1.250000e-01	-1.250000e-01
187.626200	1.600491	dec_social_choice	1.600491	16.000000	n/a	0	0	-2.298177e-01
187.626200	1.600491	dec_choice	1.600491	16.000000	n/a	0	0	-2.304688e-01
187.626200	1.600491	dec_social_reject	1.600491	16.000000	n/a	0	0	7.812500e-03
187.626200	1.600491	dec_reject	1.600491	16.000000	n/a	0	0	1.682692e-02
187.626200	1.600491	dec_social_low	1.600491	16.000000	n/a	0	-2.304688e-01	-2.304688e-01
187.626200	1.600491	dec_social_reject_low	1.600491	16.000000	n/a	2	-1.054688e-01	-2.304688e-01
194.459720	1.350234	dec_nonsocial_choice	1.350234	16.000000	n/a	0	0	-2.298177e-01
194.459720	1.350234	dec_choice	1.350234	16.000000	n/a	0	0	-2.291667e-01
194.459720	1.350234	dec_nonsocial_reject	1.350234	16.000000	n/a	0	0	-5.468750e-02
194.459720	1.350234	dec_reject	1.350234	16.000000	n/a	0	0	-6.250000e-02
194.459720	1.350234	dec_nonsocial_low	1.350234	16.000000	n/a	0	-2.291667e-01	-2.291667e-01
194.459720	1.350234	dec_nonsocial_reject_low	1.350234	16.000000	n/a	1	-6.250000e-02	-1.250000e-01
201.294050	1.832134	dec_nonsocial_choice	1.832134	16.000000	n/a	0	0	-2.298177e-01
201.294050	1.832134	dec_choice	1.832134	16.000000	n/a	0	0	-2.291667e-01
201.294050	1.832134	dec_nonsocial_reject	1.832134	16.000000	n/a	0	0	1.328125e-01
201.294050	1.832134	dec_reject	1.832134	16.000000	n/a	0	0	1.250000e-01
201.294050	1.832134	dec_nonsocial_reject_low	1.832134	16.000000	n/a	4	1.418269e-01	-1.081731e-01
208.127030	1.382789	dec_social_choice	1.382789	32.000000	n/a	0	0	-2.298177e-01
208.127030	1.382789	dec_choice	1.382789	32.000000	n/a	0	0	-2.304688e-01
208.127030	1.382789	dec_social_reject	1.382789	32.000000	n/a	0	0	-5.468750e-02
208.127030	1.382789	dec_reject	1.382789	32.000000	n/a	0	0	-4.567308e-02
208.127030	1.382789	dec_social_low	1.382789	32.000000	n/a	0	-2.304688e-01	-2.304688e-01
208.127030	1.382789	dec_social_reject_low	1.382789	32.000000	n/a	2	-1.679688e-01	-2.304688e-01
215.777080	1.515741	dec_social_choice	1.515741	32.000000	n/a	16	2.701823e-01	2.701823e-01
215.777080	1.515741	dec_choice	1.515741	32.000000	n/a	16	2.695312e-01	2.695312e-01
215.777080	1.515741	dec_social_accept	1.515741	32.000000	n/a	16	1.125000e-01	1.125000e-01
215.777080	1.515741	dec_accept	1.515741	32.000000	n/a	16	1.250000e-01	1.250000e-01
215.777080	1.515741	dec_social_accept_high	1.515741	32.000000	n/a	16	2.695312e-01	2.695312e-01
222.610080	1.315640	dec_social_choice	1.315640	16.000000	n/a	0	0	-2.298177e-01
222.610080	1.315640	dec_choice	1.315640	16.000000	n/a	0	0	-2.304688e-01
222.610080	1.315640	dec_social_reject	1.315640	16.000000	n/a	0	0	-5.468750e-02
222.610080	1.315640	dec_reject	1.315640	16.000000	n/a	0	0	-4.567308e-02
222.610080	1.315640	dec_social_reject_low	1.315640	16.000000	n/a	1	-1.679688e-01	-2.304688e-01
229.443050	1.266277	dec_nonsocial_choice	1.266277	32.000000	n/a	16	2.701823e-01	2.701823e-01
229.443050	1.266277	dec_choice	1.266277	32.000000	n/a	16	2.708333e-01	2.708333e-01
229.443050	1.266277	dec_nonsocial_accept	1.266277	32.000000	n/a	16	1.125000e-01	1.125000e-01
229.443050	1.266277	dec_accept	1.266277	32.000000	n/a	16	9.722222e-02	9.722222e-02
229.443050	1.266277	dec_nonsocial_accept_high	1.266277	32.000000	n/a	16	1.250000e-01	1.250000e-01
236.276550	1.966112	dec_nonsocial_choice	1.966112	32.000000	n/a	16	2.701823e-01	2.701823e-01
236.276550	1.966112	dec_choice	1.966112	32.000000	n/a	16	2.708333e-01	2.708333e-01
236.276550	1.966112	dec_nonsocial_accept	1.966112	32.000000	n/a	16	1.125000e-01	1.125000e-01
236.276550	1.966112	dec_accept	1.966112	32.000000	n/a	16	9.722222e-02	9.722222e-02
236.276550	1.966112	dec_nonsocial_accept_high	1.966112	32.000000	n/a	16	1.250000e-01	1.250000e-01
243.110020	1.365522	dec_social_choice	1.365522	16.000000	n/a	0	0	-2.298177e-01
243.110020	1.365522	dec_choice	1.365522	16.000000	n/a	0	0	-2.304688e-01
243.110020	1.365522	dec_social_reject	1.365522	16.000000	n/a	0	0	1.328125e-01
243.110020	1.365522	dec_reject	1.365522	16.000000	n/a	0	0	1.418269e-01
243.110020	1.365522	dec_social_low	1.365522	16.000000	n/a	0	-2.304688e-01	-2.304688e-01
243.110020	1.365522	dec_social_reject_low	1.365522	16.000000	n/a	4	1.953125e-02	-2.304688e-01
250.759840	1.465932	dec_nonsocial_choice	1.465932	32.000000	n/a	16	2.701823e-01	2.701823e-01
250.759840	1.465932	dec_choice	1.465932	32.000000	n/a	16	2.708333e-01	2.708333e-01
250.759840	1.465932	dec_nonsocial_accept	1.465932	32.000000	n/a	16	1.125000e-01	1.125000e-01
250.759840	1.465932	dec_accept	1.465932	32.000000	n/a	16	9.722222e-02	9.722222e-02
250.759840	1.465932	dec_nonsocial_high	1.465932	32.000000	n/a	16	2.708333e-01	2.708333e-01
250.759840	1.465932	dec_nonsocial_accept_high	1.465932	32.000000	n/a	16	9.722222e-02	9.722222e-02
258.410100	1.565649	dec_nonsocial_choice	1.565649	16.000000	n/a	0	0	-2.298177e-01
258.410100	1.565649	dec_choice	1.565649	16.000000	n/a	0	0	-2.291667e-01
258.410100	1.565649	dec_nonsocial_reject	1.565649	16.000000	n/a	0	0	1.328125e-01
258.410100	1.565649	dec_reject	1.565649	16.000000	n/a	0	0	1.250000e-01
258.410100	1.565649	dec_nonsocial_reject_low	1.565649	16.000000	n/a	4	1.418269e-01	-1.081731e-01
266.059100	1.234002	dec_social_choice	1.234002	32.000000	n/a	0	0	-2.298177e-01
266.059100	1.234002	dec_choice	1.234002	32.000000	n/a	0	0	-2.304688e-01
266.059100	1.234002	dec_social_reject	1.234002	32.000000	n/a	0	0	-2.343750e-02
266.059100	1.234002	dec_reject	1.234002	32.000000	n/a	0	0	-1.442308e-02
266.059100	1.234002	dec_social_reject_low	1.234002	32.000000	n/a	3	-1.367188e-01	-2.304688e-01
275.310100	1.315778	dec_social_choice	1.315778	32.000000	n/a	8	2.018229e-02	2.018229e-02
275.310100	1.315778	dec_choice	1.315778	32.000000	n/a	8	1.953125e-02	1.953125e-02
275.310100	1.315778	dec_social_accept	1.315778	32.000000	n/a	8	-1.375000e-01	-1.375000e-01
275.310100	1.315778	dec_accept	1.315778	32.000000	n/a	8	-1.250000e-01	-1.250000e-01
275.310100	1.315778	dec_social_high	1.315778	32.000000	n/a	8	1.953125e-02	1.953125e-02
275.310100	1.315778	dec_social_accept_high	1.315778	32.000000	n/a	8	1.953125e-02	1.953125e-02
282.142900	1.350119	dec_nonsocial_choice	1.350119	32.000000	n/a	0	0	-2.298177e-01
282.142900	1.350119	dec_choice	1.350119	32.000000	n/a	0	0	-2.291667e-01
282.142900	1.350119	dec_nonsocial_reject	1.350119	32.000000	n/a	0	0	-5.468750e-02
282.142900	1.350119	dec_reject	1.350119	32.000000	n/a	0	0	-6.250000e-02
282.142900	1.350119	dec_nonsocial_reject_low	1.350119	32.000000	n/a	2	-4.567308e-02	-1.081731e-01
288.976070	1.316944	dec_social_choice	1.316944	16.000000	n/a	8	2.701823e-01	2.701823e-01
288.976070	1.316944	dec_choice	1.316944	16.000000	n/a	8	2.695312e-01	2.695312e-01
288.976070	1.316944	dec_social_accept	1.316944	16.000000	n/a	8	1.125000e-01	1.125000e-01
288.976070	1.316944	dec_accept	1.316944	16.000000	n/a	8	1.250000e-01	1.250000e-01
288.976070	1.316944	dec_social_high	1.316944	16.000000	n/a	8	2.695312e-01	2.695312e-01
288.976070	1.316944	dec_social_accept_high	1.316944	16.000000	n/a	8	2.695312e-01	2.695312e-01
295.810120	1.399569	dec_nonsocial_choice	1.399569	32.000000	n/a	0	0	-2.298177e-01
295.810120	1.399569	dec_choice	1.399569	32.000000	n/a	0	0	-2.291667e-01
295.810120	1.399569	dec_nonsocial_reject	1.399569	32.000000	n/a	0	0	-2.343750e-02
295.810120	1.399569	dec_reject	1.399569	32.000000	n/a	0	0	-3.125000e-02
295.810120	1.399569	dec_nonsocial_low	1.399569	32.000000	n/a	0	-2.291667e-01	-2.291667e-01
295.810120	1.399569	dec_nonsocial_reject_low	1.399569	32.000000	n/a	3	-3.125000e-02	-1.250000e-01
303.459100	1.316657	dec_social_choice	1.316657	32.000000	n/a	8	2.018229e-02	2.018229e-02
303.459100	1.316657	dec_choice	1.316657	32.000000	n/a	8	1.953125e-02	1.953125e-02
303.459100	1.316657	dec_social_accept	1.316657	32.000000	n/a	8	-1.375000e-01	-1.375000e-01
303.459100	1.316657	dec_accept	1.316657	32.000000	n/a	8	-1.250000e-01	-1.250000e-01
303.459100	1.316657	dec_social_high	1.316657	32.000000	n/a	8	1.953125e-02	1.953125e-02
303.459100	1.316657	dec_social_accept_high	1.316657	32.000000	n/a	8	1.953125e-02	1.953125e-02
311.109700	1.199782	dec_nonsocial_choice	1.199782	16.000000	n/a	0	0	-2.298177e-01
311.109700	1.199782	dec_choice	1.199782	16.000000	n/a	0	0	-2.291667e-01
311.109700	1.199782	dec_nonsocial_reject	1.199782	16.000000	n/a	0	0	-5.468750e-02
311.109700	1.199782	dec_reject	1.199782	16.000000	n/a	0	0	-6.250000e-02
311.109700	1.199782	dec_nonsocial_low	1.199782	16.000000	n/a	0	-2.291667e-01	-2.291667e-01
311.109700	1.199782	dec_nonsocial_reject_low	1.199782	16.000000	n/a	1	-6.250000e-02	-1.250000e-01
318.759700	1.665857	dec_nonsocial_choice	1.665857	32.000000	n/a	0	0	-2.298177e-01
318.759700	1.665857	dec_choice	1.665857	32.000000	n/a	0	0	-2.291667e-01
318.759700	1.665857	dec_nonsocial_reject	1.665857	32.000000	n/a	0	0	-5.468750e-02
318.759700	1.665857	dec_reject	1.665857	32.000000	n/a	0	0	-6.250000e-02
318.759700	1.665857	dec_nonsocial_low	1.665857	32.000000	n/a	0	-2.291667e-01	-2.291667e-01
318.759700	1.665857	dec_nonsocial_reject_low	1.665857	32.000000	n/a	2	-6.250000e-02	-1.250000e-01
325.591830	1.184182	dec_social_choice	1.184182	32.000000	n/a	0	0	-2.298177e-01
325.591830	1.184182	dec_choice	1.184182	32.000000	n/a	0	0	-2.304688e-01
325.591830	1.184182	dec_social_reject	1.184182	32.000000	n/a	0	0	-2.343750e-02
325.591830	1.184182	dec_reject	1.184182	32.000000	n/a	0	0	-1.442308e-02
325.591830	1.184182	dec_social_low	1.184182	32.000000	n/a	0	-2.304688e-01	-2.304688e-01
325.591830	1.184182	dec_social_reject_low	1.184182	32.000000	n/a	3	-1.367188e-01	-2.304688e-01
332.427060	1.682287	dec_social_choice	1.682287	16.000000	n/a	0	0	-2.298177e-01
332.427060	1.682287	dec_choice	1.682287	16.000000	n/a	0	0	-2.304688e-01
332.427060	1.682287	dec_social_reject	1.682287	16.000000	n/a	0	0	1.328125e-01
332.427060	1.682287	dec_reject	1.682287	16.000000	n/a	0	0	1.418269e-01
332.427060	1.682287	dec_social_reject_low	1.682287	16.000000	n/a	4	1.953125e-02	-2.304688e-01
339.260200	1.149214	dec_nonsocial_choice	1.149214	16.000000	n/a	0	0	-2.298177e-01
339.260200	1.149214	dec_choice	1.149214	16.000000	n/a	0	0	-2.291667e-01
339.260200	1.149214	dec_nonsocial_reject	1.149214	16.000000	n/a	0	0	1.328125e-01
339.260200	1.149214	dec_reject	1.149214	16.000000	n/a	0	0	1.250000e-01
339.260200	1.149214	dec_nonsocial_low	1.149214	16.000000	n/a	0	-2.291667e-01	-2.291667e-01
339.260200	1.149214	dec_nonsocial_reject_low	1.149214	16.000000	n/a	4	1.250000e-01	-1.250000e-01
348.526060	1.266427	dec_nonsocial_choice	1.266427	32.000000	n/a	0	0	-2.298177e-01
348.526060	1.266427	dec_choice	1.266427	32.000000	n/a	0	0	-2.291667e-01
348.526060	1.266427	dec_nonsocial_reject	1.266427	32.000000	n/a	0	0	-2.343750e-02
348.526060	1.266427	dec_reject	1.266427	32.000000	n/a	0	0	-3.125000e-02
348.526060	1.266427	dec_nonsocial_reject_low	1.266427	32.000000	n/a	3	-1.442308e-02	-1.081731e-01
355.359070	1.250074	dec_social_choice	1.250074	16.000000	n/a	0	0	-2.298177e-01
355.359070	1.250074	dec_choice	1.250074	16.000000	n/a	0	0	-2.304688e-01
355.359070	1.250074	dec_social_reject	1.250074	16.000000	n/a	0	0	-5.468750e-02
355.359070	1.250074	dec_reject	1.250074	16.000000	n/a	0	0	-4.567308e-02
355.359070	1.250074	dec_social_low	1.250074	16.000000	n/a	0	-2.304688e-01	-2.304688e-01
355.359070	1.250074	dec_social_reject_low	1.250074	16.000000	n/a	1	-1.679688e-01	-2.304688e-01
362.193080	1.299704	dec_nonsocial_choice	1.299704	16.000000	n/a	0	0	-2.298177e-01
362.193080	1.299704	dec_choice	1.299704	16.000000	n/a	0	0	-2.291667e-01
362.193080	1.299704	dec_nonsocial_reject	1.299704	16.000000	n/a	0	0	7.812500e-03
362.193080	1.299704	dec_reject	1.299704	16.000000	n/a	0	0	0
362.193080	1.299704	dec_nonsocial_low	1.299704	16.000000	n/a	0	-2.291667e-01	-2.291667e-01
362.193080	1.299704	dec_nonsocial_reject_low	1.299704	16.000000	n/a	2	0	-1.250000e-01
369.025120	1.551040	dec_social_choice	1.551040	32.000000	n/a	16	2.701823e-01	2.701823e-01
369.025120	1.551040	dec_choice	1.551040	32.000000	n/a	16	2.695312e-01	2.695312e-01
369.025120	1.551040	dec_social_accept	1.551040	32.000000	n/a	16	1.125000e-01	1.125000e-01
369.025120	1.551040	dec_accept	1.551040	32.000000	n/a	16	1.250000e-01	1.250000e-01
369.025120	1.551040	dec_social_accept_high	1.551040	32.000000	n/a	16	2.695312e-01	2.695312e-01
