onset	duration	trial_type	response_time	Endowment	Endowment_pmod	Decision	Decision_pmod	Offer_pmod
4.512645	2	cue_nonsocial	n/a	32	6	n/a	n/a	n/a
4.512645	2	cue_nonsocial_high	n/a	32	8	n/a	n/a	n/a
11.408444	2	cue_social	n/a	16	-8	n/a	n/a	n/a
11.408444	2	cue_social_low	n/a	16	-10	n/a	n/a	n/a
18.179440	2	cue_nonsocial	n/a	32	6	n/a	n/a	n/a
18.179440	2	cue_nonsocial_high	n/a	32	8	n/a	n/a	n/a
25.012817	2	cue_nonsocial	n/a	16	-10	n/a	n/a	n/a
25.012817	2	cue_nonsocial_low	n/a	16	-8	n/a	n/a	n/a
31.845966	2	cue_nonsocial	n/a	32	6	n/a	n/a	n/a
31.845966	2	cue_nonsocial_high	n/a	32	8	n/a	n/a	n/a
42.776730	2	cue_social	n/a	32	8	n/a	n/a	n/a
42.776730	2	cue_social_high	n/a	32	6	n/a	n/a	n/a
51.962680	2	cue_nonsocial	n/a	32	6	n/a	n/a	n/a
51.962680	2	cue_nonsocial_high	n/a	32	8	n/a	n/a	n/a
58.796124	2	cue_nonsocial	n/a	32	6	n/a	n/a	n/a
58.796124	2	cue_nonsocial_high	n/a	32	8	n/a	n/a	n/a
65.725770	2	cue_social	n/a	32	8	n/a	n/a	n/a
65.725770	2	cue_social_high	n/a	32	6	n/a	n/a	n/a
74.895996	2	cue_nonsocial	n/a	16	-10	n/a	n/a	n/a
74.895996	2	cue_nonsocial_low	n/a	16	-8	n/a	n/a	n/a
82.587180	2	cue_social	n/a	32	8	n/a	n/a	n/a
82.587180	2	cue_social_high	n/a	32	6	n/a	n/a	n/a
89.362970	2	cue_nonsocial	n/a	16	-10	n/a	n/a	n/a
89.362970	2	cue_nonsocial_low	n/a	16	-8	n/a	n/a	n/a
97.060030	2	cue_social	n/a	32	8	n/a	n/a	n/a
97.060030	2	cue_social_high	n/a	32	6	n/a	n/a	n/a
103.845870	2	cue_nonsocial	n/a	16	-10	n/a	n/a	n/a
103.845870	2	cue_nonsocial_low	n/a	16	-8	n/a	n/a	n/a
111.540630	2	cue_social	n/a	32	8	n/a	n/a	n/a
111.540630	2	cue_social_high	n/a	32	6	n/a	n/a	n/a
119.203926	2	cue_social	n/a	16	-8	n/a	n/a	n/a
119.203926	2	cue_social_low	n/a	16	-10	n/a	n/a	n/a
125.979250	2	cue_nonsocial	n/a	32	6	n/a	n/a	n/a
125.979250	2	cue_nonsocial_high	n/a	32	8	n/a	n/a	n/a
133.629170	2	cue_nonsocial	n/a	16	-10	n/a	n/a	n/a
133.629170	2	cue_nonsocial_low	n/a	16	-8	n/a	n/a	n/a
141.326840	2	cue_social	n/a	16	-8	n/a	n/a	n/a
141.326840	2	cue_social_low	n/a	16	-10	n/a	n/a	n/a
148.112380	2	cue_nonsocial	n/a	16	-10	n/a	n/a	n/a
148.112380	2	cue_nonsocial_low	n/a	16	-8	n/a	n/a	n/a
154.945650	2	cue_nonsocial	n/a	32	6	n/a	n/a	n/a
154.945650	2	cue_nonsocial_high	n/a	32	8	n/a	n/a	n/a
161.879800	2	cue_social	n/a	32	8	n/a	n/a	n/a
161.879800	2	cue_social_high	n/a	32	6	n/a	n/a	n/a
171.062440	2	cue_nonsocial	n/a	16	-10	n/a	n/a	n/a
171.062440	2	cue_nonsocial_low	n/a	16	-8	n/a	n/a	n/a
180.390620	2	cue_social	n/a	16	-8	n/a	n/a	n/a
180.390620	2	cue_social_low	n/a	16	-10	n/a	n/a	n/a
188.036770	2	cue_social	n/a	32	8	n/a	n/a	n/a
188.036770	2	cue_social_high	n/a	32	6	n/a	n/a	n/a
194.883160	2	cue_social	n/a	32	8	n/a	n/a	n/a
194.883160	2	cue_social_high	n/a	32	6	n/a	n/a	n/a
201.703280	2	cue_social	n/a	32	8	n/a	n/a	n/a
201.703280	2	cue_social_high	n/a	32	6	n/a	n/a	n/a
208.524350	2	cue_social	n/a	16	-8	n/a	n/a	n/a
208.524350	2	cue_social_low	n/a	16	-10	n/a	n/a	n/a
215.362610	2	cue_social	n/a	16	-8	n/a	n/a	n/a
215.362610	2	cue_social_low	n/a	16	-10	n/a	n/a	n/a
224.626850	2	cue_social	n/a	16	-8	n/a	n/a	n/a
224.626850	2	cue_social_low	n/a	16	-10	n/a	n/a	n/a
231.412320	2	cue_nonsocial	n/a	16	-10	n/a	n/a	n/a
231.412320	2	cue_nonsocial_low	n/a	16	-8	n/a	n/a	n/a
238.350140	2	cue_social	n/a	16	-8	n/a	n/a	n/a
238.350140	2	cue_social_low	n/a	16	-10	n/a	n/a	n/a
245.078770	2	cue_nonsocial	n/a	32	6	n/a	n/a	n/a
245.078770	2	cue_nonsocial_high	n/a	32	8	n/a	n/a	n/a
251.968800	2	cue_social	n/a	32	8	n/a	n/a	n/a
251.968800	2	cue_social_high	n/a	32	6	n/a	n/a	n/a
259.562470	2	cue_nonsocial	n/a	32	6	n/a	n/a	n/a
259.562470	2	cue_nonsocial_high	n/a	32	8	n/a	n/a	n/a
267.212200	2	cue_nonsocial	n/a	16	-10	n/a	n/a	n/a
267.212200	2	cue_nonsocial_low	n/a	16	-8	n/a	n/a	n/a
274.910250	2	cue_social	n/a	16	-8	n/a	n/a	n/a
274.910250	2	cue_social_low	n/a	16	-10	n/a	n/a	n/a
281.695430	2	cue_nonsocial	n/a	32	6	n/a	n/a	n/a
281.695430	2	cue_nonsocial_high	n/a	32	8	n/a	n/a	n/a
289.390230	2	cue_social	n/a	32	8	n/a	n/a	n/a
289.390230	2	cue_social_high	n/a	32	6	n/a	n/a	n/a
296.196560	2	cue_social	n/a	16	-8	n/a	n/a	n/a
296.196560	2	cue_social_low	n/a	16	-10	n/a	n/a	n/a
305.513370	2	cue_social	n/a	16	-8	n/a	n/a	n/a
305.513370	2	cue_social_low	n/a	16	-10	n/a	n/a	n/a
316.375950	2	cue_social	n/a	16	-8	n/a	n/a	n/a
316.375950	2	cue_social_low	n/a	16	-10	n/a	n/a	n/a
325.578860	2	cue_nonsocial	n/a	32	6	n/a	n/a	n/a
325.578860	2	cue_nonsocial_high	n/a	32	8	n/a	n/a	n/a
332.472960	2	cue_social	n/a	32	8	n/a	n/a	n/a
332.472960	2	cue_social_high	n/a	32	6	n/a	n/a	n/a
340.061980	2	cue_nonsocial	n/a	32	6	n/a	n/a	n/a
340.061980	2	cue_nonsocial_high	n/a	32	8	n/a	n/a	n/a
350.928470	2	cue_nonsocial	n/a	32	6	n/a	n/a	n/a
350.928470	2	cue_nonsocial_high	n/a	32	8	n/a	n/a	n/a
357.762020	2	cue_nonsocial	n/a	32	6	n/a	n/a	n/a
357.762020	2	cue_nonsocial_high	n/a	32	8	n/a	n/a	n/a
365.411830	2	cue_nonsocial	n/a	32	6	n/a	n/a	n/a
365.411830	2	cue_nonsocial_high	n/a	32	8	n/a	n/a	n/a
6.520055	1.566109	dec_nonsocial_choice	1.566109	32.000000	n/a	8	2.445652e-02	2.445652e-02
6.520055	1.566109	dec_choice	1.566109	32.000000	n/a	8	2.840909e-02	2.840909e-02
6.520055	1.566109	dec_nonsocial_accept	1.566109	32.000000	n/a	8	-1.718750e-01	-1.718750e-01
6.520055	1.566109	dec_accept	1.566109	32.000000	n/a	8	-1.562500e-01	-1.562500e-01
6.520055	1.566109	dec_nonsocial_accept_high	1.566109	32.000000	n/a	8	-1.875000e-01	-1.875000e-01
13.353085	1.249925	dec_social_choice	1.249925	16.000000	n/a	8	2.744565e-01	2.744565e-01
13.353085	1.249925	dec_choice	1.249925	16.000000	n/a	8	2.708333e-01	2.708333e-01
13.353085	1.249925	dec_social_accept	1.249925	16.000000	n/a	8	7.812500e-02	7.812500e-02
13.353085	1.249925	dec_accept	1.249925	16.000000	n/a	8	6.250000e-02	6.250000e-02
13.353085	1.249925	dec_social_high	1.249925	16.000000	n/a	8	2.708333e-01	2.708333e-01
13.353085	1.249925	dec_social_accept_high	1.249925	16.000000	n/a	8	2.708333e-01	2.708333e-01
20.186066	1.183652	dec_nonsocial_choice	1.183652	32.000000	n/a	0	0	-2.255435e-01
20.186066	1.183652	dec_choice	1.183652	32.000000	n/a	0	0	-2.215909e-01
20.186066	1.183652	dec_nonsocial_reject	1.183652	32.000000	n/a	0	0	-2.708333e-02
20.186066	1.183652	dec_reject	1.183652	32.000000	n/a	0	0	-2.232143e-02
20.186066	1.183652	dec_nonsocial_reject_low	1.183652	32.000000	n/a	3	-3.125000e-02	-1.250000e-01
27.020071	1.065917	dec_nonsocial_choice	1.065917	16.000000	n/a	0	0	-2.255435e-01
27.020071	1.065917	dec_choice	1.065917	16.000000	n/a	0	0	-2.215909e-01
27.020071	1.065917	dec_nonsocial_reject	1.065917	16.000000	n/a	0	0	1.291667e-01
27.020071	1.065917	dec_reject	1.065917	16.000000	n/a	0	0	1.339286e-01
27.020071	1.065917	dec_nonsocial_reject_low	1.065917	16.000000	n/a	4	1.250000e-01	-1.250000e-01
33.853832	1.049433	dec_nonsocial_choice	1.049433	32.000000	n/a	0	0	-2.255435e-01
33.853832	1.049433	dec_choice	1.049433	32.000000	n/a	0	0	-2.215909e-01
33.853832	1.049433	dec_nonsocial_reject	1.049433	32.000000	n/a	0	0	-2.708333e-02
33.853832	1.049433	dec_reject	1.049433	32.000000	n/a	0	0	-2.232143e-02
33.853832	1.049433	dec_nonsocial_reject_low	1.049433	32.000000	n/a	3	-3.125000e-02	-1.250000e-01
44.719750	1.483291	dec_social_choice	1.483291	32.000000	n/a	8	2.445652e-02	2.445652e-02
44.719750	1.483291	dec_choice	1.483291	32.000000	n/a	8	2.083333e-02	2.083333e-02
44.719750	1.483291	dec_social_accept	1.483291	32.000000	n/a	8	-1.718750e-01	-1.718750e-01
44.719750	1.483291	dec_accept	1.483291	32.000000	n/a	8	-1.875000e-01	-1.875000e-01
44.719750	1.483291	dec_social_accept_high	1.483291	32.000000	n/a	8	2.083333e-02	2.083333e-02
53.970050	1.150075	dec_nonsocial_choice	1.150075	32.000000	n/a	16	2.744565e-01	2.744565e-01
53.970050	1.150075	dec_choice	1.150075	32.000000	n/a	16	2.784091e-01	2.784091e-01
53.970050	1.150075	dec_nonsocial_accept	1.150075	32.000000	n/a	16	7.812500e-02	7.812500e-02
53.970050	1.150075	dec_accept	1.150075	32.000000	n/a	16	9.375000e-02	9.375000e-02
53.970050	1.150075	dec_nonsocial_high	1.150075	32.000000	n/a	16	2.784091e-01	2.784091e-01
53.970050	1.150075	dec_nonsocial_accept_high	1.150075	32.000000	n/a	16	9.375000e-02	9.375000e-02
60.803055	1.250382	dec_nonsocial_choice	1.250382	32.000000	n/a	0	0	-2.255435e-01
60.803055	1.250382	dec_choice	1.250382	32.000000	n/a	0	0	-2.215909e-01
60.803055	1.250382	dec_nonsocial_reject	1.250382	32.000000	n/a	0	0	-2.708333e-02
60.803055	1.250382	dec_reject	1.250382	32.000000	n/a	0	0	-2.232143e-02
60.803055	1.250382	dec_nonsocial_low	1.250382	32.000000	n/a	0	-2.215909e-01	-2.215909e-01
60.803055	1.250382	dec_nonsocial_reject_low	1.250382	32.000000	n/a	3	-2.232143e-02	-1.160714e-01
67.637100	1.398855	dec_social_choice	1.398855	32.000000	n/a	0	0	-2.255435e-01
67.637100	1.398855	dec_choice	1.398855	32.000000	n/a	0	0	-2.291667e-01
67.637100	1.398855	dec_social_reject	1.398855	32.000000	n/a	0	0	-5.833333e-02
67.637100	1.398855	dec_reject	1.398855	32.000000	n/a	0	0	-6.250000e-02
67.637100	1.398855	dec_social_reject_low	1.398855	32.000000	n/a	2	-1.666667e-01	-2.291667e-01
76.903020	1.500075	dec_nonsocial_choice	1.500075	16.000000	n/a	8	2.744565e-01	2.744565e-01
76.903020	1.500075	dec_choice	1.500075	16.000000	n/a	8	2.784091e-01	2.784091e-01
76.903020	1.500075	dec_nonsocial_accept	1.500075	16.000000	n/a	8	7.812500e-02	7.812500e-02
76.903020	1.500075	dec_accept	1.500075	16.000000	n/a	8	9.375000e-02	9.375000e-02
76.903020	1.500075	dec_nonsocial_accept_high	1.500075	16.000000	n/a	8	6.250000e-02	6.250000e-02
84.537056	1.465594	dec_social_choice	1.465594	32.000000	n/a	0	0	-2.255435e-01
84.537056	1.465594	dec_choice	1.465594	32.000000	n/a	0	0	-2.291667e-01
84.537056	1.465594	dec_social_reject	1.465594	32.000000	n/a	0	0	-5.833333e-02
84.537056	1.465594	dec_reject	1.465594	32.000000	n/a	0	0	-6.250000e-02
84.537056	1.465594	dec_social_low	1.465594	32.000000	n/a	0	-2.291667e-01	-2.291667e-01
84.537056	1.465594	dec_social_reject_low	1.465594	32.000000	n/a	2	-1.666667e-01	-2.291667e-01
91.370070	1.265764	dec_nonsocial_choice	1.265764	16.000000	n/a	0	0	-2.255435e-01
91.370070	1.265764	dec_choice	1.265764	16.000000	n/a	0	0	-2.215909e-01
91.370070	1.265764	dec_nonsocial_reject	1.265764	16.000000	n/a	0	0	4.166667e-03
91.370070	1.265764	dec_reject	1.265764	16.000000	n/a	0	0	8.928571e-03
91.370070	1.265764	dec_nonsocial_low	1.265764	16.000000	n/a	0	-2.215909e-01	-2.215909e-01
91.370070	1.265764	dec_nonsocial_reject_low	1.265764	16.000000	n/a	2	8.928571e-03	-1.160714e-01
99.019615	1.316113	dec_social_choice	1.316113	32.000000	n/a	16	2.744565e-01	2.744565e-01
99.019615	1.316113	dec_choice	1.316113	32.000000	n/a	16	2.708333e-01	2.708333e-01
99.019615	1.316113	dec_social_accept	1.316113	32.000000	n/a	16	7.812500e-02	7.812500e-02
99.019615	1.316113	dec_accept	1.316113	32.000000	n/a	16	6.250000e-02	6.250000e-02
99.019615	1.316113	dec_social_accept_high	1.316113	32.000000	n/a	16	2.708333e-01	2.708333e-01
105.853065	1.149776	dec_nonsocial_choice	1.149776	16.000000	n/a	0	0	-2.255435e-01
105.853065	1.149776	dec_choice	1.149776	16.000000	n/a	0	0	-2.215909e-01
105.853065	1.149776	dec_nonsocial_reject	1.149776	16.000000	n/a	0	0	-5.833333e-02
105.853065	1.149776	dec_reject	1.149776	16.000000	n/a	0	0	-5.357143e-02
105.853065	1.149776	dec_nonsocial_low	1.149776	16.000000	n/a	0	-2.215909e-01	-2.215909e-01
105.853065	1.149776	dec_nonsocial_reject_low	1.149776	16.000000	n/a	1	-5.357143e-02	-1.160714e-01
113.503204	1.482965	dec_social_choice	1.482965	32.000000	n/a	8	2.445652e-02	2.445652e-02
113.503204	1.482965	dec_choice	1.482965	32.000000	n/a	8	2.083333e-02	2.083333e-02
113.503204	1.482965	dec_social_accept	1.482965	32.000000	n/a	8	-1.718750e-01	-1.718750e-01
113.503204	1.482965	dec_accept	1.482965	32.000000	n/a	8	-1.875000e-01	-1.875000e-01
113.503204	1.482965	dec_social_accept_high	1.482965	32.000000	n/a	8	2.083333e-02	2.083333e-02
121.154050	1.199005	dec_social_choice	1.199005	16.000000	n/a	0	0	-2.255435e-01
121.154050	1.199005	dec_choice	1.199005	16.000000	n/a	0	0	-2.291667e-01
121.154050	1.199005	dec_social_reject	1.199005	16.000000	n/a	0	0	-5.833333e-02
121.154050	1.199005	dec_reject	1.199005	16.000000	n/a	0	0	-6.250000e-02
121.154050	1.199005	dec_social_low	1.199005	16.000000	n/a	0	-2.291667e-01	-2.291667e-01
121.154050	1.199005	dec_social_reject_low	1.199005	16.000000	n/a	1	-1.666667e-01	-2.291667e-01
127.986050	1.833383	dec_nonsocial_choice	1.833383	32.000000	n/a	16	2.744565e-01	2.744565e-01
127.986050	1.833383	dec_choice	1.833383	32.000000	n/a	16	2.784091e-01	2.784091e-01
127.986050	1.833383	dec_nonsocial_accept	1.833383	32.000000	n/a	16	7.812500e-02	7.812500e-02
127.986050	1.833383	dec_accept	1.833383	32.000000	n/a	16	9.375000e-02	9.375000e-02
127.986050	1.833383	dec_nonsocial_high	1.833383	32.000000	n/a	16	2.784091e-01	2.784091e-01
127.986050	1.833383	dec_nonsocial_accept_high	1.833383	32.000000	n/a	16	9.375000e-02	9.375000e-02
135.636080	1.283609	dec_nonsocial_choice	1.283609	16.000000	n/a	0	0	-2.255435e-01
135.636080	1.283609	dec_choice	1.283609	16.000000	n/a	0	0	-2.215909e-01
135.636080	1.283609	dec_nonsocial_reject	1.283609	16.000000	n/a	0	0	-5.833333e-02
135.636080	1.283609	dec_reject	1.283609	16.000000	n/a	0	0	-5.357143e-02
135.636080	1.283609	dec_nonsocial_reject_low	1.283609	16.000000	n/a	1	-6.250000e-02	-1.250000e-01
143.287100	1.598975	dec_social_choice	1.598975	16.000000	n/a	8	2.744565e-01	2.744565e-01
143.287100	1.598975	dec_choice	1.598975	16.000000	n/a	8	2.708333e-01	2.708333e-01
143.287100	1.598975	dec_social_accept	1.598975	16.000000	n/a	8	7.812500e-02	7.812500e-02
143.287100	1.598975	dec_accept	1.598975	16.000000	n/a	8	6.250000e-02	6.250000e-02
143.287100	1.598975	dec_social_accept_high	1.598975	16.000000	n/a	8	2.708333e-01	2.708333e-01
150.119250	3.766946	missed_trial	3.766946	16.000000	n/a	n/a	n/a	n/a
156.953060	3.766946	missed_trial	3.766946	32.000000	n/a	n/a	n/a	n/a
163.801800	1.483653	dec_social_choice	1.483653	32.000000	n/a	0	0	-2.255435e-01
163.801800	1.483653	dec_choice	1.483653	32.000000	n/a	0	0	-2.291667e-01
163.801800	1.483653	dec_social_reject	1.483653	32.000000	n/a	0	0	-2.708333e-02
163.801800	1.483653	dec_reject	1.483653	32.000000	n/a	0	0	-3.125000e-02
163.801800	1.483653	dec_social_low	1.483653	32.000000	n/a	0	-2.291667e-01	-2.291667e-01
163.801800	1.483653	dec_social_reject_low	1.483653	32.000000	n/a	3	-1.354167e-01	-2.291667e-01
173.070250	1.282675	dec_nonsocial_choice	1.282675	16.000000	n/a	0	0	-2.255435e-01
173.070250	1.282675	dec_choice	1.282675	16.000000	n/a	0	0	-2.215909e-01
173.070250	1.282675	dec_nonsocial_reject	1.282675	16.000000	n/a	0	0	1.291667e-01
173.070250	1.282675	dec_reject	1.282675	16.000000	n/a	0	0	1.339286e-01
173.070250	1.282675	dec_nonsocial_reject_low	1.282675	16.000000	n/a	4	1.250000e-01	-1.250000e-01
182.336090	1.283274	dec_social_choice	1.283274	16.000000	n/a	8	2.744565e-01	2.744565e-01
182.336090	1.283274	dec_choice	1.283274	16.000000	n/a	8	2.708333e-01	2.708333e-01
182.336090	1.283274	dec_social_accept	1.283274	16.000000	n/a	8	7.812500e-02	7.812500e-02
182.336090	1.283274	dec_accept	1.283274	16.000000	n/a	8	6.250000e-02	6.250000e-02
182.336090	1.283274	dec_social_accept_high	1.283274	16.000000	n/a	8	2.708333e-01	2.708333e-01
189.985090	1.201146	dec_social_choice	1.201146	32.000000	n/a	0	0	-2.255435e-01
189.985090	1.201146	dec_choice	1.201146	32.000000	n/a	0	0	-2.291667e-01
189.985090	1.201146	dec_social_reject	1.201146	32.000000	n/a	0	0	-5.833333e-02
189.985090	1.201146	dec_reject	1.201146	32.000000	n/a	0	0	-6.250000e-02
189.985090	1.201146	dec_social_reject_low	1.201146	32.000000	n/a	2	-1.666667e-01	-2.291667e-01
196.819990	1.165765	dec_social_choice	1.165765	32.000000	n/a	0	0	-2.255435e-01
196.819990	1.165765	dec_choice	1.165765	32.000000	n/a	0	0	-2.291667e-01
196.819990	1.165765	dec_social_reject	1.165765	32.000000	n/a	0	0	-2.708333e-02
196.819990	1.165765	dec_reject	1.165765	32.000000	n/a	0	0	-3.125000e-02
196.819990	1.165765	dec_social_low	1.165765	32.000000	n/a	0	-2.291667e-01	-2.291667e-01
196.819990	1.165765	dec_social_reject_low	1.165765	32.000000	n/a	3	-1.354167e-01	-2.291667e-01
203.653060	1.283191	dec_social_choice	1.283191	32.000000	n/a	0	0	-2.255435e-01
203.653060	1.283191	dec_choice	1.283191	32.000000	n/a	0	0	-2.291667e-01
203.653060	1.283191	dec_social_reject	1.283191	32.000000	n/a	0	0	-2.708333e-02
203.653060	1.283191	dec_reject	1.283191	32.000000	n/a	0	0	-3.125000e-02
203.653060	1.283191	dec_social_reject_low	1.283191	32.000000	n/a	3	-1.354167e-01	-2.291667e-01
210.486070	1.116086	dec_social_choice	1.116086	16.000000	n/a	0	0	-2.255435e-01
210.486070	1.116086	dec_choice	1.116086	16.000000	n/a	0	0	-2.291667e-01
210.486070	1.116086	dec_social_reject	1.116086	16.000000	n/a	0	0	1.291667e-01
210.486070	1.116086	dec_reject	1.116086	16.000000	n/a	0	0	1.250000e-01
210.486070	1.116086	dec_social_low	1.116086	16.000000	n/a	0	-2.291667e-01	-2.291667e-01
210.486070	1.116086	dec_social_reject_low	1.116086	16.000000	n/a	4	2.083333e-02	-2.291667e-01
217.319080	1.066601	dec_social_choice	1.066601	16.000000	n/a	0	0	-2.255435e-01
217.319080	1.066601	dec_choice	1.066601	16.000000	n/a	0	0	-2.291667e-01
217.319080	1.066601	dec_social_reject	1.066601	16.000000	n/a	0	0	1.291667e-01
217.319080	1.066601	dec_reject	1.066601	16.000000	n/a	0	0	1.250000e-01
217.319080	1.066601	dec_social_reject_low	1.066601	16.000000	n/a	4	2.083333e-02	-2.291667e-01
226.586150	1.449770	dec_social_choice	1.449770	16.000000	n/a	0	0	-2.255435e-01
226.586150	1.449770	dec_choice	1.449770	16.000000	n/a	0	0	-2.291667e-01
226.586150	1.449770	dec_social_reject	1.449770	16.000000	n/a	0	0	-5.833333e-02
226.586150	1.449770	dec_reject	1.449770	16.000000	n/a	0	0	-6.250000e-02
226.586150	1.449770	dec_social_low	1.449770	16.000000	n/a	0	-2.291667e-01	-2.291667e-01
226.586150	1.449770	dec_social_reject_low	1.449770	16.000000	n/a	1	-1.666667e-01	-2.291667e-01
233.419070	1.166673	dec_nonsocial_choice	1.166673	16.000000	n/a	0	0	-2.255435e-01
233.419070	1.166673	dec_choice	1.166673	16.000000	n/a	0	0	-2.215909e-01
233.419070	1.166673	dec_nonsocial_reject	1.166673	16.000000	n/a	0	0	-5.833333e-02
233.419070	1.166673	dec_reject	1.166673	16.000000	n/a	0	0	-5.357143e-02
233.419070	1.166673	dec_nonsocial_reject_low	1.166673	16.000000	n/a	1	-6.250000e-02	-1.250000e-01
240.253110	1.299089	dec_social_choice	1.299089	16.000000	n/a	0	0	-2.255435e-01
240.253110	1.299089	dec_choice	1.299089	16.000000	n/a	0	0	-2.291667e-01
240.253110	1.299089	dec_social_reject	1.299089	16.000000	n/a	0	0	1.291667e-01
240.253110	1.299089	dec_reject	1.299089	16.000000	n/a	0	0	1.250000e-01
240.253110	1.299089	dec_social_low	1.299089	16.000000	n/a	0	-2.291667e-01	-2.291667e-01
240.253110	1.299089	dec_social_reject_low	1.299089	16.000000	n/a	4	2.083333e-02	-2.291667e-01
247.086100	1.250165	dec_nonsocial_choice	1.250165	32.000000	n/a	8	2.445652e-02	2.445652e-02
247.086100	1.250165	dec_choice	1.250165	32.000000	n/a	8	2.840909e-02	2.840909e-02
247.086100	1.250165	dec_nonsocial_accept	1.250165	32.000000	n/a	8	-1.718750e-01	-1.718750e-01
247.086100	1.250165	dec_accept	1.250165	32.000000	n/a	8	-1.562500e-01	-1.562500e-01
247.086100	1.250165	dec_nonsocial_high	1.250165	32.000000	n/a	8	2.840909e-02	2.840909e-02
247.086100	1.250165	dec_nonsocial_accept_high	1.250165	32.000000	n/a	8	-1.562500e-01	-1.562500e-01
253.920000	1.349154	dec_social_choice	1.349154	32.000000	n/a	0	0	-2.255435e-01
253.920000	1.349154	dec_choice	1.349154	32.000000	n/a	0	0	-2.291667e-01
253.920000	1.349154	dec_social_reject	1.349154	32.000000	n/a	0	0	-5.833333e-02
253.920000	1.349154	dec_reject	1.349154	32.000000	n/a	0	0	-6.250000e-02
253.920000	1.349154	dec_social_reject_low	1.349154	32.000000	n/a	2	-1.666667e-01	-2.291667e-01
261.569850	0.982872	dec_nonsocial_choice	0.982872	32.000000	n/a	0	0	-2.255435e-01
261.569850	0.982872	dec_choice	0.982872	32.000000	n/a	0	0	-2.215909e-01
261.569850	0.982872	dec_nonsocial_reject	0.982872	32.000000	n/a	0	0	-5.833333e-02
261.569850	0.982872	dec_reject	0.982872	32.000000	n/a	0	0	-5.357143e-02
261.569850	0.982872	dec_nonsocial_reject_low	0.982872	32.000000	n/a	2	-6.250000e-02	-1.250000e-01
269.219150	2.483490	dec_nonsocial_choice	2.483490	16.000000	n/a	0	0	-2.255435e-01
269.219150	2.483490	dec_choice	2.483490	16.000000	n/a	0	0	-2.215909e-01
269.219150	2.483490	dec_nonsocial_reject	2.483490	16.000000	n/a	0	0	1.291667e-01
269.219150	2.483490	dec_reject	2.483490	16.000000	n/a	0	0	1.339286e-01
269.219150	2.483490	dec_nonsocial_low	2.483490	16.000000	n/a	0	-2.215909e-01	-2.215909e-01
269.219150	2.483490	dec_nonsocial_reject_low	2.483490	16.000000	n/a	4	1.339286e-01	-1.160714e-01
276.870060	1.282400	dec_social_choice	1.282400	16.000000	n/a	0	0	-2.255435e-01
276.870060	1.282400	dec_choice	1.282400	16.000000	n/a	0	0	-2.291667e-01
276.870060	1.282400	dec_social_reject	1.282400	16.000000	n/a	0	0	4.166667e-03
276.870060	1.282400	dec_reject	1.282400	16.000000	n/a	0	0	0
276.870060	1.282400	dec_social_reject_low	1.282400	16.000000	n/a	2	-1.041667e-01	-2.291667e-01
283.703030	1.765759	dec_nonsocial_choice	1.765759	32.000000	n/a	0	0	-2.255435e-01
283.703030	1.765759	dec_choice	1.765759	32.000000	n/a	0	0	-2.215909e-01
283.703030	1.765759	dec_nonsocial_reject	1.765759	32.000000	n/a	0	0	-2.708333e-02
283.703030	1.765759	dec_reject	1.765759	32.000000	n/a	0	0	-2.232143e-02
283.703030	1.765759	dec_nonsocial_reject_low	1.765759	32.000000	n/a	3	-3.125000e-02	-1.250000e-01
291.352720	1.233407	dec_social_choice	1.233407	32.000000	n/a	0	0	-2.255435e-01
291.352720	1.233407	dec_choice	1.233407	32.000000	n/a	0	0	-2.291667e-01
291.352720	1.233407	dec_social_reject	1.233407	32.000000	n/a	0	0	-2.708333e-02
291.352720	1.233407	dec_reject	1.233407	32.000000	n/a	0	0	-3.125000e-02
291.352720	1.233407	dec_social_low	1.233407	32.000000	n/a	0	-2.291667e-01	-2.291667e-01
291.352720	1.233407	dec_social_reject_low	1.233407	32.000000	n/a	3	-1.354167e-01	-2.291667e-01
298.187200	1.564989	dec_social_choice	1.564989	16.000000	n/a	8	2.744565e-01	2.744565e-01
298.187200	1.564989	dec_choice	1.564989	16.000000	n/a	8	2.708333e-01	2.708333e-01
298.187200	1.564989	dec_social_accept	1.564989	16.000000	n/a	8	7.812500e-02	7.812500e-02
298.187200	1.564989	dec_accept	1.564989	16.000000	n/a	8	6.250000e-02	6.250000e-02
298.187200	1.564989	dec_social_accept_high	1.564989	16.000000	n/a	8	2.708333e-01	2.708333e-01
307.453220	1.532623	dec_social_choice	1.532623	16.000000	n/a	0	0	-2.255435e-01
307.453220	1.532623	dec_choice	1.532623	16.000000	n/a	0	0	-2.291667e-01
307.453220	1.532623	dec_social_reject	1.532623	16.000000	n/a	0	0	4.166667e-03
307.453220	1.532623	dec_reject	1.532623	16.000000	n/a	0	0	0
307.453220	1.532623	dec_social_reject_low	1.532623	16.000000	n/a	2	-1.041667e-01	-2.291667e-01
318.319270	1.632853	dec_social_choice	1.632853	16.000000	n/a	0	0	-2.255435e-01
318.319270	1.632853	dec_choice	1.632853	16.000000	n/a	0	0	-2.291667e-01
318.319270	1.632853	dec_social_reject	1.632853	16.000000	n/a	0	0	1.291667e-01
318.319270	1.632853	dec_reject	1.632853	16.000000	n/a	0	0	1.250000e-01
318.319270	1.632853	dec_social_reject_low	1.632853	16.000000	n/a	4	2.083333e-02	-2.291667e-01
327.585170	1.416911	dec_nonsocial_choice	1.416911	32.000000	n/a	16	2.744565e-01	2.744565e-01
327.585170	1.416911	dec_choice	1.416911	32.000000	n/a	16	2.784091e-01	2.784091e-01
327.585170	1.416911	dec_nonsocial_accept	1.416911	32.000000	n/a	16	7.812500e-02	7.812500e-02
327.585170	1.416911	dec_accept	1.416911	32.000000	n/a	16	9.375000e-02	9.375000e-02
327.585170	1.416911	dec_nonsocial_accept_high	1.416911	32.000000	n/a	16	6.250000e-02	6.250000e-02
334.419070	1.366269	dec_social_choice	1.366269	32.000000	n/a	16	2.744565e-01	2.744565e-01
334.419070	1.366269	dec_choice	1.366269	32.000000	n/a	16	2.708333e-01	2.708333e-01
334.419070	1.366269	dec_social_accept	1.366269	32.000000	n/a	16	7.812500e-02	7.812500e-02
334.419070	1.366269	dec_accept	1.366269	32.000000	n/a	16	6.250000e-02	6.250000e-02
334.419070	1.366269	dec_social_accept_high	1.366269	32.000000	n/a	16	2.708333e-01	2.708333e-01
342.069100	1.449562	dec_nonsocial_choice	1.449562	32.000000	n/a	0	0	-2.255435e-01
342.069100	1.449562	dec_choice	1.449562	32.000000	n/a	0	0	-2.215909e-01
342.069100	1.449562	dec_nonsocial_reject	1.449562	32.000000	n/a	0	0	-5.833333e-02
342.069100	1.449562	dec_reject	1.449562	32.000000	n/a	0	0	-5.357143e-02
342.069100	1.449562	dec_nonsocial_reject_low	1.449562	32.000000	n/a	2	-6.250000e-02	-1.250000e-01
352.936070	1.299745	dec_nonsocial_choice	1.299745	32.000000	n/a	8	2.445652e-02	2.445652e-02
352.936070	1.299745	dec_choice	1.299745	32.000000	n/a	8	2.840909e-02	2.840909e-02
352.936070	1.299745	dec_nonsocial_accept	1.299745	32.000000	n/a	8	-1.718750e-01	-1.718750e-01
352.936070	1.299745	dec_accept	1.299745	32.000000	n/a	8	-1.562500e-01	-1.562500e-01
352.936070	1.299745	dec_nonsocial_high	1.299745	32.000000	n/a	8	2.840909e-02	2.840909e-02
352.936070	1.299745	dec_nonsocial_accept_high	1.299745	32.000000	n/a	8	-1.562500e-01	-1.562500e-01
359.769070	0.983242	dec_nonsocial_choice	0.983242	32.000000	n/a	0	0	-2.255435e-01
359.769070	0.983242	dec_choice	0.983242	32.000000	n/a	0	0	-2.215909e-01
359.769070	0.983242	dec_nonsocial_reject	0.983242	32.000000	n/a	0	0	-5.833333e-02
359.769070	0.983242	dec_reject	0.983242	32.000000	n/a	0	0	-5.357143e-02
359.769070	0.983242	dec_nonsocial_reject_low	0.983242	32.000000	n/a	2	-6.250000e-02	-1.250000e-01
367.419100	1.433419	dec_nonsocial_choice	1.433419	32.000000	n/a	16	2.744565e-01	2.744565e-01
367.419100	1.433419	dec_choice	1.433419	32.000000	n/a	16	2.784091e-01	2.784091e-01
367.419100	1.433419	dec_nonsocial_accept	1.433419	32.000000	n/a	16	7.812500e-02	7.812500e-02
367.419100	1.433419	dec_accept	1.433419	32.000000	n/a	16	9.375000e-02	9.375000e-02
367.419100	1.433419	dec_nonsocial_high	1.433419	32.000000	n/a	16	2.784091e-01	2.784091e-01
367.419100	1.433419	dec_nonsocial_accept_high	1.433419	32.000000	n/a	16	9.375000e-02	9.375000e-02
