onset	duration	trial_type	response_time	Endowment	Endowment_pmod	Decision	Decision_pmod	Offer_pmod
4.516349	2	cue_nonsocial	n/a	32	9	n/a	n/a	n/a
4.516349	2	cue_nonsocial_high	n/a	32	8	n/a	n/a	n/a
13.834634	2	cue_social	n/a	32	8	n/a	n/a	n/a
13.834634	2	cue_social_high	n/a	32	9	n/a	n/a	n/a
20.656532	2	cue_social	n/a	16	-8	n/a	n/a	n/a
20.656532	2	cue_social_low	n/a	16	-7	n/a	n/a	n/a
28.249743	2	cue_nonsocial	n/a	32	9	n/a	n/a	n/a
28.249743	2	cue_nonsocial_high	n/a	32	8	n/a	n/a	n/a
35.133022	2	cue_social	n/a	16	-8	n/a	n/a	n/a
35.133022	2	cue_social_low	n/a	16	-7	n/a	n/a	n/a
41.916447	2	cue_nonsocial	n/a	16	-7	n/a	n/a	n/a
41.916447	2	cue_nonsocial_low	n/a	16	-8	n/a	n/a	n/a
51.220920	2	cue_social	n/a	32	8	n/a	n/a	n/a
51.220920	2	cue_social_high	n/a	32	9	n/a	n/a	n/a
57.999695	2	cue_nonsocial	n/a	16	-7	n/a	n/a	n/a
57.999695	2	cue_nonsocial_low	n/a	16	-8	n/a	n/a	n/a
65.704970	2	cue_social	n/a	16	-8	n/a	n/a	n/a
65.704970	2	cue_social_low	n/a	16	-7	n/a	n/a	n/a
73.334200	2	cue_social	n/a	32	8	n/a	n/a	n/a
73.334200	2	cue_social_high	n/a	32	9	n/a	n/a	n/a
80.973140	2	cue_social	n/a	32	8	n/a	n/a	n/a
80.973140	2	cue_social_high	n/a	32	9	n/a	n/a	n/a
90.250600	2	cue_social	n/a	16	-8	n/a	n/a	n/a
90.250600	2	cue_social_low	n/a	16	-7	n/a	n/a	n/a
102.683130	2	cue_nonsocial	n/a	16	-7	n/a	n/a	n/a
102.683130	2	cue_nonsocial_low	n/a	16	-8	n/a	n/a	n/a
109.516190	2	cue_nonsocial	n/a	32	9	n/a	n/a	n/a
109.516190	2	cue_nonsocial_high	n/a	32	8	n/a	n/a	n/a
116.349650	2	cue_nonsocial	n/a	16	-7	n/a	n/a	n/a
116.349650	2	cue_nonsocial_low	n/a	16	-8	n/a	n/a	n/a
127.268580	2	cue_social	n/a	32	8	n/a	n/a	n/a
127.268580	2	cue_social_high	n/a	32	9	n/a	n/a	n/a
134.049600	2	cue_nonsocial	n/a	32	9	n/a	n/a	n/a
134.049600	2	cue_nonsocial_high	n/a	32	8	n/a	n/a	n/a
140.942500	2	cue_social	n/a	32	8	n/a	n/a	n/a
140.942500	2	cue_social_high	n/a	32	9	n/a	n/a	n/a
148.573900	2	cue_social	n/a	16	-8	n/a	n/a	n/a
148.573900	2	cue_social_low	n/a	16	-7	n/a	n/a	n/a
155.399860	2	cue_social	n/a	16	-8	n/a	n/a	n/a
155.399860	2	cue_social_low	n/a	16	-7	n/a	n/a	n/a
162.229060	2	cue_social	n/a	32	8	n/a	n/a	n/a
162.229060	2	cue_social_high	n/a	32	9	n/a	n/a	n/a
169.033680	2	cue_nonsocial	n/a	16	-7	n/a	n/a	n/a
169.033680	2	cue_nonsocial_low	n/a	16	-8	n/a	n/a	n/a
175.866070	2	cue_nonsocial	n/a	32	9	n/a	n/a	n/a
175.866070	2	cue_nonsocial_high	n/a	32	8	n/a	n/a	n/a
182.699400	2	cue_nonsocial	n/a	16	-7	n/a	n/a	n/a
182.699400	2	cue_nonsocial_low	n/a	16	-8	n/a	n/a	n/a
189.532530	2	cue_nonsocial	n/a	16	-7	n/a	n/a	n/a
189.532530	2	cue_nonsocial_low	n/a	16	-8	n/a	n/a	n/a
197.211360	2	cue_social	n/a	16	-8	n/a	n/a	n/a
197.211360	2	cue_social_low	n/a	16	-7	n/a	n/a	n/a
204.015800	2	cue_nonsocial	n/a	16	-7	n/a	n/a	n/a
204.015800	2	cue_nonsocial_low	n/a	16	-8	n/a	n/a	n/a
211.665910	2	cue_nonsocial	n/a	32	9	n/a	n/a	n/a
211.665910	2	cue_nonsocial_high	n/a	32	8	n/a	n/a	n/a
220.915820	2	cue_nonsocial	n/a	16	-7	n/a	n/a	n/a
220.915820	2	cue_nonsocial_low	n/a	16	-8	n/a	n/a	n/a
227.749160	2	cue_nonsocial	n/a	16	-7	n/a	n/a	n/a
227.749160	2	cue_nonsocial_low	n/a	16	-8	n/a	n/a	n/a
237.018650	2	cue_social	n/a	32	8	n/a	n/a	n/a
237.018650	2	cue_social_high	n/a	32	9	n/a	n/a	n/a
243.894260	2	cue_social	n/a	16	-8	n/a	n/a	n/a
243.894260	2	cue_social_low	n/a	16	-7	n/a	n/a	n/a
254.754330	2	cue_social	n/a	16	-8	n/a	n/a	n/a
254.754330	2	cue_social_low	n/a	16	-7	n/a	n/a	n/a
262.365500	2	cue_nonsocial	n/a	16	-7	n/a	n/a	n/a
262.365500	2	cue_nonsocial_low	n/a	16	-8	n/a	n/a	n/a
270.047030	2	cue_social	n/a	32	8	n/a	n/a	n/a
270.047030	2	cue_social_high	n/a	32	9	n/a	n/a	n/a
279.265500	2	cue_nonsocial	n/a	32	9	n/a	n/a	n/a
279.265500	2	cue_nonsocial_high	n/a	32	8	n/a	n/a	n/a
286.915560	2	cue_nonsocial	n/a	32	9	n/a	n/a	n/a
286.915560	2	cue_nonsocial_high	n/a	32	8	n/a	n/a	n/a
294.548740	2	cue_nonsocial	n/a	16	-7	n/a	n/a	n/a
294.548740	2	cue_nonsocial_low	n/a	16	-8	n/a	n/a	n/a
301.439240	2	cue_social	n/a	32	8	n/a	n/a	n/a
301.439240	2	cue_social_high	n/a	32	9	n/a	n/a	n/a
308.343480	2	cue_social	n/a	32	8	n/a	n/a	n/a
308.343480	2	cue_social_high	n/a	32	9	n/a	n/a	n/a
319.082120	2	cue_nonsocial	n/a	32	9	n/a	n/a	n/a
319.082120	2	cue_nonsocial_high	n/a	32	8	n/a	n/a	n/a
326.760400	2	cue_social	n/a	16	-8	n/a	n/a	n/a
326.760400	2	cue_social_low	n/a	16	-7	n/a	n/a	n/a
333.577800	2	cue_social	n/a	16	-8	n/a	n/a	n/a
333.577800	2	cue_social_low	n/a	16	-7	n/a	n/a	n/a
340.398700	2	cue_nonsocial	n/a	16	-7	n/a	n/a	n/a
340.398700	2	cue_nonsocial_low	n/a	16	-8	n/a	n/a	n/a
348.078340	2	cue_social	n/a	32	8	n/a	n/a	n/a
348.078340	2	cue_social_high	n/a	32	9	n/a	n/a	n/a
354.881800	2	cue_nonsocial	n/a	16	-7	n/a	n/a	n/a
354.881800	2	cue_nonsocial_low	n/a	16	-8	n/a	n/a	n/a
361.755160	2	cue_social	n/a	16	-8	n/a	n/a	n/a
361.755160	2	cue_social_low	n/a	16	-7	n/a	n/a	n/a
370.965270	2	cue_nonsocial	n/a	32	9	n/a	n/a	n/a
370.965270	2	cue_nonsocial_high	n/a	32	8	n/a	n/a	n/a
6.522900	2.000301	dec_nonsocial_choice	2.000301	32.000000	n/a	8	1.953125e-02	1.953125e-02
6.522900	2.000301	dec_choice	2.000301	32.000000	n/a	8	2.083333e-02	2.083333e-02
6.522900	2.000301	dec_nonsocial_accept	2.000301	32.000000	n/a	8	1.953125e-02	1.953125e-02
6.522900	2.000301	dec_accept	2.000301	32.000000	n/a	8	2.083333e-02	2.083333e-02
6.522900	2.000301	dec_nonsocial_high	2.000301	32.000000	n/a	8	2.083333e-02	2.083333e-02
6.522900	2.000301	dec_nonsocial_accept_high	2.000301	32.000000	n/a	8	2.083333e-02	2.083333e-02
15.772983	2.183340	dec_social_choice	2.183340	32.000000	n/a	16	2.695312e-01	2.695312e-01
15.772983	2.183340	dec_choice	2.183340	32.000000	n/a	16	2.682292e-01	2.682292e-01
15.772983	2.183340	dec_social_accept	2.183340	32.000000	n/a	16	2.695312e-01	2.695312e-01
15.772983	2.183340	dec_accept	2.183340	32.000000	n/a	16	2.682292e-01	2.682292e-01
15.772983	2.183340	dec_social_accept_high	2.183340	32.000000	n/a	16	2.682292e-01	2.682292e-01
22.606577	2.066381	dec_social_choice	2.066381	16.000000	n/a	2	-1.054688e-01	-1.054688e-01
22.606577	2.066381	dec_choice	2.066381	16.000000	n/a	2	-1.067708e-01	-1.067708e-01
22.606577	2.066381	dec_social_accept	2.066381	16.000000	n/a	2	-1.054688e-01	-1.054688e-01
22.606577	2.066381	dec_accept	2.066381	16.000000	n/a	2	-1.067708e-01	-1.067708e-01
22.606577	2.066381	dec_social_accept_low	2.066381	16.000000	n/a	2	-1.067708e-01	-1.067708e-01
30.256449	2.283485	dec_nonsocial_choice	2.283485	32.000000	n/a	16	2.695312e-01	2.695312e-01
30.256449	2.283485	dec_choice	2.283485	32.000000	n/a	16	2.708333e-01	2.708333e-01
30.256449	2.283485	dec_nonsocial_accept	2.283485	32.000000	n/a	16	2.695312e-01	2.695312e-01
30.256449	2.283485	dec_accept	2.283485	32.000000	n/a	16	2.708333e-01	2.708333e-01
30.256449	2.283485	dec_nonsocial_high	2.283485	32.000000	n/a	16	2.708333e-01	2.708333e-01
30.256449	2.283485	dec_nonsocial_accept_high	2.283485	32.000000	n/a	16	2.708333e-01	2.708333e-01
37.090210	1.665694	dec_social_choice	1.665694	16.000000	n/a	8	2.695312e-01	2.695312e-01
37.090210	1.665694	dec_choice	1.665694	16.000000	n/a	8	2.682292e-01	2.682292e-01
37.090210	1.665694	dec_social_accept	1.665694	16.000000	n/a	8	2.695312e-01	2.695312e-01
37.090210	1.665694	dec_accept	1.665694	16.000000	n/a	8	2.682292e-01	2.682292e-01
37.090210	1.665694	dec_social_accept_high	1.665694	16.000000	n/a	8	2.682292e-01	2.682292e-01
43.923866	2.599046	dec_nonsocial_choice	2.599046	16.000000	n/a	1	-1.679688e-01	-1.679688e-01
43.923866	2.599046	dec_choice	2.599046	16.000000	n/a	1	-1.666667e-01	-1.666667e-01
43.923866	2.599046	dec_nonsocial_accept	2.599046	16.000000	n/a	1	-1.679688e-01	-1.679688e-01
43.923866	2.599046	dec_accept	2.599046	16.000000	n/a	1	-1.666667e-01	-1.666667e-01
43.923866	2.599046	dec_nonsocial_accept_low	2.599046	16.000000	n/a	1	-1.692708e-01	-1.692708e-01
53.172880	2.516179	dec_social_choice	2.516179	32.000000	n/a	2	-1.679688e-01	-1.679688e-01
53.172880	2.516179	dec_choice	2.516179	32.000000	n/a	2	-1.692708e-01	-1.692708e-01
53.172880	2.516179	dec_social_accept	2.516179	32.000000	n/a	2	-1.679688e-01	-1.679688e-01
53.172880	2.516179	dec_accept	2.516179	32.000000	n/a	2	-1.692708e-01	-1.692708e-01
53.172880	2.516179	dec_social_low	2.516179	32.000000	n/a	2	-1.692708e-01	-1.692708e-01
53.172880	2.516179	dec_social_accept_low	2.516179	32.000000	n/a	2	-1.692708e-01	-1.692708e-01
60.005737	1.684063	dec_nonsocial_choice	1.684063	16.000000	n/a	8	2.695312e-01	2.695312e-01
60.005737	1.684063	dec_choice	1.684063	16.000000	n/a	8	2.708333e-01	2.708333e-01
60.005737	1.684063	dec_nonsocial_accept	1.684063	16.000000	n/a	8	2.695312e-01	2.695312e-01
60.005737	1.684063	dec_accept	1.684063	16.000000	n/a	8	2.708333e-01	2.708333e-01
60.005737	1.684063	dec_nonsocial_accept_high	1.684063	16.000000	n/a	8	2.682292e-01	2.682292e-01
67.639786	1.983789	dec_social_choice	1.983789	16.000000	n/a	4	1.953125e-02	1.953125e-02
67.639786	1.983789	dec_choice	1.983789	16.000000	n/a	4	1.822917e-02	1.822917e-02
67.639786	1.983789	dec_social_accept	1.983789	16.000000	n/a	4	1.953125e-02	1.953125e-02
67.639786	1.983789	dec_accept	1.983789	16.000000	n/a	4	1.822917e-02	1.822917e-02
67.639786	1.983789	dec_social_accept_high	1.983789	16.000000	n/a	4	1.822917e-02	1.822917e-02
75.290190	1.232763	dec_social_choice	1.232763	32.000000	n/a	3	-1.367188e-01	-1.367188e-01
75.290190	1.232763	dec_choice	1.232763	32.000000	n/a	3	-1.380208e-01	-1.380208e-01
75.290190	1.232763	dec_social_accept	1.232763	32.000000	n/a	3	-1.367188e-01	-1.367188e-01
75.290190	1.232763	dec_accept	1.232763	32.000000	n/a	3	-1.380208e-01	-1.380208e-01
75.290190	1.232763	dec_social_low	1.232763	32.000000	n/a	3	-1.380208e-01	-1.380208e-01
75.290190	1.232763	dec_social_accept_low	1.232763	32.000000	n/a	3	-1.380208e-01	-1.380208e-01
82.940150	1.665772	dec_social_choice	1.665772	32.000000	n/a	2	-1.679688e-01	-1.679688e-01
82.940150	1.665772	dec_choice	1.665772	32.000000	n/a	2	-1.692708e-01	-1.692708e-01
82.940150	1.665772	dec_social_accept	1.665772	32.000000	n/a	2	-1.679688e-01	-1.679688e-01
82.940150	1.665772	dec_accept	1.665772	32.000000	n/a	2	-1.692708e-01	-1.692708e-01
82.940150	1.665772	dec_social_accept_low	1.665772	32.000000	n/a	2	-1.692708e-01	-1.692708e-01
92.206764	1.615699	dec_social_choice	1.615699	16.000000	n/a	4	1.953125e-02	1.953125e-02
92.206764	1.615699	dec_choice	1.615699	16.000000	n/a	4	1.822917e-02	1.822917e-02
92.206764	1.615699	dec_social_accept	1.615699	16.000000	n/a	4	1.953125e-02	1.953125e-02
92.206764	1.615699	dec_accept	1.615699	16.000000	n/a	4	1.822917e-02	1.822917e-02
92.206764	1.615699	dec_social_high	1.615699	16.000000	n/a	4	1.822917e-02	1.822917e-02
92.206764	1.615699	dec_social_accept_high	1.615699	16.000000	n/a	4	1.822917e-02	1.822917e-02
104.688840	1.483949	dec_nonsocial_choice	1.483949	16.000000	n/a	8	2.695312e-01	2.695312e-01
104.688840	1.483949	dec_choice	1.483949	16.000000	n/a	8	2.708333e-01	2.708333e-01
104.688840	1.483949	dec_nonsocial_accept	1.483949	16.000000	n/a	8	2.695312e-01	2.695312e-01
104.688840	1.483949	dec_accept	1.483949	16.000000	n/a	8	2.708333e-01	2.708333e-01
104.688840	1.483949	dec_nonsocial_accept_high	1.483949	16.000000	n/a	8	2.682292e-01	2.682292e-01
111.523636	1.482490	dec_nonsocial_choice	1.482490	32.000000	n/a	3	-1.367188e-01	-1.367188e-01
111.523636	1.482490	dec_choice	1.482490	32.000000	n/a	3	-1.354167e-01	-1.354167e-01
111.523636	1.482490	dec_nonsocial_accept	1.482490	32.000000	n/a	3	-1.367188e-01	-1.367188e-01
111.523636	1.482490	dec_accept	1.482490	32.000000	n/a	3	-1.354167e-01	-1.354167e-01
111.523636	1.482490	dec_nonsocial_accept_low	1.482490	32.000000	n/a	3	-1.380208e-01	-1.380208e-01
118.356766	1.582699	dec_nonsocial_choice	1.582699	16.000000	n/a	4	1.953125e-02	1.953125e-02
118.356766	1.582699	dec_choice	1.582699	16.000000	n/a	4	2.083333e-02	2.083333e-02
118.356766	1.582699	dec_nonsocial_accept	1.582699	16.000000	n/a	4	1.953125e-02	1.953125e-02
118.356766	1.582699	dec_accept	1.582699	16.000000	n/a	4	2.083333e-02	2.083333e-02
118.356766	1.582699	dec_nonsocial_high	1.582699	16.000000	n/a	4	2.083333e-02	2.083333e-02
118.356766	1.582699	dec_nonsocial_accept_high	1.582699	16.000000	n/a	4	2.083333e-02	2.083333e-02
129.222660	1.866461	dec_social_choice	1.866461	32.000000	n/a	8	1.953125e-02	1.953125e-02
129.222660	1.866461	dec_choice	1.866461	32.000000	n/a	8	1.822917e-02	1.822917e-02
129.222660	1.866461	dec_social_accept	1.866461	32.000000	n/a	8	1.953125e-02	1.953125e-02
129.222660	1.866461	dec_accept	1.866461	32.000000	n/a	8	1.822917e-02	1.822917e-02
129.222660	1.866461	dec_social_high	1.866461	32.000000	n/a	8	1.822917e-02	1.822917e-02
129.222660	1.866461	dec_social_accept_high	1.866461	32.000000	n/a	8	1.822917e-02	1.822917e-02
136.055700	2.633739	dec_nonsocial_choice	2.633739	32.000000	n/a	2	-1.679688e-01	-1.679688e-01
136.055700	2.633739	dec_choice	2.633739	32.000000	n/a	2	-1.666667e-01	-1.666667e-01
136.055700	2.633739	dec_nonsocial_accept	2.633739	32.000000	n/a	2	-1.679688e-01	-1.679688e-01
136.055700	2.633739	dec_accept	2.633739	32.000000	n/a	2	-1.666667e-01	-1.666667e-01
136.055700	2.633739	dec_nonsocial_low	2.633739	32.000000	n/a	2	-1.666667e-01	-1.666667e-01
136.055700	2.633739	dec_nonsocial_accept_low	2.633739	32.000000	n/a	2	-1.666667e-01	-1.666667e-01
142.889680	1.415828	dec_social_choice	1.415828	32.000000	n/a	8	1.953125e-02	1.953125e-02
142.889680	1.415828	dec_choice	1.415828	32.000000	n/a	8	1.822917e-02	1.822917e-02
142.889680	1.415828	dec_social_accept	1.415828	32.000000	n/a	8	1.953125e-02	1.953125e-02
142.889680	1.415828	dec_accept	1.415828	32.000000	n/a	8	1.822917e-02	1.822917e-02
142.889680	1.415828	dec_social_high	1.415828	32.000000	n/a	8	1.822917e-02	1.822917e-02
142.889680	1.415828	dec_social_accept_high	1.415828	32.000000	n/a	8	1.822917e-02	1.822917e-02
150.538800	1.800789	dec_social_choice	1.800789	16.000000	n/a	2	-1.054688e-01	-1.054688e-01
150.538800	1.800789	dec_choice	1.800789	16.000000	n/a	2	-1.067708e-01	-1.067708e-01
150.538800	1.800789	dec_social_accept	1.800789	16.000000	n/a	2	-1.054688e-01	-1.054688e-01
150.538800	1.800789	dec_accept	1.800789	16.000000	n/a	2	-1.067708e-01	-1.067708e-01
150.538800	1.800789	dec_social_accept_low	1.800789	16.000000	n/a	2	-1.067708e-01	-1.067708e-01
157.372300	1.817136	dec_social_choice	1.817136	16.000000	n/a	8	2.695312e-01	2.695312e-01
157.372300	1.817136	dec_choice	1.817136	16.000000	n/a	8	2.682292e-01	2.682292e-01
157.372300	1.817136	dec_social_accept	1.817136	16.000000	n/a	8	2.695312e-01	2.695312e-01
157.372300	1.817136	dec_accept	1.817136	16.000000	n/a	8	2.682292e-01	2.682292e-01
157.372300	1.817136	dec_social_accept_high	1.817136	16.000000	n/a	8	2.682292e-01	2.682292e-01
164.205440	1.550625	dec_social_choice	1.550625	32.000000	n/a	16	2.695312e-01	2.695312e-01
164.205440	1.550625	dec_choice	1.550625	32.000000	n/a	16	2.682292e-01	2.682292e-01
164.205440	1.550625	dec_social_accept	1.550625	32.000000	n/a	16	2.695312e-01	2.695312e-01
164.205440	1.550625	dec_accept	1.550625	32.000000	n/a	16	2.682292e-01	2.682292e-01
164.205440	1.550625	dec_social_accept_high	1.550625	32.000000	n/a	16	2.682292e-01	2.682292e-01
171.039760	1.349526	dec_nonsocial_choice	1.349526	16.000000	n/a	1	-1.679688e-01	-1.679688e-01
171.039760	1.349526	dec_choice	1.349526	16.000000	n/a	1	-1.666667e-01	-1.666667e-01
171.039760	1.349526	dec_nonsocial_accept	1.349526	16.000000	n/a	1	-1.679688e-01	-1.679688e-01
171.039760	1.349526	dec_accept	1.349526	16.000000	n/a	1	-1.666667e-01	-1.666667e-01
171.039760	1.349526	dec_nonsocial_accept_low	1.349526	16.000000	n/a	1	-1.692708e-01	-1.692708e-01
177.872360	1.166593	dec_nonsocial_choice	1.166593	32.000000	n/a	3	-1.367188e-01	-1.367188e-01
177.872360	1.166593	dec_choice	1.166593	32.000000	n/a	3	-1.354167e-01	-1.354167e-01
177.872360	1.166593	dec_nonsocial_accept	1.166593	32.000000	n/a	3	-1.367188e-01	-1.367188e-01
177.872360	1.166593	dec_accept	1.166593	32.000000	n/a	3	-1.354167e-01	-1.354167e-01
177.872360	1.166593	dec_nonsocial_accept_low	1.166593	32.000000	n/a	3	-1.380208e-01	-1.380208e-01
184.705810	1.866284	dec_nonsocial_choice	1.866284	16.000000	n/a	2	-1.054688e-01	-1.054688e-01
184.705810	1.866284	dec_choice	1.866284	16.000000	n/a	2	-1.041667e-01	-1.041667e-01
184.705810	1.866284	dec_nonsocial_accept	1.866284	16.000000	n/a	2	-1.054688e-01	-1.054688e-01
184.705810	1.866284	dec_accept	1.866284	16.000000	n/a	2	-1.041667e-01	-1.041667e-01
184.705810	1.866284	dec_nonsocial_low	1.866284	16.000000	n/a	2	-1.041667e-01	-1.041667e-01
184.705810	1.866284	dec_nonsocial_accept_low	1.866284	16.000000	n/a	2	-1.041667e-01	-1.041667e-01
191.539430	1.716025	dec_nonsocial_choice	1.716025	16.000000	n/a	8	2.695312e-01	2.695312e-01
191.539430	1.716025	dec_choice	1.716025	16.000000	n/a	8	2.708333e-01	2.708333e-01
191.539430	1.716025	dec_nonsocial_accept	1.716025	16.000000	n/a	8	2.695312e-01	2.695312e-01
191.539430	1.716025	dec_accept	1.716025	16.000000	n/a	8	2.708333e-01	2.708333e-01
191.539430	1.716025	dec_nonsocial_accept_high	1.716025	16.000000	n/a	8	2.682292e-01	2.682292e-01
199.188780	1.683345	dec_social_choice	1.683345	16.000000	n/a	1	-1.679688e-01	-1.679688e-01
199.188780	1.683345	dec_choice	1.683345	16.000000	n/a	1	-1.692708e-01	-1.692708e-01
199.188780	1.683345	dec_social_accept	1.683345	16.000000	n/a	1	-1.679688e-01	-1.679688e-01
199.188780	1.683345	dec_accept	1.683345	16.000000	n/a	1	-1.692708e-01	-1.692708e-01
199.188780	1.683345	dec_social_low	1.683345	16.000000	n/a	1	-1.692708e-01	-1.692708e-01
199.188780	1.683345	dec_social_accept_low	1.683345	16.000000	n/a	1	-1.692708e-01	-1.692708e-01
206.021930	1.433922	dec_nonsocial_choice	1.433922	16.000000	n/a	4	1.953125e-02	1.953125e-02
206.021930	1.433922	dec_choice	1.433922	16.000000	n/a	4	2.083333e-02	2.083333e-02
206.021930	1.433922	dec_nonsocial_accept	1.433922	16.000000	n/a	4	1.953125e-02	1.953125e-02
206.021930	1.433922	dec_accept	1.433922	16.000000	n/a	4	2.083333e-02	2.083333e-02
206.021930	1.433922	dec_nonsocial_high	1.433922	16.000000	n/a	4	2.083333e-02	2.083333e-02
206.021930	1.433922	dec_nonsocial_accept_high	1.433922	16.000000	n/a	4	2.083333e-02	2.083333e-02
213.671660	1.950817	dec_nonsocial_choice	1.950817	32.000000	n/a	2	-1.679688e-01	-1.679688e-01
213.671660	1.950817	dec_choice	1.950817	32.000000	n/a	2	-1.666667e-01	-1.666667e-01
213.671660	1.950817	dec_nonsocial_accept	1.950817	32.000000	n/a	2	-1.679688e-01	-1.679688e-01
213.671660	1.950817	dec_accept	1.950817	32.000000	n/a	2	-1.666667e-01	-1.666667e-01
213.671660	1.950817	dec_nonsocial_low	1.950817	32.000000	n/a	2	-1.666667e-01	-1.666667e-01
213.671660	1.950817	dec_nonsocial_accept_low	1.950817	32.000000	n/a	2	-1.666667e-01	-1.666667e-01
222.922680	1.483133	dec_nonsocial_choice	1.483133	16.000000	n/a	8	2.695312e-01	2.695312e-01
222.922680	1.483133	dec_choice	1.483133	16.000000	n/a	8	2.708333e-01	2.708333e-01
222.922680	1.483133	dec_nonsocial_accept	1.483133	16.000000	n/a	8	2.695312e-01	2.695312e-01
222.922680	1.483133	dec_accept	1.483133	16.000000	n/a	8	2.708333e-01	2.708333e-01
222.922680	1.483133	dec_nonsocial_accept_high	1.483133	16.000000	n/a	8	2.682292e-01	2.682292e-01
229.756260	1.465788	dec_nonsocial_choice	1.465788	16.000000	n/a	4	1.953125e-02	1.953125e-02
229.756260	1.465788	dec_choice	1.465788	16.000000	n/a	4	2.083333e-02	2.083333e-02
229.756260	1.465788	dec_nonsocial_accept	1.465788	16.000000	n/a	4	1.953125e-02	1.953125e-02
229.756260	1.465788	dec_accept	1.465788	16.000000	n/a	4	2.083333e-02	2.083333e-02
229.756260	1.465788	dec_nonsocial_accept_high	1.465788	16.000000	n/a	4	1.822917e-02	1.822917e-02
239.022490	1.566635	dec_social_choice	1.566635	32.000000	n/a	2	-1.679688e-01	-1.679688e-01
239.022490	1.566635	dec_choice	1.566635	32.000000	n/a	2	-1.692708e-01	-1.692708e-01
239.022490	1.566635	dec_social_accept	1.566635	32.000000	n/a	2	-1.679688e-01	-1.679688e-01
239.022490	1.566635	dec_accept	1.566635	32.000000	n/a	2	-1.692708e-01	-1.692708e-01
239.022490	1.566635	dec_social_accept_low	1.566635	32.000000	n/a	2	-1.692708e-01	-1.692708e-01
245.855470	2.133474	dec_social_choice	2.133474	16.000000	n/a	1	-1.679688e-01	-1.679688e-01
245.855470	2.133474	dec_choice	2.133474	16.000000	n/a	1	-1.692708e-01	-1.692708e-01
245.855470	2.133474	dec_social_accept	2.133474	16.000000	n/a	1	-1.679688e-01	-1.679688e-01
245.855470	2.133474	dec_accept	2.133474	16.000000	n/a	1	-1.692708e-01	-1.692708e-01
245.855470	2.133474	dec_social_low	2.133474	16.000000	n/a	1	-1.692708e-01	-1.692708e-01
245.855470	2.133474	dec_social_accept_low	2.133474	16.000000	n/a	1	-1.692708e-01	-1.692708e-01
256.722750	2.233265	dec_social_choice	2.233265	16.000000	n/a	4	1.953125e-02	1.953125e-02
256.722750	2.233265	dec_choice	2.233265	16.000000	n/a	4	1.822917e-02	1.822917e-02
256.722750	2.233265	dec_social_accept	2.233265	16.000000	n/a	4	1.953125e-02	1.953125e-02
256.722750	2.233265	dec_accept	2.233265	16.000000	n/a	4	1.822917e-02	1.822917e-02
256.722750	2.233265	dec_social_high	2.233265	16.000000	n/a	4	1.822917e-02	1.822917e-02
256.722750	2.233265	dec_social_accept_high	2.233265	16.000000	n/a	4	1.822917e-02	1.822917e-02
264.372600	1.766002	dec_nonsocial_choice	1.766002	16.000000	n/a	4	1.953125e-02	1.953125e-02
264.372600	1.766002	dec_choice	1.766002	16.000000	n/a	4	2.083333e-02	2.083333e-02
264.372600	1.766002	dec_nonsocial_accept	1.766002	16.000000	n/a	4	1.953125e-02	1.953125e-02
264.372600	1.766002	dec_accept	1.766002	16.000000	n/a	4	2.083333e-02	2.083333e-02
264.372600	1.766002	dec_nonsocial_high	1.766002	16.000000	n/a	4	2.083333e-02	2.083333e-02
264.372600	1.766002	dec_nonsocial_accept_high	1.766002	16.000000	n/a	4	2.083333e-02	2.083333e-02
272.021450	1.417511	dec_social_choice	1.417511	32.000000	n/a	2	-1.679688e-01	-1.679688e-01
272.021450	1.417511	dec_choice	1.417511	32.000000	n/a	2	-1.692708e-01	-1.692708e-01
272.021450	1.417511	dec_social_accept	1.417511	32.000000	n/a	2	-1.679688e-01	-1.679688e-01
272.021450	1.417511	dec_accept	1.417511	32.000000	n/a	2	-1.692708e-01	-1.692708e-01
272.021450	1.417511	dec_social_low	1.417511	32.000000	n/a	2	-1.692708e-01	-1.692708e-01
272.021450	1.417511	dec_social_accept_low	1.417511	32.000000	n/a	2	-1.692708e-01	-1.692708e-01
281.271940	2.216499	dec_nonsocial_choice	2.216499	32.000000	n/a	16	2.695312e-01	2.695312e-01
281.271940	2.216499	dec_choice	2.216499	32.000000	n/a	16	2.708333e-01	2.708333e-01
281.271940	2.216499	dec_nonsocial_accept	2.216499	32.000000	n/a	16	2.695312e-01	2.695312e-01
281.271940	2.216499	dec_accept	2.216499	32.000000	n/a	16	2.708333e-01	2.708333e-01
281.271940	2.216499	dec_nonsocial_high	2.216499	32.000000	n/a	16	2.708333e-01	2.708333e-01
281.271940	2.216499	dec_nonsocial_accept_high	2.216499	32.000000	n/a	16	2.708333e-01	2.708333e-01
288.921700	1.451015	dec_nonsocial_choice	1.451015	32.000000	n/a	3	-1.367188e-01	-1.367188e-01
288.921700	1.451015	dec_choice	1.451015	32.000000	n/a	3	-1.354167e-01	-1.354167e-01
288.921700	1.451015	dec_nonsocial_accept	1.451015	32.000000	n/a	3	-1.367188e-01	-1.367188e-01
288.921700	1.451015	dec_accept	1.451015	32.000000	n/a	3	-1.354167e-01	-1.354167e-01
288.921700	1.451015	dec_nonsocial_low	1.451015	32.000000	n/a	3	-1.354167e-01	-1.354167e-01
288.921700	1.451015	dec_nonsocial_accept_low	1.451015	32.000000	n/a	3	-1.354167e-01	-1.354167e-01
296.555540	1.749979	dec_nonsocial_choice	1.749979	16.000000	n/a	2	-1.054688e-01	-1.054688e-01
296.555540	1.749979	dec_choice	1.749979	16.000000	n/a	2	-1.041667e-01	-1.041667e-01
296.555540	1.749979	dec_nonsocial_accept	1.749979	16.000000	n/a	2	-1.054688e-01	-1.054688e-01
296.555540	1.749979	dec_accept	1.749979	16.000000	n/a	2	-1.041667e-01	-1.041667e-01
296.555540	1.749979	dec_nonsocial_accept_low	1.749979	16.000000	n/a	2	-1.067708e-01	-1.067708e-01
303.388580	1.300637	dec_social_choice	1.300637	32.000000	n/a	3	-1.367188e-01	-1.367188e-01
303.388580	1.300637	dec_choice	1.300637	32.000000	n/a	3	-1.380208e-01	-1.380208e-01
303.388580	1.300637	dec_social_accept	1.300637	32.000000	n/a	3	-1.367188e-01	-1.367188e-01
303.388580	1.300637	dec_accept	1.300637	32.000000	n/a	3	-1.380208e-01	-1.380208e-01
303.388580	1.300637	dec_social_low	1.300637	32.000000	n/a	3	-1.380208e-01	-1.380208e-01
303.388580	1.300637	dec_social_accept_low	1.300637	32.000000	n/a	3	-1.380208e-01	-1.380208e-01
310.221370	1.500752	dec_social_choice	1.500752	32.000000	n/a	16	2.695312e-01	2.695312e-01
310.221370	1.500752	dec_choice	1.500752	32.000000	n/a	16	2.682292e-01	2.682292e-01
310.221370	1.500752	dec_social_accept	1.500752	32.000000	n/a	16	2.695312e-01	2.695312e-01
310.221370	1.500752	dec_accept	1.500752	32.000000	n/a	16	2.682292e-01	2.682292e-01
310.221370	1.500752	dec_social_accept_high	1.500752	32.000000	n/a	16	2.682292e-01	2.682292e-01
321.089570	1.282749	dec_nonsocial_choice	1.282749	32.000000	n/a	3	-1.367188e-01	-1.367188e-01
321.089570	1.282749	dec_choice	1.282749	32.000000	n/a	3	-1.354167e-01	-1.354167e-01
321.089570	1.282749	dec_nonsocial_accept	1.282749	32.000000	n/a	3	-1.367188e-01	-1.367188e-01
321.089570	1.282749	dec_accept	1.282749	32.000000	n/a	3	-1.354167e-01	-1.354167e-01
321.089570	1.282749	dec_nonsocial_low	1.282749	32.000000	n/a	3	-1.354167e-01	-1.354167e-01
321.089570	1.282749	dec_nonsocial_accept_low	1.282749	32.000000	n/a	3	-1.354167e-01	-1.354167e-01
328.738100	1.667523	dec_social_choice	1.667523	16.000000	n/a	4	1.953125e-02	1.953125e-02
328.738100	1.667523	dec_choice	1.667523	16.000000	n/a	4	1.822917e-02	1.822917e-02
328.738100	1.667523	dec_social_accept	1.667523	16.000000	n/a	4	1.953125e-02	1.953125e-02
328.738100	1.667523	dec_accept	1.667523	16.000000	n/a	4	1.822917e-02	1.822917e-02
328.738100	1.667523	dec_social_high	1.667523	16.000000	n/a	4	1.822917e-02	1.822917e-02
328.738100	1.667523	dec_social_accept_high	1.667523	16.000000	n/a	4	1.822917e-02	1.822917e-02
335.572850	2.082694	dec_social_choice	2.082694	16.000000	n/a	2	-1.054688e-01	-1.054688e-01
335.572850	2.082694	dec_choice	2.082694	16.000000	n/a	2	-1.067708e-01	-1.067708e-01
335.572850	2.082694	dec_social_accept	2.082694	16.000000	n/a	2	-1.054688e-01	-1.054688e-01
335.572850	2.082694	dec_accept	2.082694	16.000000	n/a	2	-1.067708e-01	-1.067708e-01
335.572850	2.082694	dec_social_low	2.082694	16.000000	n/a	2	-1.067708e-01	-1.067708e-01
335.572850	2.082694	dec_social_accept_low	2.082694	16.000000	n/a	2	-1.067708e-01	-1.067708e-01
342.405730	1.199632	dec_nonsocial_choice	1.199632	16.000000	n/a	4	1.953125e-02	1.953125e-02
342.405730	1.199632	dec_choice	1.199632	16.000000	n/a	4	2.083333e-02	2.083333e-02
342.405730	1.199632	dec_nonsocial_accept	1.199632	16.000000	n/a	4	1.953125e-02	1.953125e-02
342.405730	1.199632	dec_accept	1.199632	16.000000	n/a	4	2.083333e-02	2.083333e-02
342.405730	1.199632	dec_nonsocial_high	1.199632	16.000000	n/a	4	2.083333e-02	2.083333e-02
342.405730	1.199632	dec_nonsocial_accept_high	1.199632	16.000000	n/a	4	2.083333e-02	2.083333e-02
350.054500	1.584011	dec_social_choice	1.584011	32.000000	n/a	16	2.695312e-01	2.695312e-01
350.054500	1.584011	dec_choice	1.584011	32.000000	n/a	16	2.682292e-01	2.682292e-01
350.054500	1.584011	dec_social_accept	1.584011	32.000000	n/a	16	2.695312e-01	2.695312e-01
350.054500	1.584011	dec_accept	1.584011	32.000000	n/a	16	2.682292e-01	2.682292e-01
350.054500	1.584011	dec_social_high	1.584011	32.000000	n/a	16	2.682292e-01	2.682292e-01
350.054500	1.584011	dec_social_accept_high	1.584011	32.000000	n/a	16	2.682292e-01	2.682292e-01
356.889470	2.049328	dec_nonsocial_choice	2.049328	16.000000	n/a	1	-1.679688e-01	-1.679688e-01
356.889470	2.049328	dec_choice	2.049328	16.000000	n/a	1	-1.666667e-01	-1.666667e-01
356.889470	2.049328	dec_nonsocial_accept	2.049328	16.000000	n/a	1	-1.679688e-01	-1.679688e-01
356.889470	2.049328	dec_accept	2.049328	16.000000	n/a	1	-1.666667e-01	-1.666667e-01
356.889470	2.049328	dec_nonsocial_accept_low	2.049328	16.000000	n/a	1	-1.692708e-01	-1.692708e-01
363.721770	1.583644	dec_social_choice	1.583644	16.000000	n/a	2	-1.054688e-01	-1.054688e-01
363.721770	1.583644	dec_choice	1.583644	16.000000	n/a	2	-1.067708e-01	-1.067708e-01
363.721770	1.583644	dec_social_accept	1.583644	16.000000	n/a	2	-1.054688e-01	-1.054688e-01
363.721770	1.583644	dec_accept	1.583644	16.000000	n/a	2	-1.067708e-01	-1.067708e-01
363.721770	1.583644	dec_social_low	1.583644	16.000000	n/a	2	-1.067708e-01	-1.067708e-01
363.721770	1.583644	dec_social_accept_low	1.583644	16.000000	n/a	2	-1.067708e-01	-1.067708e-01
372.971950	1.999936	dec_nonsocial_choice	1.999936	32.000000	n/a	2	-1.679688e-01	-1.679688e-01
372.971950	1.999936	dec_choice	1.999936	32.000000	n/a	2	-1.666667e-01	-1.666667e-01
372.971950	1.999936	dec_nonsocial_accept	1.999936	32.000000	n/a	2	-1.679688e-01	-1.679688e-01
372.971950	1.999936	dec_accept	1.999936	32.000000	n/a	2	-1.666667e-01	-1.666667e-01
372.971950	1.999936	dec_nonsocial_low	1.999936	32.000000	n/a	2	-1.666667e-01	-1.666667e-01
372.971950	1.999936	dec_nonsocial_accept_low	1.999936	32.000000	n/a	2	-1.666667e-01	-1.666667e-01
