onset	duration	trial_type	response_time	Endowment	Endowment_pmod	Decision	Decision_pmod	Offer_pmod
4.547189	2	cue_social	n/a	16	-8	n/a	n/a	n/a
4.547189	2	cue_social_low	n/a	16	-7	n/a	n/a	n/a
11.394205	2	cue_social	n/a	32	8	n/a	n/a	n/a
11.394205	2	cue_social_high	n/a	32	9	n/a	n/a	n/a
20.602057	2	cue_nonsocial	n/a	32	9	n/a	n/a	n/a
20.602057	2	cue_nonsocial_high	n/a	32	8	n/a	n/a	n/a
28.300910	2	cue_social	n/a	32	8	n/a	n/a	n/a
28.300910	2	cue_social_high	n/a	32	9	n/a	n/a	n/a
35.902016	2	cue_nonsocial	n/a	32	9	n/a	n/a	n/a
35.902016	2	cue_nonsocial_high	n/a	32	8	n/a	n/a	n/a
42.770744	2	cue_social	n/a	16	-8	n/a	n/a	n/a
42.770744	2	cue_social_low	n/a	16	-7	n/a	n/a	n/a
49.589794	2	cue_social	n/a	16	-8	n/a	n/a	n/a
49.589794	2	cue_social_low	n/a	16	-7	n/a	n/a	n/a
58.835323	2	cue_nonsocial	n/a	32	9	n/a	n/a	n/a
58.835323	2	cue_nonsocial_high	n/a	32	8	n/a	n/a	n/a
65.668430	2	cue_nonsocial	n/a	16	-7	n/a	n/a	n/a
65.668430	2	cue_nonsocial_low	n/a	16	-8	n/a	n/a	n/a
72.517160	2	cue_social	n/a	16	-8	n/a	n/a	n/a
72.517160	2	cue_social_low	n/a	16	-7	n/a	n/a	n/a
80.162865	2	cue_social	n/a	32	8	n/a	n/a	n/a
80.162865	2	cue_social_high	n/a	32	9	n/a	n/a	n/a
86.985150	2	cue_nonsocial	n/a	16	-7	n/a	n/a	n/a
86.985150	2	cue_nonsocial_low	n/a	16	-8	n/a	n/a	n/a
94.657720	2	cue_social	n/a	16	-8	n/a	n/a	n/a
94.657720	2	cue_social_low	n/a	16	-7	n/a	n/a	n/a
105.501740	2	cue_nonsocial	n/a	16	-7	n/a	n/a	n/a
105.501740	2	cue_nonsocial_low	n/a	16	-8	n/a	n/a	n/a
114.797100	2	cue_social	n/a	16	-8	n/a	n/a	n/a
114.797100	2	cue_social_low	n/a	16	-7	n/a	n/a	n/a
121.601870	2	cue_nonsocial	n/a	16	-7	n/a	n/a	n/a
121.601870	2	cue_nonsocial_low	n/a	16	-8	n/a	n/a	n/a
129.266500	2	cue_social	n/a	32	8	n/a	n/a	n/a
129.266500	2	cue_social_high	n/a	32	9	n/a	n/a	n/a
136.901520	2	cue_nonsocial	n/a	32	9	n/a	n/a	n/a
136.901520	2	cue_nonsocial_high	n/a	32	8	n/a	n/a	n/a
144.551940	2	cue_nonsocial	n/a	16	-7	n/a	n/a	n/a
144.551940	2	cue_nonsocial_low	n/a	16	-8	n/a	n/a	n/a
151.384960	2	cue_nonsocial	n/a	16	-7	n/a	n/a	n/a
151.384960	2	cue_nonsocial_low	n/a	16	-8	n/a	n/a	n/a
158.249270	2	cue_social	n/a	32	8	n/a	n/a	n/a
158.249270	2	cue_social_high	n/a	32	9	n/a	n/a	n/a
165.059100	2	cue_social	n/a	32	8	n/a	n/a	n/a
165.059100	2	cue_social_high	n/a	32	9	n/a	n/a	n/a
171.884890	2	cue_nonsocial	n/a	16	-7	n/a	n/a	n/a
171.884890	2	cue_nonsocial_low	n/a	16	-8	n/a	n/a	n/a
179.552540	2	cue_social	n/a	32	8	n/a	n/a	n/a
179.552540	2	cue_social_high	n/a	32	9	n/a	n/a	n/a
186.368320	2	cue_nonsocial	n/a	16	-7	n/a	n/a	n/a
186.368320	2	cue_nonsocial_low	n/a	16	-8	n/a	n/a	n/a
197.234830	2	cue_nonsocial	n/a	32	9	n/a	n/a	n/a
197.234830	2	cue_nonsocial_high	n/a	32	8	n/a	n/a	n/a
206.523030	2	cue_social	n/a	32	8	n/a	n/a	n/a
206.523030	2	cue_social_high	n/a	32	9	n/a	n/a	n/a
213.340270	2	cue_social	n/a	16	-8	n/a	n/a	n/a
213.340270	2	cue_social_low	n/a	16	-7	n/a	n/a	n/a
220.192340	2	cue_social	n/a	16	-8	n/a	n/a	n/a
220.192340	2	cue_social_low	n/a	16	-7	n/a	n/a	n/a
229.478560	2	cue_social	n/a	16	-8	n/a	n/a	n/a
229.478560	2	cue_social_low	n/a	16	-7	n/a	n/a	n/a
237.051480	2	cue_nonsocial	n/a	32	9	n/a	n/a	n/a
237.051480	2	cue_nonsocial_high	n/a	32	8	n/a	n/a	n/a
249.534620	2	cue_nonsocial	n/a	16	-7	n/a	n/a	n/a
249.534620	2	cue_nonsocial_low	n/a	16	-8	n/a	n/a	n/a
258.818450	2	cue_social	n/a	32	8	n/a	n/a	n/a
258.818450	2	cue_social_high	n/a	32	9	n/a	n/a	n/a
265.634500	2	cue_nonsocial	n/a	16	-7	n/a	n/a	n/a
265.634500	2	cue_nonsocial_low	n/a	16	-8	n/a	n/a	n/a
272.467860	2	cue_nonsocial	n/a	16	-7	n/a	n/a	n/a
272.467860	2	cue_nonsocial_low	n/a	16	-8	n/a	n/a	n/a
280.140320	2	cue_social	n/a	32	8	n/a	n/a	n/a
280.140320	2	cue_social_high	n/a	32	9	n/a	n/a	n/a
291.022030	2	cue_social	n/a	32	8	n/a	n/a	n/a
291.022030	2	cue_social_high	n/a	32	9	n/a	n/a	n/a
300.270000	2	cue_social	n/a	32	8	n/a	n/a	n/a
300.270000	2	cue_social_high	n/a	32	9	n/a	n/a	n/a
307.885280	2	cue_nonsocial	n/a	32	9	n/a	n/a	n/a
307.885280	2	cue_nonsocial_high	n/a	32	8	n/a	n/a	n/a
315.544740	2	cue_social	n/a	16	-8	n/a	n/a	n/a
315.544740	2	cue_social_low	n/a	16	-7	n/a	n/a	n/a
322.419860	2	cue_social	n/a	16	-8	n/a	n/a	n/a
322.419860	2	cue_social_low	n/a	16	-7	n/a	n/a	n/a
329.201050	2	cue_nonsocial	n/a	16	-7	n/a	n/a	n/a
329.201050	2	cue_nonsocial_low	n/a	16	-8	n/a	n/a	n/a
336.034180	2	cue_nonsocial	n/a	32	9	n/a	n/a	n/a
336.034180	2	cue_nonsocial_high	n/a	32	8	n/a	n/a	n/a
342.867550	2	cue_nonsocial	n/a	16	-7	n/a	n/a	n/a
342.867550	2	cue_nonsocial_low	n/a	16	-8	n/a	n/a	n/a
349.701000	2	cue_nonsocial	n/a	32	9	n/a	n/a	n/a
349.701000	2	cue_nonsocial_high	n/a	32	8	n/a	n/a	n/a
356.534270	2	cue_nonsocial	n/a	32	9	n/a	n/a	n/a
356.534270	2	cue_nonsocial_high	n/a	32	8	n/a	n/a	n/a
363.386600	2	cue_social	n/a	16	-8	n/a	n/a	n/a
363.386600	2	cue_social_low	n/a	16	-7	n/a	n/a	n/a
371.017600	2	cue_nonsocial	n/a	16	-7	n/a	n/a	n/a
371.017600	2	cue_nonsocial_low	n/a	16	-8	n/a	n/a	n/a
6.524973	1.400524	dec_social_choice	1.400524	16.000000	n/a	2	-1.074219e-01	-1.074219e-01
6.524973	1.400524	dec_choice	1.400524	16.000000	n/a	2	-1.067708e-01	-1.067708e-01
6.524973	1.400524	dec_social_accept	1.400524	16.000000	n/a	2	-1.074219e-01	-1.074219e-01
6.524973	1.400524	dec_accept	1.400524	16.000000	n/a	2	-1.067708e-01	-1.067708e-01
6.524973	1.400524	dec_social_low	1.400524	16.000000	n/a	2	-1.067708e-01	-1.067708e-01
6.524973	1.400524	dec_social_accept_low	1.400524	16.000000	n/a	2	-1.067708e-01	-1.067708e-01
13.358001	1.234294	dec_social_choice	1.234294	32.000000	n/a	8	1.757812e-02	1.757812e-02
13.358001	1.234294	dec_choice	1.234294	32.000000	n/a	8	1.822917e-02	1.822917e-02
13.358001	1.234294	dec_social_accept	1.234294	32.000000	n/a	8	1.757812e-02	1.757812e-02
13.358001	1.234294	dec_accept	1.234294	32.000000	n/a	8	1.822917e-02	1.822917e-02
13.358001	1.234294	dec_social_accept_high	1.234294	32.000000	n/a	8	1.822917e-02	1.822917e-02
22.609050	1.016073	dec_nonsocial_choice	1.016073	32.000000	n/a	16	2.675781e-01	2.675781e-01
22.609050	1.016073	dec_choice	1.016073	32.000000	n/a	16	2.669271e-01	2.669271e-01
22.609050	1.016073	dec_nonsocial_accept	1.016073	32.000000	n/a	16	2.675781e-01	2.675781e-01
22.609050	1.016073	dec_accept	1.016073	32.000000	n/a	16	2.669271e-01	2.669271e-01
22.609050	1.016073	dec_nonsocial_high	1.016073	32.000000	n/a	16	2.669271e-01	2.669271e-01
22.609050	1.016073	dec_nonsocial_accept_high	1.016073	32.000000	n/a	16	2.669271e-01	2.669271e-01
30.258831	1.449856	dec_social_choice	1.449856	32.000000	n/a	16	2.675781e-01	2.675781e-01
30.258831	1.449856	dec_choice	1.449856	32.000000	n/a	16	2.682292e-01	2.682292e-01
30.258831	1.449856	dec_social_accept	1.449856	32.000000	n/a	16	2.675781e-01	2.675781e-01
30.258831	1.449856	dec_accept	1.449856	32.000000	n/a	16	2.682292e-01	2.682292e-01
30.258831	1.449856	dec_social_high	1.449856	32.000000	n/a	16	2.682292e-01	2.682292e-01
30.258831	1.449856	dec_social_accept_high	1.449856	32.000000	n/a	16	2.682292e-01	2.682292e-01
37.908000	1.934032	dec_nonsocial_choice	1.934032	32.000000	n/a	2	-1.699219e-01	-1.699219e-01
37.908000	1.934032	dec_choice	1.934032	32.000000	n/a	2	-1.705729e-01	-1.705729e-01
37.908000	1.934032	dec_nonsocial_accept	1.934032	32.000000	n/a	2	-1.699219e-01	-1.699219e-01
37.908000	1.934032	dec_accept	1.934032	32.000000	n/a	2	-1.705729e-01	-1.705729e-01
37.908000	1.934032	dec_nonsocial_low	1.934032	32.000000	n/a	2	-1.705729e-01	-1.705729e-01
37.908000	1.934032	dec_nonsocial_accept_low	1.934032	32.000000	n/a	2	-1.705729e-01	-1.705729e-01
44.741875	1.632786	dec_social_choice	1.632786	16.000000	n/a	1	-1.699219e-01	-1.699219e-01
44.741875	1.632786	dec_choice	1.632786	16.000000	n/a	1	-1.692708e-01	-1.692708e-01
44.741875	1.632786	dec_social_accept	1.632786	16.000000	n/a	1	-1.699219e-01	-1.699219e-01
44.741875	1.632786	dec_accept	1.632786	16.000000	n/a	1	-1.692708e-01	-1.692708e-01
44.741875	1.632786	dec_social_accept_low	1.632786	16.000000	n/a	1	-1.692708e-01	-1.692708e-01
51.576477	1.298821	dec_social_choice	1.298821	16.000000	n/a	8	2.675781e-01	2.675781e-01
51.576477	1.298821	dec_choice	1.298821	16.000000	n/a	8	2.682292e-01	2.682292e-01
51.576477	1.298821	dec_social_accept	1.298821	16.000000	n/a	8	2.675781e-01	2.675781e-01
51.576477	1.298821	dec_accept	1.298821	16.000000	n/a	8	2.682292e-01	2.682292e-01
51.576477	1.298821	dec_social_high	1.298821	16.000000	n/a	8	2.682292e-01	2.682292e-01
51.576477	1.298821	dec_social_accept_high	1.298821	16.000000	n/a	8	2.682292e-01	2.682292e-01
60.842194	1.349471	dec_nonsocial_choice	1.349471	32.000000	n/a	8	1.757812e-02	1.757812e-02
60.842194	1.349471	dec_choice	1.349471	32.000000	n/a	8	1.692708e-02	1.692708e-02
60.842194	1.349471	dec_nonsocial_accept	1.349471	32.000000	n/a	8	1.757812e-02	1.757812e-02
60.842194	1.349471	dec_accept	1.349471	32.000000	n/a	8	1.692708e-02	1.692708e-02
60.842194	1.349471	dec_nonsocial_accept_high	1.349471	32.000000	n/a	8	1.822917e-02	1.822917e-02
67.675590	1.249914	dec_nonsocial_choice	1.249914	16.000000	n/a	1	-1.699219e-01	-1.699219e-01
67.675590	1.249914	dec_choice	1.249914	16.000000	n/a	1	-1.705729e-01	-1.705729e-01
67.675590	1.249914	dec_nonsocial_accept	1.249914	16.000000	n/a	1	-1.699219e-01	-1.699219e-01
67.675590	1.249914	dec_accept	1.249914	16.000000	n/a	1	-1.705729e-01	-1.705729e-01
67.675590	1.249914	dec_nonsocial_low	1.249914	16.000000	n/a	1	-1.705729e-01	-1.705729e-01
67.675590	1.249914	dec_nonsocial_accept_low	1.249914	16.000000	n/a	1	-1.705729e-01	-1.705729e-01
74.509280	1.632680	dec_social_choice	1.632680	16.000000	n/a	1	-1.699219e-01	-1.699219e-01
74.509280	1.632680	dec_choice	1.632680	16.000000	n/a	1	-1.692708e-01	-1.692708e-01
74.509280	1.632680	dec_social_accept	1.632680	16.000000	n/a	1	-1.699219e-01	-1.699219e-01
74.509280	1.632680	dec_accept	1.632680	16.000000	n/a	1	-1.692708e-01	-1.692708e-01
74.509280	1.632680	dec_social_low	1.632680	16.000000	n/a	1	-1.692708e-01	-1.692708e-01
74.509280	1.632680	dec_social_accept_low	1.632680	16.000000	n/a	1	-1.692708e-01	-1.692708e-01
82.159195	1.782605	dec_social_choice	1.782605	32.000000	n/a	2	-1.699219e-01	-1.699219e-01
82.159195	1.782605	dec_choice	1.782605	32.000000	n/a	2	-1.692708e-01	-1.692708e-01
82.159195	1.782605	dec_social_accept	1.782605	32.000000	n/a	2	-1.699219e-01	-1.699219e-01
82.159195	1.782605	dec_accept	1.782605	32.000000	n/a	2	-1.692708e-01	-1.692708e-01
82.159195	1.782605	dec_social_low	1.782605	32.000000	n/a	2	-1.692708e-01	-1.692708e-01
82.159195	1.782605	dec_social_accept_low	1.782605	32.000000	n/a	2	-1.692708e-01	-1.692708e-01
88.992340	1.899414	dec_nonsocial_choice	1.899414	16.000000	n/a	4	1.757812e-02	1.757812e-02
88.992340	1.899414	dec_choice	1.899414	16.000000	n/a	4	1.692708e-02	1.692708e-02
88.992340	1.899414	dec_nonsocial_accept	1.899414	16.000000	n/a	4	1.757812e-02	1.757812e-02
88.992340	1.899414	dec_accept	1.899414	16.000000	n/a	4	1.692708e-02	1.692708e-02
88.992340	1.899414	dec_nonsocial_high	1.899414	16.000000	n/a	4	1.692708e-02	1.692708e-02
88.992340	1.899414	dec_nonsocial_accept_high	1.899414	16.000000	n/a	4	1.692708e-02	1.692708e-02
96.641030	1.600782	dec_social_choice	1.600782	16.000000	n/a	2	-1.074219e-01	-1.074219e-01
96.641030	1.600782	dec_choice	1.600782	16.000000	n/a	2	-1.067708e-01	-1.067708e-01
96.641030	1.600782	dec_social_accept	1.600782	16.000000	n/a	2	-1.074219e-01	-1.074219e-01
96.641030	1.600782	dec_accept	1.600782	16.000000	n/a	2	-1.067708e-01	-1.067708e-01
96.641030	1.600782	dec_social_accept_low	1.600782	16.000000	n/a	2	-1.067708e-01	-1.067708e-01
107.508970	1.832950	dec_nonsocial_choice	1.832950	16.000000	n/a	8	2.675781e-01	2.675781e-01
107.508970	1.832950	dec_choice	1.832950	16.000000	n/a	8	2.669271e-01	2.669271e-01
107.508970	1.832950	dec_nonsocial_accept	1.832950	16.000000	n/a	8	2.675781e-01	2.675781e-01
107.508970	1.832950	dec_accept	1.832950	16.000000	n/a	8	2.669271e-01	2.669271e-01
107.508970	1.832950	dec_nonsocial_accept_high	1.832950	16.000000	n/a	8	2.682292e-01	2.682292e-01
116.774750	1.083371	dec_social_choice	1.083371	16.000000	n/a	4	1.757812e-02	1.757812e-02
116.774750	1.083371	dec_choice	1.083371	16.000000	n/a	4	1.822917e-02	1.822917e-02
116.774750	1.083371	dec_social_accept	1.083371	16.000000	n/a	4	1.757812e-02	1.757812e-02
116.774750	1.083371	dec_accept	1.083371	16.000000	n/a	4	1.822917e-02	1.822917e-02
116.774750	1.083371	dec_social_high	1.083371	16.000000	n/a	4	1.822917e-02	1.822917e-02
116.774750	1.083371	dec_social_accept_high	1.083371	16.000000	n/a	4	1.822917e-02	1.822917e-02
123.608635	1.366111	dec_nonsocial_choice	1.366111	16.000000	n/a	8	2.675781e-01	2.675781e-01
123.608635	1.366111	dec_choice	1.366111	16.000000	n/a	8	2.669271e-01	2.669271e-01
123.608635	1.366111	dec_nonsocial_accept	1.366111	16.000000	n/a	8	2.675781e-01	2.675781e-01
123.608635	1.366111	dec_accept	1.366111	16.000000	n/a	8	2.669271e-01	2.669271e-01
123.608635	1.366111	dec_nonsocial_accept_high	1.366111	16.000000	n/a	8	2.682292e-01	2.682292e-01
131.258710	1.066425	dec_social_choice	1.066425	32.000000	n/a	16	2.675781e-01	2.675781e-01
131.258710	1.066425	dec_choice	1.066425	32.000000	n/a	16	2.682292e-01	2.682292e-01
131.258710	1.066425	dec_social_accept	1.066425	32.000000	n/a	16	2.675781e-01	2.675781e-01
131.258710	1.066425	dec_accept	1.066425	32.000000	n/a	16	2.682292e-01	2.682292e-01
131.258710	1.066425	dec_social_high	1.066425	32.000000	n/a	16	2.682292e-01	2.682292e-01
131.258710	1.066425	dec_social_accept_high	1.066425	32.000000	n/a	16	2.682292e-01	2.682292e-01
138.908690	1.299709	dec_nonsocial_choice	1.299709	32.000000	n/a	2	-1.699219e-01	-1.699219e-01
138.908690	1.299709	dec_choice	1.299709	32.000000	n/a	2	-1.705729e-01	-1.705729e-01
138.908690	1.299709	dec_nonsocial_accept	1.299709	32.000000	n/a	2	-1.699219e-01	-1.699219e-01
138.908690	1.299709	dec_accept	1.299709	32.000000	n/a	2	-1.705729e-01	-1.705729e-01
138.908690	1.299709	dec_nonsocial_low	1.299709	32.000000	n/a	2	-1.705729e-01	-1.705729e-01
138.908690	1.299709	dec_nonsocial_accept_low	1.299709	32.000000	n/a	2	-1.705729e-01	-1.705729e-01
146.557790	1.283811	dec_nonsocial_choice	1.283811	16.000000	n/a	4	1.757812e-02	1.757812e-02
146.557790	1.283811	dec_choice	1.283811	16.000000	n/a	4	1.692708e-02	1.692708e-02
146.557790	1.283811	dec_nonsocial_accept	1.283811	16.000000	n/a	4	1.757812e-02	1.757812e-02
146.557790	1.283811	dec_accept	1.283811	16.000000	n/a	4	1.692708e-02	1.692708e-02
146.557790	1.283811	dec_nonsocial_accept_high	1.283811	16.000000	n/a	4	1.822917e-02	1.822917e-02
153.390780	1.284177	dec_nonsocial_choice	1.284177	16.000000	n/a	2	-1.074219e-01	-1.074219e-01
153.390780	1.284177	dec_choice	1.284177	16.000000	n/a	2	-1.080729e-01	-1.080729e-01
153.390780	1.284177	dec_nonsocial_accept	1.284177	16.000000	n/a	2	-1.074219e-01	-1.074219e-01
153.390780	1.284177	dec_accept	1.284177	16.000000	n/a	2	-1.080729e-01	-1.080729e-01
153.390780	1.284177	dec_nonsocial_low	1.284177	16.000000	n/a	2	-1.080729e-01	-1.080729e-01
153.390780	1.284177	dec_nonsocial_accept_low	1.284177	16.000000	n/a	2	-1.080729e-01	-1.080729e-01
160.224230	1.467083	dec_social_choice	1.467083	32.000000	n/a	3	-1.386719e-01	-1.386719e-01
160.224230	1.467083	dec_choice	1.467083	32.000000	n/a	3	-1.380208e-01	-1.380208e-01
160.224230	1.467083	dec_social_accept	1.467083	32.000000	n/a	3	-1.386719e-01	-1.386719e-01
160.224230	1.467083	dec_accept	1.467083	32.000000	n/a	3	-1.380208e-01	-1.380208e-01
160.224230	1.467083	dec_social_accept_low	1.467083	32.000000	n/a	3	-1.380208e-01	-1.380208e-01
167.058690	1.599618	dec_social_choice	1.599618	32.000000	n/a	16	2.675781e-01	2.675781e-01
167.058690	1.599618	dec_choice	1.599618	32.000000	n/a	16	2.682292e-01	2.682292e-01
167.058690	1.599618	dec_social_accept	1.599618	32.000000	n/a	16	2.675781e-01	2.675781e-01
167.058690	1.599618	dec_accept	1.599618	32.000000	n/a	16	2.682292e-01	2.682292e-01
167.058690	1.599618	dec_social_high	1.599618	32.000000	n/a	16	2.682292e-01	2.682292e-01
167.058690	1.599618	dec_social_accept_high	1.599618	32.000000	n/a	16	2.682292e-01	2.682292e-01
173.891710	1.549800	dec_nonsocial_choice	1.549800	16.000000	n/a	2	-1.074219e-01	-1.074219e-01
173.891710	1.549800	dec_choice	1.549800	16.000000	n/a	2	-1.080729e-01	-1.080729e-01
173.891710	1.549800	dec_nonsocial_accept	1.549800	16.000000	n/a	2	-1.074219e-01	-1.074219e-01
173.891710	1.549800	dec_accept	1.549800	16.000000	n/a	2	-1.080729e-01	-1.080729e-01
173.891710	1.549800	dec_nonsocial_accept_low	1.549800	16.000000	n/a	2	-1.067708e-01	-1.067708e-01
181.540830	1.550632	dec_social_choice	1.550632	32.000000	n/a	16	2.675781e-01	2.675781e-01
181.540830	1.550632	dec_choice	1.550632	32.000000	n/a	16	2.682292e-01	2.682292e-01
181.540830	1.550632	dec_social_accept	1.550632	32.000000	n/a	16	2.675781e-01	2.675781e-01
181.540830	1.550632	dec_accept	1.550632	32.000000	n/a	16	2.682292e-01	2.682292e-01
181.540830	1.550632	dec_social_high	1.550632	32.000000	n/a	16	2.682292e-01	2.682292e-01
181.540830	1.550632	dec_social_accept_high	1.550632	32.000000	n/a	16	2.682292e-01	2.682292e-01
188.374540	1.850284	dec_nonsocial_choice	1.850284	16.000000	n/a	4	1.757812e-02	1.757812e-02
188.374540	1.850284	dec_choice	1.850284	16.000000	n/a	4	1.692708e-02	1.692708e-02
188.374540	1.850284	dec_nonsocial_accept	1.850284	16.000000	n/a	4	1.757812e-02	1.757812e-02
188.374540	1.850284	dec_accept	1.850284	16.000000	n/a	4	1.692708e-02	1.692708e-02
188.374540	1.850284	dec_nonsocial_accept_high	1.850284	16.000000	n/a	4	1.822917e-02	1.822917e-02
199.242540	1.232211	dec_nonsocial_choice	1.232211	32.000000	n/a	16	2.675781e-01	2.675781e-01
199.242540	1.232211	dec_choice	1.232211	32.000000	n/a	16	2.669271e-01	2.669271e-01
199.242540	1.232211	dec_nonsocial_accept	1.232211	32.000000	n/a	16	2.675781e-01	2.675781e-01
199.242540	1.232211	dec_accept	1.232211	32.000000	n/a	16	2.669271e-01	2.669271e-01
199.242540	1.232211	dec_nonsocial_accept_high	1.232211	32.000000	n/a	16	2.682292e-01	2.682292e-01
208.492110	1.249173	dec_social_choice	1.249173	32.000000	n/a	3	-1.386719e-01	-1.386719e-01
208.492110	1.249173	dec_choice	1.249173	32.000000	n/a	3	-1.380208e-01	-1.380208e-01
208.492110	1.249173	dec_social_accept	1.249173	32.000000	n/a	3	-1.386719e-01	-1.386719e-01
208.492110	1.249173	dec_accept	1.249173	32.000000	n/a	3	-1.380208e-01	-1.380208e-01
208.492110	1.249173	dec_social_accept_low	1.249173	32.000000	n/a	3	-1.380208e-01	-1.380208e-01
215.323700	1.201011	dec_social_choice	1.201011	16.000000	n/a	4	1.757812e-02	1.757812e-02
215.323700	1.201011	dec_choice	1.201011	16.000000	n/a	4	1.822917e-02	1.822917e-02
215.323700	1.201011	dec_social_accept	1.201011	16.000000	n/a	4	1.757812e-02	1.757812e-02
215.323700	1.201011	dec_accept	1.201011	16.000000	n/a	4	1.822917e-02	1.822917e-02
215.323700	1.201011	dec_social_accept_high	1.201011	16.000000	n/a	4	1.822917e-02	1.822917e-02
222.158250	1.833135	dec_social_choice	1.833135	16.000000	n/a	2	-1.074219e-01	-1.074219e-01
222.158250	1.833135	dec_choice	1.833135	16.000000	n/a	2	-1.067708e-01	-1.067708e-01
222.158250	1.833135	dec_social_accept	1.833135	16.000000	n/a	2	-1.074219e-01	-1.074219e-01
222.158250	1.833135	dec_accept	1.833135	16.000000	n/a	2	-1.067708e-01	-1.067708e-01
222.158250	1.833135	dec_social_low	1.833135	16.000000	n/a	2	-1.067708e-01	-1.067708e-01
222.158250	1.833135	dec_social_accept_low	1.833135	16.000000	n/a	2	-1.067708e-01	-1.067708e-01
231.407800	1.666866	dec_social_choice	1.666866	16.000000	n/a	1	-1.699219e-01	-1.699219e-01
231.407800	1.666866	dec_choice	1.666866	16.000000	n/a	1	-1.692708e-01	-1.692708e-01
231.407800	1.666866	dec_social_accept	1.666866	16.000000	n/a	1	-1.699219e-01	-1.699219e-01
231.407800	1.666866	dec_accept	1.666866	16.000000	n/a	1	-1.692708e-01	-1.692708e-01
231.407800	1.666866	dec_social_accept_low	1.666866	16.000000	n/a	1	-1.692708e-01	-1.692708e-01
239.058150	1.433251	dec_nonsocial_choice	1.433251	32.000000	n/a	8	1.757812e-02	1.757812e-02
239.058150	1.433251	dec_choice	1.433251	32.000000	n/a	8	1.692708e-02	1.692708e-02
239.058150	1.433251	dec_nonsocial_accept	1.433251	32.000000	n/a	8	1.757812e-02	1.757812e-02
239.058150	1.433251	dec_accept	1.433251	32.000000	n/a	8	1.692708e-02	1.692708e-02
239.058150	1.433251	dec_nonsocial_high	1.433251	32.000000	n/a	8	1.692708e-02	1.692708e-02
239.058150	1.433251	dec_nonsocial_accept_high	1.433251	32.000000	n/a	8	1.692708e-02	1.692708e-02
251.541490	1.699728	dec_nonsocial_choice	1.699728	16.000000	n/a	1	-1.699219e-01	-1.699219e-01
251.541490	1.699728	dec_choice	1.699728	16.000000	n/a	1	-1.705729e-01	-1.705729e-01
251.541490	1.699728	dec_nonsocial_accept	1.699728	16.000000	n/a	1	-1.699219e-01	-1.699219e-01
251.541490	1.699728	dec_accept	1.699728	16.000000	n/a	1	-1.705729e-01	-1.705729e-01
251.541490	1.699728	dec_nonsocial_accept_low	1.699728	16.000000	n/a	1	-1.692708e-01	-1.692708e-01
260.807650	1.700520	dec_social_choice	1.700520	32.000000	n/a	2	-1.699219e-01	-1.699219e-01
260.807650	1.700520	dec_choice	1.700520	32.000000	n/a	2	-1.692708e-01	-1.692708e-01
260.807650	1.700520	dec_social_accept	1.700520	32.000000	n/a	2	-1.699219e-01	-1.699219e-01
260.807650	1.700520	dec_accept	1.700520	32.000000	n/a	2	-1.692708e-01	-1.692708e-01
260.807650	1.700520	dec_social_low	1.700520	32.000000	n/a	2	-1.692708e-01	-1.692708e-01
260.807650	1.700520	dec_social_accept_low	1.700520	32.000000	n/a	2	-1.692708e-01	-1.692708e-01
267.641630	1.865837	dec_nonsocial_choice	1.865837	16.000000	n/a	4	1.757812e-02	1.757812e-02
267.641630	1.865837	dec_choice	1.865837	16.000000	n/a	4	1.692708e-02	1.692708e-02
267.641630	1.865837	dec_nonsocial_accept	1.865837	16.000000	n/a	4	1.757812e-02	1.757812e-02
267.641630	1.865837	dec_accept	1.865837	16.000000	n/a	4	1.692708e-02	1.692708e-02
267.641630	1.865837	dec_nonsocial_accept_high	1.865837	16.000000	n/a	4	1.822917e-02	1.822917e-02
274.475460	1.998711	dec_nonsocial_choice	1.998711	16.000000	n/a	2	-1.074219e-01	-1.074219e-01
274.475460	1.998711	dec_choice	1.998711	16.000000	n/a	2	-1.080729e-01	-1.080729e-01
274.475460	1.998711	dec_nonsocial_accept	1.998711	16.000000	n/a	2	-1.074219e-01	-1.074219e-01
274.475460	1.998711	dec_accept	1.998711	16.000000	n/a	2	-1.080729e-01	-1.080729e-01
274.475460	1.998711	dec_nonsocial_accept_low	1.998711	16.000000	n/a	2	-1.067708e-01	-1.067708e-01
282.124150	1.700318	dec_social_choice	1.700318	32.000000	n/a	16	2.675781e-01	2.675781e-01
282.124150	1.700318	dec_choice	1.700318	32.000000	n/a	16	2.682292e-01	2.682292e-01
282.124150	1.700318	dec_social_accept	1.700318	32.000000	n/a	16	2.675781e-01	2.675781e-01
282.124150	1.700318	dec_accept	1.700318	32.000000	n/a	16	2.682292e-01	2.682292e-01
282.124150	1.700318	dec_social_accept_high	1.700318	32.000000	n/a	16	2.682292e-01	2.682292e-01
292.990970	1.450080	dec_social_choice	1.450080	32.000000	n/a	2	-1.699219e-01	-1.699219e-01
292.990970	1.450080	dec_choice	1.450080	32.000000	n/a	2	-1.692708e-01	-1.692708e-01
292.990970	1.450080	dec_social_accept	1.450080	32.000000	n/a	2	-1.699219e-01	-1.699219e-01
292.990970	1.450080	dec_accept	1.450080	32.000000	n/a	2	-1.692708e-01	-1.692708e-01
292.990970	1.450080	dec_social_low	1.450080	32.000000	n/a	2	-1.692708e-01	-1.692708e-01
292.990970	1.450080	dec_social_accept_low	1.450080	32.000000	n/a	2	-1.692708e-01	-1.692708e-01
302.240330	1.900648	dec_social_choice	1.900648	32.000000	n/a	8	1.757812e-02	1.757812e-02
302.240330	1.900648	dec_choice	1.900648	32.000000	n/a	8	1.822917e-02	1.822917e-02
302.240330	1.900648	dec_social_accept	1.900648	32.000000	n/a	8	1.757812e-02	1.757812e-02
302.240330	1.900648	dec_accept	1.900648	32.000000	n/a	8	1.822917e-02	1.822917e-02
302.240330	1.900648	dec_social_accept_high	1.900648	32.000000	n/a	8	1.822917e-02	1.822917e-02
309.891720	1.349412	dec_nonsocial_choice	1.349412	32.000000	n/a	2	-1.699219e-01	-1.699219e-01
309.891720	1.349412	dec_choice	1.349412	32.000000	n/a	2	-1.705729e-01	-1.705729e-01
309.891720	1.349412	dec_nonsocial_accept	1.349412	32.000000	n/a	2	-1.699219e-01	-1.699219e-01
309.891720	1.349412	dec_accept	1.349412	32.000000	n/a	2	-1.705729e-01	-1.705729e-01
309.891720	1.349412	dec_nonsocial_accept_low	1.349412	32.000000	n/a	2	-1.692708e-01	-1.692708e-01
317.540530	1.333907	dec_social_choice	1.333907	16.000000	n/a	4	1.757812e-02	1.757812e-02
317.540530	1.333907	dec_choice	1.333907	16.000000	n/a	4	1.822917e-02	1.822917e-02
317.540530	1.333907	dec_social_accept	1.333907	16.000000	n/a	4	1.757812e-02	1.757812e-02
317.540530	1.333907	dec_accept	1.333907	16.000000	n/a	4	1.822917e-02	1.822917e-02
317.540530	1.333907	dec_social_high	1.333907	16.000000	n/a	4	1.822917e-02	1.822917e-02
317.540530	1.333907	dec_social_accept_high	1.333907	16.000000	n/a	4	1.822917e-02	1.822917e-02
324.374100	1.266122	dec_social_choice	1.266122	16.000000	n/a	2	-1.074219e-01	-1.074219e-01
324.374100	1.266122	dec_choice	1.266122	16.000000	n/a	2	-1.067708e-01	-1.067708e-01
324.374100	1.266122	dec_social_accept	1.266122	16.000000	n/a	2	-1.074219e-01	-1.074219e-01
324.374100	1.266122	dec_accept	1.266122	16.000000	n/a	2	-1.067708e-01	-1.067708e-01
324.374100	1.266122	dec_social_accept_low	1.266122	16.000000	n/a	2	-1.067708e-01	-1.067708e-01
331.207670	1.433519	dec_nonsocial_choice	1.433519	16.000000	n/a	2	-1.074219e-01	-1.074219e-01
331.207670	1.433519	dec_choice	1.433519	16.000000	n/a	2	-1.080729e-01	-1.080729e-01
331.207670	1.433519	dec_nonsocial_accept	1.433519	16.000000	n/a	2	-1.074219e-01	-1.074219e-01
331.207670	1.433519	dec_accept	1.433519	16.000000	n/a	2	-1.080729e-01	-1.080729e-01
331.207670	1.433519	dec_nonsocial_low	1.433519	16.000000	n/a	2	-1.080729e-01	-1.080729e-01
331.207670	1.433519	dec_nonsocial_accept_low	1.433519	16.000000	n/a	2	-1.080729e-01	-1.080729e-01
338.041470	1.315834	dec_nonsocial_choice	1.315834	32.000000	n/a	16	2.675781e-01	2.675781e-01
338.041470	1.315834	dec_choice	1.315834	32.000000	n/a	16	2.669271e-01	2.669271e-01
338.041470	1.315834	dec_nonsocial_accept	1.315834	32.000000	n/a	16	2.675781e-01	2.675781e-01
338.041470	1.315834	dec_accept	1.315834	32.000000	n/a	16	2.669271e-01	2.669271e-01
338.041470	1.315834	dec_nonsocial_high	1.315834	32.000000	n/a	16	2.669271e-01	2.669271e-01
338.041470	1.315834	dec_nonsocial_accept_high	1.315834	32.000000	n/a	16	2.669271e-01	2.669271e-01
344.873570	1.600693	dec_nonsocial_choice	1.600693	16.000000	n/a	2	-1.074219e-01	-1.074219e-01
344.873570	1.600693	dec_choice	1.600693	16.000000	n/a	2	-1.080729e-01	-1.080729e-01
344.873570	1.600693	dec_nonsocial_accept	1.600693	16.000000	n/a	2	-1.074219e-01	-1.074219e-01
344.873570	1.600693	dec_accept	1.600693	16.000000	n/a	2	-1.080729e-01	-1.080729e-01
344.873570	1.600693	dec_nonsocial_accept_low	1.600693	16.000000	n/a	2	-1.067708e-01	-1.067708e-01
351.707460	1.416408	dec_nonsocial_choice	1.416408	32.000000	n/a	3	-1.386719e-01	-1.386719e-01
351.707460	1.416408	dec_choice	1.416408	32.000000	n/a	3	-1.393229e-01	-1.393229e-01
351.707460	1.416408	dec_nonsocial_accept	1.416408	32.000000	n/a	3	-1.386719e-01	-1.386719e-01
351.707460	1.416408	dec_accept	1.416408	32.000000	n/a	3	-1.393229e-01	-1.393229e-01
351.707460	1.416408	dec_nonsocial_accept_low	1.416408	32.000000	n/a	3	-1.380208e-01	-1.380208e-01
358.541960	1.248752	dec_nonsocial_choice	1.248752	32.000000	n/a	2	-1.699219e-01	-1.699219e-01
358.541960	1.248752	dec_choice	1.248752	32.000000	n/a	2	-1.705729e-01	-1.705729e-01
358.541960	1.248752	dec_nonsocial_accept	1.248752	32.000000	n/a	2	-1.699219e-01	-1.699219e-01
358.541960	1.248752	dec_accept	1.248752	32.000000	n/a	2	-1.705729e-01	-1.705729e-01
358.541960	1.248752	dec_nonsocial_low	1.248752	32.000000	n/a	2	-1.705729e-01	-1.705729e-01
358.541960	1.248752	dec_nonsocial_accept_low	1.248752	32.000000	n/a	2	-1.705729e-01	-1.705729e-01
365.374850	1.015652	dec_social_choice	1.015652	16.000000	n/a	4	1.757812e-02	1.757812e-02
365.374850	1.015652	dec_choice	1.015652	16.000000	n/a	4	1.822917e-02	1.822917e-02
365.374850	1.015652	dec_social_accept	1.015652	16.000000	n/a	4	1.757812e-02	1.757812e-02
365.374850	1.015652	dec_accept	1.015652	16.000000	n/a	4	1.822917e-02	1.822917e-02
365.374850	1.015652	dec_social_accept_high	1.015652	16.000000	n/a	4	1.822917e-02	1.822917e-02
373.024900	1.215439	dec_nonsocial_choice	1.215439	16.000000	n/a	8	2.675781e-01	2.675781e-01
373.024900	1.215439	dec_choice	1.215439	16.000000	n/a	8	2.669271e-01	2.669271e-01
373.024900	1.215439	dec_nonsocial_accept	1.215439	16.000000	n/a	8	2.675781e-01	2.675781e-01
373.024900	1.215439	dec_accept	1.215439	16.000000	n/a	8	2.669271e-01	2.669271e-01
373.024900	1.215439	dec_nonsocial_accept_high	1.215439	16.000000	n/a	8	2.682292e-01	2.682292e-01
