onset	duration	trial_type	response_time	Endowment	Endowment_pmod	Decision	Decision_pmod	Offer_pmod
4.506830	2	cue_nonsocial	n/a	32	9	n/a	n/a	n/a
4.506830	2	cue_nonsocial_high	n/a	32	7	n/a	n/a	n/a
11.339694	2	cue_nonsocial	n/a	16	-7	n/a	n/a	n/a
11.339694	2	cue_nonsocial_low	n/a	16	-9	n/a	n/a	n/a
18.237198	2	cue_social	n/a	32	7	n/a	n/a	n/a
18.237198	2	cue_social_high	n/a	32	9	n/a	n/a	n/a
25.057360	2	cue_social	n/a	16	-9	n/a	n/a	n/a
25.057360	2	cue_social_low	n/a	16	-7	n/a	n/a	n/a
32.656730	2	cue_nonsocial	n/a	32	9	n/a	n/a	n/a
32.656730	2	cue_nonsocial_high	n/a	32	7	n/a	n/a	n/a
39.555267	2	cue_social	n/a	16	-9	n/a	n/a	n/a
39.555267	2	cue_social_low	n/a	16	-7	n/a	n/a	n/a
50.356830	2	cue_nonsocial	n/a	32	9	n/a	n/a	n/a
50.356830	2	cue_nonsocial_high	n/a	32	7	n/a	n/a	n/a
59.672184	2	cue_social	n/a	16	-9	n/a	n/a	n/a
59.672184	2	cue_social_low	n/a	16	-7	n/a	n/a	n/a
70.541800	2	cue_social	n/a	32	7	n/a	n/a	n/a
70.541800	2	cue_social_high	n/a	32	9	n/a	n/a	n/a
77.306400	2	cue_nonsocial	n/a	16	-7	n/a	n/a	n/a
77.306400	2	cue_nonsocial_low	n/a	16	-9	n/a	n/a	n/a
86.644960	2	cue_social	n/a	32	7	n/a	n/a	n/a
86.644960	2	cue_social_high	n/a	32	9	n/a	n/a	n/a
93.389930	2	cue_nonsocial	n/a	16	-7	n/a	n/a	n/a
93.389930	2	cue_nonsocial_low	n/a	16	-9	n/a	n/a	n/a
100.223280	2	cue_nonsocial	n/a	16	-7	n/a	n/a	n/a
100.223280	2	cue_nonsocial_low	n/a	16	-9	n/a	n/a	n/a
107.856540	2	cue_nonsocial	n/a	32	9	n/a	n/a	n/a
107.856540	2	cue_nonsocial_high	n/a	32	7	n/a	n/a	n/a
118.723145	2	cue_nonsocial	n/a	32	9	n/a	n/a	n/a
118.723145	2	cue_nonsocial_high	n/a	32	7	n/a	n/a	n/a
125.556410	2	cue_nonsocial	n/a	16	-7	n/a	n/a	n/a
125.556410	2	cue_nonsocial_low	n/a	16	-9	n/a	n/a	n/a
132.442550	2	cue_social	n/a	32	7	n/a	n/a	n/a
132.442550	2	cue_social_high	n/a	32	9	n/a	n/a	n/a
139.292390	2	cue_social	n/a	32	7	n/a	n/a	n/a
139.292390	2	cue_social_high	n/a	32	9	n/a	n/a	n/a
146.056660	2	cue_nonsocial	n/a	16	-7	n/a	n/a	n/a
146.056660	2	cue_nonsocial_low	n/a	16	-9	n/a	n/a	n/a
152.986050	2	cue_social	n/a	32	7	n/a	n/a	n/a
152.986050	2	cue_social_high	n/a	32	9	n/a	n/a	n/a
159.777180	2	cue_social	n/a	32	7	n/a	n/a	n/a
159.777180	2	cue_social_high	n/a	32	9	n/a	n/a	n/a
169.021090	2	cue_social	n/a	32	7	n/a	n/a	n/a
169.021090	2	cue_social_high	n/a	32	9	n/a	n/a	n/a
175.859940	2	cue_social	n/a	16	-9	n/a	n/a	n/a
175.859940	2	cue_social_low	n/a	16	-7	n/a	n/a	n/a
183.456280	2	cue_nonsocial	n/a	16	-7	n/a	n/a	n/a
183.456280	2	cue_nonsocial_low	n/a	16	-9	n/a	n/a	n/a
190.289720	2	cue_nonsocial	n/a	32	9	n/a	n/a	n/a
190.289720	2	cue_nonsocial_high	n/a	32	7	n/a	n/a	n/a
197.997910	2	cue_social	n/a	16	-9	n/a	n/a	n/a
197.997910	2	cue_social_low	n/a	16	-7	n/a	n/a	n/a
205.590910	2	cue_nonsocial	n/a	16	-7	n/a	n/a	n/a
205.590910	2	cue_nonsocial_low	n/a	16	-9	n/a	n/a	n/a
213.281020	2	cue_social	n/a	32	7	n/a	n/a	n/a
213.281020	2	cue_social_high	n/a	32	9	n/a	n/a	n/a
222.505770	2	cue_nonsocial	n/a	32	9	n/a	n/a	n/a
222.505770	2	cue_nonsocial_high	n/a	32	7	n/a	n/a	n/a
230.156160	2	cue_nonsocial	n/a	16	-7	n/a	n/a	n/a
230.156160	2	cue_nonsocial_low	n/a	16	-9	n/a	n/a	n/a
237.806580	2	cue_nonsocial	n/a	16	-7	n/a	n/a	n/a
237.806580	2	cue_nonsocial_low	n/a	16	-9	n/a	n/a	n/a
247.126920	2	cue_social	n/a	16	-9	n/a	n/a	n/a
247.126920	2	cue_social_low	n/a	16	-7	n/a	n/a	n/a
253.956250	2	cue_social	n/a	32	7	n/a	n/a	n/a
253.956250	2	cue_social_high	n/a	32	9	n/a	n/a	n/a
261.608670	2	cue_social	n/a	32	7	n/a	n/a	n/a
261.608670	2	cue_social_high	n/a	32	9	n/a	n/a	n/a
269.250460	2	cue_social	n/a	16	-9	n/a	n/a	n/a
269.250460	2	cue_social_low	n/a	16	-7	n/a	n/a	n/a
278.439540	2	cue_nonsocial	n/a	32	9	n/a	n/a	n/a
278.439540	2	cue_nonsocial_high	n/a	32	7	n/a	n/a	n/a
286.154200	2	cue_social	n/a	32	7	n/a	n/a	n/a
286.154200	2	cue_social_high	n/a	32	9	n/a	n/a	n/a
292.987730	2	cue_social	n/a	32	7	n/a	n/a	n/a
292.987730	2	cue_social_high	n/a	32	9	n/a	n/a	n/a
299.756600	2	cue_nonsocial	n/a	32	9	n/a	n/a	n/a
299.756600	2	cue_nonsocial_high	n/a	32	7	n/a	n/a	n/a
306.589540	2	cue_nonsocial	n/a	32	9	n/a	n/a	n/a
306.589540	2	cue_nonsocial_high	n/a	32	7	n/a	n/a	n/a
313.478580	2	cue_social	n/a	16	-9	n/a	n/a	n/a
313.478580	2	cue_social_low	n/a	16	-7	n/a	n/a	n/a
325.905800	2	cue_nonsocial	n/a	16	-7	n/a	n/a	n/a
325.905800	2	cue_nonsocial_low	n/a	16	-9	n/a	n/a	n/a
335.155760	2	cue_nonsocial	n/a	16	-7	n/a	n/a	n/a
335.155760	2	cue_nonsocial_low	n/a	16	-9	n/a	n/a	n/a
342.853150	2	cue_social	n/a	32	7	n/a	n/a	n/a
342.853150	2	cue_social_high	n/a	32	9	n/a	n/a	n/a
350.505700	2	cue_social	n/a	16	-9	n/a	n/a	n/a
350.505700	2	cue_social_low	n/a	16	-7	n/a	n/a	n/a
357.384500	2	cue_social	n/a	16	-9	n/a	n/a	n/a
357.384500	2	cue_social_low	n/a	16	-7	n/a	n/a	n/a
364.122960	2	cue_nonsocial	n/a	16	-7	n/a	n/a	n/a
364.122960	2	cue_nonsocial_low	n/a	16	-9	n/a	n/a	n/a
370.955840	2	cue_nonsocial	n/a	32	9	n/a	n/a	n/a
370.955840	2	cue_nonsocial_high	n/a	32	7	n/a	n/a	n/a
6.512551	1.134051	dec_nonsocial_choice	1.134051	32.000000	n/a	16	2.688802e-01	2.688802e-01
6.512551	1.134051	dec_choice	1.134051	32.000000	n/a	16	2.695312e-01	2.695312e-01
6.512551	1.134051	dec_nonsocial_accept	1.134051	32.000000	n/a	16	8.455882e-02	8.455882e-02
6.512551	1.134051	dec_accept	1.134051	32.000000	n/a	16	8.333333e-02	8.333333e-02
6.512551	1.134051	dec_nonsocial_high	1.134051	32.000000	n/a	16	2.695312e-01	2.695312e-01
6.512551	1.134051	dec_nonsocial_accept_high	1.134051	32.000000	n/a	16	8.333333e-02	8.333333e-02
13.347012	1.649510	dec_nonsocial_choice	1.649510	16.000000	n/a	8	2.688802e-01	2.688802e-01
13.347012	1.649510	dec_choice	1.649510	16.000000	n/a	8	2.695312e-01	2.695312e-01
13.347012	1.649510	dec_nonsocial_accept	1.649510	16.000000	n/a	8	8.455882e-02	8.455882e-02
13.347012	1.649510	dec_accept	1.649510	16.000000	n/a	8	8.333333e-02	8.333333e-02
13.347012	1.649510	dec_nonsocial_accept_high	1.649510	16.000000	n/a	8	8.593750e-02	8.593750e-02
20.180475	1.365915	dec_social_choice	1.365915	32.000000	n/a	0	0	-2.311198e-01
20.180475	1.365915	dec_choice	1.365915	32.000000	n/a	0	0	-2.317708e-01
20.180475	1.365915	dec_social_reject	1.365915	32.000000	n/a	0	0	1.199597e-01
20.180475	1.365915	dec_reject	1.365915	32.000000	n/a	0	0	1.093750e-01
20.180475	1.365915	dec_social_low	1.365915	32.000000	n/a	0	-2.317708e-01	-2.317708e-01
20.180475	1.365915	dec_social_reject_low	1.365915	32.000000	n/a	8	1.822917e-02	-2.317708e-01
27.012987	1.333628	dec_social_choice	1.333628	16.000000	n/a	0	0	-2.311198e-01
27.012987	1.333628	dec_choice	1.333628	16.000000	n/a	0	0	-2.317708e-01
27.012987	1.333628	dec_social_reject	1.333628	16.000000	n/a	0	0	-5.040323e-03
27.012987	1.333628	dec_reject	1.333628	16.000000	n/a	0	0	-1.562500e-02
27.012987	1.333628	dec_social_low	1.333628	16.000000	n/a	0	-2.317708e-01	-2.317708e-01
27.012987	1.333628	dec_social_reject_low	1.333628	16.000000	n/a	2	-1.067708e-01	-2.317708e-01
34.664047	1.498883	dec_nonsocial_choice	1.498883	32.000000	n/a	0	0	-2.311198e-01
34.664047	1.498883	dec_choice	1.498883	32.000000	n/a	0	0	-2.304688e-01
34.664047	1.498883	dec_nonsocial_reject	1.498883	32.000000	n/a	0	0	-3.629032e-02
34.664047	1.498883	dec_reject	1.498883	32.000000	n/a	0	0	-2.500000e-02
34.664047	1.498883	dec_nonsocial_reject_low	1.498883	32.000000	n/a	3	-4.687500e-02	-1.406250e-01
41.496870	1.816061	dec_social_choice	1.816061	16.000000	n/a	1	-1.686198e-01	-1.686198e-01
41.496870	1.816061	dec_choice	1.816061	16.000000	n/a	1	-1.692708e-01	-1.692708e-01
41.496870	1.816061	dec_social_accept	1.816061	16.000000	n/a	1	-3.529412e-01	-3.529412e-01
41.496870	1.816061	dec_accept	1.816061	16.000000	n/a	1	-3.515625e-01	-3.515625e-01
41.496870	1.816061	dec_social_accept_low	1.816061	16.000000	n/a	1	-1.692708e-01	-1.692708e-01
52.363056	1.550403	dec_nonsocial_choice	1.550403	32.000000	n/a	0	0	-2.311198e-01
52.363056	1.550403	dec_choice	1.550403	32.000000	n/a	0	0	-2.304688e-01
52.363056	1.550403	dec_nonsocial_reject	1.550403	32.000000	n/a	0	0	-6.754032e-02
52.363056	1.550403	dec_reject	1.550403	32.000000	n/a	0	0	-5.625000e-02
52.363056	1.550403	dec_nonsocial_reject_low	1.550403	32.000000	n/a	2	-7.812500e-02	-1.406250e-01
61.614117	1.332390	dec_social_choice	1.332390	16.000000	n/a	0	0	-2.311198e-01
61.614117	1.332390	dec_choice	1.332390	16.000000	n/a	0	0	-2.317708e-01
61.614117	1.332390	dec_social_reject	1.332390	16.000000	n/a	0	0	-6.754032e-02
61.614117	1.332390	dec_reject	1.332390	16.000000	n/a	0	0	-7.812500e-02
61.614117	1.332390	dec_social_low	1.332390	16.000000	n/a	0	-2.317708e-01	-2.317708e-01
61.614117	1.332390	dec_social_reject_low	1.332390	16.000000	n/a	1	-1.692708e-01	-2.317708e-01
72.479020	1.367124	dec_social_choice	1.367124	32.000000	n/a	16	2.688802e-01	2.688802e-01
72.479020	1.367124	dec_choice	1.367124	32.000000	n/a	16	2.682292e-01	2.682292e-01
72.479020	1.367124	dec_social_accept	1.367124	32.000000	n/a	16	8.455882e-02	8.455882e-02
72.479020	1.367124	dec_accept	1.367124	32.000000	n/a	16	8.593750e-02	8.593750e-02
72.479020	1.367124	dec_social_accept_high	1.367124	32.000000	n/a	16	2.682292e-01	2.682292e-01
79.312310	1.950692	dec_nonsocial_choice	1.950692	16.000000	n/a	0	0	-2.311198e-01
79.312310	1.950692	dec_choice	1.950692	16.000000	n/a	0	0	-2.304688e-01
79.312310	1.950692	dec_nonsocial_reject	1.950692	16.000000	n/a	0	0	-6.754032e-02
79.312310	1.950692	dec_reject	1.950692	16.000000	n/a	0	0	-5.625000e-02
79.312310	1.950692	dec_nonsocial_low	1.950692	16.000000	n/a	0	-2.304688e-01	-2.304688e-01
79.312310	1.950692	dec_nonsocial_reject_low	1.950692	16.000000	n/a	1	-5.625000e-02	-1.187500e-01
88.563330	1.466066	dec_social_choice	1.466066	32.000000	n/a	16	2.688802e-01	2.688802e-01
88.563330	1.466066	dec_choice	1.466066	32.000000	n/a	16	2.682292e-01	2.682292e-01
88.563330	1.466066	dec_social_accept	1.466066	32.000000	n/a	16	8.455882e-02	8.455882e-02
88.563330	1.466066	dec_accept	1.466066	32.000000	n/a	16	8.593750e-02	8.593750e-02
88.563330	1.466066	dec_social_high	1.466066	32.000000	n/a	16	2.682292e-01	2.682292e-01
88.563330	1.466066	dec_social_accept_high	1.466066	32.000000	n/a	16	2.682292e-01	2.682292e-01
95.395640	1.984246	dec_nonsocial_choice	1.984246	16.000000	n/a	8	2.688802e-01	2.688802e-01
95.395640	1.984246	dec_choice	1.984246	16.000000	n/a	8	2.695312e-01	2.695312e-01
95.395640	1.984246	dec_nonsocial_accept	1.984246	16.000000	n/a	8	8.455882e-02	8.455882e-02
95.395640	1.984246	dec_accept	1.984246	16.000000	n/a	8	8.333333e-02	8.333333e-02
95.395640	1.984246	dec_nonsocial_high	1.984246	16.000000	n/a	8	2.695312e-01	2.695312e-01
95.395640	1.984246	dec_nonsocial_accept_high	1.984246	16.000000	n/a	8	8.333333e-02	8.333333e-02
102.229164	1.650444	dec_nonsocial_choice	1.650444	16.000000	n/a	8	2.688802e-01	2.688802e-01
102.229164	1.650444	dec_choice	1.650444	16.000000	n/a	8	2.695312e-01	2.695312e-01
102.229164	1.650444	dec_nonsocial_accept	1.650444	16.000000	n/a	8	8.455882e-02	8.455882e-02
102.229164	1.650444	dec_accept	1.650444	16.000000	n/a	8	8.333333e-02	8.333333e-02
102.229164	1.650444	dec_nonsocial_high	1.650444	16.000000	n/a	8	2.695312e-01	2.695312e-01
102.229164	1.650444	dec_nonsocial_accept_high	1.650444	16.000000	n/a	8	8.333333e-02	8.333333e-02
109.863000	1.466349	dec_nonsocial_choice	1.466349	32.000000	n/a	16	2.688802e-01	2.688802e-01
109.863000	1.466349	dec_choice	1.466349	32.000000	n/a	16	2.695312e-01	2.695312e-01
109.863000	1.466349	dec_nonsocial_accept	1.466349	32.000000	n/a	16	8.455882e-02	8.455882e-02
109.863000	1.466349	dec_accept	1.466349	32.000000	n/a	16	8.333333e-02	8.333333e-02
109.863000	1.466349	dec_nonsocial_high	1.466349	32.000000	n/a	16	2.695312e-01	2.695312e-01
109.863000	1.466349	dec_nonsocial_accept_high	1.466349	32.000000	n/a	16	8.333333e-02	8.333333e-02
120.730156	1.632890	dec_nonsocial_choice	1.632890	32.000000	n/a	0	0	-2.311198e-01
120.730156	1.632890	dec_choice	1.632890	32.000000	n/a	0	0	-2.304688e-01
120.730156	1.632890	dec_nonsocial_reject	1.632890	32.000000	n/a	0	0	-3.629032e-02
120.730156	1.632890	dec_reject	1.632890	32.000000	n/a	0	0	-2.500000e-02
120.730156	1.632890	dec_nonsocial_low	1.632890	32.000000	n/a	0	-2.304688e-01	-2.304688e-01
120.730156	1.632890	dec_nonsocial_reject_low	1.632890	32.000000	n/a	3	-2.500000e-02	-1.187500e-01
127.562910	1.483825	dec_nonsocial_choice	1.483825	16.000000	n/a	8	2.688802e-01	2.688802e-01
127.562910	1.483825	dec_choice	1.483825	16.000000	n/a	8	2.695312e-01	2.695312e-01
127.562910	1.483825	dec_nonsocial_accept	1.483825	16.000000	n/a	8	8.455882e-02	8.455882e-02
127.562910	1.483825	dec_accept	1.483825	16.000000	n/a	8	8.333333e-02	8.333333e-02
127.562910	1.483825	dec_nonsocial_high	1.483825	16.000000	n/a	8	2.695312e-01	2.695312e-01
127.562910	1.483825	dec_nonsocial_accept_high	1.483825	16.000000	n/a	8	8.333333e-02	8.333333e-02
134.395870	1.500387	dec_social_choice	1.500387	32.000000	n/a	0	0	-2.311198e-01
134.395870	1.500387	dec_choice	1.500387	32.000000	n/a	0	0	-2.317708e-01
134.395870	1.500387	dec_social_reject	1.500387	32.000000	n/a	0	0	-6.754032e-02
134.395870	1.500387	dec_reject	1.500387	32.000000	n/a	0	0	-7.812500e-02
134.395870	1.500387	dec_social_low	1.500387	32.000000	n/a	0	-2.317708e-01	-2.317708e-01
134.395870	1.500387	dec_social_reject_low	1.500387	32.000000	n/a	2	-1.692708e-01	-2.317708e-01
141.229550	1.150305	dec_social_choice	1.150305	32.000000	n/a	0	0	-2.311198e-01
141.229550	1.150305	dec_choice	1.150305	32.000000	n/a	0	0	-2.317708e-01
141.229550	1.150305	dec_social_reject	1.150305	32.000000	n/a	0	0	-6.754032e-02
141.229550	1.150305	dec_reject	1.150305	32.000000	n/a	0	0	-7.812500e-02
141.229550	1.150305	dec_social_low	1.150305	32.000000	n/a	0	-2.317708e-01	-2.317708e-01
141.229550	1.150305	dec_social_reject_low	1.150305	32.000000	n/a	2	-1.692708e-01	-2.317708e-01
148.062650	2.300092	dec_nonsocial_choice	2.300092	16.000000	n/a	0	0	-2.311198e-01
148.062650	2.300092	dec_choice	2.300092	16.000000	n/a	0	0	-2.304688e-01
148.062650	2.300092	dec_nonsocial_reject	2.300092	16.000000	n/a	0	0	-5.040323e-03
148.062650	2.300092	dec_reject	2.300092	16.000000	n/a	0	0	6.250000e-03
148.062650	2.300092	dec_nonsocial_reject_low	2.300092	16.000000	n/a	2	-1.562500e-02	-1.406250e-01
154.896240	1.800111	dec_social_choice	1.800111	32.000000	n/a	0	0	-2.311198e-01
154.896240	1.800111	dec_choice	1.800111	32.000000	n/a	0	0	-2.317708e-01
154.896240	1.800111	dec_social_reject	1.800111	32.000000	n/a	0	0	1.199597e-01
154.896240	1.800111	dec_reject	1.800111	32.000000	n/a	0	0	1.093750e-01
154.896240	1.800111	dec_social_reject_low	1.800111	32.000000	n/a	8	1.822917e-02	-2.317708e-01
161.730090	1.533054	dec_social_choice	1.533054	32.000000	n/a	0	0	-2.311198e-01
161.730090	1.533054	dec_choice	1.533054	32.000000	n/a	0	0	-2.317708e-01
161.730090	1.533054	dec_social_reject	1.533054	32.000000	n/a	0	0	1.199597e-01
161.730090	1.533054	dec_reject	1.533054	32.000000	n/a	0	0	1.093750e-01
161.730090	1.533054	dec_social_low	1.533054	32.000000	n/a	0	-2.317708e-01	-2.317708e-01
161.730090	1.533054	dec_social_reject_low	1.533054	32.000000	n/a	8	1.822917e-02	-2.317708e-01
170.979310	1.283816	dec_social_choice	1.283816	32.000000	n/a	0	0	-2.311198e-01
170.979310	1.283816	dec_choice	1.283816	32.000000	n/a	0	0	-2.317708e-01
170.979310	1.283816	dec_social_reject	1.283816	32.000000	n/a	0	0	-6.754032e-02
170.979310	1.283816	dec_reject	1.283816	32.000000	n/a	0	0	-7.812500e-02
170.979310	1.283816	dec_social_low	1.283816	32.000000	n/a	0	-2.317708e-01	-2.317708e-01
170.979310	1.283816	dec_social_reject_low	1.283816	32.000000	n/a	2	-1.692708e-01	-2.317708e-01
177.812970	1.083300	dec_social_choice	1.083300	16.000000	n/a	0	0	-2.311198e-01
177.812970	1.083300	dec_choice	1.083300	16.000000	n/a	0	0	-2.317708e-01
177.812970	1.083300	dec_social_reject	1.083300	16.000000	n/a	0	0	-5.040323e-03
177.812970	1.083300	dec_reject	1.083300	16.000000	n/a	0	0	-1.562500e-02
177.812970	1.083300	dec_social_reject_low	1.083300	16.000000	n/a	2	-1.067708e-01	-2.317708e-01
185.463040	2.233287	dec_nonsocial_choice	2.233287	16.000000	n/a	4	1.888021e-02	1.888021e-02
185.463040	2.233287	dec_choice	2.233287	16.000000	n/a	4	1.953125e-02	1.953125e-02
185.463040	2.233287	dec_nonsocial_accept	2.233287	16.000000	n/a	4	-1.654412e-01	-1.654412e-01
185.463040	2.233287	dec_accept	2.233287	16.000000	n/a	4	-1.666667e-01	-1.666667e-01
185.463040	2.233287	dec_nonsocial_accept_high	2.233287	16.000000	n/a	4	-1.640625e-01	-1.640625e-01
192.296070	2.183451	dec_nonsocial_choice	2.183451	32.000000	n/a	0	0	-2.311198e-01
192.296070	2.183451	dec_choice	2.183451	32.000000	n/a	0	0	-2.304688e-01
192.296070	2.183451	dec_nonsocial_reject	2.183451	32.000000	n/a	0	0	-3.629032e-02
192.296070	2.183451	dec_reject	2.183451	32.000000	n/a	0	0	-2.500000e-02
192.296070	2.183451	dec_nonsocial_reject_low	2.183451	32.000000	n/a	3	-4.687500e-02	-1.406250e-01
199.946840	1.882668	dec_social_choice	1.882668	16.000000	n/a	0	0	-2.311198e-01
199.946840	1.882668	dec_choice	1.882668	16.000000	n/a	0	0	-2.317708e-01
199.946840	1.882668	dec_social_reject	1.882668	16.000000	n/a	0	0	-5.040323e-03
199.946840	1.882668	dec_reject	1.882668	16.000000	n/a	0	0	-1.562500e-02
199.946840	1.882668	dec_social_reject_low	1.882668	16.000000	n/a	2	-1.067708e-01	-2.317708e-01
207.597120	1.082649	dec_nonsocial_choice	1.082649	16.000000	n/a	0	0	-2.311198e-01
207.597120	1.082649	dec_choice	1.082649	16.000000	n/a	0	0	-2.304688e-01
207.597120	1.082649	dec_nonsocial_reject	1.082649	16.000000	n/a	0	0	-5.040323e-03
207.597120	1.082649	dec_reject	1.082649	16.000000	n/a	0	0	6.250000e-03
207.597120	1.082649	dec_nonsocial_reject_low	1.082649	16.000000	n/a	2	-1.562500e-02	-1.406250e-01
215.246100	1.416745	dec_social_choice	1.416745	32.000000	n/a	0	0	-2.311198e-01
215.246100	1.416745	dec_choice	1.416745	32.000000	n/a	0	0	-2.317708e-01
215.246100	1.416745	dec_social_reject	1.416745	32.000000	n/a	0	0	-6.754032e-02
215.246100	1.416745	dec_reject	1.416745	32.000000	n/a	0	0	-7.812500e-02
215.246100	1.416745	dec_social_low	1.416745	32.000000	n/a	0	-2.317708e-01	-2.317708e-01
215.246100	1.416745	dec_social_reject_low	1.416745	32.000000	n/a	2	-1.692708e-01	-2.317708e-01
224.512470	0.933627	dec_nonsocial_choice	0.933627	32.000000	n/a	0	0	-2.311198e-01
224.512470	0.933627	dec_choice	0.933627	32.000000	n/a	0	0	-2.304688e-01
224.512470	0.933627	dec_nonsocial_reject	0.933627	32.000000	n/a	0	0	-6.754032e-02
224.512470	0.933627	dec_reject	0.933627	32.000000	n/a	0	0	-5.625000e-02
224.512470	0.933627	dec_nonsocial_reject_low	0.933627	32.000000	n/a	2	-7.812500e-02	-1.406250e-01
232.163070	0.983046	dec_nonsocial_choice	0.983046	16.000000	n/a	0	0	-2.311198e-01
232.163070	0.983046	dec_choice	0.983046	16.000000	n/a	0	0	-2.304688e-01
232.163070	0.983046	dec_nonsocial_reject	0.983046	16.000000	n/a	0	0	1.199597e-01
232.163070	0.983046	dec_reject	0.983046	16.000000	n/a	0	0	1.312500e-01
232.163070	0.983046	dec_nonsocial_reject_low	0.983046	16.000000	n/a	4	1.093750e-01	-1.406250e-01
239.812590	1.166479	dec_nonsocial_choice	1.166479	16.000000	n/a	0	0	-2.311198e-01
239.812590	1.166479	dec_choice	1.166479	16.000000	n/a	0	0	-2.304688e-01
239.812590	1.166479	dec_nonsocial_reject	1.166479	16.000000	n/a	0	0	-5.040323e-03
239.812590	1.166479	dec_reject	1.166479	16.000000	n/a	0	0	6.250000e-03
239.812590	1.166479	dec_nonsocial_low	1.166479	16.000000	n/a	0	-2.304688e-01	-2.304688e-01
239.812590	1.166479	dec_nonsocial_reject_low	1.166479	16.000000	n/a	2	6.250000e-03	-1.187500e-01
249.063200	1.365775	dec_social_choice	1.365775	16.000000	n/a	8	2.688802e-01	2.688802e-01
249.063200	1.365775	dec_choice	1.365775	16.000000	n/a	8	2.682292e-01	2.682292e-01
249.063200	1.365775	dec_social_accept	1.365775	16.000000	n/a	8	8.455882e-02	8.455882e-02
249.063200	1.365775	dec_accept	1.365775	16.000000	n/a	8	8.593750e-02	8.593750e-02
249.063200	1.365775	dec_social_high	1.365775	16.000000	n/a	8	2.682292e-01	2.682292e-01
249.063200	1.365775	dec_social_accept_high	1.365775	16.000000	n/a	8	2.682292e-01	2.682292e-01
255.895360	0.950876	dec_social_choice	0.950876	32.000000	n/a	0	0	-2.311198e-01
255.895360	0.950876	dec_choice	0.950876	32.000000	n/a	0	0	-2.317708e-01
255.895360	0.950876	dec_social_reject	0.950876	32.000000	n/a	0	0	-3.629032e-02
255.895360	0.950876	dec_reject	0.950876	32.000000	n/a	0	0	-4.687500e-02
255.895360	0.950876	dec_social_reject_low	0.950876	32.000000	n/a	3	-1.380208e-01	-2.317708e-01
263.546300	1.266589	dec_social_choice	1.266589	32.000000	n/a	16	2.688802e-01	2.688802e-01
263.546300	1.266589	dec_choice	1.266589	32.000000	n/a	16	2.682292e-01	2.682292e-01
263.546300	1.266589	dec_social_accept	1.266589	32.000000	n/a	16	8.455882e-02	8.455882e-02
263.546300	1.266589	dec_accept	1.266589	32.000000	n/a	16	8.593750e-02	8.593750e-02
263.546300	1.266589	dec_social_accept_high	1.266589	32.000000	n/a	16	2.682292e-01	2.682292e-01
271.195980	2.233641	dec_social_choice	2.233641	16.000000	n/a	8	2.688802e-01	2.688802e-01
271.195980	2.233641	dec_choice	2.233641	16.000000	n/a	8	2.682292e-01	2.682292e-01
271.195980	2.233641	dec_social_accept	2.233641	16.000000	n/a	8	8.455882e-02	8.455882e-02
271.195980	2.233641	dec_accept	2.233641	16.000000	n/a	8	8.593750e-02	8.593750e-02
271.195980	2.233641	dec_social_high	2.233641	16.000000	n/a	8	2.682292e-01	2.682292e-01
271.195980	2.233641	dec_social_accept_high	2.233641	16.000000	n/a	8	2.682292e-01	2.682292e-01
280.446170	1.733289	dec_nonsocial_choice	1.733289	32.000000	n/a	0	0	-2.311198e-01
280.446170	1.733289	dec_choice	1.733289	32.000000	n/a	0	0	-2.304688e-01
280.446170	1.733289	dec_nonsocial_reject	1.733289	32.000000	n/a	0	0	1.199597e-01
280.446170	1.733289	dec_reject	1.733289	32.000000	n/a	0	0	1.312500e-01
280.446170	1.733289	dec_nonsocial_low	1.733289	32.000000	n/a	0	-2.304688e-01	-2.304688e-01
280.446170	1.733289	dec_nonsocial_reject_low	1.733289	32.000000	n/a	8	1.312500e-01	-1.187500e-01
288.097200	1.365247	dec_social_choice	1.365247	32.000000	n/a	16	2.688802e-01	2.688802e-01
288.097200	1.365247	dec_choice	1.365247	32.000000	n/a	16	2.682292e-01	2.682292e-01
288.097200	1.365247	dec_social_accept	1.365247	32.000000	n/a	16	8.455882e-02	8.455882e-02
288.097200	1.365247	dec_accept	1.365247	32.000000	n/a	16	8.593750e-02	8.593750e-02
288.097200	1.365247	dec_social_accept_high	1.365247	32.000000	n/a	16	2.682292e-01	2.682292e-01
294.929140	1.283812	dec_social_choice	1.283812	32.000000	n/a	0	0	-2.311198e-01
294.929140	1.283812	dec_choice	1.283812	32.000000	n/a	0	0	-2.317708e-01
294.929140	1.283812	dec_social_reject	1.283812	32.000000	n/a	0	0	1.199597e-01
294.929140	1.283812	dec_reject	1.283812	32.000000	n/a	0	0	1.093750e-01
294.929140	1.283812	dec_social_reject_low	1.283812	32.000000	n/a	8	1.822917e-02	-2.317708e-01
301.763120	0.899393	dec_nonsocial_choice	0.899393	32.000000	n/a	8	1.888021e-02	1.888021e-02
301.763120	0.899393	dec_choice	0.899393	32.000000	n/a	8	1.953125e-02	1.953125e-02
301.763120	0.899393	dec_nonsocial_accept	0.899393	32.000000	n/a	8	-1.654412e-01	-1.654412e-01
301.763120	0.899393	dec_accept	0.899393	32.000000	n/a	8	-1.666667e-01	-1.666667e-01
301.763120	0.899393	dec_nonsocial_accept_high	0.899393	32.000000	n/a	8	-1.640625e-01	-1.640625e-01
308.596130	2.516357	dec_nonsocial_choice	2.516357	32.000000	n/a	8	1.888021e-02	1.888021e-02
308.596130	2.516357	dec_choice	2.516357	32.000000	n/a	8	1.953125e-02	1.953125e-02
308.596130	2.516357	dec_nonsocial_accept	2.516357	32.000000	n/a	8	-1.654412e-01	-1.654412e-01
308.596130	2.516357	dec_accept	2.516357	32.000000	n/a	8	-1.666667e-01	-1.666667e-01
308.596130	2.516357	dec_nonsocial_accept_high	2.516357	32.000000	n/a	8	-1.640625e-01	-1.640625e-01
315.428920	0.916793	dec_social_choice	0.916793	16.000000	n/a	0	0	-2.311198e-01
315.428920	0.916793	dec_choice	0.916793	16.000000	n/a	0	0	-2.317708e-01
315.428920	0.916793	dec_social_reject	0.916793	16.000000	n/a	0	0	1.199597e-01
315.428920	0.916793	dec_reject	0.916793	16.000000	n/a	0	0	1.093750e-01
315.428920	0.916793	dec_social_low	0.916793	16.000000	n/a	0	-2.317708e-01	-2.317708e-01
315.428920	0.916793	dec_social_reject_low	0.916793	16.000000	n/a	4	1.822917e-02	-2.317708e-01
327.912260	1.216584	dec_nonsocial_choice	1.216584	16.000000	n/a	0	0	-2.311198e-01
327.912260	1.216584	dec_choice	1.216584	16.000000	n/a	0	0	-2.304688e-01
327.912260	1.216584	dec_nonsocial_reject	1.216584	16.000000	n/a	0	0	1.199597e-01
327.912260	1.216584	dec_reject	1.216584	16.000000	n/a	0	0	1.312500e-01
327.912260	1.216584	dec_nonsocial_low	1.216584	16.000000	n/a	0	-2.304688e-01	-2.304688e-01
327.912260	1.216584	dec_nonsocial_reject_low	1.216584	16.000000	n/a	4	1.312500e-01	-1.187500e-01
337.163300	1.315697	dec_nonsocial_choice	1.315697	16.000000	n/a	0	0	-2.311198e-01
337.163300	1.315697	dec_choice	1.315697	16.000000	n/a	0	0	-2.304688e-01
337.163300	1.315697	dec_nonsocial_reject	1.315697	16.000000	n/a	0	0	-6.754032e-02
337.163300	1.315697	dec_reject	1.315697	16.000000	n/a	0	0	-5.625000e-02
337.163300	1.315697	dec_nonsocial_reject_low	1.315697	16.000000	n/a	1	-7.812500e-02	-1.406250e-01
344.813100	1.632848	dec_social_choice	1.632848	32.000000	n/a	0	0	-2.311198e-01
344.813100	1.632848	dec_choice	1.632848	32.000000	n/a	0	0	-2.317708e-01
344.813100	1.632848	dec_social_reject	1.632848	32.000000	n/a	0	0	-3.629032e-02
344.813100	1.632848	dec_reject	1.632848	32.000000	n/a	0	0	-4.687500e-02
344.813100	1.632848	dec_social_reject_low	1.632848	32.000000	n/a	3	-1.380208e-01	-2.317708e-01
352.462100	1.183833	dec_social_choice	1.183833	16.000000	n/a	0	0	-2.311198e-01
352.462100	1.183833	dec_choice	1.183833	16.000000	n/a	0	0	-2.317708e-01
352.462100	1.183833	dec_social_reject	1.183833	16.000000	n/a	0	0	-5.040323e-03
352.462100	1.183833	dec_reject	1.183833	16.000000	n/a	0	0	-1.562500e-02
352.462100	1.183833	dec_social_reject_low	1.183833	16.000000	n/a	2	-1.067708e-01	-2.317708e-01
359.296630	2.782748	dec_social_choice	2.782748	16.000000	n/a	4	1.888021e-02	1.888021e-02
359.296630	2.782748	dec_choice	2.782748	16.000000	n/a	4	1.822917e-02	1.822917e-02
359.296630	2.782748	dec_social_accept	2.782748	16.000000	n/a	4	-1.654412e-01	-1.654412e-01
359.296630	2.782748	dec_accept	2.782748	16.000000	n/a	4	-1.640625e-01	-1.640625e-01
359.296630	2.782748	dec_social_accept_high	2.782748	16.000000	n/a	4	1.822917e-02	1.822917e-02
366.128540	1.450637	dec_nonsocial_choice	1.450637	16.000000	n/a	0	0	-2.311198e-01
366.128540	1.450637	dec_choice	1.450637	16.000000	n/a	0	0	-2.304688e-01
366.128540	1.450637	dec_nonsocial_reject	1.450637	16.000000	n/a	0	0	-6.754032e-02
366.128540	1.450637	dec_reject	1.450637	16.000000	n/a	0	0	-5.625000e-02
366.128540	1.450637	dec_nonsocial_reject_low	1.450637	16.000000	n/a	1	-7.812500e-02	-1.406250e-01
372.962160	1.784086	dec_nonsocial_choice	1.784086	32.000000	n/a	0	0	-2.311198e-01
372.962160	1.784086	dec_choice	1.784086	32.000000	n/a	0	0	-2.304688e-01
372.962160	1.784086	dec_nonsocial_reject	1.784086	32.000000	n/a	0	0	-6.754032e-02
372.962160	1.784086	dec_reject	1.784086	32.000000	n/a	0	0	-5.625000e-02
372.962160	1.784086	dec_nonsocial_reject_low	1.784086	32.000000	n/a	2	-7.812500e-02	-1.406250e-01
