onset	duration	trial_type	response_time	Endowment	Endowment_pmod	Decision	Decision_pmod	Offer_pmod
4.514752	2	cue_nonsocial	n/a	32	9	n/a	n/a	n/a
4.514752	2	cue_nonsocial_high	n/a	32	7	n/a	n/a	n/a
12.231426	2	cue_social	n/a	32	7	n/a	n/a	n/a
12.231426	2	cue_social_high	n/a	32	9	n/a	n/a	n/a
19.067503	2	cue_social	n/a	32	7	n/a	n/a	n/a
19.067503	2	cue_social_high	n/a	32	9	n/a	n/a	n/a
25.903803	2	cue_social	n/a	32	7	n/a	n/a	n/a
25.903803	2	cue_social_high	n/a	32	9	n/a	n/a	n/a
35.157200	2	cue_social	n/a	32	7	n/a	n/a	n/a
35.157200	2	cue_social_high	n/a	32	9	n/a	n/a	n/a
41.980152	2	cue_social	n/a	16	-9	n/a	n/a	n/a
41.980152	2	cue_social_low	n/a	16	-7	n/a	n/a	n/a
49.624172	2	cue_social	n/a	32	7	n/a	n/a	n/a
49.624172	2	cue_social_high	n/a	32	9	n/a	n/a	n/a
57.214590	2	cue_nonsocial	n/a	32	9	n/a	n/a	n/a
57.214590	2	cue_nonsocial_high	n/a	32	7	n/a	n/a	n/a
64.974830	2	cue_social	n/a	32	7	n/a	n/a	n/a
64.974830	2	cue_social_high	n/a	32	9	n/a	n/a	n/a
74.115234	2	cue_nonsocial	n/a	32	9	n/a	n/a	n/a
74.115234	2	cue_nonsocial_high	n/a	32	7	n/a	n/a	n/a
81.828020	2	cue_social	n/a	32	7	n/a	n/a	n/a
81.828020	2	cue_social_high	n/a	32	9	n/a	n/a	n/a
89.398026	2	cue_nonsocial	n/a	16	-7	n/a	n/a	n/a
89.398026	2	cue_nonsocial_low	n/a	16	-9	n/a	n/a	n/a
96.287750	2	cue_social	n/a	16	-9	n/a	n/a	n/a
96.287750	2	cue_social_low	n/a	16	-7	n/a	n/a	n/a
103.865530	2	cue_nonsocial	n/a	32	9	n/a	n/a	n/a
103.865530	2	cue_nonsocial_high	n/a	32	7	n/a	n/a	n/a
113.199420	2	cue_social	n/a	32	7	n/a	n/a	n/a
113.199420	2	cue_social_high	n/a	32	9	n/a	n/a	n/a
122.364560	2	cue_nonsocial	n/a	16	-7	n/a	n/a	n/a
122.364560	2	cue_nonsocial_low	n/a	16	-9	n/a	n/a	n/a
129.266920	2	cue_social	n/a	16	-9	n/a	n/a	n/a
129.266920	2	cue_social_low	n/a	16	-7	n/a	n/a	n/a
136.080580	2	cue_social	n/a	16	-9	n/a	n/a	n/a
136.080580	2	cue_social_low	n/a	16	-7	n/a	n/a	n/a
145.329150	2	cue_social	n/a	16	-9	n/a	n/a	n/a
145.329150	2	cue_social_low	n/a	16	-7	n/a	n/a	n/a
152.114720	2	cue_nonsocial	n/a	32	9	n/a	n/a	n/a
152.114720	2	cue_nonsocial_high	n/a	32	7	n/a	n/a	n/a
164.597630	2	cue_nonsocial	n/a	16	-7	n/a	n/a	n/a
164.597630	2	cue_nonsocial_low	n/a	16	-9	n/a	n/a	n/a
171.431320	2	cue_nonsocial	n/a	16	-7	n/a	n/a	n/a
171.431320	2	cue_nonsocial_low	n/a	16	-9	n/a	n/a	n/a
178.264970	2	cue_nonsocial	n/a	16	-7	n/a	n/a	n/a
178.264970	2	cue_nonsocial_low	n/a	16	-9	n/a	n/a	n/a
185.098070	2	cue_nonsocial	n/a	16	-7	n/a	n/a	n/a
185.098070	2	cue_nonsocial_low	n/a	16	-9	n/a	n/a	n/a
191.986790	2	cue_social	n/a	16	-9	n/a	n/a	n/a
191.986790	2	cue_social_low	n/a	16	-7	n/a	n/a	n/a
198.849810	2	cue_social	n/a	32	7	n/a	n/a	n/a
198.849810	2	cue_social_high	n/a	32	9	n/a	n/a	n/a
209.688600	2	cue_social	n/a	16	-9	n/a	n/a	n/a
209.688600	2	cue_social_low	n/a	16	-7	n/a	n/a	n/a
216.464320	2	cue_nonsocial	n/a	32	9	n/a	n/a	n/a
216.464320	2	cue_nonsocial_high	n/a	32	7	n/a	n/a	n/a
225.778090	2	cue_social	n/a	32	7	n/a	n/a	n/a
225.778090	2	cue_social_high	n/a	32	9	n/a	n/a	n/a
233.364530	2	cue_nonsocial	n/a	16	-7	n/a	n/a	n/a
233.364530	2	cue_nonsocial_low	n/a	16	-9	n/a	n/a	n/a
240.198030	2	cue_nonsocial	n/a	16	-7	n/a	n/a	n/a
240.198030	2	cue_nonsocial_low	n/a	16	-9	n/a	n/a	n/a
251.124250	2	cue_social	n/a	16	-9	n/a	n/a	n/a
251.124250	2	cue_social_low	n/a	16	-7	n/a	n/a	n/a
257.951320	2	cue_social	n/a	32	7	n/a	n/a	n/a
257.951320	2	cue_social_high	n/a	32	9	n/a	n/a	n/a
264.779850	2	cue_social	n/a	16	-9	n/a	n/a	n/a
264.779850	2	cue_social_low	n/a	16	-7	n/a	n/a	n/a
275.598000	2	cue_nonsocial	n/a	32	9	n/a	n/a	n/a
275.598000	2	cue_nonsocial_high	n/a	32	7	n/a	n/a	n/a
282.430800	2	cue_nonsocial	n/a	16	-7	n/a	n/a	n/a
282.430800	2	cue_nonsocial_low	n/a	16	-9	n/a	n/a	n/a
289.264740	2	cue_nonsocial	n/a	32	9	n/a	n/a	n/a
289.264740	2	cue_nonsocial_high	n/a	32	7	n/a	n/a	n/a
296.953600	2	cue_social	n/a	32	7	n/a	n/a	n/a
296.953600	2	cue_social_high	n/a	32	9	n/a	n/a	n/a
306.147830	2	cue_nonsocial	n/a	32	9	n/a	n/a	n/a
306.147830	2	cue_nonsocial_high	n/a	32	7	n/a	n/a	n/a
313.797820	2	cue_nonsocial	n/a	16	-7	n/a	n/a	n/a
313.797820	2	cue_nonsocial_low	n/a	16	-9	n/a	n/a	n/a
321.447800	2	cue_nonsocial	n/a	16	-7	n/a	n/a	n/a
321.447800	2	cue_nonsocial_low	n/a	16	-9	n/a	n/a	n/a
328.299560	2	cue_social	n/a	16	-9	n/a	n/a	n/a
328.299560	2	cue_social_low	n/a	16	-7	n/a	n/a	n/a
335.965300	2	cue_social	n/a	32	7	n/a	n/a	n/a
335.965300	2	cue_social_high	n/a	32	9	n/a	n/a	n/a
342.764650	2	cue_nonsocial	n/a	16	-7	n/a	n/a	n/a
342.764650	2	cue_nonsocial_low	n/a	16	-9	n/a	n/a	n/a
349.597750	2	cue_nonsocial	n/a	32	9	n/a	n/a	n/a
349.597750	2	cue_nonsocial_high	n/a	32	7	n/a	n/a	n/a
356.431100	2	cue_nonsocial	n/a	32	9	n/a	n/a	n/a
356.431100	2	cue_nonsocial_high	n/a	32	7	n/a	n/a	n/a
364.117100	2	cue_social	n/a	32	7	n/a	n/a	n/a
364.117100	2	cue_social_high	n/a	32	9	n/a	n/a	n/a
370.914370	2	cue_nonsocial	n/a	16	-7	n/a	n/a	n/a
370.914370	2	cue_nonsocial_low	n/a	16	-9	n/a	n/a	n/a
6.521246	1.566674	dec_nonsocial_choice	1.566674	32.000000	n/a	16	2.708333e-01	2.708333e-01
6.521246	1.566674	dec_choice	1.566674	32.000000	n/a	16	2.708333e-01	2.708333e-01
6.521246	1.566674	dec_nonsocial_accept	1.566674	32.000000	n/a	16	1.003289e-01	1.003289e-01
6.521246	1.566674	dec_accept	1.566674	32.000000	n/a	16	1.156250e-01	1.156250e-01
6.521246	1.566674	dec_nonsocial_accept_high	1.566674	32.000000	n/a	16	8.333333e-02	8.333333e-02
14.172110	1.916192	dec_social_choice	1.916192	32.000000	n/a	0	0	-2.291667e-01
14.172110	1.916192	dec_choice	1.916192	32.000000	n/a	0	0	-2.291667e-01
14.172110	1.916192	dec_social_reject	1.916192	32.000000	n/a	0	0	-5.495690e-02
14.172110	1.916192	dec_reject	1.916192	32.000000	n/a	0	0	-5.416667e-02
14.172110	1.916192	dec_social_low	1.916192	32.000000	n/a	0	-2.291667e-01	-2.291667e-01
14.172110	1.916192	dec_social_reject_low	1.916192	32.000000	n/a	2	-1.666667e-01	-2.291667e-01
21.004982	1.799781	dec_social_choice	1.799781	32.000000	n/a	16	2.708333e-01	2.708333e-01
21.004982	1.799781	dec_choice	1.799781	32.000000	n/a	16	2.708333e-01	2.708333e-01
21.004982	1.799781	dec_social_accept	1.799781	32.000000	n/a	16	1.003289e-01	1.003289e-01
21.004982	1.799781	dec_accept	1.799781	32.000000	n/a	16	8.333333e-02	8.333333e-02
21.004982	1.799781	dec_social_high	1.799781	32.000000	n/a	16	2.708333e-01	2.708333e-01
21.004982	1.799781	dec_social_accept_high	1.799781	32.000000	n/a	16	2.708333e-01	2.708333e-01
27.837576	1.367196	dec_social_choice	1.367196	32.000000	n/a	0	0	-2.291667e-01
27.837576	1.367196	dec_choice	1.367196	32.000000	n/a	0	0	-2.291667e-01
27.837576	1.367196	dec_social_reject	1.367196	32.000000	n/a	0	0	-2.370690e-02
27.837576	1.367196	dec_reject	1.367196	32.000000	n/a	0	0	-2.291667e-02
27.837576	1.367196	dec_social_reject_low	1.367196	32.000000	n/a	3	-1.354167e-01	-2.291667e-01
37.088024	1.466859	dec_social_choice	1.466859	32.000000	n/a	8	2.083333e-02	2.083333e-02
37.088024	1.466859	dec_choice	1.466859	32.000000	n/a	8	2.083333e-02	2.083333e-02
37.088024	1.466859	dec_social_accept	1.466859	32.000000	n/a	8	-1.496711e-01	-1.496711e-01
37.088024	1.466859	dec_accept	1.466859	32.000000	n/a	8	-1.666667e-01	-1.666667e-01
37.088024	1.466859	dec_social_high	1.466859	32.000000	n/a	8	2.083333e-02	2.083333e-02
37.088024	1.466859	dec_social_accept_high	1.466859	32.000000	n/a	8	2.083333e-02	2.083333e-02
43.921757	1.399891	dec_social_choice	1.399891	16.000000	n/a	0	0	-2.291667e-01
43.921757	1.399891	dec_choice	1.399891	16.000000	n/a	0	0	-2.291667e-01
43.921757	1.399891	dec_social_reject	1.399891	16.000000	n/a	0	0	7.543103e-03
43.921757	1.399891	dec_reject	1.399891	16.000000	n/a	0	0	8.333333e-03
43.921757	1.399891	dec_social_low	1.399891	16.000000	n/a	0	-2.291667e-01	-2.291667e-01
43.921757	1.399891	dec_social_reject_low	1.399891	16.000000	n/a	2	-1.041667e-01	-2.291667e-01
51.571490	1.533372	dec_social_choice	1.533372	32.000000	n/a	0	0	-2.291667e-01
51.571490	1.533372	dec_choice	1.533372	32.000000	n/a	0	0	-2.291667e-01
51.571490	1.533372	dec_social_reject	1.533372	32.000000	n/a	0	0	-2.370690e-02
51.571490	1.533372	dec_reject	1.533372	32.000000	n/a	0	0	-2.291667e-02
51.571490	1.533372	dec_social_low	1.533372	32.000000	n/a	0	-2.291667e-01	-2.291667e-01
51.571490	1.533372	dec_social_reject_low	1.533372	32.000000	n/a	3	-1.354167e-01	-2.291667e-01
59.221577	1.233240	dec_nonsocial_choice	1.233240	32.000000	n/a	3	-1.354167e-01	-1.354167e-01
59.221577	1.233240	dec_choice	1.233240	32.000000	n/a	3	-1.354167e-01	-1.354167e-01
59.221577	1.233240	dec_nonsocial_accept	1.233240	32.000000	n/a	3	-3.059211e-01	-3.059211e-01
59.221577	1.233240	dec_accept	1.233240	32.000000	n/a	3	-2.906250e-01	-2.906250e-01
59.221577	1.233240	dec_nonsocial_low	1.233240	32.000000	n/a	3	-1.354167e-01	-1.354167e-01
59.221577	1.233240	dec_nonsocial_accept_low	1.233240	32.000000	n/a	3	-2.906250e-01	-2.906250e-01
66.872090	2.032609	dec_social_choice	2.032609	32.000000	n/a	0	0	-2.291667e-01
66.872090	2.032609	dec_choice	2.032609	32.000000	n/a	0	0	-2.291667e-01
66.872090	2.032609	dec_social_reject	2.032609	32.000000	n/a	0	0	-2.370690e-02
66.872090	2.032609	dec_reject	2.032609	32.000000	n/a	0	0	-2.291667e-02
66.872090	2.032609	dec_social_low	2.032609	32.000000	n/a	0	-2.291667e-01	-2.291667e-01
66.872090	2.032609	dec_social_reject_low	2.032609	32.000000	n/a	3	-1.354167e-01	-2.291667e-01
76.120990	1.900247	dec_nonsocial_choice	1.900247	32.000000	n/a	16	2.708333e-01	2.708333e-01
76.120990	1.900247	dec_choice	1.900247	32.000000	n/a	16	2.708333e-01	2.708333e-01
76.120990	1.900247	dec_nonsocial_accept	1.900247	32.000000	n/a	16	1.003289e-01	1.003289e-01
76.120990	1.900247	dec_accept	1.900247	32.000000	n/a	16	1.156250e-01	1.156250e-01
76.120990	1.900247	dec_nonsocial_high	1.900247	32.000000	n/a	16	2.708333e-01	2.708333e-01
76.120990	1.900247	dec_nonsocial_accept_high	1.900247	32.000000	n/a	16	1.156250e-01	1.156250e-01
83.770560	1.300619	dec_social_choice	1.300619	32.000000	n/a	0	0	-2.291667e-01
83.770560	1.300619	dec_choice	1.300619	32.000000	n/a	0	0	-2.291667e-01
83.770560	1.300619	dec_social_reject	1.300619	32.000000	n/a	0	0	-5.495690e-02
83.770560	1.300619	dec_reject	1.300619	32.000000	n/a	0	0	-5.416667e-02
83.770560	1.300619	dec_social_reject_low	1.300619	32.000000	n/a	2	-1.666667e-01	-2.291667e-01
91.405030	2.015813	dec_nonsocial_choice	2.015813	16.000000	n/a	0	0	-2.291667e-01
91.405030	2.015813	dec_choice	2.015813	16.000000	n/a	0	0	-2.291667e-01
91.405030	2.015813	dec_nonsocial_reject	2.015813	16.000000	n/a	0	0	7.543103e-03
91.405030	2.015813	dec_reject	2.015813	16.000000	n/a	0	0	6.696429e-03
91.405030	2.015813	dec_nonsocial_low	2.015813	16.000000	n/a	0	-2.291667e-01	-2.291667e-01
91.405030	2.015813	dec_nonsocial_reject_low	2.015813	16.000000	n/a	2	6.696429e-03	-1.183036e-01
98.237070	1.250957	dec_social_choice	1.250957	16.000000	n/a	8	2.708333e-01	2.708333e-01
98.237070	1.250957	dec_choice	1.250957	16.000000	n/a	8	2.708333e-01	2.708333e-01
98.237070	1.250957	dec_social_accept	1.250957	16.000000	n/a	8	1.003289e-01	1.003289e-01
98.237070	1.250957	dec_accept	1.250957	16.000000	n/a	8	8.333333e-02	8.333333e-02
98.237070	1.250957	dec_social_accept_high	1.250957	16.000000	n/a	8	2.708333e-01	2.708333e-01
105.871430	1.233315	dec_nonsocial_choice	1.233315	32.000000	n/a	0	0	-2.291667e-01
105.871430	1.233315	dec_choice	1.233315	32.000000	n/a	0	0	-2.291667e-01
105.871430	1.233315	dec_nonsocial_reject	1.233315	32.000000	n/a	0	0	-2.370690e-02
105.871430	1.233315	dec_reject	1.233315	32.000000	n/a	0	0	-2.455357e-02
105.871430	1.233315	dec_nonsocial_low	1.233315	32.000000	n/a	0	-2.291667e-01	-2.291667e-01
105.871430	1.233315	dec_nonsocial_reject_low	1.233315	32.000000	n/a	3	-2.455357e-02	-1.183036e-01
115.121710	1.199417	dec_social_choice	1.199417	32.000000	n/a	16	2.708333e-01	2.708333e-01
115.121710	1.199417	dec_choice	1.199417	32.000000	n/a	16	2.708333e-01	2.708333e-01
115.121710	1.199417	dec_social_accept	1.199417	32.000000	n/a	16	1.003289e-01	1.003289e-01
115.121710	1.199417	dec_accept	1.199417	32.000000	n/a	16	8.333333e-02	8.333333e-02
115.121710	1.199417	dec_social_high	1.199417	32.000000	n/a	16	2.708333e-01	2.708333e-01
115.121710	1.199417	dec_social_accept_high	1.199417	32.000000	n/a	16	2.708333e-01	2.708333e-01
124.371540	1.565992	dec_nonsocial_choice	1.565992	16.000000	n/a	8	2.708333e-01	2.708333e-01
124.371540	1.565992	dec_choice	1.565992	16.000000	n/a	8	2.708333e-01	2.708333e-01
124.371540	1.565992	dec_nonsocial_accept	1.565992	16.000000	n/a	8	1.003289e-01	1.003289e-01
124.371540	1.565992	dec_accept	1.565992	16.000000	n/a	8	1.156250e-01	1.156250e-01
124.371540	1.565992	dec_nonsocial_accept_high	1.565992	16.000000	n/a	8	8.333333e-02	8.333333e-02
131.205470	1.199102	dec_social_choice	1.199102	16.000000	n/a	0	0	-2.291667e-01
131.205470	1.199102	dec_choice	1.199102	16.000000	n/a	0	0	-2.291667e-01
131.205470	1.199102	dec_social_reject	1.199102	16.000000	n/a	0	0	7.543103e-03
131.205470	1.199102	dec_reject	1.199102	16.000000	n/a	0	0	8.333333e-03
131.205470	1.199102	dec_social_reject_low	1.199102	16.000000	n/a	2	-1.041667e-01	-2.291667e-01
138.037800	1.350114	dec_social_choice	1.350114	16.000000	n/a	0	0	-2.291667e-01
138.037800	1.350114	dec_choice	1.350114	16.000000	n/a	0	0	-2.291667e-01
138.037800	1.350114	dec_social_reject	1.350114	16.000000	n/a	0	0	-5.495690e-02
138.037800	1.350114	dec_reject	1.350114	16.000000	n/a	0	0	-5.416667e-02
138.037800	1.350114	dec_social_reject_low	1.350114	16.000000	n/a	1	-1.666667e-01	-2.291667e-01
147.287220	1.517177	dec_social_choice	1.517177	16.000000	n/a	0	0	-2.291667e-01
147.287220	1.517177	dec_choice	1.517177	16.000000	n/a	0	0	-2.291667e-01
147.287220	1.517177	dec_social_reject	1.517177	16.000000	n/a	0	0	1.325431e-01
147.287220	1.517177	dec_reject	1.517177	16.000000	n/a	0	0	1.333333e-01
147.287220	1.517177	dec_social_reject_low	1.517177	16.000000	n/a	4	2.083333e-02	-2.291667e-01
154.120480	1.500693	dec_nonsocial_choice	1.500693	32.000000	n/a	0	0	-2.291667e-01
154.120480	1.500693	dec_choice	1.500693	32.000000	n/a	0	0	-2.291667e-01
154.120480	1.500693	dec_nonsocial_reject	1.500693	32.000000	n/a	0	0	-5.495690e-02
154.120480	1.500693	dec_reject	1.500693	32.000000	n/a	0	0	-5.580357e-02
154.120480	1.500693	dec_nonsocial_low	1.500693	32.000000	n/a	0	-2.291667e-01	-2.291667e-01
154.120480	1.500693	dec_nonsocial_reject_low	1.500693	32.000000	n/a	2	-5.580357e-02	-1.183036e-01
166.604200	1.667162	dec_nonsocial_choice	1.667162	16.000000	n/a	0	0	-2.291667e-01
166.604200	1.667162	dec_choice	1.667162	16.000000	n/a	0	0	-2.291667e-01
166.604200	1.667162	dec_nonsocial_reject	1.667162	16.000000	n/a	0	0	1.325431e-01
166.604200	1.667162	dec_reject	1.667162	16.000000	n/a	0	0	1.316964e-01
166.604200	1.667162	dec_nonsocial_reject_low	1.667162	16.000000	n/a	4	1.333333e-01	-1.166667e-01
173.437670	1.800157	dec_nonsocial_choice	1.800157	16.000000	n/a	0	0	-2.291667e-01
173.437670	1.800157	dec_choice	1.800157	16.000000	n/a	0	0	-2.291667e-01
173.437670	1.800157	dec_nonsocial_reject	1.800157	16.000000	n/a	0	0	7.543103e-03
173.437670	1.800157	dec_reject	1.800157	16.000000	n/a	0	0	6.696429e-03
173.437670	1.800157	dec_nonsocial_low	1.800157	16.000000	n/a	0	-2.291667e-01	-2.291667e-01
173.437670	1.800157	dec_nonsocial_reject_low	1.800157	16.000000	n/a	2	6.696429e-03	-1.183036e-01
180.272260	1.199158	dec_nonsocial_choice	1.199158	16.000000	n/a	0	0	-2.291667e-01
180.272260	1.199158	dec_choice	1.199158	16.000000	n/a	0	0	-2.291667e-01
180.272260	1.199158	dec_nonsocial_reject	1.199158	16.000000	n/a	0	0	-5.495690e-02
180.272260	1.199158	dec_reject	1.199158	16.000000	n/a	0	0	-5.580357e-02
180.272260	1.199158	dec_nonsocial_low	1.199158	16.000000	n/a	0	-2.291667e-01	-2.291667e-01
180.272260	1.199158	dec_nonsocial_reject_low	1.199158	16.000000	n/a	1	-5.580357e-02	-1.183036e-01
187.104970	1.865877	dec_nonsocial_choice	1.865877	16.000000	n/a	8	2.708333e-01	2.708333e-01
187.104970	1.865877	dec_choice	1.865877	16.000000	n/a	8	2.708333e-01	2.708333e-01
187.104970	1.865877	dec_nonsocial_accept	1.865877	16.000000	n/a	8	1.003289e-01	1.003289e-01
187.104970	1.865877	dec_accept	1.865877	16.000000	n/a	8	1.156250e-01	1.156250e-01
187.104970	1.865877	dec_nonsocial_high	1.865877	16.000000	n/a	8	2.708333e-01	2.708333e-01
187.104970	1.865877	dec_nonsocial_accept_high	1.865877	16.000000	n/a	8	1.156250e-01	1.156250e-01
193.938100	1.399526	dec_social_choice	1.399526	16.000000	n/a	0	0	-2.291667e-01
193.938100	1.399526	dec_choice	1.399526	16.000000	n/a	0	0	-2.291667e-01
193.938100	1.399526	dec_social_reject	1.399526	16.000000	n/a	0	0	-5.495690e-02
193.938100	1.399526	dec_reject	1.399526	16.000000	n/a	0	0	-5.416667e-02
193.938100	1.399526	dec_social_reject_low	1.399526	16.000000	n/a	1	-1.666667e-01	-2.291667e-01
200.770970	1.650328	dec_social_choice	1.650328	32.000000	n/a	8	2.083333e-02	2.083333e-02
200.770970	1.650328	dec_choice	1.650328	32.000000	n/a	8	2.083333e-02	2.083333e-02
200.770970	1.650328	dec_social_accept	1.650328	32.000000	n/a	8	-1.496711e-01	-1.496711e-01
200.770970	1.650328	dec_accept	1.650328	32.000000	n/a	8	-1.666667e-01	-1.666667e-01
200.770970	1.650328	dec_social_accept_high	1.650328	32.000000	n/a	8	2.083333e-02	2.083333e-02
211.637250	1.283997	dec_social_choice	1.283997	16.000000	n/a	0	0	-2.291667e-01
211.637250	1.283997	dec_choice	1.283997	16.000000	n/a	0	0	-2.291667e-01
211.637250	1.283997	dec_social_reject	1.283997	16.000000	n/a	0	0	1.325431e-01
211.637250	1.283997	dec_reject	1.283997	16.000000	n/a	0	0	1.333333e-01
211.637250	1.283997	dec_social_reject_low	1.283997	16.000000	n/a	4	2.083333e-02	-2.291667e-01
218.472300	1.182449	dec_nonsocial_choice	1.182449	32.000000	n/a	0	0	-2.291667e-01
218.472300	1.182449	dec_choice	1.182449	32.000000	n/a	0	0	-2.291667e-01
218.472300	1.182449	dec_nonsocial_reject	1.182449	32.000000	n/a	0	0	-2.370690e-02
218.472300	1.182449	dec_reject	1.182449	32.000000	n/a	0	0	-2.455357e-02
218.472300	1.182449	dec_nonsocial_low	1.182449	32.000000	n/a	0	-2.291667e-01	-2.291667e-01
218.472300	1.182449	dec_nonsocial_reject_low	1.182449	32.000000	n/a	3	-2.455357e-02	-1.183036e-01
227.720920	1.166326	dec_social_choice	1.166326	32.000000	n/a	0	0	-2.291667e-01
227.720920	1.166326	dec_choice	1.166326	32.000000	n/a	0	0	-2.291667e-01
227.720920	1.166326	dec_social_reject	1.166326	32.000000	n/a	0	0	-5.495690e-02
227.720920	1.166326	dec_reject	1.166326	32.000000	n/a	0	0	-5.416667e-02
227.720920	1.166326	dec_social_low	1.166326	32.000000	n/a	0	-2.291667e-01	-2.291667e-01
227.720920	1.166326	dec_social_reject_low	1.166326	32.000000	n/a	2	-1.666667e-01	-2.291667e-01
235.370360	1.450774	dec_nonsocial_choice	1.450774	16.000000	n/a	0	0	-2.291667e-01
235.370360	1.450774	dec_choice	1.450774	16.000000	n/a	0	0	-2.291667e-01
235.370360	1.450774	dec_nonsocial_reject	1.450774	16.000000	n/a	0	0	1.325431e-01
235.370360	1.450774	dec_reject	1.450774	16.000000	n/a	0	0	1.316964e-01
235.370360	1.450774	dec_nonsocial_reject_low	1.450774	16.000000	n/a	4	1.333333e-01	-1.166667e-01
242.204000	2.066397	dec_nonsocial_choice	2.066397	16.000000	n/a	4	2.083333e-02	2.083333e-02
242.204000	2.066397	dec_choice	2.066397	16.000000	n/a	4	2.083333e-02	2.083333e-02
242.204000	2.066397	dec_nonsocial_accept	2.066397	16.000000	n/a	4	-1.496711e-01	-1.496711e-01
242.204000	2.066397	dec_accept	2.066397	16.000000	n/a	4	-1.343750e-01	-1.343750e-01
242.204000	2.066397	dec_nonsocial_accept_high	2.066397	16.000000	n/a	4	-1.666667e-01	-1.666667e-01
253.071150	2.066129	dec_social_choice	2.066129	16.000000	n/a	0	0	-2.291667e-01
253.071150	2.066129	dec_choice	2.066129	16.000000	n/a	0	0	-2.291667e-01
253.071150	2.066129	dec_social_reject	2.066129	16.000000	n/a	0	0	1.325431e-01
253.071150	2.066129	dec_reject	2.066129	16.000000	n/a	0	0	1.333333e-01
253.071150	2.066129	dec_social_low	2.066129	16.000000	n/a	0	-2.291667e-01	-2.291667e-01
253.071150	2.066129	dec_social_reject_low	2.066129	16.000000	n/a	4	2.083333e-02	-2.291667e-01
259.904270	1.366457	dec_social_choice	1.366457	32.000000	n/a	16	2.708333e-01	2.708333e-01
259.904270	1.366457	dec_choice	1.366457	32.000000	n/a	16	2.708333e-01	2.708333e-01
259.904270	1.366457	dec_social_accept	1.366457	32.000000	n/a	16	1.003289e-01	1.003289e-01
259.904270	1.366457	dec_accept	1.366457	32.000000	n/a	16	8.333333e-02	8.333333e-02
259.904270	1.366457	dec_social_accept_high	1.366457	32.000000	n/a	16	2.708333e-01	2.708333e-01
266.737800	1.549977	dec_social_choice	1.549977	16.000000	n/a	8	2.708333e-01	2.708333e-01
266.737800	1.549977	dec_choice	1.549977	16.000000	n/a	8	2.708333e-01	2.708333e-01
266.737800	1.549977	dec_social_accept	1.549977	16.000000	n/a	8	1.003289e-01	1.003289e-01
266.737800	1.549977	dec_accept	1.549977	16.000000	n/a	8	8.333333e-02	8.333333e-02
266.737800	1.549977	dec_social_high	1.549977	16.000000	n/a	8	2.708333e-01	2.708333e-01
266.737800	1.549977	dec_social_accept_high	1.549977	16.000000	n/a	8	2.708333e-01	2.708333e-01
277.603880	1.283852	dec_nonsocial_choice	1.283852	32.000000	n/a	16	2.708333e-01	2.708333e-01
277.603880	1.283852	dec_choice	1.283852	32.000000	n/a	16	2.708333e-01	2.708333e-01
277.603880	1.283852	dec_nonsocial_accept	1.283852	32.000000	n/a	16	1.003289e-01	1.003289e-01
277.603880	1.283852	dec_accept	1.283852	32.000000	n/a	16	1.156250e-01	1.156250e-01
277.603880	1.283852	dec_nonsocial_high	1.283852	32.000000	n/a	16	2.708333e-01	2.708333e-01
277.603880	1.283852	dec_nonsocial_accept_high	1.283852	32.000000	n/a	16	1.156250e-01	1.156250e-01
284.437160	1.183875	dec_nonsocial_choice	1.183875	16.000000	n/a	0	0	-2.291667e-01
284.437160	1.183875	dec_choice	1.183875	16.000000	n/a	0	0	-2.291667e-01
284.437160	1.183875	dec_nonsocial_reject	1.183875	16.000000	n/a	0	0	-5.495690e-02
284.437160	1.183875	dec_reject	1.183875	16.000000	n/a	0	0	-5.580357e-02
284.437160	1.183875	dec_nonsocial_low	1.183875	16.000000	n/a	0	-2.291667e-01	-2.291667e-01
284.437160	1.183875	dec_nonsocial_reject_low	1.183875	16.000000	n/a	1	-5.580357e-02	-1.183036e-01
291.270230	1.434173	dec_nonsocial_choice	1.434173	32.000000	n/a	8	2.083333e-02	2.083333e-02
291.270230	1.434173	dec_choice	1.434173	32.000000	n/a	8	2.083333e-02	2.083333e-02
291.270230	1.434173	dec_nonsocial_accept	1.434173	32.000000	n/a	8	-1.496711e-01	-1.496711e-01
291.270230	1.434173	dec_accept	1.434173	32.000000	n/a	8	-1.343750e-01	-1.343750e-01
291.270230	1.434173	dec_nonsocial_high	1.434173	32.000000	n/a	8	2.083333e-02	2.083333e-02
291.270230	1.434173	dec_nonsocial_accept_high	1.434173	32.000000	n/a	8	-1.343750e-01	-1.343750e-01
298.904400	1.000420	dec_social_choice	1.000420	32.000000	n/a	0	0	-2.291667e-01
298.904400	1.000420	dec_choice	1.000420	32.000000	n/a	0	0	-2.291667e-01
298.904400	1.000420	dec_social_reject	1.000420	32.000000	n/a	0	0	-5.495690e-02
298.904400	1.000420	dec_reject	1.000420	32.000000	n/a	0	0	-5.416667e-02
298.904400	1.000420	dec_social_reject_low	1.000420	32.000000	n/a	2	-1.666667e-01	-2.291667e-01
308.154330	1.183836	dec_nonsocial_choice	1.183836	32.000000	n/a	8	2.083333e-02	2.083333e-02
308.154330	1.183836	dec_choice	1.183836	32.000000	n/a	8	2.083333e-02	2.083333e-02
308.154330	1.183836	dec_nonsocial_accept	1.183836	32.000000	n/a	8	-1.496711e-01	-1.496711e-01
308.154330	1.183836	dec_accept	1.183836	32.000000	n/a	8	-1.343750e-01	-1.343750e-01
308.154330	1.183836	dec_nonsocial_high	1.183836	32.000000	n/a	8	2.083333e-02	2.083333e-02
308.154330	1.183836	dec_nonsocial_accept_high	1.183836	32.000000	n/a	8	-1.343750e-01	-1.343750e-01
315.804100	1.116474	dec_nonsocial_choice	1.116474	16.000000	n/a	0	0	-2.291667e-01
315.804100	1.116474	dec_choice	1.116474	16.000000	n/a	0	0	-2.291667e-01
315.804100	1.116474	dec_nonsocial_reject	1.116474	16.000000	n/a	0	0	-5.495690e-02
315.804100	1.116474	dec_reject	1.116474	16.000000	n/a	0	0	-5.580357e-02
315.804100	1.116474	dec_nonsocial_reject_low	1.116474	16.000000	n/a	1	-5.416667e-02	-1.166667e-01
323.454740	0.765810	dec_nonsocial_choice	0.765810	16.000000	n/a	0	0	-2.291667e-01
323.454740	0.765810	dec_choice	0.765810	16.000000	n/a	0	0	-2.291667e-01
323.454740	0.765810	dec_nonsocial_reject	0.765810	16.000000	n/a	0	0	-5.495690e-02
323.454740	0.765810	dec_reject	0.765810	16.000000	n/a	0	0	-5.580357e-02
323.454740	0.765810	dec_nonsocial_reject_low	0.765810	16.000000	n/a	1	-5.416667e-02	-1.166667e-01
330.287630	1.366241	dec_social_choice	1.366241	16.000000	n/a	8	2.708333e-01	2.708333e-01
330.287630	1.366241	dec_choice	1.366241	16.000000	n/a	8	2.708333e-01	2.708333e-01
330.287630	1.366241	dec_social_accept	1.366241	16.000000	n/a	8	1.003289e-01	1.003289e-01
330.287630	1.366241	dec_accept	1.366241	16.000000	n/a	8	8.333333e-02	8.333333e-02
330.287630	1.366241	dec_social_accept_high	1.366241	16.000000	n/a	8	2.708333e-01	2.708333e-01
337.937300	1.450664	dec_social_choice	1.450664	32.000000	n/a	8	2.083333e-02	2.083333e-02
337.937300	1.450664	dec_choice	1.450664	32.000000	n/a	8	2.083333e-02	2.083333e-02
337.937300	1.450664	dec_social_accept	1.450664	32.000000	n/a	8	-1.496711e-01	-1.496711e-01
337.937300	1.450664	dec_accept	1.450664	32.000000	n/a	8	-1.666667e-01	-1.666667e-01
337.937300	1.450664	dec_social_accept_high	1.450664	32.000000	n/a	8	2.083333e-02	2.083333e-02
344.770800	1.116477	dec_nonsocial_choice	1.116477	16.000000	n/a	0	0	-2.291667e-01
344.770800	1.116477	dec_choice	1.116477	16.000000	n/a	0	0	-2.291667e-01
344.770800	1.116477	dec_nonsocial_reject	1.116477	16.000000	n/a	0	0	-5.495690e-02
344.770800	1.116477	dec_reject	1.116477	16.000000	n/a	0	0	-5.580357e-02
344.770800	1.116477	dec_nonsocial_low	1.116477	16.000000	n/a	0	-2.291667e-01	-2.291667e-01
344.770800	1.116477	dec_nonsocial_reject_low	1.116477	16.000000	n/a	1	-5.580357e-02	-1.183036e-01
351.603970	1.083637	dec_nonsocial_choice	1.083637	32.000000	n/a	0	0	-2.291667e-01
351.603970	1.083637	dec_choice	1.083637	32.000000	n/a	0	0	-2.291667e-01
351.603970	1.083637	dec_nonsocial_reject	1.083637	32.000000	n/a	0	0	-2.370690e-02
351.603970	1.083637	dec_reject	1.083637	32.000000	n/a	0	0	-2.455357e-02
351.603970	1.083637	dec_nonsocial_low	1.083637	32.000000	n/a	0	-2.291667e-01	-2.291667e-01
351.603970	1.083637	dec_nonsocial_reject_low	1.083637	32.000000	n/a	3	-2.455357e-02	-1.183036e-01
358.436980	1.850384	dec_nonsocial_choice	1.850384	32.000000	n/a	16	2.708333e-01	2.708333e-01
358.436980	1.850384	dec_choice	1.850384	32.000000	n/a	16	2.708333e-01	2.708333e-01
358.436980	1.850384	dec_nonsocial_accept	1.850384	32.000000	n/a	16	1.003289e-01	1.003289e-01
358.436980	1.850384	dec_accept	1.850384	32.000000	n/a	16	1.156250e-01	1.156250e-01
358.436980	1.850384	dec_nonsocial_high	1.850384	32.000000	n/a	16	2.708333e-01	2.708333e-01
358.436980	1.850384	dec_nonsocial_accept_high	1.850384	32.000000	n/a	16	1.156250e-01	1.156250e-01
366.086850	1.217423	dec_social_choice	1.217423	32.000000	n/a	0	0	-2.291667e-01
366.086850	1.217423	dec_choice	1.217423	32.000000	n/a	0	0	-2.291667e-01
366.086850	1.217423	dec_social_reject	1.217423	32.000000	n/a	0	0	-2.370690e-02
366.086850	1.217423	dec_reject	1.217423	32.000000	n/a	0	0	-2.291667e-02
366.086850	1.217423	dec_social_low	1.217423	32.000000	n/a	0	-2.291667e-01	-2.291667e-01
366.086850	1.217423	dec_social_reject_low	1.217423	32.000000	n/a	3	-1.354167e-01	-2.291667e-01
372.920500	1.916977	dec_nonsocial_choice	1.916977	16.000000	n/a	0	0	-2.291667e-01
372.920500	1.916977	dec_choice	1.916977	16.000000	n/a	0	0	-2.291667e-01
372.920500	1.916977	dec_nonsocial_reject	1.916977	16.000000	n/a	0	0	1.325431e-01
372.920500	1.916977	dec_reject	1.916977	16.000000	n/a	0	0	1.316964e-01
372.920500	1.916977	dec_nonsocial_reject_low	1.916977	16.000000	n/a	4	1.333333e-01	-1.166667e-01
