onset	duration	trial_type	response_time	Endowment	Endowment_pmod	Decision	Decision_pmod	Offer_pmod
4.568283	2	cue_social	n/a	32	9	n/a	n/a	n/a
4.568283	2	cue_social_high	n/a	32	5	n/a	n/a	n/a
15.380705	2	cue_nonsocial	n/a	32	5	n/a	n/a	n/a
15.380705	2	cue_nonsocial_high	n/a	32	9	n/a	n/a	n/a
24.647268	2	cue_nonsocial	n/a	32	5	n/a	n/a	n/a
24.647268	2	cue_nonsocial_high	n/a	32	9	n/a	n/a	n/a
33.914005	2	cue_nonsocial	n/a	32	5	n/a	n/a	n/a
33.914005	2	cue_nonsocial_high	n/a	32	9	n/a	n/a	n/a
43.223297	2	cue_social	n/a	32	9	n/a	n/a	n/a
43.223297	2	cue_social_high	n/a	32	5	n/a	n/a	n/a
49.997430	2	cue_nonsocial	n/a	32	5	n/a	n/a	n/a
49.997430	2	cue_nonsocial_high	n/a	32	9	n/a	n/a	n/a
59.247124	2	cue_nonsocial	n/a	16	-11	n/a	n/a	n/a
59.247124	2	cue_nonsocial_low	n/a	16	-7	n/a	n/a	n/a
66.080670	2	cue_nonsocial	n/a	16	-11	n/a	n/a	n/a
66.080670	2	cue_nonsocial_low	n/a	16	-7	n/a	n/a	n/a
78.564026	2	cue_nonsocial	n/a	16	-11	n/a	n/a	n/a
78.564026	2	cue_nonsocial_low	n/a	16	-7	n/a	n/a	n/a
85.481070	2	cue_social	n/a	32	9	n/a	n/a	n/a
85.481070	2	cue_social_high	n/a	32	5	n/a	n/a	n/a
93.047050	2	cue_nonsocial	n/a	32	5	n/a	n/a	n/a
93.047050	2	cue_nonsocial_high	n/a	32	9	n/a	n/a	n/a
99.946850	2	cue_social	n/a	16	-7	n/a	n/a	n/a
99.946850	2	cue_social_low	n/a	16	-11	n/a	n/a	n/a
106.713790	2	cue_nonsocial	n/a	32	5	n/a	n/a	n/a
106.713790	2	cue_nonsocial_high	n/a	32	9	n/a	n/a	n/a
113.627910	2	cue_social	n/a	32	9	n/a	n/a	n/a
113.627910	2	cue_social_high	n/a	32	5	n/a	n/a	n/a
121.196915	2	cue_nonsocial	n/a	32	5	n/a	n/a	n/a
121.196915	2	cue_nonsocial_high	n/a	32	9	n/a	n/a	n/a
128.094180	2	cue_social	n/a	16	-7	n/a	n/a	n/a
128.094180	2	cue_social_low	n/a	16	-11	n/a	n/a	n/a
135.663710	2	cue_nonsocial	n/a	32	5	n/a	n/a	n/a
135.663710	2	cue_nonsocial_high	n/a	32	9	n/a	n/a	n/a
143.313670	2	cue_nonsocial	n/a	32	5	n/a	n/a	n/a
143.313670	2	cue_nonsocial_high	n/a	32	9	n/a	n/a	n/a
150.147130	2	cue_nonsocial	n/a	16	-11	n/a	n/a	n/a
150.147130	2	cue_nonsocial_low	n/a	16	-7	n/a	n/a	n/a
157.898880	2	cue_social	n/a	16	-7	n/a	n/a	n/a
157.898880	2	cue_social_low	n/a	16	-11	n/a	n/a	n/a
165.515150	2	cue_social	n/a	16	-7	n/a	n/a	n/a
165.515150	2	cue_social_low	n/a	16	-11	n/a	n/a	n/a
172.350500	2	cue_social	n/a	16	-7	n/a	n/a	n/a
172.350500	2	cue_social_low	n/a	16	-11	n/a	n/a	n/a
179.113720	2	cue_nonsocial	n/a	16	-11	n/a	n/a	n/a
179.113720	2	cue_nonsocial_low	n/a	16	-7	n/a	n/a	n/a
186.009770	2	cue_social	n/a	32	9	n/a	n/a	n/a
186.009770	2	cue_social_high	n/a	32	5	n/a	n/a	n/a
192.843050	2	cue_social	n/a	16	-7	n/a	n/a	n/a
192.843050	2	cue_social_low	n/a	16	-11	n/a	n/a	n/a
200.525450	2	cue_social	n/a	16	-7	n/a	n/a	n/a
200.525450	2	cue_social_low	n/a	16	-11	n/a	n/a	n/a
211.374650	2	cue_social	n/a	32	9	n/a	n/a	n/a
211.374650	2	cue_social_high	n/a	32	5	n/a	n/a	n/a
218.130130	2	cue_nonsocial	n/a	32	5	n/a	n/a	n/a
218.130130	2	cue_nonsocial_high	n/a	32	9	n/a	n/a	n/a
227.380200	2	cue_nonsocial	n/a	32	5	n/a	n/a	n/a
227.380200	2	cue_nonsocial_high	n/a	32	9	n/a	n/a	n/a
238.310970	2	cue_social	n/a	32	9	n/a	n/a	n/a
238.310970	2	cue_social_high	n/a	32	5	n/a	n/a	n/a
247.583000	2	cue_social	n/a	32	9	n/a	n/a	n/a
247.583000	2	cue_social_high	n/a	32	5	n/a	n/a	n/a
254.346570	2	cue_nonsocial	n/a	32	5	n/a	n/a	n/a
254.346570	2	cue_nonsocial_high	n/a	32	9	n/a	n/a	n/a
261.179660	2	cue_nonsocial	n/a	16	-11	n/a	n/a	n/a
261.179660	2	cue_nonsocial_low	n/a	16	-7	n/a	n/a	n/a
268.884670	2	cue_social	n/a	16	-7	n/a	n/a	n/a
268.884670	2	cue_social_low	n/a	16	-11	n/a	n/a	n/a
276.587400	2	cue_social	n/a	16	-7	n/a	n/a	n/a
276.587400	2	cue_social_low	n/a	16	-11	n/a	n/a	n/a
284.129820	2	cue_nonsocial	n/a	32	5	n/a	n/a	n/a
284.129820	2	cue_nonsocial_high	n/a	32	9	n/a	n/a	n/a
291.035430	2	cue_social	n/a	32	9	n/a	n/a	n/a
291.035430	2	cue_social_high	n/a	32	5	n/a	n/a	n/a
297.796720	2	cue_nonsocial	n/a	16	-11	n/a	n/a	n/a
297.796720	2	cue_nonsocial_low	n/a	16	-7	n/a	n/a	n/a
305.495330	2	cue_social	n/a	16	-7	n/a	n/a	n/a
305.495330	2	cue_social_low	n/a	16	-11	n/a	n/a	n/a
312.263280	2	cue_nonsocial	n/a	32	5	n/a	n/a	n/a
312.263280	2	cue_nonsocial_high	n/a	32	9	n/a	n/a	n/a
319.154850	2	cue_social	n/a	32	9	n/a	n/a	n/a
319.154850	2	cue_social_high	n/a	32	5	n/a	n/a	n/a
326.746730	2	cue_nonsocial	n/a	32	5	n/a	n/a	n/a
326.746730	2	cue_nonsocial_high	n/a	32	9	n/a	n/a	n/a
333.633420	2	cue_social	n/a	16	-7	n/a	n/a	n/a
333.633420	2	cue_social_low	n/a	16	-11	n/a	n/a	n/a
340.413330	2	cue_nonsocial	n/a	16	-11	n/a	n/a	n/a
340.413330	2	cue_nonsocial_low	n/a	16	-7	n/a	n/a	n/a
347.302370	2	cue_social	n/a	16	-7	n/a	n/a	n/a
347.302370	2	cue_social_low	n/a	16	-11	n/a	n/a	n/a
354.960100	2	cue_social	n/a	32	9	n/a	n/a	n/a
354.960100	2	cue_social_high	n/a	32	5	n/a	n/a	n/a
361.729830	2	cue_nonsocial	n/a	32	5	n/a	n/a	n/a
361.729830	2	cue_nonsocial_high	n/a	32	9	n/a	n/a	n/a
371.047600	2	cue_social	n/a	16	-7	n/a	n/a	n/a
371.047600	2	cue_social_low	n/a	16	-11	n/a	n/a	n/a
6.520134	0.566531	dec_social_choice	0.566531	32.000000	n/a	16	2.695312e-01	2.695312e-01
6.520134	0.566531	dec_choice	0.566531	32.000000	n/a	16	2.695312e-01	2.695312e-01
6.520134	0.566531	dec_social_accept	0.566531	32.000000	n/a	16	2.695312e-01	2.695312e-01
6.520134	0.566531	dec_accept	0.566531	32.000000	n/a	16	2.695312e-01	2.695312e-01
6.520134	0.566531	dec_social_accept_high	0.566531	32.000000	n/a	16	2.695312e-01	2.695312e-01
17.387405	0.915640	dec_nonsocial_choice	0.915640	32.000000	n/a	2	-1.679688e-01	-1.679688e-01
17.387405	0.915640	dec_choice	0.915640	32.000000	n/a	2	-1.679688e-01	-1.679688e-01
17.387405	0.915640	dec_nonsocial_accept	0.915640	32.000000	n/a	2	-1.679688e-01	-1.679688e-01
17.387405	0.915640	dec_accept	0.915640	32.000000	n/a	2	-1.679688e-01	-1.679688e-01
17.387405	0.915640	dec_nonsocial_low	0.915640	32.000000	n/a	2	-1.679688e-01	-1.679688e-01
17.387405	0.915640	dec_nonsocial_accept_low	0.915640	32.000000	n/a	2	-1.679688e-01	-1.679688e-01
26.654825	0.632459	dec_nonsocial_choice	0.632459	32.000000	n/a	2	-1.679688e-01	-1.679688e-01
26.654825	0.632459	dec_choice	0.632459	32.000000	n/a	2	-1.679688e-01	-1.679688e-01
26.654825	0.632459	dec_nonsocial_accept	0.632459	32.000000	n/a	2	-1.679688e-01	-1.679688e-01
26.654825	0.632459	dec_accept	0.632459	32.000000	n/a	2	-1.679688e-01	-1.679688e-01
26.654825	0.632459	dec_nonsocial_accept_low	0.632459	32.000000	n/a	2	-1.679688e-01	-1.679688e-01
35.920143	0.666480	dec_nonsocial_choice	0.666480	32.000000	n/a	3	-1.367188e-01	-1.367188e-01
35.920143	0.666480	dec_choice	0.666480	32.000000	n/a	3	-1.367188e-01	-1.367188e-01
35.920143	0.666480	dec_nonsocial_accept	0.666480	32.000000	n/a	3	-1.367188e-01	-1.367188e-01
35.920143	0.666480	dec_accept	0.666480	32.000000	n/a	3	-1.367188e-01	-1.367188e-01
35.920143	0.666480	dec_nonsocial_accept_low	0.666480	32.000000	n/a	3	-1.367188e-01	-1.367188e-01
45.170757	0.499669	dec_social_choice	0.499669	32.000000	n/a	3	-1.367188e-01	-1.367188e-01
45.170757	0.499669	dec_choice	0.499669	32.000000	n/a	3	-1.367188e-01	-1.367188e-01
45.170757	0.499669	dec_social_accept	0.499669	32.000000	n/a	3	-1.367188e-01	-1.367188e-01
45.170757	0.499669	dec_accept	0.499669	32.000000	n/a	3	-1.367188e-01	-1.367188e-01
45.170757	0.499669	dec_social_accept_low	0.499669	32.000000	n/a	3	-1.367188e-01	-1.367188e-01
52.004044	0.466145	dec_nonsocial_choice	0.466145	32.000000	n/a	8	1.953125e-02	1.953125e-02
52.004044	0.466145	dec_choice	0.466145	32.000000	n/a	8	1.953125e-02	1.953125e-02
52.004044	0.466145	dec_nonsocial_accept	0.466145	32.000000	n/a	8	1.953125e-02	1.953125e-02
52.004044	0.466145	dec_accept	0.466145	32.000000	n/a	8	1.953125e-02	1.953125e-02
52.004044	0.466145	dec_nonsocial_accept_high	0.466145	32.000000	n/a	8	1.953125e-02	1.953125e-02
61.253895	0.515991	dec_nonsocial_choice	0.515991	16.000000	n/a	2	-1.054688e-01	-1.054688e-01
61.253895	0.515991	dec_choice	0.515991	16.000000	n/a	2	-1.054688e-01	-1.054688e-01
61.253895	0.515991	dec_nonsocial_accept	0.515991	16.000000	n/a	2	-1.054688e-01	-1.054688e-01
61.253895	0.515991	dec_accept	0.515991	16.000000	n/a	2	-1.054688e-01	-1.054688e-01
61.253895	0.515991	dec_nonsocial_low	0.515991	16.000000	n/a	2	-1.054688e-01	-1.054688e-01
61.253895	0.515991	dec_nonsocial_accept_low	0.515991	16.000000	n/a	2	-1.054688e-01	-1.054688e-01
68.086815	0.499954	dec_nonsocial_choice	0.499954	16.000000	n/a	2	-1.054688e-01	-1.054688e-01
68.086815	0.499954	dec_choice	0.499954	16.000000	n/a	2	-1.054688e-01	-1.054688e-01
68.086815	0.499954	dec_nonsocial_accept	0.499954	16.000000	n/a	2	-1.054688e-01	-1.054688e-01
68.086815	0.499954	dec_accept	0.499954	16.000000	n/a	2	-1.054688e-01	-1.054688e-01
68.086815	0.499954	dec_nonsocial_accept_low	0.499954	16.000000	n/a	2	-1.054688e-01	-1.054688e-01
80.570656	0.633022	dec_nonsocial_choice	0.633022	16.000000	n/a	1	-1.679688e-01	-1.679688e-01
80.570656	0.633022	dec_choice	0.633022	16.000000	n/a	1	-1.679688e-01	-1.679688e-01
80.570656	0.633022	dec_nonsocial_accept	0.633022	16.000000	n/a	1	-1.679688e-01	-1.679688e-01
80.570656	0.633022	dec_accept	0.633022	16.000000	n/a	1	-1.679688e-01	-1.679688e-01
80.570656	0.633022	dec_nonsocial_accept_low	0.633022	16.000000	n/a	1	-1.679688e-01	-1.679688e-01
87.403786	0.600067	dec_social_choice	0.600067	32.000000	n/a	3	-1.367188e-01	-1.367188e-01
87.403786	0.600067	dec_choice	0.600067	32.000000	n/a	3	-1.367188e-01	-1.367188e-01
87.403786	0.600067	dec_social_accept	0.600067	32.000000	n/a	3	-1.367188e-01	-1.367188e-01
87.403786	0.600067	dec_accept	0.600067	32.000000	n/a	3	-1.367188e-01	-1.367188e-01
87.403786	0.600067	dec_social_accept_low	0.600067	32.000000	n/a	3	-1.367188e-01	-1.367188e-01
95.053800	0.533125	dec_nonsocial_choice	0.533125	32.000000	n/a	8	1.953125e-02	1.953125e-02
95.053800	0.533125	dec_choice	0.533125	32.000000	n/a	8	1.953125e-02	1.953125e-02
95.053800	0.533125	dec_nonsocial_accept	0.533125	32.000000	n/a	8	1.953125e-02	1.953125e-02
95.053800	0.533125	dec_accept	0.533125	32.000000	n/a	8	1.953125e-02	1.953125e-02
95.053800	0.533125	dec_nonsocial_high	0.533125	32.000000	n/a	8	1.953125e-02	1.953125e-02
95.053800	0.533125	dec_nonsocial_accept_high	0.533125	32.000000	n/a	8	1.953125e-02	1.953125e-02
101.887830	0.532128	dec_social_choice	0.532128	16.000000	n/a	4	1.953125e-02	1.953125e-02
101.887830	0.532128	dec_choice	0.532128	16.000000	n/a	4	1.953125e-02	1.953125e-02
101.887830	0.532128	dec_social_accept	0.532128	16.000000	n/a	4	1.953125e-02	1.953125e-02
101.887830	0.532128	dec_accept	0.532128	16.000000	n/a	4	1.953125e-02	1.953125e-02
101.887830	0.532128	dec_social_high	0.532128	16.000000	n/a	4	1.953125e-02	1.953125e-02
101.887830	0.532128	dec_social_accept_high	0.532128	16.000000	n/a	4	1.953125e-02	1.953125e-02
108.720330	0.549974	dec_nonsocial_choice	0.549974	32.000000	n/a	16	2.695312e-01	2.695312e-01
108.720330	0.549974	dec_choice	0.549974	32.000000	n/a	16	2.695312e-01	2.695312e-01
108.720330	0.549974	dec_nonsocial_accept	0.549974	32.000000	n/a	16	2.695312e-01	2.695312e-01
108.720330	0.549974	dec_accept	0.549974	32.000000	n/a	16	2.695312e-01	2.695312e-01
108.720330	0.549974	dec_nonsocial_accept_high	0.549974	32.000000	n/a	16	2.695312e-01	2.695312e-01
115.553000	0.583546	dec_social_choice	0.583546	32.000000	n/a	2	-1.679688e-01	-1.679688e-01
115.553000	0.583546	dec_choice	0.583546	32.000000	n/a	2	-1.679688e-01	-1.679688e-01
115.553000	0.583546	dec_social_accept	0.583546	32.000000	n/a	2	-1.679688e-01	-1.679688e-01
115.553000	0.583546	dec_accept	0.583546	32.000000	n/a	2	-1.679688e-01	-1.679688e-01
115.553000	0.583546	dec_social_accept_low	0.583546	32.000000	n/a	2	-1.679688e-01	-1.679688e-01
123.203140	0.450439	dec_nonsocial_choice	0.450439	32.000000	n/a	3	-1.367188e-01	-1.367188e-01
123.203140	0.450439	dec_choice	0.450439	32.000000	n/a	3	-1.367188e-01	-1.367188e-01
123.203140	0.450439	dec_nonsocial_accept	0.450439	32.000000	n/a	3	-1.367188e-01	-1.367188e-01
123.203140	0.450439	dec_accept	0.450439	32.000000	n/a	3	-1.367188e-01	-1.367188e-01
123.203140	0.450439	dec_nonsocial_accept_low	0.450439	32.000000	n/a	3	-1.367188e-01	-1.367188e-01
130.035930	0.484209	dec_social_choice	0.484209	16.000000	n/a	2	-1.054688e-01	-1.054688e-01
130.035930	0.484209	dec_choice	0.484209	16.000000	n/a	2	-1.054688e-01	-1.054688e-01
130.035930	0.484209	dec_social_accept	0.484209	16.000000	n/a	2	-1.054688e-01	-1.054688e-01
130.035930	0.484209	dec_accept	0.484209	16.000000	n/a	2	-1.054688e-01	-1.054688e-01
130.035930	0.484209	dec_social_low	0.484209	16.000000	n/a	2	-1.054688e-01	-1.054688e-01
130.035930	0.484209	dec_social_accept_low	0.484209	16.000000	n/a	2	-1.054688e-01	-1.054688e-01
137.669900	0.466434	dec_nonsocial_choice	0.466434	32.000000	n/a	16	2.695312e-01	2.695312e-01
137.669900	0.466434	dec_choice	0.466434	32.000000	n/a	16	2.695312e-01	2.695312e-01
137.669900	0.466434	dec_nonsocial_accept	0.466434	32.000000	n/a	16	2.695312e-01	2.695312e-01
137.669900	0.466434	dec_accept	0.466434	32.000000	n/a	16	2.695312e-01	2.695312e-01
137.669900	0.466434	dec_nonsocial_accept_high	0.466434	32.000000	n/a	16	2.695312e-01	2.695312e-01
145.319550	0.466786	dec_nonsocial_choice	0.466786	32.000000	n/a	2	-1.679688e-01	-1.679688e-01
145.319550	0.466786	dec_choice	0.466786	32.000000	n/a	2	-1.679688e-01	-1.679688e-01
145.319550	0.466786	dec_nonsocial_accept	0.466786	32.000000	n/a	2	-1.679688e-01	-1.679688e-01
145.319550	0.466786	dec_accept	0.466786	32.000000	n/a	2	-1.679688e-01	-1.679688e-01
145.319550	0.466786	dec_nonsocial_accept_low	0.466786	32.000000	n/a	2	-1.679688e-01	-1.679688e-01
152.153880	0.449460	dec_nonsocial_choice	0.449460	16.000000	n/a	1	-1.679688e-01	-1.679688e-01
152.153880	0.449460	dec_choice	0.449460	16.000000	n/a	1	-1.679688e-01	-1.679688e-01
152.153880	0.449460	dec_nonsocial_accept	0.449460	16.000000	n/a	1	-1.679688e-01	-1.679688e-01
152.153880	0.449460	dec_accept	0.449460	16.000000	n/a	1	-1.679688e-01	-1.679688e-01
152.153880	0.449460	dec_nonsocial_accept_low	0.449460	16.000000	n/a	1	-1.679688e-01	-1.679688e-01
159.802960	0.433768	dec_social_choice	0.433768	16.000000	n/a	1	-1.679688e-01	-1.679688e-01
159.802960	0.433768	dec_choice	0.433768	16.000000	n/a	1	-1.679688e-01	-1.679688e-01
159.802960	0.433768	dec_social_accept	0.433768	16.000000	n/a	1	-1.679688e-01	-1.679688e-01
159.802960	0.433768	dec_accept	0.433768	16.000000	n/a	1	-1.679688e-01	-1.679688e-01
159.802960	0.433768	dec_social_accept_low	0.433768	16.000000	n/a	1	-1.679688e-01	-1.679688e-01
167.453700	0.449572	dec_social_choice	0.449572	16.000000	n/a	8	2.695312e-01	2.695312e-01
167.453700	0.449572	dec_choice	0.449572	16.000000	n/a	8	2.695312e-01	2.695312e-01
167.453700	0.449572	dec_social_accept	0.449572	16.000000	n/a	8	2.695312e-01	2.695312e-01
167.453700	0.449572	dec_accept	0.449572	16.000000	n/a	8	2.695312e-01	2.695312e-01
167.453700	0.449572	dec_social_accept_high	0.449572	16.000000	n/a	8	2.695312e-01	2.695312e-01
174.285950	0.434213	dec_social_choice	0.434213	16.000000	n/a	1	-1.679688e-01	-1.679688e-01
174.285950	0.434213	dec_choice	0.434213	16.000000	n/a	1	-1.679688e-01	-1.679688e-01
174.285950	0.434213	dec_social_accept	0.434213	16.000000	n/a	1	-1.679688e-01	-1.679688e-01
174.285950	0.434213	dec_accept	0.434213	16.000000	n/a	1	-1.679688e-01	-1.679688e-01
174.285950	0.434213	dec_social_accept_low	0.434213	16.000000	n/a	1	-1.679688e-01	-1.679688e-01
181.120450	0.433029	dec_nonsocial_choice	0.433029	16.000000	n/a	2	-1.054688e-01	-1.054688e-01
181.120450	0.433029	dec_choice	0.433029	16.000000	n/a	2	-1.054688e-01	-1.054688e-01
181.120450	0.433029	dec_nonsocial_accept	0.433029	16.000000	n/a	2	-1.054688e-01	-1.054688e-01
181.120450	0.433029	dec_accept	0.433029	16.000000	n/a	2	-1.054688e-01	-1.054688e-01
181.120450	0.433029	dec_nonsocial_accept_low	0.433029	16.000000	n/a	2	-1.054688e-01	-1.054688e-01
187.953050	0.450728	dec_social_choice	0.450728	32.000000	n/a	16	2.695312e-01	2.695312e-01
187.953050	0.450728	dec_choice	0.450728	32.000000	n/a	16	2.695312e-01	2.695312e-01
187.953050	0.450728	dec_social_accept	0.450728	32.000000	n/a	16	2.695312e-01	2.695312e-01
187.953050	0.450728	dec_accept	0.450728	32.000000	n/a	16	2.695312e-01	2.695312e-01
187.953050	0.450728	dec_social_accept_high	0.450728	32.000000	n/a	16	2.695312e-01	2.695312e-01
194.786900	0.533052	dec_social_choice	0.533052	16.000000	n/a	4	1.953125e-02	1.953125e-02
194.786900	0.533052	dec_choice	0.533052	16.000000	n/a	4	1.953125e-02	1.953125e-02
194.786900	0.533052	dec_social_accept	0.533052	16.000000	n/a	4	1.953125e-02	1.953125e-02
194.786900	0.533052	dec_accept	0.533052	16.000000	n/a	4	1.953125e-02	1.953125e-02
194.786900	0.533052	dec_social_high	0.533052	16.000000	n/a	4	1.953125e-02	1.953125e-02
194.786900	0.533052	dec_social_accept_high	0.533052	16.000000	n/a	4	1.953125e-02	1.953125e-02
202.436170	0.516733	dec_social_choice	0.516733	16.000000	n/a	1	-1.679688e-01	-1.679688e-01
202.436170	0.516733	dec_choice	0.516733	16.000000	n/a	1	-1.679688e-01	-1.679688e-01
202.436170	0.516733	dec_social_accept	0.516733	16.000000	n/a	1	-1.679688e-01	-1.679688e-01
202.436170	0.516733	dec_accept	0.516733	16.000000	n/a	1	-1.679688e-01	-1.679688e-01
202.436170	0.516733	dec_social_accept_low	0.516733	16.000000	n/a	1	-1.679688e-01	-1.679688e-01
213.302630	0.451079	dec_social_choice	0.451079	32.000000	n/a	8	1.953125e-02	1.953125e-02
213.302630	0.451079	dec_choice	0.451079	32.000000	n/a	8	1.953125e-02	1.953125e-02
213.302630	0.451079	dec_social_accept	0.451079	32.000000	n/a	8	1.953125e-02	1.953125e-02
213.302630	0.451079	dec_accept	0.451079	32.000000	n/a	8	1.953125e-02	1.953125e-02
213.302630	0.451079	dec_social_accept_high	0.451079	32.000000	n/a	8	1.953125e-02	1.953125e-02
220.136810	0.600471	dec_nonsocial_choice	0.600471	32.000000	n/a	8	1.953125e-02	1.953125e-02
220.136810	0.600471	dec_choice	0.600471	32.000000	n/a	8	1.953125e-02	1.953125e-02
220.136810	0.600471	dec_nonsocial_accept	0.600471	32.000000	n/a	8	1.953125e-02	1.953125e-02
220.136810	0.600471	dec_accept	0.600471	32.000000	n/a	8	1.953125e-02	1.953125e-02
220.136810	0.600471	dec_nonsocial_high	0.600471	32.000000	n/a	8	1.953125e-02	1.953125e-02
220.136810	0.600471	dec_nonsocial_accept_high	0.600471	32.000000	n/a	8	1.953125e-02	1.953125e-02
229.385940	0.584094	dec_nonsocial_choice	0.584094	32.000000	n/a	8	1.953125e-02	1.953125e-02
229.385940	0.584094	dec_choice	0.584094	32.000000	n/a	8	1.953125e-02	1.953125e-02
229.385940	0.584094	dec_nonsocial_accept	0.584094	32.000000	n/a	8	1.953125e-02	1.953125e-02
229.385940	0.584094	dec_accept	0.584094	32.000000	n/a	8	1.953125e-02	1.953125e-02
229.385940	0.584094	dec_nonsocial_accept_high	0.584094	32.000000	n/a	8	1.953125e-02	1.953125e-02
240.253920	0.499353	dec_social_choice	0.499353	32.000000	n/a	2	-1.679688e-01	-1.679688e-01
240.253920	0.499353	dec_choice	0.499353	32.000000	n/a	2	-1.679688e-01	-1.679688e-01
240.253920	0.499353	dec_social_accept	0.499353	32.000000	n/a	2	-1.679688e-01	-1.679688e-01
240.253920	0.499353	dec_accept	0.499353	32.000000	n/a	2	-1.679688e-01	-1.679688e-01
240.253920	0.499353	dec_social_low	0.499353	32.000000	n/a	2	-1.679688e-01	-1.679688e-01
240.253920	0.499353	dec_social_accept_low	0.499353	32.000000	n/a	2	-1.679688e-01	-1.679688e-01
249.519100	0.500698	dec_social_choice	0.500698	32.000000	n/a	16	2.695312e-01	2.695312e-01
249.519100	0.500698	dec_choice	0.500698	32.000000	n/a	16	2.695312e-01	2.695312e-01
249.519100	0.500698	dec_social_accept	0.500698	32.000000	n/a	16	2.695312e-01	2.695312e-01
249.519100	0.500698	dec_accept	0.500698	32.000000	n/a	16	2.695312e-01	2.695312e-01
249.519100	0.500698	dec_social_high	0.500698	32.000000	n/a	16	2.695312e-01	2.695312e-01
249.519100	0.500698	dec_social_accept_high	0.500698	32.000000	n/a	16	2.695312e-01	2.695312e-01
256.353360	0.566082	dec_nonsocial_choice	0.566082	32.000000	n/a	3	-1.367188e-01	-1.367188e-01
256.353360	0.566082	dec_choice	0.566082	32.000000	n/a	3	-1.367188e-01	-1.367188e-01
256.353360	0.566082	dec_nonsocial_accept	0.566082	32.000000	n/a	3	-1.367188e-01	-1.367188e-01
256.353360	0.566082	dec_accept	0.566082	32.000000	n/a	3	-1.367188e-01	-1.367188e-01
256.353360	0.566082	dec_nonsocial_low	0.566082	32.000000	n/a	3	-1.367188e-01	-1.367188e-01
256.353360	0.566082	dec_nonsocial_accept_low	0.566082	32.000000	n/a	3	-1.367188e-01	-1.367188e-01
263.185820	0.500689	dec_nonsocial_choice	0.500689	16.000000	n/a	8	2.695312e-01	2.695312e-01
263.185820	0.500689	dec_choice	0.500689	16.000000	n/a	8	2.695312e-01	2.695312e-01
263.185820	0.500689	dec_nonsocial_accept	0.500689	16.000000	n/a	8	2.695312e-01	2.695312e-01
263.185820	0.500689	dec_accept	0.500689	16.000000	n/a	8	2.695312e-01	2.695312e-01
263.185820	0.500689	dec_nonsocial_high	0.500689	16.000000	n/a	8	2.695312e-01	2.695312e-01
263.185820	0.500689	dec_nonsocial_accept_high	0.500689	16.000000	n/a	8	2.695312e-01	2.695312e-01
270.836600	0.533031	dec_social_choice	0.533031	16.000000	n/a	8	2.695312e-01	2.695312e-01
270.836600	0.533031	dec_choice	0.533031	16.000000	n/a	8	2.695312e-01	2.695312e-01
270.836600	0.533031	dec_social_accept	0.533031	16.000000	n/a	8	2.695312e-01	2.695312e-01
270.836600	0.533031	dec_accept	0.533031	16.000000	n/a	8	2.695312e-01	2.695312e-01
270.836600	0.533031	dec_social_accept_high	0.533031	16.000000	n/a	8	2.695312e-01	2.695312e-01
278.487550	0.515071	dec_social_choice	0.515071	16.000000	n/a	2	-1.054688e-01	-1.054688e-01
278.487550	0.515071	dec_choice	0.515071	16.000000	n/a	2	-1.054688e-01	-1.054688e-01
278.487550	0.515071	dec_social_accept	0.515071	16.000000	n/a	2	-1.054688e-01	-1.054688e-01
278.487550	0.515071	dec_accept	0.515071	16.000000	n/a	2	-1.054688e-01	-1.054688e-01
278.487550	0.515071	dec_social_accept_low	0.515071	16.000000	n/a	2	-1.054688e-01	-1.054688e-01
286.136930	0.482725	dec_nonsocial_choice	0.482725	32.000000	n/a	16	2.695312e-01	2.695312e-01
286.136930	0.482725	dec_choice	0.482725	32.000000	n/a	16	2.695312e-01	2.695312e-01
286.136930	0.482725	dec_nonsocial_accept	0.482725	32.000000	n/a	16	2.695312e-01	2.695312e-01
286.136930	0.482725	dec_accept	0.482725	32.000000	n/a	16	2.695312e-01	2.695312e-01
286.136930	0.482725	dec_nonsocial_accept_high	0.482725	32.000000	n/a	16	2.695312e-01	2.695312e-01
292.968870	0.517497	dec_social_choice	0.517497	32.000000	n/a	3	-1.367188e-01	-1.367188e-01
292.968870	0.517497	dec_choice	0.517497	32.000000	n/a	3	-1.367188e-01	-1.367188e-01
292.968870	0.517497	dec_social_accept	0.517497	32.000000	n/a	3	-1.367188e-01	-1.367188e-01
292.968870	0.517497	dec_accept	0.517497	32.000000	n/a	3	-1.367188e-01	-1.367188e-01
292.968870	0.517497	dec_social_low	0.517497	32.000000	n/a	3	-1.367188e-01	-1.367188e-01
292.968870	0.517497	dec_social_accept_low	0.517497	32.000000	n/a	3	-1.367188e-01	-1.367188e-01
299.802340	0.534147	dec_nonsocial_choice	0.534147	16.000000	n/a	4	1.953125e-02	1.953125e-02
299.802340	0.534147	dec_choice	0.534147	16.000000	n/a	4	1.953125e-02	1.953125e-02
299.802340	0.534147	dec_nonsocial_accept	0.534147	16.000000	n/a	4	1.953125e-02	1.953125e-02
299.802340	0.534147	dec_accept	0.534147	16.000000	n/a	4	1.953125e-02	1.953125e-02
299.802340	0.534147	dec_nonsocial_high	0.534147	16.000000	n/a	4	1.953125e-02	1.953125e-02
299.802340	0.534147	dec_nonsocial_accept_high	0.534147	16.000000	n/a	4	1.953125e-02	1.953125e-02
307.437400	0.548979	dec_social_choice	0.548979	16.000000	n/a	2	-1.054688e-01	-1.054688e-01
307.437400	0.548979	dec_choice	0.548979	16.000000	n/a	2	-1.054688e-01	-1.054688e-01
307.437400	0.548979	dec_social_accept	0.548979	16.000000	n/a	2	-1.054688e-01	-1.054688e-01
307.437400	0.548979	dec_accept	0.548979	16.000000	n/a	2	-1.054688e-01	-1.054688e-01
307.437400	0.548979	dec_social_accept_low	0.548979	16.000000	n/a	2	-1.054688e-01	-1.054688e-01
314.269040	0.484016	dec_nonsocial_choice	0.484016	32.000000	n/a	16	2.695312e-01	2.695312e-01
314.269040	0.484016	dec_choice	0.484016	32.000000	n/a	16	2.695312e-01	2.695312e-01
314.269040	0.484016	dec_nonsocial_accept	0.484016	32.000000	n/a	16	2.695312e-01	2.695312e-01
314.269040	0.484016	dec_accept	0.484016	32.000000	n/a	16	2.695312e-01	2.695312e-01
314.269040	0.484016	dec_nonsocial_accept_high	0.484016	32.000000	n/a	16	2.695312e-01	2.695312e-01
321.103820	0.465325	dec_social_choice	0.465325	32.000000	n/a	8	1.953125e-02	1.953125e-02
321.103820	0.465325	dec_choice	0.465325	32.000000	n/a	8	1.953125e-02	1.953125e-02
321.103820	0.465325	dec_social_accept	0.465325	32.000000	n/a	8	1.953125e-02	1.953125e-02
321.103820	0.465325	dec_accept	0.465325	32.000000	n/a	8	1.953125e-02	1.953125e-02
321.103820	0.465325	dec_social_accept_high	0.465325	32.000000	n/a	8	1.953125e-02	1.953125e-02
328.752930	0.733377	dec_nonsocial_choice	0.733377	32.000000	n/a	2	-1.679688e-01	-1.679688e-01
328.752930	0.733377	dec_choice	0.733377	32.000000	n/a	2	-1.679688e-01	-1.679688e-01
328.752930	0.733377	dec_nonsocial_accept	0.733377	32.000000	n/a	2	-1.679688e-01	-1.679688e-01
328.752930	0.733377	dec_accept	0.733377	32.000000	n/a	2	-1.679688e-01	-1.679688e-01
328.752930	0.733377	dec_nonsocial_accept_low	0.733377	32.000000	n/a	2	-1.679688e-01	-1.679688e-01
335.586430	0.766102	dec_social_choice	0.766102	16.000000	n/a	8	2.695312e-01	2.695312e-01
335.586430	0.766102	dec_choice	0.766102	16.000000	n/a	8	2.695312e-01	2.695312e-01
335.586430	0.766102	dec_social_accept	0.766102	16.000000	n/a	8	2.695312e-01	2.695312e-01
335.586430	0.766102	dec_accept	0.766102	16.000000	n/a	8	2.695312e-01	2.695312e-01
335.586430	0.766102	dec_social_high	0.766102	16.000000	n/a	8	2.695312e-01	2.695312e-01
335.586430	0.766102	dec_social_accept_high	0.766102	16.000000	n/a	8	2.695312e-01	2.695312e-01
342.420170	0.565570	dec_nonsocial_choice	0.565570	16.000000	n/a	8	2.695312e-01	2.695312e-01
342.420170	0.565570	dec_choice	0.565570	16.000000	n/a	8	2.695312e-01	2.695312e-01
342.420170	0.565570	dec_nonsocial_accept	0.565570	16.000000	n/a	8	2.695312e-01	2.695312e-01
342.420170	0.565570	dec_accept	0.565570	16.000000	n/a	8	2.695312e-01	2.695312e-01
342.420170	0.565570	dec_nonsocial_accept_high	0.565570	16.000000	n/a	8	2.695312e-01	2.695312e-01
349.253780	0.498910	dec_social_choice	0.498910	16.000000	n/a	4	1.953125e-02	1.953125e-02
349.253780	0.498910	dec_choice	0.498910	16.000000	n/a	4	1.953125e-02	1.953125e-02
349.253780	0.498910	dec_social_accept	0.498910	16.000000	n/a	4	1.953125e-02	1.953125e-02
349.253780	0.498910	dec_accept	0.498910	16.000000	n/a	4	1.953125e-02	1.953125e-02
349.253780	0.498910	dec_social_accept_high	0.498910	16.000000	n/a	4	1.953125e-02	1.953125e-02
356.903840	0.449091	dec_social_choice	0.449091	32.000000	n/a	2	-1.679688e-01	-1.679688e-01
356.903840	0.449091	dec_choice	0.449091	32.000000	n/a	2	-1.679688e-01	-1.679688e-01
356.903840	0.449091	dec_social_accept	0.449091	32.000000	n/a	2	-1.679688e-01	-1.679688e-01
356.903840	0.449091	dec_accept	0.449091	32.000000	n/a	2	-1.679688e-01	-1.679688e-01
356.903840	0.449091	dec_social_low	0.449091	32.000000	n/a	2	-1.679688e-01	-1.679688e-01
356.903840	0.449091	dec_social_accept_low	0.449091	32.000000	n/a	2	-1.679688e-01	-1.679688e-01
363.736360	0.583196	dec_nonsocial_choice	0.583196	32.000000	n/a	8	1.953125e-02	1.953125e-02
363.736360	0.583196	dec_choice	0.583196	32.000000	n/a	8	1.953125e-02	1.953125e-02
363.736360	0.583196	dec_nonsocial_accept	0.583196	32.000000	n/a	8	1.953125e-02	1.953125e-02
363.736360	0.583196	dec_accept	0.583196	32.000000	n/a	8	1.953125e-02	1.953125e-02
363.736360	0.583196	dec_nonsocial_high	0.583196	32.000000	n/a	8	1.953125e-02	1.953125e-02
363.736360	0.583196	dec_nonsocial_accept_high	0.583196	32.000000	n/a	8	1.953125e-02	1.953125e-02
372.985600	0.601055	dec_social_choice	0.601055	16.000000	n/a	4	1.953125e-02	1.953125e-02
372.985600	0.601055	dec_choice	0.601055	16.000000	n/a	4	1.953125e-02	1.953125e-02
372.985600	0.601055	dec_social_accept	0.601055	16.000000	n/a	4	1.953125e-02	1.953125e-02
372.985600	0.601055	dec_accept	0.601055	16.000000	n/a	4	1.953125e-02	1.953125e-02
372.985600	0.601055	dec_social_accept_high	0.601055	16.000000	n/a	4	1.953125e-02	1.953125e-02
