instrText,stimDoor,stimDoorLure,stimFace,stimFaceLure,Instructions.thisRepN,Instructions.thisTrialN,Instructions.thisN,Instructions.thisIndex,Trials.thisRepN,Trials.thisTrialN,Trials.thisN,Trials.thisIndex,Func,Keys,Text,RespTime,Onset,Offset,SystemTime_Start,SystemTime_Stop,Stim,Lure,Participant*,Age,date,expName,psychopyVersion,frameRate,
"In the earlier Feedback Games, you chose which doors contained a prize, and which peers liked you. 

You then saw positive or negative feedback (green check mark or red X) from the door or peer you selected.

You will now see a series of doors and peers, some of which you saw during the earlier Feedback Games, and some that you have never seen before.

Please press the spacebar to continue.",,,,,0,0,0,0,,,,,instrFunc,space,"In the earlier Feedback Games, you chose which doors contained a prize, and which peers liked you. 

You then saw positive or negative feedback (green check mark or red X) from the door or peer you selected.

You will now see a series of doors and peers, some of which you saw during the earlier Feedback Games, and some that you have never seen before.

Please press the spacebar to continue.",19.67796429991722,22.894979099743068,42.72870392818004,2023-05-25 12:17:20.296038,2023-05-25 12:17:40.129855,,,10673,40-69,2023-05-25_12h17.16.894,Recall,2021.2.3,59.89261238370223,
"For doors/peers that you remember selecting and getting feedback from, your job is to RECALL what feedback you received. 

Press '1' if you recall positive feedback. 

Press '2' if you recall negative feedback

Press the spacebar to continue.",,,,,0,1,1,1,,,,,instrFunc,space,"For doors/peers that you remember selecting and getting feedback from, your job is to RECALL what feedback you received. 

Press '1' if you recall positive feedback. 

Press '2' if you recall negative feedback

Press the spacebar to continue.",11.507951499894261,42.61696079932153,54.17215680889785,2023-05-25 12:17:40.130828,2023-05-25 12:17:51.670459,,,10673,40-69,2023-05-25_12h17.16.894,Recall,2021.2.3,59.89261238370223,
"For doors/peers that you don't remember getting feedback from, your job is to PREDICT what feedback you WOULD HAVE received.

Press '9' if you predict positive feedback.

Press '0' if you predict negative feedback. 

Please press the spacebar to continue.",,,,,0,2,2,2,,,,,instrFunc,space,"For doors/peers that you don't remember getting feedback from, your job is to PREDICT what feedback you WOULD HAVE received.

Press '9' if you predict positive feedback.

Press '0' if you predict negative feedback. 

Please press the spacebar to continue.",15.038681900128722,54.15819069929421,69.2501182090491,2023-05-25 12:17:51.671461,2023-05-25 12:18:06.748444,,,10673,40-69,2023-05-25_12h17.16.894,Recall,2021.2.3,59.89261238370223,
"This task is self-paced, and the prompts will always stay on the screen so that you know which buttons to press.

On the next screen we will show you what those prompts look like, so that you know exactly what to expect. 

You will start with either doors or peers, and then switch halfway through. 

Please press the spacebar to continue.",,,,,0,3,3,3,,,,,instrFunc,space,"This task is self-paced, and the prompts will always stay on the screen so that you know which buttons to press.

On the next screen we will show you what those prompts look like, so that you know exactly what to expect. 

You will start with either doors or peers, and then switch halfway through. 

Please press the spacebar to continue.",12.17973340023309,69.23312539979815,81.45657700952142,2023-05-25 12:18:06.749419,2023-05-25 12:18:18.957238,,,10673,40-69,2023-05-25_12h17.16.894,Recall,2021.2.3,59.89261238370223,
,,,,,,,,,,,,,imgtextFunc,space,"Here is what the screen will look like while you make your ratings.
The green circles remind you to press 1 or 9 for positive feedback.
The red circles remind you to press 2 or 0 for negative feedback.









Please let the experimenter know if you have any questions.

Whenever you're ready, press the spacebar to start the task.",42.405735899694264,81.58303929958493,124.16133710928261,2023-05-25 12:18:18.967212,2023-05-25 12:19:01.538862,,,10673,40-69,2023-05-25_12h17.16.894,Recall,2021.2.3,59.89261238370223,
,SD011.jpg,0,MF011.jpg,0,,,,,0,0,0,60,imgFunc,1,NA,3.4680383997038007,124.14472849946469,127.73417842946947,2023-05-25 12:19:01.577730,2023-05-25 12:19:05.157918,SD011.jpg,0,10673,40-69,2023-05-25_12h17.16.894,Recall,2021.2.3,59.89261238370223,
,SD002.jpg,0,MF002.jpg,0,,,,,0,1,1,51,imgFunc,2,NA,2.801243799738586,127.70747749973089,130.6105403099209,2023-05-25 12:19:05.164898,2023-05-25 12:19:08.060015,SD002.jpg,0,10673,40-69,2023-05-25_12h17.16.894,Recall,2021.2.3,59.89261238370223,
,L_DD508.jpg,1,L_FF508.jpg,1,,,,,0,2,2,47,imgFunc,0,NA,3.9760099994018674,130.6047604000196,134.67564210947603,2023-05-25 12:19:08.066996,2023-05-25 12:19:12.129412,L_DD508.jpg,1,10673,40-69,2023-05-25_12h17.16.894,Recall,2021.2.3,59.89261238370223,
,DD018.jpg,0,FF018.jpg,0,,,,,0,3,3,17,imgFunc,9,NA,3.254954000003636,134.67775809951127,138.02304020896554,2023-05-25 12:19:12.140379,2023-05-25 12:19:15.481472,DD018.jpg,0,10673,40-69,2023-05-25_12h17.16.894,Recall,2021.2.3,59.89261238370223,
,L_DD506.jpg,1,L_FF506.jpg,1,,,,,0,4,4,45,imgFunc,1,NA,2.328482599928975,138.0362227000296,140.47202930878848,2023-05-25 12:19:15.489424,2023-05-25 12:19:17.916982,L_DD506.jpg,1,10673,40-69,2023-05-25_12h17.16.894,Recall,2021.2.3,59.89261238370223,
,L_SD503.jpg,1,L_MF503.jpg,1,,,,,0,5,5,92,imgFunc,2,NA,1.6675249002873898,140.45724279992282,142.22641060873866,2023-05-25 12:19:17.923963,2023-05-25 12:19:19.684275,L_SD503.jpg,1,10673,40-69,2023-05-25_12h17.16.894,Recall,2021.2.3,59.89261238370223,
,L_SD508.jpg,1,L_MF508.jpg,1,,,,,0,6,6,97,imgFunc,0,NA,2.6251186998561025,142.2275787992403,144.94712450820953,2023-05-25 12:19:19.692278,2023-05-25 12:19:22.403234,L_SD508.jpg,1,10673,40-69,2023-05-25_12h17.16.894,Recall,2021.2.3,59.89261238370223,
,L_SD504.jpg,1,L_MF504.jpg,1,,,,,0,7,7,93,imgFunc,9,NA,2.133321000263095,144.95944379922003,147.18402560800314,2023-05-25 12:19:22.416198,2023-05-25 12:19:24.638136,L_SD504.jpg,1,10673,40-69,2023-05-25_12h17.16.894,Recall,2021.2.3,59.89261238370223,
,L_DD503.jpg,1,L_FF503.jpg,1,,,,,0,8,8,42,imgFunc,2,NA,4.634396200068295,147.1782980998978,151.8996488098055,2023-05-25 12:19:24.645116,2023-05-25 12:19:29.358553,L_DD503.jpg,1,10673,40-69,2023-05-25_12h17.16.894,Recall,2021.2.3,59.89261238370223,
,L_DD502.jpg,1,L_FF502.jpg,1,,,,,0,9,9,41,imgFunc,2,NA,1.9447831995785236,151.89989320002496,153.93267370946705,2023-05-25 12:19:29.367558,2023-05-25 12:19:31.392339,L_DD502.jpg,1,10673,40-69,2023-05-25_12h17.16.894,Recall,2021.2.3,59.89261238370223,
,SD026.jpg,0,MF026.jpg,0,,,,,0,10,10,75,imgFunc,1,NA,1.2289260001853108,153.94381889980286,155.27696290891618,2023-05-25 12:19:31.401285,2023-05-25 12:19:32.727294,SD026.jpg,0,10673,40-69,2023-05-25_12h17.16.894,Recall,2021.2.3,59.89261238370223,
,L_SD502.jpg,1,L_MF502.jpg,1,,,,,0,11,11,91,imgFunc,1,NA,4.525266800075769,155.28737639915198,159.92258320841938,2023-05-25 12:19:32.736247,2023-05-25 12:19:37.363833,L_SD502.jpg,1,10673,40-69,2023-05-25_12h17.16.894,Recall,2021.2.3,59.89261238370223,
,DD006.jpg,0,FF006.jpg,0,,,,,0,12,12,5,imgFunc,1,NA,1.1558184996247292,159.94493169989437,161.22541781980544,2023-05-25 12:19:37.382803,2023-05-25 12:19:38.648620,DD006.jpg,0,10673,40-69,2023-05-25_12h17.16.894,Recall,2021.2.3,59.89261238370223,
,SD040.jpg,0,MF040.jpg,0,,,,,0,13,13,89,imgFunc,1,NA,1.0450716996565461,161.1996411997825,162.3508637091145,2023-05-25 12:19:38.656597,2023-05-25 12:19:39.799016,SD040.jpg,0,10673,40-69,2023-05-25_12h17.16.894,Recall,2021.2.3,59.89261238370223,
,SD010.jpg,0,MF010.jpg,0,,,,,0,14,14,59,imgFunc,2,NA,1.2364405998960137,162.34415399935097,163.68029690999538,2023-05-25 12:19:39.805997,2023-05-25 12:19:41.133432,SD010.jpg,0,10673,40-69,2023-05-25_12h17.16.894,Recall,2021.2.3,59.89261238370223,
,SD029.jpg,0,MF029.jpg,0,,,,,0,15,15,78,imgFunc,1,NA,1.2093780003488064,163.70730519946665,165.0255045099184,2023-05-25 12:19:41.149387,2023-05-25 12:19:42.467906,SD029.jpg,0,10673,40-69,2023-05-25_12h17.16.894,Recall,2021.2.3,59.89261238370223,
,L_SD505.jpg,1,L_MF505.jpg,1,,,,,0,16,16,94,imgFunc,0,NA,4.009665500372648,165.01111389975995,169.11540200933814,2023-05-25 12:19:42.474881,2023-05-25 12:19:46.570567,L_SD505.jpg,1,10673,40-69,2023-05-25_12h17.16.894,Recall,2021.2.3,59.89261238370223,
,DD008.jpg,0,FF008.jpg,0,,,,,0,17,17,7,imgFunc,1,NA,1.290479600429535,169.1221990995109,170.50998501013964,2023-05-25 12:19:46.585487,2023-05-25 12:19:47.971270,DD008.jpg,0,10673,40-69,2023-05-25_12h17.16.894,Recall,2021.2.3,59.89261238370223,
,SD003.jpg,0,MF003.jpg,0,,,,,0,18,18,52,imgFunc,2,NA,1.2261400995776057,170.50650319922715,171.8254815088585,2023-05-25 12:19:47.979251,2023-05-25 12:19:49.288745,SD003.jpg,0,10673,40-69,2023-05-25_12h17.16.894,Recall,2021.2.3,59.89261238370223,
,L_DD510.jpg,1,L_FF510.jpg,1,,,,,0,19,19,49,imgFunc,2,NA,2.213846300728619,171.82280319929123,174.1255895094946,2023-05-25 12:19:49.296697,2023-05-25 12:19:51.591095,L_DD510.jpg,1,10673,40-69,2023-05-25_12h17.16.894,Recall,2021.2.3,59.89261238370223,
,SD008.jpg,0,MF008.jpg,0,,,,,0,20,20,57,imgFunc,2,NA,3.9650173000991344,174.12762979976833,178.18191650975496,2023-05-25 12:19:51.598076,2023-05-25 12:19:55.643920,SD008.jpg,0,10673,40-69,2023-05-25_12h17.16.894,Recall,2021.2.3,59.89261238370223,
,DD021.jpg,0,FF021.jpg,0,,,,,0,21,21,20,imgFunc,1,NA,1.3087749006226659,178.18387269973755,179.58597810845822,2023-05-25 12:19:55.650901,2023-05-25 12:19:57.044238,DD021.jpg,0,10673,40-69,2023-05-25_12h17.16.894,Recall,2021.2.3,59.89261238370223,
,SD009.jpg,0,MF009.jpg,0,,,,,0,22,22,58,imgFunc,1,NA,1.678804900497198,179.58188079949468,181.35091420914978,2023-05-25 12:19:57.052218,2023-05-25 12:19:58.812950,SD009.jpg,0,10673,40-69,2023-05-25_12h17.16.894,Recall,2021.2.3,59.89261238370223,
,SD027.jpg,0,MF027.jpg,0,,,,,0,23,23,76,imgFunc,1,NA,1.1930996999144554,181.3475376991555,182.63303970824927,2023-05-25 12:19:58.819931,2023-05-25 12:20:00.097023,SD027.jpg,0,10673,40-69,2023-05-25_12h17.16.894,Recall,2021.2.3,59.89261238370223,
,L_DD509.jpg,1,L_FF509.jpg,1,,,,,0,24,24,48,imgFunc,2,NA,0.9316649995744228,182.63298649992794,183.65189410932362,2023-05-25 12:20:00.104000,2023-05-25 12:20:01.114117,L_DD509.jpg,1,10673,40-69,2023-05-25_12h17.16.894,Recall,2021.2.3,59.89261238370223,
,DD038.jpg,0,FF038.jpg,0,,,,,0,25,25,37,imgFunc,1,NA,1.021714299917221,183.65491649974138,184.7737245084718,2023-05-25 12:20:01.122064,2023-05-25 12:20:02.231970,DD038.jpg,0,10673,40-69,2023-05-25_12h17.16.894,Recall,2021.2.3,59.89261238370223,
,SD001.jpg,0,MF001.jpg,0,,,,,0,26,26,50,imgFunc,1,NA,1.2733618998900056,184.77932580001652,186.13642001058906,2023-05-25 12:20:02.244935,2023-05-25 12:20:03.599330,SD001.jpg,0,10673,40-69,2023-05-25_12h17.16.894,Recall,2021.2.3,59.89261238370223,
,SD018.jpg,0,MF018.jpg,0,,,,,0,27,27,67,imgFunc,2,NA,2.7837863005697727,186.13281349930912,189.00282790884376,2023-05-25 12:20:03.606306,2023-05-25 12:20:06.468023,SD018.jpg,0,10673,40-69,2023-05-25_12h17.16.894,Recall,2021.2.3,59.89261238370223,
,SD014.jpg,0,MF014.jpg,0,,,,,0,28,28,63,imgFunc,1,NA,1.242781899869442,189.00996219925582,190.34539250843227,2023-05-25 12:20:06.475973,2023-05-25 12:20:07.802438,SD014.jpg,0,10673,40-69,2023-05-25_12h17.16.894,Recall,2021.2.3,59.89261238370223,
,SD022.jpg,0,MF022.jpg,0,,,,,0,29,29,71,imgFunc,2,NA,1.7274973997846246,190.34111779928207,192.16014640964568,2023-05-25 12:20:07.809419,2023-05-25 12:20:09.620402,SD022.jpg,0,10673,40-69,2023-05-25_12h17.16.894,Recall,2021.2.3,59.89261238370223,
,SD036.jpg,0,MF036.jpg,0,,,,,0,30,30,85,imgFunc,2,NA,2.6258896999061108,192.16277519986033,194.8820686088875,2023-05-25 12:20:09.628367,2023-05-25 12:20:12.338651,SD036.jpg,0,10673,40-69,2023-05-25_12h17.16.894,Recall,2021.2.3,59.89261238370223,
,SD031.jpg,0,MF031.jpg,0,,,,,0,31,31,80,imgFunc,2,NA,1.7547532999888062,194.88988359924406,196.72822070866823,2023-05-25 12:20:12.353614,2023-05-25 12:20:14.189874,SD031.jpg,0,10673,40-69,2023-05-25_12h17.16.894,Recall,2021.2.3,59.89261238370223,
,SD017.jpg,0,MF017.jpg,0,,,,,0,32,32,66,imgFunc,1,NA,1.0183305004611611,196.73029939923435,197.848970009014,2023-05-25 12:20:14.197852,2023-05-25 12:20:15.307919,SD017.jpg,0,10673,40-69,2023-05-25_12h17.16.894,Recall,2021.2.3,59.89261238370223,
,DD026.jpg,0,FF026.jpg,0,,,,,0,33,33,25,imgFunc,2,NA,0.9116150001063943,197.84500819910318,198.8467570086941,2023-05-25 12:20:15.315874,2023-05-25 12:20:16.308982,DD026.jpg,0,10673,40-69,2023-05-25_12h17.16.894,Recall,2021.2.3,59.89261238370223,
,DD017.jpg,0,FF017.jpg,0,,,,,0,34,34,16,imgFunc,1,NA,1.0499983001500368,198.85061639919877,200.00305210985243,2023-05-25 12:20:16.315962,2023-05-25 12:20:17.459059,DD017.jpg,0,10673,40-69,2023-05-25_12h17.16.894,Recall,2021.2.3,59.89261238370223,
,DD003.jpg,0,FF003.jpg,0,,,,,0,35,35,2,imgFunc,1,NA,1.172143000178039,200.0005035996437,201.26954310853034,2023-05-25 12:20:17.467043,2023-05-25 12:20:18.726686,DD003.jpg,0,10673,40-69,2023-05-25_12h17.16.894,Recall,2021.2.3,59.89261238370223,
,DD027.jpg,0,FF027.jpg,0,,,,,0,36,36,26,imgFunc,1,NA,1.3493608999997377,201.27920739911497,202.71627560909837,2023-05-25 12:20:18.741643,2023-05-25 12:20:20.178296,DD027.jpg,0,10673,40-69,2023-05-25_12h17.16.894,Recall,2021.2.3,59.89261238370223,
,DD001.jpg,0,FF001.jpg,0,,,,,0,37,37,0,imgFunc,2,NA,1.178940899670124,202.71366889961064,203.9827009094879,2023-05-25 12:20:20.185306,2023-05-25 12:20:21.445542,DD001.jpg,0,10673,40-69,2023-05-25_12h17.16.894,Recall,2021.2.3,59.89261238370223,
,DD015.jpg,0,FF015.jpg,0,,,,,0,38,38,14,imgFunc,1,NA,0.8959393994882703,203.98071439936757,204.96597980894148,2023-05-25 12:20:21.453521,2023-05-25 12:20:22.429919,DD015.jpg,0,10673,40-69,2023-05-25_12h17.16.894,Recall,2021.2.3,59.89261238370223,
,DD025.jpg,0,FF025.jpg,0,,,,,0,39,39,24,imgFunc,2,NA,1.6617389004677534,204.9668679991737,206.71948380954564,2023-05-25 12:20:22.436900,2023-05-25 12:20:24.180212,DD025.jpg,0,10673,40-69,2023-05-25_12h17.16.894,Recall,2021.2.3,59.89261238370223,
,SD019.jpg,0,MF019.jpg,0,,,,,0,40,40,68,imgFunc,2,NA,1.7118197996169329,206.724824199453,208.52756670862436,2023-05-25 12:20:24.188190,2023-05-25 12:20:25.982111,SD019.jpg,0,10673,40-69,2023-05-25_12h17.16.894,Recall,2021.2.3,59.89261238370223,
,L_SD501.jpg,1,L_MF501.jpg,1,,,,,0,41,41,90,imgFunc,2,NA,1.4654486998915672,208.5151327997446,210.06763940956444,2023-05-25 12:20:25.989093,2023-05-25 12:20:27.533665,L_SD501.jpg,1,10673,40-69,2023-05-25_12h17.16.894,Recall,2021.2.3,59.89261238370223,
,DD023.jpg,0,FF023.jpg,0,,,,,0,42,42,22,imgFunc,2,NA,1.1756856003776193,210.06885539926589,211.3377890093252,2023-05-25 12:20:27.540646,2023-05-25 12:20:28.800993,DD023.jpg,0,10673,40-69,2023-05-25_12h17.16.894,Recall,2021.2.3,59.89261238370223,
,DD019.jpg,0,FF019.jpg,0,,,,,0,43,43,18,imgFunc,1,NA,0.8798831002786756,211.34105039946735,212.3101268094033,2023-05-25 12:20:28.807942,2023-05-25 12:20:29.767827,DD019.jpg,0,10673,40-69,2023-05-25_12h17.16.894,Recall,2021.2.3,59.89261238370223,
,SD034.jpg,0,MF034.jpg,0,,,,,0,44,44,83,imgFunc,1,NA,1.0429228004068136,212.30568849947304,213.44126210920513,2023-05-25 12:20:29.775781,2023-05-25 12:20:30.902252,SD034.jpg,0,10673,40-69,2023-05-25_12h17.16.894,Recall,2021.2.3,59.89261238370223,
,DD039.jpg,0,FF039.jpg,0,,,,,0,45,45,38,imgFunc,1,NA,1.2814824003726244,213.4591678995639,214.83150560967624,2023-05-25 12:20:30.916189,2023-05-25 12:20:32.286538,DD039.jpg,0,10673,40-69,2023-05-25_12h17.16.894,Recall,2021.2.3,59.89261238370223,
,DD036.jpg,0,FF036.jpg,0,,,,,0,46,46,35,imgFunc,2,NA,1.393271000124514,214.83533439971507,216.33547610975802,2023-05-25 12:20:32.295514,2023-05-25 12:20:33.787194,DD036.jpg,0,10673,40-69,2023-05-25_12h17.16.894,Recall,2021.2.3,59.89261238370223,
,L_SD507.jpg,1,L_MF507.jpg,1,,,,,0,47,47,96,imgFunc,2,NA,1.0891581000760198,216.32343049999326,217.50865070987493,2023-05-25 12:20:33.795146,2023-05-25 12:20:34.971448,L_SD507.jpg,1,10673,40-69,2023-05-25_12h17.16.894,Recall,2021.2.3,59.89261238370223,
,DD022.jpg,0,FF022.jpg,0,,,,,0,48,48,21,imgFunc,1,NA,1.8317403001710773,217.50893399957567,219.4281442090869,2023-05-25 12:20:34.979425,2023-05-25 12:20:36.889370,DD022.jpg,0,10673,40-69,2023-05-25_12h17.16.894,Recall,2021.2.3,59.89261238370223,
,SD020.jpg,0,MF020.jpg,0,,,,,0,49,49,69,imgFunc,2,NA,2.5473783994093537,219.44121309928596,222.09449300915003,2023-05-25 12:20:36.897314,2023-05-25 12:20:39.541632,SD020.jpg,0,10673,40-69,2023-05-25_12h17.16.894,Recall,2021.2.3,59.89261238370223,
,DD040.jpg,0,FF040.jpg,0,,,,,0,50,50,39,imgFunc,1,NA,1.185495499521494,222.09907699935138,223.38681380916387,2023-05-25 12:20:39.556587,2023-05-25 12:20:40.842162,DD040.jpg,0,10673,40-69,2023-05-25_12h17.16.894,Recall,2021.2.3,59.89261238370223,
,SD038.jpg,0,MF038.jpg,0,,,,,0,51,51,87,imgFunc,2,NA,1.0909828003495932,223.3775778999552,224.56291370932013,2023-05-25 12:20:40.850141,2023-05-25 12:20:42.026868,SD038.jpg,0,10673,40-69,2023-05-25_12h17.16.894,Recall,2021.2.3,59.89261238370223,
,DD011.jpg,0,FF011.jpg,0,,,,,0,52,52,10,imgFunc,1,NA,1.1221911003813148,224.57029659952968,225.78878400940448,2023-05-25 12:20:42.034817,2023-05-25 12:20:43.244879,DD011.jpg,0,10673,40-69,2023-05-25_12h17.16.894,Recall,2021.2.3,59.89261238370223,
,SD028.jpg,0,MF028.jpg,0,,,,,0,53,53,77,imgFunc,2,NA,2.5054657999426126,225.787114799954,228.38876940961927,2023-05-25 12:20:43.252857,2023-05-25 12:20:45.846317,SD028.jpg,0,10673,40-69,2023-05-25_12h17.16.894,Recall,2021.2.3,59.89261238370223,
,L_DD505.jpg,1,L_FF505.jpg,1,,,,,0,54,54,44,imgFunc,2,NA,1.0403739996254444,228.38815899938345,229.52353360969573,2023-05-25 12:20:45.854300,2023-05-25 12:20:46.980720,L_DD505.jpg,1,10673,40-69,2023-05-25_12h17.16.894,Recall,2021.2.3,59.89261238370223,
,L_DD504.jpg,1,L_FF504.jpg,1,,,,,0,55,55,43,imgFunc,2,NA,0.9812179002910852,229.53546349983662,230.60526780877262,2023-05-25 12:20:46.995656,2023-05-25 12:20:48.064806,L_DD504.jpg,1,10673,40-69,2023-05-25_12h17.16.894,Recall,2021.2.3,59.89261238370223,
,SD033.jpg,0,MF033.jpg,0,,,,,0,56,56,82,imgFunc,2,NA,1.8885896997526288,230.60396729968488,232.58973950892687,2023-05-25 12:20:48.071787,2023-05-25 12:20:50.049273,SD033.jpg,0,10673,40-69,2023-05-25_12h17.16.894,Recall,2021.2.3,59.89261238370223,
,DD016.jpg,0,FF016.jpg,0,,,,,0,57,57,15,imgFunc,1,NA,1.2764948001131415,232.59212349914014,233.96087920945138,2023-05-25 12:20:50.057252,2023-05-25 12:20:51.417548,DD016.jpg,0,10673,40-69,2023-05-25_12h17.16.894,Recall,2021.2.3,59.89261238370223,
,SD006.jpg,0,MF006.jpg,0,,,,,0,58,58,55,imgFunc,2,NA,4.076446699909866,233.9600937999785,238.13069030921906,2023-05-25 12:20:51.424529,2023-05-25 12:20:55.586856,SD006.jpg,0,10673,40-69,2023-05-25_12h17.16.894,Recall,2021.2.3,59.89261238370223,
,L_SD506.jpg,1,L_MF506.jpg,1,,,,,0,59,59,95,imgFunc,2,NA,1.3575457008555532,238.1430817991495,239.61155050899833,2023-05-25 12:20:55.594835,2023-05-25 12:20:57.053981,L_SD506.jpg,1,10673,40-69,2023-05-25_12h17.16.894,Recall,2021.2.3,59.89261238370223,
,DD002.jpg,0,FF002.jpg,0,,,,,0,60,60,1,imgFunc,1,NA,0.8733326001092792,239.59521489962935,240.56373860966414,2023-05-25 12:20:57.061924,2023-05-25 12:20:58.021368,DD002.jpg,0,10673,40-69,2023-05-25_12h17.16.894,Recall,2021.2.3,59.89261238370223,
,DD014.jpg,0,FF014.jpg,0,,,,,0,61,61,13,imgFunc,1,NA,0.9106695000082254,240.55786659941077,241.5598653089255,2023-05-25 12:20:58.029345,2023-05-25 12:20:59.021841,DD014.jpg,0,10673,40-69,2023-05-25_12h17.16.894,Recall,2021.2.3,59.89261238370223,
,SD025.jpg,0,MF025.jpg,0,,,,,0,62,62,74,imgFunc,2,NA,1.8018244998529553,241.55468729976565,243.44077121000737,2023-05-25 12:20:59.029819,2023-05-25 12:21:00.907322,SD025.jpg,0,10673,40-69,2023-05-25_12h17.16.894,Recall,2021.2.3,59.89261238370223,
,SD004.jpg,0,MF004.jpg,0,,,,,0,63,63,53,imgFunc,2,NA,2.307209599763155,243.44153179973364,245.84458070993423,2023-05-25 12:21:00.914302,2023-05-25 12:21:03.309150,SD004.jpg,0,10673,40-69,2023-05-25_12h17.16.894,Recall,2021.2.3,59.89261238370223,
,DD010.jpg,0,FF010.jpg,0,,,,,0,64,64,9,imgFunc,2,NA,1.0570242004469037,245.85149679984897,246.9915677094832,2023-05-25 12:21:03.322114,2023-05-25 12:21:04.459702,DD010.jpg,0,10673,40-69,2023-05-25_12h17.16.894,Recall,2021.2.3,59.89261238370223,
,SD023.jpg,0,MF023.jpg,0,,,,,0,65,65,72,imgFunc,1,NA,1.73570859991014,246.9969031997025,248.81581690907478,2023-05-25 12:21:04.467663,2023-05-25 12:21:06.277982,SD023.jpg,0,10673,40-69,2023-05-25_12h17.16.894,Recall,2021.2.3,59.89261238370223,
,DD033.jpg,0,FF033.jpg,0,,,,,0,66,66,32,imgFunc,1,NA,1.018503200262785,248.81001339945942,249.91221530921757,2023-05-25 12:21:06.284962,2023-05-25 12:21:07.378559,DD033.jpg,0,10673,40-69,2023-05-25_12h17.16.894,Recall,2021.2.3,59.89261238370223,
,DD028.jpg,0,FF028.jpg,0,,,,,0,67,67,27,imgFunc,1,NA,0.9737009005621076,249.91086169984192,250.96297680959105,2023-05-25 12:21:07.385515,2023-05-25 12:21:08.429527,DD028.jpg,0,10673,40-69,2023-05-25_12h17.16.894,Recall,2021.2.3,59.89261238370223,
,DD029.jpg,0,FF029.jpg,0,,,,,0,68,68,28,imgFunc,1,NA,1.1583171002566814,250.96618669945747,252.2183158090338,2023-05-25 12:21:08.436508,2023-05-25 12:21:09.680218,DD029.jpg,0,10673,40-69,2023-05-25_12h17.16.894,Recall,2021.2.3,59.89261238370223,
,SD016.jpg,0,MF016.jpg,0,,,,,0,69,69,65,imgFunc,2,NA,0.9217827999964356,252.22679759934545,253.23115500900894,2023-05-25 12:21:09.695153,2023-05-25 12:21:10.697693,SD016.jpg,0,10673,40-69,2023-05-25_12h17.16.894,Recall,2021.2.3,59.89261238370223,
,DD013.jpg,0,FF013.jpg,0,,,,,0,70,70,12,imgFunc,1,NA,0.8109475998207927,253.23358729947358,254.13470270950347,2023-05-25 12:21:10.705647,2023-05-25 12:21:11.598618,DD013.jpg,0,10673,40-69,2023-05-25_12h17.16.894,Recall,2021.2.3,59.89261238370223,
,SD039.jpg,0,MF039.jpg,0,,,,,0,71,71,88,imgFunc,2,NA,0.920355899259448,254.1321869995445,255.13394750934094,2023-05-25 12:21:11.605596,2023-05-25 12:21:12.598948,SD039.jpg,0,10673,40-69,2023-05-25_12h17.16.894,Recall,2021.2.3,59.89261238370223,
,DD034.jpg,0,FF034.jpg,0,,,,,0,72,72,33,imgFunc,1,NA,3.397858399897814,255.1346590993926,258.6214918093756,2023-05-25 12:21:12.606927,2023-05-25 12:21:16.084351,DD034.jpg,0,10673,40-69,2023-05-25_12h17.16.894,Recall,2021.2.3,59.89261238370223,
,SD037.jpg,0,MF037.jpg,0,,,,,0,73,73,86,imgFunc,2,NA,0.8675163006410003,258.6250141998753,259.59360190853477,2023-05-25 12:21:16.092329,2023-05-25 12:21:17.051973,SD037.jpg,0,10673,40-69,2023-05-25_12h17.16.894,Recall,2021.2.3,59.89261238370223,
,DD030.jpg,0,FF030.jpg,0,,,,,0,74,74,29,imgFunc,2,NA,3.1790718995034695,259.6094895992428,262.8928495189175,2023-05-25 12:21:17.069922,2023-05-25 12:21:20.337724,DD030.jpg,0,10673,40-69,2023-05-25_12h17.16.894,Recall,2021.2.3,59.89261238370223,
,SD024.jpg,0,MF024.jpg,0,,,,,0,75,75,73,imgFunc,2,NA,0.8487266004085541,262.8758172998205,263.8113761097193,2023-05-25 12:21:20.345673,2023-05-25 12:21:21.271714,SD024.jpg,0,10673,40-69,2023-05-25_12h17.16.894,Recall,2021.2.3,59.89261238370223,
,DD032.jpg,0,FF032.jpg,0,,,,,0,76,76,31,imgFunc,2,NA,1.0905125997960567,263.8099673995748,264.9946834091097,2023-05-25 12:21:21.279667,2023-05-25 12:21:22.455560,DD032.jpg,0,10673,40-69,2023-05-25_12h17.16.894,Recall,2021.2.3,59.89261238370223,
,SD005.jpg,0,MF005.jpg,0,,,,,0,77,77,54,imgFunc,2,NA,0.9466593004763126,264.99387219920754,266.02935850806534,2023-05-25 12:21:22.463511,2023-05-25 12:21:23.490223,SD005.jpg,0,10673,40-69,2023-05-25_12h17.16.894,Recall,2021.2.3,59.89261238370223,
,DD024.jpg,0,FF024.jpg,0,,,,,0,78,78,23,imgFunc,2,NA,1.1425659004598856,266.0459465999156,267.2975279102102,2023-05-25 12:21:23.498202,2023-05-25 12:21:24.741284,DD024.jpg,0,10673,40-69,2023-05-25_12h17.16.894,Recall,2021.2.3,59.89261238370223,
,DD012.jpg,0,FF012.jpg,0,,,,,0,79,79,11,imgFunc,2,NA,0.8490044996142387,267.275483799167,268.2107971087098,2023-05-25 12:21:24.748265,2023-05-25 12:21:25.675097,DD012.jpg,0,10673,40-69,2023-05-25_12h17.16.894,Recall,2021.2.3,59.89261238370223,
,SD012.jpg,0,MF012.jpg,0,,,,,0,80,80,61,imgFunc,2,NA,1.3317989995703101,268.216814099811,269.6523596094921,2023-05-25 12:21:25.683051,2023-05-25 12:21:27.109413,SD012.jpg,0,10673,40-69,2023-05-25_12h17.16.894,Recall,2021.2.3,59.89261238370223,
,SD013.jpg,0,MF013.jpg,0,,,,,0,81,81,62,imgFunc,1,NA,2.769136200658977,269.64341119956225,272.4968049088493,2023-05-25 12:21:27.116397,2023-05-25 12:21:29.960923,SD013.jpg,0,10673,40-69,2023-05-25_12h17.16.894,Recall,2021.2.3,59.89261238370223,
,SD021.jpg,0,MF021.jpg,0,,,,,0,82,82,70,imgFunc,1,NA,0.908869699575007,272.5038060992956,273.50580140948296,2023-05-25 12:21:29.968890,2023-05-25 12:21:30.962623,SD021.jpg,0,10673,40-69,2023-05-25_12h17.16.894,Recall,2021.2.3,59.89261238370223,
,SD007.jpg,0,MF007.jpg,0,,,,,0,83,83,56,imgFunc,2,NA,0.689155500382185,273.5075056999922,274.2814207095653,2023-05-25 12:21:30.975588,2023-05-25 12:21:31.746533,SD007.jpg,0,10673,40-69,2023-05-25_12h17.16.894,Recall,2021.2.3,59.89261238370223,
,L_SD510.jpg,1,L_MF510.jpg,1,,,,,0,84,84,99,imgFunc,2,NA,2.3735955003648996,274.28687889967114,276.7559654098004,2023-05-25 12:21:31.753514,2023-05-25 12:21:34.214697,L_SD510.jpg,1,10673,40-69,2023-05-25_12h17.16.894,Recall,2021.2.3,59.89261238370223,
,SD015.jpg,0,MF015.jpg,0,,,,,0,85,85,64,imgFunc,1,NA,1.2084349002689123,276.74806679971516,278.0505200093612,2023-05-25 12:21:34.221678,2023-05-25 12:21:35.515581,SD015.jpg,0,10673,40-69,2023-05-25_12h17.16.894,Recall,2021.2.3,59.89261238370223,
,SD035.jpg,0,MF035.jpg,0,,,,,0,86,86,84,imgFunc,2,NA,0.9208029992878437,278.0675955992192,279.10211250931025,2023-05-25 12:21:35.523559,2023-05-25 12:21:36.549006,SD035.jpg,0,10673,40-69,2023-05-25_12h17.16.894,Recall,2021.2.3,59.89261238370223,
,DD031.jpg,0,FF031.jpg,0,,,,,0,87,87,30,imgFunc,2,NA,1.0544039001688361,279.09403699915856,280.2405235087499,2023-05-25 12:21:36.559972,2023-05-25 12:21:37.700559,DD031.jpg,0,10673,40-69,2023-05-25_12h17.16.894,Recall,2021.2.3,59.89261238370223,
,DD020.jpg,0,FF020.jpg,0,,,,,0,88,88,19,imgFunc,2,NA,1.0227722004055977,280.26166759990156,281.3824446089566,2023-05-25 12:21:37.715552,2023-05-25 12:21:38.834562,DD020.jpg,0,10673,40-69,2023-05-25_12h17.16.894,Recall,2021.2.3,59.89261238370223,
,L_SD509.jpg,1,L_MF509.jpg,1,,,,,0,89,89,98,imgFunc,1,NA,1.498653399758041,281.36986129917204,282.95578400883824,2023-05-25 12:21:38.841546,2023-05-25 12:21:40.418827,L_SD509.jpg,1,10673,40-69,2023-05-25_12h17.16.894,Recall,2021.2.3,59.89261238370223,
,DD035.jpg,0,FF035.jpg,0,,,,,0,90,90,34,imgFunc,1,NA,0.8547352002933621,282.95773799996823,283.9092413103208,2023-05-25 12:21:40.426779,2023-05-25 12:21:41.369953,DD035.jpg,0,10673,40-69,2023-05-25_12h17.16.894,Recall,2021.2.3,59.89261238370223,
,DD004.jpg,0,FF004.jpg,0,,,,,0,91,91,3,imgFunc,1,NA,0.9813534999266267,283.9111784994602,284.99669440928847,2023-05-25 12:21:41.376934,2023-05-25 12:21:42.453678,DD004.jpg,0,10673,40-69,2023-05-25_12h17.16.894,Recall,2021.2.3,59.89261238370223,
,DD037.jpg,0,FF037.jpg,0,,,,,0,92,92,36,imgFunc,2,NA,0.8076056996360421,285.00491059944034,285.9233183087781,2023-05-25 12:21:42.461650,2023-05-25 12:21:43.370959,DD037.jpg,0,10673,40-69,2023-05-25_12h17.16.894,Recall,2021.2.3,59.89261238370223,
,DD009.jpg,0,FF009.jpg,0,,,,,0,93,93,8,imgFunc,2,NA,1.5158037999644876,285.9206665996462,287.5257298089564,2023-05-25 12:21:43.385918,2023-05-25 12:21:44.988831,DD009.jpg,0,10673,40-69,2023-05-25_12h17.16.894,Recall,2021.2.3,59.89261238370223,
,DD005.jpg,0,FF005.jpg,0,,,,,0,94,94,4,imgFunc,2,NA,1.282447099685669,287.53013779968023,288.91578510962427,2023-05-25 12:21:44.996780,2023-05-25 12:21:46.373345,DD005.jpg,0,10673,40-69,2023-05-25_12h17.16.894,Recall,2021.2.3,59.89261238370223,
,L_DD501.jpg,1,L_FF501.jpg,1,,,,,0,95,95,40,imgFunc,1,NA,0.9287927998229861,288.90760909952223,289.9265142092481,2023-05-25 12:21:46.380325,2023-05-25 12:21:47.390440,L_DD501.jpg,1,10673,40-69,2023-05-25_12h17.16.894,Recall,2021.2.3,59.89261238370223,
,DD007.jpg,0,FF007.jpg,0,,,,,0,96,96,6,imgFunc,1,NA,1.0526080997660756,289.9358088998124,291.084898410365,2023-05-25 12:21:47.399411,2023-05-25 12:21:48.541473,DD007.jpg,0,10673,40-69,2023-05-25_12h17.16.894,Recall,2021.2.3,59.89261238370223,
,SD030.jpg,0,MF030.jpg,0,,,,,0,97,97,79,imgFunc,1,NA,1.2607710007578135,291.08767189923674,292.4568594088778,2023-05-25 12:21:48.548453,2023-05-25 12:21:49.909445,SD030.jpg,0,10673,40-69,2023-05-25_12h17.16.894,Recall,2021.2.3,59.89261238370223,
,SD032.jpg,0,MF032.jpg,0,,,,,0,98,98,81,imgFunc,2,NA,0.7792875999584794,292.4411647999659,293.3085895096883,2023-05-25 12:21:49.917423,2023-05-25 12:21:50.776160,SD032.jpg,0,10673,40-69,2023-05-25_12h17.16.894,Recall,2021.2.3,59.89261238370223,
,L_DD507.jpg,1,L_FF507.jpg,1,,,,,0,99,99,46,imgFunc,1,NA,1.2826380003243685,293.31389309931546,294.6825144086033,2023-05-25 12:21:50.784113,2023-05-25 12:21:52.143836,L_DD507.jpg,1,10673,40-69,2023-05-25_12h17.16.894,Recall,2021.2.3,59.89261238370223,
,,,,,,,,,,,,,instrFunc,space,"Great work! 

 Now you will switch to the other image type.

 Press the spacebar whenever you are ready to start.",2.842428899370134,294.6180141000077,297.5003624102101,2023-05-25 12:21:52.144806,2023-05-25 12:21:55.011466,,,10673,40-69,2023-05-25_12h17.16.894,Recall,2021.2.3,59.89261238370223,
,DD012.jpg,0,FF012.jpg,0,,,,,0,0,0,11,imgFunc,1,NA,3.4565794998779893,297.57189349923283,301.1188675193116,2023-05-25 12:21:55.039391,2023-05-25 12:21:58.582346,FF012.jpg,0,10673,40-69,2023-05-25_12h17.16.894,Recall,2021.2.3,59.89261238370223,
,DD009.jpg,0,FF009.jpg,0,,,,,0,1,1,8,imgFunc,1,NA,0.9875713000074029,301.12086409982294,302.2060888102278,2023-05-25 12:21:58.589326,2023-05-25 12:21:59.665819,FF009.jpg,0,10673,40-69,2023-05-25_12h17.16.894,Recall,2021.2.3,59.89261238370223,
,SD008.jpg,0,MF008.jpg,0,,,,,0,2,2,57,imgFunc,1,NA,2.105455399490893,302.2109384993091,304.41245240997523,2023-05-25 12:21:59.673795,2023-05-25 12:22:01.867921,MF008.jpg,0,10673,40-69,2023-05-25_12h17.16.894,Recall,2021.2.3,59.89261238370223,
,SD015.jpg,0,MF015.jpg,0,,,,,0,3,3,64,imgFunc,2,NA,1.061152900569141,304.41529929917306,305.57425860874355,2023-05-25 12:22:01.879889,2023-05-25 12:22:03.034929,MF015.jpg,0,10673,40-69,2023-05-25_12h17.16.894,Recall,2021.2.3,59.89261238370223,
,SD006.jpg,0,MF006.jpg,0,,,,,0,4,4,55,imgFunc,2,NA,1.8711521998047829,305.573283999227,307.5422997092828,2023-05-25 12:22:03.042882,2023-05-25 12:22:05.003511,MF006.jpg,0,10673,40-69,2023-05-25_12h17.16.894,Recall,2021.2.3,59.89261238370223,
,DD020.jpg,0,FF020.jpg,0,,,,,0,5,5,19,imgFunc,2,NA,1.2721955999732018,307.5402408000082,308.9089468102902,2023-05-25 12:22:05.010491,2023-05-25 12:22:06.370818,FF020.jpg,0,10673,40-69,2023-05-25_12h17.16.894,Recall,2021.2.3,59.89261238370223,
,DD014.jpg,0,FF014.jpg,0,,,,,0,6,6,13,imgFunc,2,NA,1.1412875996902585,308.9111277991906,310.1467301091179,2023-05-25 12:22:06.378772,2023-05-25 12:22:07.605141,FF014.jpg,0,10673,40-69,2023-05-25_12h17.16.894,Recall,2021.2.3,59.89261238370223,
,DD017.jpg,0,FF017.jpg,0,,,,,0,7,7,16,imgFunc,1,NA,2.088780499994755,310.1558116991073,312.341660508886,2023-05-25 12:22:07.613095,2023-05-25 12:22:09.790459,FF017.jpg,0,10673,40-69,2023-05-25_12h17.16.894,Recall,2021.2.3,59.89261238370223,
,DD038.jpg,0,FF038.jpg,0,,,,,0,8,8,37,imgFunc,2,NA,1.2637048000469804,312.33291029930115,313.70198980905116,2023-05-25 12:22:09.797440,2023-05-25 12:22:11.158008,FF038.jpg,0,10673,40-69,2023-05-25_12h17.16.894,Recall,2021.2.3,59.89261238370223,
,SD014.jpg,0,MF014.jpg,0,,,,,0,9,9,63,imgFunc,2,NA,1.4472301006317139,313.6931846998632,315.22876390907913,2023-05-25 12:22:11.165016,2023-05-25 12:22:12.691943,MF014.jpg,0,10673,40-69,2023-05-25_12h17.16.894,Recall,2021.2.3,59.89261238370223,
,DD018.jpg,0,FF018.jpg,0,,,,,0,10,10,17,imgFunc,1,NA,0.9314097994938493,315.24102399963886,316.2764216084033,2023-05-25 12:22:12.699926,2023-05-25 12:22:13.726187,FF018.jpg,0,10673,40-69,2023-05-25_12h17.16.894,Recall,2021.2.3,59.89261238370223,
,DD015.jpg,0,FF015.jpg,0,,,,,0,11,11,14,imgFunc,1,NA,1.1058801002800465,316.2665375992656,317.46710370853543,2023-05-25 12:22:13.734142,2023-05-25 12:22:14.927001,FF015.jpg,0,10673,40-69,2023-05-25_12h17.16.894,Recall,2021.2.3,59.89261238370223,
,DD027.jpg,0,FF027.jpg,0,,,,,0,12,12,26,imgFunc,1,NA,1.0574399000033736,317.47504619974643,318.61460640933365,2023-05-25 12:22:14.940925,2023-05-25 12:22:16.077552,FF027.jpg,0,10673,40-69,2023-05-25_12h17.16.894,Recall,2021.2.3,59.89261238370223,
,SD040.jpg,0,MF040.jpg,0,,,,,0,13,13,89,imgFunc,1,NA,1.101681999862194,318.61475699953735,319.7996584093198,2023-05-25 12:22:16.085516,2023-05-25 12:22:17.261382,MF040.jpg,0,10673,40-69,2023-05-25_12h17.16.894,Recall,2021.2.3,59.89261238370223,
,L_SD508.jpg,1,L_MF508.jpg,1,,,,,0,14,14,97,imgFunc,2,NA,10.27682700008154,319.7995686996728,330.174721009098,2023-05-25 12:22:17.269360,2023-05-25 12:22:27.635689,L_MF508.jpg,1,10673,40-69,2023-05-25_12h17.16.894,Recall,2021.2.3,59.89261238370223,
,SD032.jpg,0,MF032.jpg,0,,,,,0,15,15,81,imgFunc,1,NA,0.8591448999941349,330.2093511996791,331.19196540955454,2023-05-25 12:22:27.644634,2023-05-25 12:22:28.620560,MF032.jpg,0,10673,40-69,2023-05-25_12h17.16.894,Recall,2021.2.3,59.89261238370223,
,SD039.jpg,0,MF039.jpg,0,,,,,0,16,16,88,imgFunc,1,NA,1.1122402995824814,331.1643281998113,332.3832373097539,2023-05-25 12:22:28.627569,2023-05-25 12:22:29.837848,MF039.jpg,0,10673,40-69,2023-05-25_12h17.16.894,Recall,2021.2.3,59.89261238370223,
,DD031.jpg,0,FF031.jpg,0,,,,,0,17,17,30,imgFunc,1,NA,0.7768210005015135,332.3956071995199,333.26520590949804,2023-05-25 12:22:29.852834,2023-05-25 12:22:30.721516,FF031.jpg,0,10673,40-69,2023-05-25_12h17.16.894,Recall,2021.2.3,59.89261238370223,
,L_SD507.jpg,1,L_MF507.jpg,1,,,,,0,18,18,96,imgFunc,1,NA,1.0323026003316045,333.26808649953455,334.4032663088292,2023-05-25 12:22:30.729497,2023-05-25 12:22:31.855503,L_MF507.jpg,1,10673,40-69,2023-05-25_12h17.16.894,Recall,2021.2.3,59.89261238370223,
,L_DD506.jpg,1,L_FF506.jpg,1,,,,,0,19,19,45,imgFunc,2,NA,0.8346278006210923,334.3938297992572,335.32904500793666,2023-05-25 12:22:31.863475,2023-05-25 12:22:32.789978,L_FF506.jpg,1,10673,40-69,2023-05-25_12h17.16.894,Recall,2021.2.3,59.89261238370223,
,L_SD506.jpg,1,L_MF506.jpg,1,,,,,0,20,20,95,imgFunc,2,NA,1.1132445000112057,335.33119539916515,336.5334856081754,2023-05-25 12:22:32.796986,2023-05-25 12:22:33.990592,L_MF506.jpg,1,10673,40-69,2023-05-25_12h17.16.894,Recall,2021.2.3,59.89261238370223,
,SD031.jpg,0,MF031.jpg,0,,,,,0,21,21,80,imgFunc,2,NA,1.0661701997742057,336.5382150998339,337.70668821036816,2023-05-25 12:22:33.998575,2023-05-25 12:22:35.157966,MF031.jpg,0,10673,40-69,2023-05-25_12h17.16.894,Recall,2021.2.3,59.89261238370223,
,SD033.jpg,0,MF033.jpg,0,,,,,0,22,22,82,imgFunc,1,NA,0.7726887995377183,337.69566919934005,338.5646728100255,2023-05-25 12:22:35.165943,2023-05-25 12:22:36.025537,MF033.jpg,0,10673,40-69,2023-05-25_12h17.16.894,Recall,2021.2.3,59.89261238370223,
,L_SD503.jpg,1,L_MF503.jpg,1,,,,,0,23,23,92,imgFunc,1,NA,0.9759514005854726,338.56443509925157,339.6326587088406,2023-05-25 12:22:36.033519,2023-05-25 12:22:37.092694,L_MF503.jpg,1,10673,40-69,2023-05-25_12h17.16.894,Recall,2021.2.3,59.89261238370223,
,SD020.jpg,0,MF020.jpg,0,,,,,0,24,24,69,imgFunc,1,NA,0.6840126998722553,339.6323485998437,340.41758230887353,2023-05-25 12:22:37.100678,2023-05-25 12:22:37.876583,MF020.jpg,0,10673,40-69,2023-05-25_12h17.16.894,Recall,2021.2.3,59.89261238370223,
,DD025.jpg,0,FF025.jpg,0,,,,,0,25,25,24,imgFunc,1,NA,0.8605472994968295,340.41574670001864,341.36676850914955,2023-05-25 12:22:37.884558,2023-05-25 12:22:38.827072,FF025.jpg,0,10673,40-69,2023-05-25_12h17.16.894,Recall,2021.2.3,59.89261238370223,
,L_SD509.jpg,1,L_MF509.jpg,1,,,,,0,26,26,98,imgFunc,1,NA,1.1194815002381802,341.3809320991859,342.6016496075317,2023-05-25 12:22:38.842005,2023-05-25 12:22:40.061931,L_MF509.jpg,1,10673,40-69,2023-05-25_12h17.16.894,Recall,2021.2.3,59.89261238370223,
,SD012.jpg,0,MF012.jpg,0,,,,,0,27,27,61,imgFunc,1,NA,0.8126601995900273,342.59974219929427,343.5016191089526,2023-05-25 12:22:40.068913,2023-05-25 12:22:40.962625,MF012.jpg,0,10673,40-69,2023-05-25_12h17.16.894,Recall,2021.2.3,59.89261238370223,
,SD013.jpg,0,MF013.jpg,0,,,,,0,28,28,62,imgFunc,2,NA,0.8956044996157289,343.5007654996589,344.48595000989735,2023-05-25 12:22:40.969607,2023-05-25 12:22:41.946035,MF013.jpg,0,10673,40-69,2023-05-25_12h17.16.894,Recall,2021.2.3,59.89261238370223,
,DD033.jpg,0,FF033.jpg,0,,,,,0,29,29,32,imgFunc,2,NA,1.0882492000237107,344.48442699946463,345.6701349085197,2023-05-25 12:22:41.954013,2023-05-25 12:22:43.130887,FF033.jpg,0,10673,40-69,2023-05-25_12h17.16.894,Recall,2021.2.3,59.89261238370223,
,SD010.jpg,0,MF010.jpg,0,,,,,0,30,30,59,imgFunc,1,NA,1.1864625001326203,345.67387649975717,346.95922320894897,2023-05-25 12:22:43.137857,2023-05-25 12:22:44.414452,MF010.jpg,0,10673,40-69,2023-05-25_12h17.16.894,Recall,2021.2.3,59.89261238370223,
,DD035.jpg,0,FF035.jpg,0,,,,,0,31,31,34,imgFunc,2,NA,1.5570409996435046,346.96731079928577,348.62144650891423,2023-05-25 12:22:44.429413,2023-05-25 12:22:46.082861,FF035.jpg,0,10673,40-69,2023-05-25_12h17.16.894,Recall,2021.2.3,59.89261238370223,
,SD009.jpg,0,MF009.jpg,0,,,,,0,32,32,58,imgFunc,2,NA,1.048522399738431,348.61996109969914,349.7553611090407,2023-05-25 12:22:46.089839,2023-05-25 12:22:47.216806,MF009.jpg,0,10673,40-69,2023-05-25_12h17.16.894,Recall,2021.2.3,59.89261238370223,
,DD036.jpg,0,FF036.jpg,0,,,,,0,33,33,35,imgFunc,1,NA,2.982409500516951,349.75816420000046,352.8447502097115,2023-05-25 12:22:47.224784,2023-05-25 12:22:50.302185,FF036.jpg,0,10673,40-69,2023-05-25_12h17.16.894,Recall,2021.2.3,59.89261238370223,
,L_SD510.jpg,1,L_MF510.jpg,1,,,,,0,34,34,99,imgFunc,2,NA,1.3721823999658227,352.8482074998319,354.3170367097482,2023-05-25 12:22:50.310166,2023-05-25 12:22:51.770270,L_MF510.jpg,1,10673,40-69,2023-05-25_12h17.16.894,Recall,2021.2.3,59.89261238370223,
,DD005.jpg,0,FF005.jpg,0,,,,,0,35,35,4,imgFunc,1,NA,4.065801000222564,354.31454989966005,358.4849486099556,2023-05-25 12:22:51.778253,2023-05-25 12:22:55.939310,FF005.jpg,0,10673,40-69,2023-05-25_12h17.16.894,Recall,2021.2.3,59.89261238370223,
,L_DD510.jpg,1,L_FF510.jpg,1,,,,,0,36,36,49,imgFunc,2,NA,1.2400150001049042,358.5004905993119,359.8360987091437,2023-05-25 12:22:55.955267,2023-05-25 12:22:57.290502,L_FF510.jpg,1,10673,40-69,2023-05-25_12h17.16.894,Recall,2021.2.3,59.89261238370223,
,SD011.jpg,0,MF011.jpg,0,,,,,0,37,37,60,imgFunc,2,NA,0.9571793004870415,359.83112969994545,360.8831796096638,2023-05-25 12:22:57.298446,2023-05-25 12:22:58.341827,MF011.jpg,0,10673,40-69,2023-05-25_12h17.16.894,Recall,2021.2.3,59.89261238370223,
,DD001.jpg,0,FF001.jpg,0,,,,,0,38,38,0,imgFunc,2,NA,1.3373397001996636,360.89103639964014,362.32678620889783,2023-05-25 12:22:58.348817,2023-05-25 12:22:59.775544,FF001.jpg,0,10673,40-69,2023-05-25_12h17.16.894,Recall,2021.2.3,59.89261238370223,
,DD006.jpg,0,FF006.jpg,0,,,,,0,39,39,5,imgFunc,1,NA,0.8010169994086027,362.32328249979764,363.22422670945525,2023-05-25 12:22:59.783527,2023-05-25 12:23:00.676289,FF006.jpg,0,10673,40-69,2023-05-25_12h17.16.894,Recall,2021.2.3,59.89261238370223,
,DD029.jpg,0,FF029.jpg,0,,,,,0,40,40,28,imgFunc,1,NA,1.1043372005224228,363.2281788997352,364.44685700908303,2023-05-25 12:23:00.684243,2023-05-25 12:23:01.893832,FF029.jpg,0,10673,40-69,2023-05-25_12h17.16.894,Recall,2021.2.3,59.89261238370223,
,SD021.jpg,0,MF021.jpg,0,,,,,0,41,41,70,imgFunc,2,NA,3.593067199923098,364.4353545997292,368.12163290940225,2023-05-25 12:23:01.901809,2023-05-25 12:23:05.579935,MF021.jpg,0,10673,40-69,2023-05-25_12h17.16.894,Recall,2021.2.3,59.89261238370223,
,L_SD505.jpg,1,L_MF505.jpg,1,,,,,0,42,42,94,imgFunc,2,NA,0.8102089995518327,368.12214449979365,369.0239171097055,2023-05-25 12:23:05.587914,2023-05-25 12:23:06.480982,L_MF505.jpg,1,10673,40-69,2023-05-25_12h17.16.894,Recall,2021.2.3,59.89261238370223,
,DD028.jpg,0,FF028.jpg,0,,,,,0,43,43,27,imgFunc,1,NA,2.1024334002286196,369.029920399189,371.23273670952767,2023-05-25 12:23:06.487963,2023-05-25 12:23:08.682467,FF028.jpg,0,10673,40-69,2023-05-25_12h17.16.894,Recall,2021.2.3,59.89261238370223,
,DD024.jpg,0,FF024.jpg,0,,,,,0,44,44,23,imgFunc,1,NA,1.088668399490416,371.23566049989313,372.4375123102218,2023-05-25 12:23:08.690421,2023-05-25 12:23:09.883245,FF024.jpg,0,10673,40-69,2023-05-25_12h17.16.894,Recall,2021.2.3,59.89261238370223,
,L_SD501.jpg,1,L_MF501.jpg,1,,,,,0,45,45,90,imgFunc,1,NA,0.9785379003733397,372.43377249967307,373.5049138087779,2023-05-25 12:23:09.898203,2023-05-25 12:23:10.967378,L_MF501.jpg,1,10673,40-69,2023-05-25_12h17.16.894,Recall,2021.2.3,59.89261238370223,
,SD036.jpg,0,MF036.jpg,0,,,,,0,46,46,85,imgFunc,1,NA,0.7130671003833413,373.5152380997315,374.3240914102644,2023-05-25 12:23:10.979321,2023-05-25 12:23:11.784202,MF036.jpg,0,10673,40-69,2023-05-25_12h17.16.894,Recall,2021.2.3,59.89261238370223,
,DD037.jpg,0,FF037.jpg,0,,,,,0,47,47,36,imgFunc,2,NA,0.9554609004408121,374.35282759927213,375.43580190930516,2023-05-25 12:23:11.793179,2023-05-25 12:23:12.868317,FF037.jpg,0,10673,40-69,2023-05-25_12h17.16.894,Recall,2021.2.3,59.89261238370223,
,SD022.jpg,0,MF022.jpg,0,,,,,0,48,48,71,imgFunc,1,NA,1.328345799818635,375.4120057998225,376.8306580102071,2023-05-25 12:23:12.876264,2023-05-25 12:23:14.286505,MF022.jpg,0,10673,40-69,2023-05-25_12h17.16.894,Recall,2021.2.3,59.89261238370223,
,SD016.jpg,0,MF016.jpg,0,,,,,0,49,49,65,imgFunc,1,NA,0.9434114992618561,376.82896679919213,377.8640425093472,2023-05-25 12:23:14.294513,2023-05-25 12:23:15.320603,MF016.jpg,0,10673,40-69,2023-05-25_12h17.16.894,Recall,2021.2.3,59.89261238370223,
,DD039.jpg,0,FF039.jpg,0,,,,,0,50,50,38,imgFunc,2,NA,6.643471700139344,377.872899399139,384.6135855084285,2023-05-25 12:23:15.335567,2023-05-25 12:23:22.075088,FF039.jpg,0,10673,40-69,2023-05-25_12h17.16.894,Recall,2021.2.3,59.89261238370223,
,L_DD509.jpg,1,L_FF509.jpg,1,,,,,0,51,51,48,imgFunc,1,NA,6.014645299874246,384.62166689988226,390.7407305100933,2023-05-25 12:23:22.084037,2023-05-25 12:23:28.196228,L_FF509.jpg,1,10673,40-69,2023-05-25_12h17.16.894,Recall,2021.2.3,59.89261238370223,
,SD028.jpg,0,MF028.jpg,0,,,,,0,52,52,77,imgFunc,2,NA,1.0309975994750857,390.7572752991691,391.9066298082471,2023-05-25 12:23:28.205207,2023-05-25 12:23:29.347278,MF028.jpg,0,10673,40-69,2023-05-25_12h17.16.894,Recall,2021.2.3,59.89261238370223,
,DD021.jpg,0,FF021.jpg,0,,,,,0,53,53,20,imgFunc,1,NA,2.7651272006332874,391.88724179938436,394.74063990917057,2023-05-25 12:23:29.354240,2023-05-25 12:23:32.198993,FF021.jpg,0,10673,40-69,2023-05-25_12h17.16.894,Recall,2021.2.3,59.89261238370223,
,SD018.jpg,0,MF018.jpg,0,,,,,0,54,54,67,imgFunc,2,NA,1.2601902997121215,394.75207709986717,396.119683210738,2023-05-25 12:23:32.206969,2023-05-25 12:23:33.566377,MF018.jpg,0,10673,40-69,2023-05-25_12h17.16.894,Recall,2021.2.3,59.89261238370223,
,SD001.jpg,0,MF001.jpg,0,,,,,0,55,55,50,imgFunc,1,NA,3.0108056999742985,396.10544639918953,399.20859250891954,2023-05-25 12:23:33.574353,2023-05-25 12:23:36.668600,MF001.jpg,0,10673,40-69,2023-05-25_12h17.16.894,Recall,2021.2.3,59.89261238370223,
,L_DD507.jpg,1,L_FF507.jpg,1,,,,,0,56,56,46,imgFunc,2,NA,6.908537800423801,399.2077329996973,406.2136372094974,2023-05-25 12:23:36.676578,2023-05-25 12:23:43.674218,L_FF507.jpg,1,10673,40-69,2023-05-25_12h17.16.894,Recall,2021.2.3,59.89261238370223,
,SD029.jpg,0,MF029.jpg,0,,,,,0,57,57,78,imgFunc,1,NA,0.7848976003006101,406.21937029995024,407.1023129094392,2023-05-25 12:23:43.683194,2023-05-25 12:23:44.557640,MF029.jpg,0,10673,40-69,2023-05-25_12h17.16.894,Recall,2021.2.3,59.89261238370223,
,SD023.jpg,0,MF023.jpg,0,,,,,0,58,58,72,imgFunc,2,NA,1.4002884002402425,407.0999746993184,408.6014902088791,2023-05-25 12:23:44.565592,2023-05-25 12:23:46.059114,MF023.jpg,0,10673,40-69,2023-05-25_12h17.16.894,Recall,2021.2.3,59.89261238370223,
,DD016.jpg,0,FF016.jpg,0,,,,,0,59,59,15,imgFunc,0,NA,0.8428265005350113,408.609457699582,409.54835820943117,2023-05-25 12:23:46.073064,2023-05-25 12:23:47.010288,FF016.jpg,0,10673,40-69,2023-05-25_12h17.16.894,Recall,2021.2.3,59.89261238370223,
,DD008.jpg,0,FF008.jpg,0,,,,,0,60,60,7,imgFunc,9,NA,2.5221327003091574,409.5461433995515,412.16557740885764,2023-05-25 12:23:47.017269,2023-05-25 12:23:49.628406,FF008.jpg,0,10673,40-69,2023-05-25_12h17.16.894,Recall,2021.2.3,59.89261238370223,
,DD010.jpg,0,FF010.jpg,0,,,,,0,61,61,9,imgFunc,0,NA,1.2758208997547626,412.1684216996655,413.5371610093862,2023-05-25 12:23:49.636382,2023-05-25 12:23:50.996200,FF010.jpg,0,10673,40-69,2023-05-25_12h17.16.894,Recall,2021.2.3,59.89261238370223,
,L_DD504.jpg,1,L_FF504.jpg,1,,,,,0,62,62,43,imgFunc,1,NA,4.054764400236309,413.5334838991985,417.68743630778044,2023-05-25 12:23:51.003158,2023-05-25 12:23:55.148794,L_FF504.jpg,1,10673,40-69,2023-05-25_12h17.16.894,Recall,2021.2.3,59.89261238370223,
,L_DD501.jpg,1,L_FF501.jpg,1,,,,,0,63,63,40,imgFunc,1,NA,0.8513582004234195,417.69688399974257,418.64136760961264,2023-05-25 12:23:55.159790,2023-05-25 12:23:56.099343,L_FF501.jpg,1,10673,40-69,2023-05-25_12h17.16.894,Recall,2021.2.3,59.89261238370223,
,L_DD502.jpg,1,L_FF502.jpg,1,,,,,0,64,64,41,imgFunc,2,NA,0.9999176003038883,418.6523667993024,419.73983510863036,2023-05-25 12:23:56.114306,2023-05-25 12:23:57.200409,L_FF502.jpg,1,10673,40-69,2023-05-25_12h17.16.894,Recall,2021.2.3,59.89261238370223,
,SD030.jpg,0,MF030.jpg,0,,,,,0,65,65,79,imgFunc,1,NA,6.366182199679315,419.7422601999715,426.19761930964887,2023-05-25 12:23:57.208389,2023-05-25 12:24:03.655121,MF030.jpg,0,10673,40-69,2023-05-25_12h17.16.894,Recall,2021.2.3,59.89261238370223,
,DD004.jpg,0,FF004.jpg,0,,,,,0,66,66,3,imgFunc,1,NA,0.9293940998613834,426.20280639920384,427.2359970090911,2023-05-25 12:24:03.664096,2023-05-25 12:24:04.688661,FF004.jpg,0,10673,40-69,2023-05-25_12h17.16.894,Recall,2021.2.3,59.89261238370223,
,SD026.jpg,0,MF026.jpg,0,,,,,0,67,67,75,imgFunc,2,NA,1.032413199543953,427.23572829924524,428.3707769094035,2023-05-25 12:24:04.696638,2023-05-25 12:24:05.823068,MF026.jpg,0,10673,40-69,2023-05-25_12h17.16.894,Recall,2021.2.3,59.89261238370223,
,SD025.jpg,0,MF025.jpg,0,,,,,0,68,68,74,imgFunc,1,NA,1.013349000364542,428.37491669971496,429.4936463087797,2023-05-25 12:24:05.831021,2023-05-25 12:24:06.941062,MF025.jpg,0,10673,40-69,2023-05-25_12h17.16.894,Recall,2021.2.3,59.89261238370223,
,L_DD505.jpg,1,L_FF505.jpg,1,,,,,0,69,69,44,imgFunc,2,NA,1.2137029003351927,429.47866509947926,430.78042900934815,2023-05-25 12:24:06.949041,2023-05-25 12:24:08.242235,L_FF505.jpg,1,10673,40-69,2023-05-25_12h17.16.894,Recall,2021.2.3,59.89261238370223,
,SD035.jpg,0,MF035.jpg,0,,,,,0,70,70,84,imgFunc,1,NA,1.0548778995871544,430.78133919928223,431.9327987097204,2023-05-25 12:24:08.249217,2023-05-25 12:24:09.392055,MF035.jpg,0,10673,40-69,2023-05-25_12h17.16.894,Recall,2021.2.3,59.89261238370223,
,DD034.jpg,0,FF034.jpg,0,,,,,0,71,71,33,imgFunc,2,NA,1.1933439001441002,431.93086319975555,433.21662591025233,2023-05-25 12:24:09.400033,2023-05-25 12:24:10.676759,FF034.jpg,0,10673,40-69,2023-05-25_12h17.16.894,Recall,2021.2.3,59.89261238370223,
,SD034.jpg,0,MF034.jpg,0,,,,,0,72,72,83,imgFunc,1,NA,1.0214812997728586,433.222898199223,434.34140010830015,2023-05-25 12:24:10.684713,2023-05-25 12:24:11.794653,MF034.jpg,0,10673,40-69,2023-05-25_12h17.16.894,Recall,2021.2.3,59.89261238370223,
,DD007.jpg,0,FF007.jpg,0,,,,,0,73,73,6,imgFunc,2,NA,1.5286594005301595,434.3475744994357,435.9680948089808,2023-05-25 12:24:11.809612,2023-05-25 12:24:13.429119,FF007.jpg,0,10673,40-69,2023-05-25_12h17.16.894,Recall,2021.2.3,59.89261238370223,
,DD003.jpg,0,FF003.jpg,0,,,,,0,74,74,2,imgFunc,2,NA,0.8912051003426313,435.9690066995099,436.95350950956345,2023-05-25 12:24:13.437123,2023-05-25 12:24:14.412283,FF003.jpg,0,10673,40-69,2023-05-25_12h17.16.894,Recall,2021.2.3,59.89261238370223,
,DD022.jpg,0,FF022.jpg,0,,,,,0,75,75,21,imgFunc,2,NA,0.7707380997017026,436.953497399576,437.82184020988643,2023-05-25 12:24:14.420237,2023-05-25 12:24:15.279670,FF022.jpg,0,10673,40-69,2023-05-25_12h17.16.894,Recall,2021.2.3,59.89261238370223,
,SD017.jpg,0,MF017.jpg,0,,,,,0,76,76,66,imgFunc,2,NA,1.0844704005867243,437.8237277995795,439.0088024092838,2023-05-25 12:24:15.287648,2023-05-25 12:24:16.463930,MF017.jpg,0,10673,40-69,2023-05-25_12h17.16.894,Recall,2021.2.3,59.89261238370223,
,SD007.jpg,0,MF007.jpg,0,,,,,0,77,77,56,imgFunc,1,NA,0.8226032005622983,439.0136180995032,439.9487348096445,2023-05-25 12:24:16.471908,2023-05-25 12:24:17.398140,MF007.jpg,0,10673,40-69,2023-05-25_12h17.16.894,Recall,2021.2.3,59.89261238370223,
,L_SD504.jpg,1,L_MF504.jpg,1,,,,,0,78,78,93,imgFunc,1,NA,2.96351629961282,439.9526732992381,443.0075551085174,2023-05-25 12:24:17.413103,2023-05-25 12:24:20.467557,L_MF504.jpg,1,10673,40-69,2023-05-25_12h17.16.894,Recall,2021.2.3,59.89261238370223,
,SD004.jpg,0,MF004.jpg,0,,,,,0,79,79,53,imgFunc,1,NA,1.101651699282229,443.01455469988286,444.21684911008924,2023-05-25 12:24:20.474538,2023-05-25 12:24:21.667841,MF004.jpg,0,10673,40-69,2023-05-25_12h17.16.894,Recall,2021.2.3,59.89261238370223,
,L_DD508.jpg,1,L_FF508.jpg,1,,,,,0,80,80,47,imgFunc,1,NA,1.009485300630331,444.2108339993283,445.3123542089015,2023-05-25 12:24:21.675818,2023-05-25 12:24:22.768902,L_FF508.jpg,1,10673,40-69,2023-05-25_12h17.16.894,Recall,2021.2.3,59.89261238370223,
,SD027.jpg,0,MF027.jpg,0,,,,,0,81,81,76,imgFunc,2,NA,1.6048488998785615,445.31137199979275,447.013307210058,2023-05-25 12:24:22.776886,2023-05-25 12:24:24.470048,MF027.jpg,0,10673,40-69,2023-05-25_12h17.16.894,Recall,2021.2.3,59.89261238370223,
,DD002.jpg,0,FF002.jpg,0,,,,,0,82,82,1,imgFunc,2,NA,0.9405984999611974,447.0235824994743,448.0752588082105,2023-05-25 12:24:24.477996,2023-05-25 12:24:25.521416,FF002.jpg,0,10673,40-69,2023-05-25_12h17.16.894,Recall,2021.2.3,59.89261238370223,
,SD038.jpg,0,MF038.jpg,0,,,,,0,83,83,87,imgFunc,2,NA,1.3377096001058817,448.0584804993123,449.49275840912014,2023-05-25 12:24:25.529393,2023-05-25 12:24:26.955072,MF038.jpg,0,10673,40-69,2023-05-25_12h17.16.894,Recall,2021.2.3,59.89261238370223,
,SD003.jpg,0,MF003.jpg,0,,,,,0,84,84,52,imgFunc,2,NA,1.1435438999906182,449.500626899302,450.7457101084292,2023-05-25 12:24:26.966064,2023-05-25 12:24:28.205738,MF003.jpg,0,10673,40-69,2023-05-25_12h17.16.894,Recall,2021.2.3,59.89261238370223,
,DD032.jpg,0,FF032.jpg,0,,,,,0,85,85,31,imgFunc,2,NA,1.1481539998203516,450.75202689971775,452.00408730935305,2023-05-25 12:24:28.213717,2023-05-25 12:24:29.456644,FF032.jpg,0,10673,40-69,2023-05-25_12h17.16.894,Recall,2021.2.3,59.89261238370223,
,DD026.jpg,0,FF026.jpg,0,,,,,0,86,86,25,imgFunc,2,NA,1.0144205996766686,452.0057754991576,453.1241420097649,2023-05-25 12:24:29.464595,2023-05-25 12:24:30.574636,FF026.jpg,0,10673,40-69,2023-05-25_12h17.16.894,Recall,2021.2.3,59.89261238370223,
,SD024.jpg,0,MF024.jpg,0,,,,,0,87,87,73,imgFunc,1,NA,2.2727567004039884,453.1315137995407,455.5028631091118,2023-05-25 12:24:30.589595,2023-05-25 12:24:32.959737,MF024.jpg,0,10673,40-69,2023-05-25_12h17.16.894,Recall,2021.2.3,59.89261238370223,
,DD019.jpg,0,FF019.jpg,0,,,,,0,88,88,18,imgFunc,1,NA,2.7702654004096985,455.49791219923645,458.3677997086197,2023-05-25 12:24:32.966747,2023-05-25 12:24:35.828139,FF019.jpg,0,10673,40-69,2023-05-25_12h17.16.894,Recall,2021.2.3,59.89261238370223,
,DD040.jpg,0,FF040.jpg,0,,,,,0,89,89,39,imgFunc,2,NA,1.9736424004659057,458.3824820993468,460.46544921025634,2023-05-25 12:24:35.837142,2023-05-25 12:24:37.913222,FF040.jpg,0,10673,40-69,2023-05-25_12h17.16.894,Recall,2021.2.3,59.89261238370223,
,SD037.jpg,0,MF037.jpg,0,,,,,0,90,90,86,imgFunc,0,NA,0.5708552002906799,460.45730479992926,461.1249223090708,2023-05-25 12:24:37.921171,2023-05-25 12:24:38.580416,MF037.jpg,0,10673,40-69,2023-05-25_12h17.16.894,Recall,2021.2.3,59.89261238370223,
,L_SD502.jpg,1,L_MF502.jpg,1,,,,,0,91,91,91,imgFunc,9,NA,0.4592968998476863,461.1288929991424,461.69702100846916,2023-05-25 12:24:38.587396,2023-05-25 12:24:39.146812,L_MF502.jpg,1,10673,40-69,2023-05-25_12h17.16.894,Recall,2021.2.3,59.89261238370223,
,L_DD503.jpg,1,L_FF503.jpg,1,,,,,0,92,92,42,imgFunc,9,NA,4.711959199979901,461.7001941995695,466.50672330893576,2023-05-25 12:24:39.161771,2023-05-25 12:24:43.967219,L_FF503.jpg,1,10673,40-69,2023-05-25_12h17.16.894,Recall,2021.2.3,59.89261238370223,
,DD023.jpg,0,FF023.jpg,0,,,,,0,93,93,22,imgFunc,1,NA,1.0731545994058251,466.51504229940474,467.6809545084834,2023-05-25 12:24:43.976163,2023-05-25 12:24:45.135222,FF023.jpg,0,10673,40-69,2023-05-25_12h17.16.894,Recall,2021.2.3,59.89261238370223,
,SD002.jpg,0,MF002.jpg,0,,,,,0,94,94,51,imgFunc,2,NA,0.8145620003342628,467.67766019981354,468.59517880994827,2023-05-25 12:24:45.143207,2023-05-25 12:24:46.052019,MF002.jpg,0,10673,40-69,2023-05-25_12h17.16.894,Recall,2021.2.3,59.89261238370223,
,SD005.jpg,0,MF005.jpg,0,,,,,0,95,95,54,imgFunc,9,NA,1.341596500016749,468.60651829931885,470.05796920880675,2023-05-25 12:24:46.059969,2023-05-25 12:24:47.503279,MF005.jpg,0,10673,40-69,2023-05-25_12h17.16.894,Recall,2021.2.3,59.89261238370223,
,DD013.jpg,0,FF013.jpg,0,,,,,0,96,96,12,imgFunc,2,NA,2.910746700130403,470.0694136992097,473.10579900909215,2023-05-25 12:24:47.511233,2023-05-25 12:24:50.538467,FF013.jpg,0,10673,40-69,2023-05-25_12h17.16.894,Recall,2021.2.3,59.89261238370223,
,SD019.jpg,0,MF019.jpg,0,,,,,0,97,97,68,imgFunc,2,NA,2.1744794994592667,473.08584319986403,475.37104580923915,2023-05-25 12:24:50.546429,2023-05-25 12:24:52.823360,MF019.jpg,0,10673,40-69,2023-05-25_12h17.16.894,Recall,2021.2.3,59.89261238370223,
,DD030.jpg,0,FF030.jpg,0,,,,,0,98,98,29,imgFunc,9,NA,1.4838030003011227,475.36835519969463,476.9539334094152,2023-05-25 12:24:52.831337,2023-05-25 12:24:54.407932,FF030.jpg,0,10673,40-69,2023-05-25_12h17.16.894,Recall,2021.2.3,59.89261238370223,
,DD011.jpg,0,FF011.jpg,0,,,,,0,99,99,10,imgFunc,9,NA,0.9986988995224237,476.9494953993708,478.0513235097751,2023-05-25 12:24:54.415913,2023-05-25 12:24:55.508997,FF011.jpg,0,10673,40-69,2023-05-25_12h17.16.894,Recall,2021.2.3,59.89261238370223,
