onset	duration	trial_type	response_time	Endowment	Endowment_pmod	Decision	Decision_pmod	Offer_pmod
4.592281	2	cue_social	n/a	16	-7	n/a	n/a	n/a
4.592281	2	cue_social_low	n/a	16	-9	n/a	n/a	n/a
13.835315	2	cue_social	n/a	32	9	n/a	n/a	n/a
13.835315	2	cue_social_high	n/a	32	7	n/a	n/a	n/a
20.674480	2	cue_social	n/a	16	-7	n/a	n/a	n/a
20.674480	2	cue_social_low	n/a	16	-9	n/a	n/a	n/a
29.932875	2	cue_social	n/a	16	-7	n/a	n/a	n/a
29.932875	2	cue_social_low	n/a	16	-9	n/a	n/a	n/a
39.110860	2	cue_nonsocial	n/a	16	-9	n/a	n/a	n/a
39.110860	2	cue_nonsocial_low	n/a	16	-7	n/a	n/a	n/a
46.844418	2	cue_social	n/a	32	9	n/a	n/a	n/a
46.844418	2	cue_social_high	n/a	32	7	n/a	n/a	n/a
53.648373	2	cue_social	n/a	16	-7	n/a	n/a	n/a
53.648373	2	cue_social_low	n/a	16	-9	n/a	n/a	n/a
60.411175	2	cue_nonsocial	n/a	32	7	n/a	n/a	n/a
60.411175	2	cue_nonsocial_high	n/a	32	9	n/a	n/a	n/a
68.143280	2	cue_social	n/a	32	9	n/a	n/a	n/a
68.143280	2	cue_social_high	n/a	32	7	n/a	n/a	n/a
74.966460	2	cue_social	n/a	16	-7	n/a	n/a	n/a
74.966460	2	cue_social_low	n/a	16	-9	n/a	n/a	n/a
81.802950	2	cue_social	n/a	32	9	n/a	n/a	n/a
81.802950	2	cue_social_high	n/a	32	7	n/a	n/a	n/a
88.633060	2	cue_social	n/a	16	-7	n/a	n/a	n/a
88.633060	2	cue_social_low	n/a	16	-9	n/a	n/a	n/a
95.393936	2	cue_nonsocial	n/a	32	7	n/a	n/a	n/a
95.393936	2	cue_nonsocial_high	n/a	32	9	n/a	n/a	n/a
102.340070	2	cue_social	n/a	32	9	n/a	n/a	n/a
102.340070	2	cue_social_high	n/a	32	7	n/a	n/a	n/a
109.938286	2	cue_social	n/a	16	-7	n/a	n/a	n/a
109.938286	2	cue_social_low	n/a	16	-9	n/a	n/a	n/a
117.527340	2	cue_nonsocial	n/a	32	7	n/a	n/a	n/a
117.527340	2	cue_nonsocial_high	n/a	32	9	n/a	n/a	n/a
125.160660	2	cue_nonsocial	n/a	16	-9	n/a	n/a	n/a
125.160660	2	cue_nonsocial_low	n/a	16	-7	n/a	n/a	n/a
132.810930	2	cue_nonsocial	n/a	16	-9	n/a	n/a	n/a
132.810930	2	cue_nonsocial_low	n/a	16	-7	n/a	n/a	n/a
140.460570	2	cue_nonsocial	n/a	16	-9	n/a	n/a	n/a
140.460570	2	cue_nonsocial_low	n/a	16	-7	n/a	n/a	n/a
152.943740	2	cue_nonsocial	n/a	16	-9	n/a	n/a	n/a
152.943740	2	cue_nonsocial_low	n/a	16	-7	n/a	n/a	n/a
162.194080	2	cue_nonsocial	n/a	32	7	n/a	n/a	n/a
162.194080	2	cue_nonsocial_high	n/a	32	9	n/a	n/a	n/a
169.096680	2	cue_social	n/a	32	9	n/a	n/a	n/a
169.096680	2	cue_social_high	n/a	32	7	n/a	n/a	n/a
176.677060	2	cue_nonsocial	n/a	32	7	n/a	n/a	n/a
176.677060	2	cue_nonsocial_high	n/a	32	9	n/a	n/a	n/a
183.575970	2	cue_social	n/a	16	-7	n/a	n/a	n/a
183.575970	2	cue_social_low	n/a	16	-9	n/a	n/a	n/a
191.229630	2	cue_social	n/a	16	-7	n/a	n/a	n/a
191.229630	2	cue_social_low	n/a	16	-9	n/a	n/a	n/a
198.054500	2	cue_social	n/a	16	-7	n/a	n/a	n/a
198.054500	2	cue_social_low	n/a	16	-9	n/a	n/a	n/a
204.826800	2	cue_nonsocial	n/a	16	-9	n/a	n/a	n/a
204.826800	2	cue_nonsocial_low	n/a	16	-7	n/a	n/a	n/a
211.660390	2	cue_nonsocial	n/a	32	7	n/a	n/a	n/a
211.660390	2	cue_nonsocial_high	n/a	32	9	n/a	n/a	n/a
218.581390	2	cue_social	n/a	32	9	n/a	n/a	n/a
218.581390	2	cue_social_high	n/a	32	7	n/a	n/a	n/a
229.360630	2	cue_nonsocial	n/a	32	7	n/a	n/a	n/a
229.360630	2	cue_nonsocial_high	n/a	32	9	n/a	n/a	n/a
236.263430	2	cue_social	n/a	32	9	n/a	n/a	n/a
236.263430	2	cue_social_high	n/a	32	7	n/a	n/a	n/a
243.027080	2	cue_nonsocial	n/a	32	7	n/a	n/a	n/a
243.027080	2	cue_nonsocial_high	n/a	32	9	n/a	n/a	n/a
253.893500	2	cue_nonsocial	n/a	16	-9	n/a	n/a	n/a
253.893500	2	cue_nonsocial_low	n/a	16	-7	n/a	n/a	n/a
260.726960	2	cue_nonsocial	n/a	16	-9	n/a	n/a	n/a
260.726960	2	cue_nonsocial_low	n/a	16	-7	n/a	n/a	n/a
268.360080	2	cue_nonsocial	n/a	32	7	n/a	n/a	n/a
268.360080	2	cue_nonsocial_high	n/a	32	9	n/a	n/a	n/a
275.262900	2	cue_social	n/a	16	-7	n/a	n/a	n/a
275.262900	2	cue_social_low	n/a	16	-9	n/a	n/a	n/a
282.094480	2	cue_social	n/a	32	9	n/a	n/a	n/a
282.094480	2	cue_social_high	n/a	32	7	n/a	n/a	n/a
291.293370	2	cue_nonsocial	n/a	16	-9	n/a	n/a	n/a
291.293370	2	cue_nonsocial_low	n/a	16	-7	n/a	n/a	n/a
299.012970	2	cue_social	n/a	32	9	n/a	n/a	n/a
299.012970	2	cue_social_high	n/a	32	7	n/a	n/a	n/a
305.776860	2	cue_nonsocial	n/a	32	7	n/a	n/a	n/a
305.776860	2	cue_nonsocial_high	n/a	32	9	n/a	n/a	n/a
313.477500	2	cue_social	n/a	32	9	n/a	n/a	n/a
313.477500	2	cue_social_high	n/a	32	7	n/a	n/a	n/a
320.243260	2	cue_nonsocial	n/a	32	7	n/a	n/a	n/a
320.243260	2	cue_nonsocial_high	n/a	32	9	n/a	n/a	n/a
329.493680	2	cue_nonsocial	n/a	32	7	n/a	n/a	n/a
329.493680	2	cue_nonsocial_high	n/a	32	9	n/a	n/a	n/a
336.431180	2	cue_social	n/a	16	-7	n/a	n/a	n/a
336.431180	2	cue_social_low	n/a	16	-9	n/a	n/a	n/a
345.692020	2	cue_social	n/a	16	-7	n/a	n/a	n/a
345.692020	2	cue_social_low	n/a	16	-9	n/a	n/a	n/a
352.409940	2	cue_nonsocial	n/a	32	7	n/a	n/a	n/a
352.409940	2	cue_nonsocial_high	n/a	32	9	n/a	n/a	n/a
363.276250	2	cue_nonsocial	n/a	32	7	n/a	n/a	n/a
363.276250	2	cue_nonsocial_high	n/a	32	9	n/a	n/a	n/a
370.926670	2	cue_nonsocial	n/a	16	-9	n/a	n/a	n/a
370.926670	2	cue_nonsocial_low	n/a	16	-7	n/a	n/a	n/a
6.517176	1.083242	dec_social_choice	1.083242	16.000000	n/a	0	0	-2.304688e-01
6.517176	1.083242	dec_choice	1.083242	16.000000	n/a	0	0	-2.317708e-01
6.517176	1.083242	dec_social_reject	1.083242	16.000000	n/a	0	0	3.906250e-02
6.517176	1.083242	dec_reject	1.083242	16.000000	n/a	0	0	3.645833e-02
6.517176	1.083242	dec_social_reject_low	1.083242	16.000000	n/a	2	-1.067708e-01	-2.317708e-01
15.784085	1.150032	dec_social_choice	1.150032	32.000000	n/a	8	1.953125e-02	1.953125e-02
15.784085	1.150032	dec_choice	1.150032	32.000000	n/a	8	1.822917e-02	1.822917e-02
15.784085	1.150032	dec_social_accept	1.150032	32.000000	n/a	8	-1.250000e-01	-1.250000e-01
15.784085	1.150032	dec_accept	1.150032	32.000000	n/a	8	-1.250000e-01	-1.250000e-01
15.784085	1.150032	dec_social_accept_high	1.150032	32.000000	n/a	8	1.822917e-02	1.822917e-02
22.616564	1.200484	dec_social_choice	1.200484	16.000000	n/a	8	2.695312e-01	2.695312e-01
22.616564	1.200484	dec_choice	1.200484	16.000000	n/a	8	2.682292e-01	2.682292e-01
22.616564	1.200484	dec_social_accept	1.200484	16.000000	n/a	8	1.250000e-01	1.250000e-01
22.616564	1.200484	dec_accept	1.200484	16.000000	n/a	8	1.250000e-01	1.250000e-01
22.616564	1.200484	dec_social_accept_high	1.200484	16.000000	n/a	8	2.682292e-01	2.682292e-01
31.866695	1.033469	dec_social_choice	1.033469	16.000000	n/a	0	0	-2.304688e-01
31.866695	1.033469	dec_choice	1.033469	16.000000	n/a	0	0	-2.317708e-01
31.866695	1.033469	dec_social_reject	1.033469	16.000000	n/a	0	0	-2.343750e-02
31.866695	1.033469	dec_reject	1.033469	16.000000	n/a	0	0	-2.604167e-02
31.866695	1.033469	dec_social_reject_low	1.033469	16.000000	n/a	1	-1.692708e-01	-2.317708e-01
41.116530	1.284096	dec_nonsocial_choice	1.284096	16.000000	n/a	0	0	-2.304688e-01
41.116530	1.284096	dec_choice	1.284096	16.000000	n/a	0	0	-2.291667e-01
41.116530	1.284096	dec_nonsocial_reject	1.284096	16.000000	n/a	0	0	3.906250e-02
41.116530	1.284096	dec_reject	1.284096	16.000000	n/a	0	0	4.166667e-02
41.116530	1.284096	dec_nonsocial_reject_low	1.284096	16.000000	n/a	2	3.645833e-02	-8.854167e-02
48.751133	0.966067	dec_social_choice	0.966067	32.000000	n/a	8	1.953125e-02	1.953125e-02
48.751133	0.966067	dec_choice	0.966067	32.000000	n/a	8	1.822917e-02	1.822917e-02
48.751133	0.966067	dec_social_accept	0.966067	32.000000	n/a	8	-1.250000e-01	-1.250000e-01
48.751133	0.966067	dec_accept	0.966067	32.000000	n/a	8	-1.250000e-01	-1.250000e-01
48.751133	0.966067	dec_social_high	0.966067	32.000000	n/a	8	1.822917e-02	1.822917e-02
48.751133	0.966067	dec_social_accept_high	0.966067	32.000000	n/a	8	1.822917e-02	1.822917e-02
55.584026	1.183657	dec_social_choice	1.183657	16.000000	n/a	4	1.953125e-02	1.953125e-02
55.584026	1.183657	dec_choice	1.183657	16.000000	n/a	4	1.822917e-02	1.822917e-02
55.584026	1.183657	dec_social_accept	1.183657	16.000000	n/a	4	-1.250000e-01	-1.250000e-01
55.584026	1.183657	dec_accept	1.183657	16.000000	n/a	4	-1.250000e-01	-1.250000e-01
55.584026	1.183657	dec_social_accept_high	1.183657	16.000000	n/a	4	1.822917e-02	1.822917e-02
62.418040	1.182600	dec_nonsocial_choice	1.182600	32.000000	n/a	16	2.695312e-01	2.695312e-01
62.418040	1.182600	dec_choice	1.182600	32.000000	n/a	16	2.708333e-01	2.708333e-01
62.418040	1.182600	dec_nonsocial_accept	1.182600	32.000000	n/a	16	1.250000e-01	1.250000e-01
62.418040	1.182600	dec_accept	1.182600	32.000000	n/a	16	1.250000e-01	1.250000e-01
62.418040	1.182600	dec_nonsocial_accept_high	1.182600	32.000000	n/a	16	1.250000e-01	1.250000e-01
70.068230	1.049104	dec_social_choice	1.049104	32.000000	n/a	0	0	-2.304688e-01
70.068230	1.049104	dec_choice	1.049104	32.000000	n/a	0	0	-2.317708e-01
70.068230	1.049104	dec_social_reject	1.049104	32.000000	n/a	0	0	-2.343750e-02
70.068230	1.049104	dec_reject	1.049104	32.000000	n/a	0	0	-2.604167e-02
70.068230	1.049104	dec_social_reject_low	1.049104	32.000000	n/a	2	-1.692708e-01	-2.317708e-01
76.900314	0.917049	dec_social_choice	0.917049	16.000000	n/a	0	0	-2.304688e-01
76.900314	0.917049	dec_choice	0.917049	16.000000	n/a	0	0	-2.317708e-01
76.900314	0.917049	dec_social_reject	0.917049	16.000000	n/a	0	0	3.906250e-02
76.900314	0.917049	dec_reject	0.917049	16.000000	n/a	0	0	3.645833e-02
76.900314	0.917049	dec_social_reject_low	0.917049	16.000000	n/a	2	-1.067708e-01	-2.317708e-01
83.734050	0.966517	dec_social_choice	0.966517	32.000000	n/a	0	0	-2.304688e-01
83.734050	0.966517	dec_choice	0.966517	32.000000	n/a	0	0	-2.317708e-01
83.734050	0.966517	dec_social_reject	0.966517	32.000000	n/a	0	0	7.812500e-03
83.734050	0.966517	dec_reject	0.966517	32.000000	n/a	0	0	5.208333e-03
83.734050	0.966517	dec_social_reject_low	0.966517	32.000000	n/a	3	-1.380208e-01	-2.317708e-01
90.566430	1.267548	dec_social_choice	1.267548	16.000000	n/a	4	1.953125e-02	1.953125e-02
90.566430	1.267548	dec_choice	1.267548	16.000000	n/a	4	1.822917e-02	1.822917e-02
90.566430	1.267548	dec_social_accept	1.267548	16.000000	n/a	4	-1.250000e-01	-1.250000e-01
90.566430	1.267548	dec_accept	1.267548	16.000000	n/a	4	-1.250000e-01	-1.250000e-01
90.566430	1.267548	dec_social_accept_high	1.267548	16.000000	n/a	4	1.822917e-02	1.822917e-02
97.401220	1.115779	dec_nonsocial_choice	1.115779	32.000000	n/a	0	0	-2.304688e-01
97.401220	1.115779	dec_choice	1.115779	32.000000	n/a	0	0	-2.291667e-01
97.401220	1.115779	dec_nonsocial_reject	1.115779	32.000000	n/a	0	0	7.812500e-03
97.401220	1.115779	dec_reject	1.115779	32.000000	n/a	0	0	1.041667e-02
97.401220	1.115779	dec_nonsocial_low	1.115779	32.000000	n/a	0	-2.291667e-01	-2.291667e-01
97.401220	1.115779	dec_nonsocial_reject_low	1.115779	32.000000	n/a	3	1.041667e-02	-8.333333e-02
104.234520	1.199498	dec_social_choice	1.199498	32.000000	n/a	16	2.695312e-01	2.695312e-01
104.234520	1.199498	dec_choice	1.199498	32.000000	n/a	16	2.682292e-01	2.682292e-01
104.234520	1.199498	dec_social_accept	1.199498	32.000000	n/a	16	1.250000e-01	1.250000e-01
104.234520	1.199498	dec_accept	1.199498	32.000000	n/a	16	1.250000e-01	1.250000e-01
104.234520	1.199498	dec_social_accept_high	1.199498	32.000000	n/a	16	2.682292e-01	2.682292e-01
111.884125	1.115990	dec_social_choice	1.115990	16.000000	n/a	0	0	-2.304688e-01
111.884125	1.115990	dec_choice	1.115990	16.000000	n/a	0	0	-2.317708e-01
111.884125	1.115990	dec_social_reject	1.115990	16.000000	n/a	0	0	-2.343750e-02
111.884125	1.115990	dec_reject	1.115990	16.000000	n/a	0	0	-2.604167e-02
111.884125	1.115990	dec_social_reject_low	1.115990	16.000000	n/a	1	-1.692708e-01	-2.317708e-01
119.533140	0.834123	dec_nonsocial_choice	0.834123	32.000000	n/a	0	0	-2.304688e-01
119.533140	0.834123	dec_choice	0.834123	32.000000	n/a	0	0	-2.291667e-01
119.533140	0.834123	dec_nonsocial_reject	0.834123	32.000000	n/a	0	0	-2.343750e-02
119.533140	0.834123	dec_reject	0.834123	32.000000	n/a	0	0	-2.083333e-02
119.533140	0.834123	dec_nonsocial_reject_low	0.834123	32.000000	n/a	2	-2.604167e-02	-8.854167e-02
127.167160	1.183397	dec_nonsocial_choice	1.183397	16.000000	n/a	4	1.953125e-02	1.953125e-02
127.167160	1.183397	dec_choice	1.183397	16.000000	n/a	4	2.083333e-02	2.083333e-02
127.167160	1.183397	dec_nonsocial_accept	1.183397	16.000000	n/a	4	-1.250000e-01	-1.250000e-01
127.167160	1.183397	dec_accept	1.183397	16.000000	n/a	4	-1.250000e-01	-1.250000e-01
127.167160	1.183397	dec_nonsocial_high	1.183397	16.000000	n/a	4	2.083333e-02	2.083333e-02
127.167160	1.183397	dec_nonsocial_accept_high	1.183397	16.000000	n/a	4	-1.250000e-01	-1.250000e-01
134.817110	1.249849	dec_nonsocial_choice	1.249849	16.000000	n/a	8	2.695312e-01	2.695312e-01
134.817110	1.249849	dec_choice	1.249849	16.000000	n/a	8	2.708333e-01	2.708333e-01
134.817110	1.249849	dec_nonsocial_accept	1.249849	16.000000	n/a	8	1.250000e-01	1.250000e-01
134.817110	1.249849	dec_accept	1.249849	16.000000	n/a	8	1.250000e-01	1.250000e-01
134.817110	1.249849	dec_nonsocial_high	1.249849	16.000000	n/a	8	2.708333e-01	2.708333e-01
134.817110	1.249849	dec_nonsocial_accept_high	1.249849	16.000000	n/a	8	1.250000e-01	1.250000e-01
142.467160	1.099838	dec_nonsocial_choice	1.099838	16.000000	n/a	4	1.953125e-02	1.953125e-02
142.467160	1.099838	dec_choice	1.099838	16.000000	n/a	4	2.083333e-02	2.083333e-02
142.467160	1.099838	dec_nonsocial_accept	1.099838	16.000000	n/a	4	-1.250000e-01	-1.250000e-01
142.467160	1.099838	dec_accept	1.099838	16.000000	n/a	4	-1.250000e-01	-1.250000e-01
142.467160	1.099838	dec_nonsocial_accept_high	1.099838	16.000000	n/a	4	-1.250000e-01	-1.250000e-01
154.950910	1.065757	dec_nonsocial_choice	1.065757	16.000000	n/a	8	2.695312e-01	2.695312e-01
154.950910	1.065757	dec_choice	1.065757	16.000000	n/a	8	2.708333e-01	2.708333e-01
154.950910	1.065757	dec_nonsocial_accept	1.065757	16.000000	n/a	8	1.250000e-01	1.250000e-01
154.950910	1.065757	dec_accept	1.065757	16.000000	n/a	8	1.250000e-01	1.250000e-01
154.950910	1.065757	dec_nonsocial_accept_high	1.065757	16.000000	n/a	8	1.250000e-01	1.250000e-01
164.201080	1.115582	dec_nonsocial_choice	1.115582	32.000000	n/a	0	0	-2.304688e-01
164.201080	1.115582	dec_choice	1.115582	32.000000	n/a	0	0	-2.291667e-01
164.201080	1.115582	dec_nonsocial_reject	1.115582	32.000000	n/a	0	0	7.812500e-03
164.201080	1.115582	dec_reject	1.115582	32.000000	n/a	0	0	1.041667e-02
164.201080	1.115582	dec_nonsocial_reject_low	1.115582	32.000000	n/a	3	5.208333e-03	-8.854167e-02
171.033450	1.083586	dec_social_choice	1.083586	32.000000	n/a	8	1.953125e-02	1.953125e-02
171.033450	1.083586	dec_choice	1.083586	32.000000	n/a	8	1.822917e-02	1.822917e-02
171.033450	1.083586	dec_social_accept	1.083586	32.000000	n/a	8	-1.250000e-01	-1.250000e-01
171.033450	1.083586	dec_accept	1.083586	32.000000	n/a	8	-1.250000e-01	-1.250000e-01
171.033450	1.083586	dec_social_high	1.083586	32.000000	n/a	8	1.822917e-02	1.822917e-02
171.033450	1.083586	dec_social_accept_high	1.083586	32.000000	n/a	8	1.822917e-02	1.822917e-02
178.683230	0.950512	dec_nonsocial_choice	0.950512	32.000000	n/a	16	2.695312e-01	2.695312e-01
178.683230	0.950512	dec_choice	0.950512	32.000000	n/a	16	2.708333e-01	2.708333e-01
178.683230	0.950512	dec_nonsocial_accept	0.950512	32.000000	n/a	16	1.250000e-01	1.250000e-01
178.683230	0.950512	dec_accept	0.950512	32.000000	n/a	16	1.250000e-01	1.250000e-01
178.683230	0.950512	dec_nonsocial_accept_high	0.950512	32.000000	n/a	16	1.250000e-01	1.250000e-01
185.517780	1.499090	dec_social_choice	1.499090	16.000000	n/a	8	2.695312e-01	2.695312e-01
185.517780	1.499090	dec_choice	1.499090	16.000000	n/a	8	2.682292e-01	2.682292e-01
185.517780	1.499090	dec_social_accept	1.499090	16.000000	n/a	8	1.250000e-01	1.250000e-01
185.517780	1.499090	dec_accept	1.499090	16.000000	n/a	8	1.250000e-01	1.250000e-01
185.517780	1.499090	dec_social_high	1.499090	16.000000	n/a	8	2.682292e-01	2.682292e-01
185.517780	1.499090	dec_social_accept_high	1.499090	16.000000	n/a	8	2.682292e-01	2.682292e-01
193.166140	1.167143	dec_social_choice	1.167143	16.000000	n/a	8	2.695312e-01	2.695312e-01
193.166140	1.167143	dec_choice	1.167143	16.000000	n/a	8	2.682292e-01	2.682292e-01
193.166140	1.167143	dec_social_accept	1.167143	16.000000	n/a	8	1.250000e-01	1.250000e-01
193.166140	1.167143	dec_accept	1.167143	16.000000	n/a	8	1.250000e-01	1.250000e-01
193.166140	1.167143	dec_social_accept_high	1.167143	16.000000	n/a	8	2.682292e-01	2.682292e-01
200.000800	1.182946	dec_social_choice	1.182946	16.000000	n/a	8	2.695312e-01	2.695312e-01
200.000800	1.182946	dec_choice	1.182946	16.000000	n/a	8	2.682292e-01	2.682292e-01
200.000800	1.182946	dec_social_accept	1.182946	16.000000	n/a	8	1.250000e-01	1.250000e-01
200.000800	1.182946	dec_accept	1.182946	16.000000	n/a	8	1.250000e-01	1.250000e-01
200.000800	1.182946	dec_social_high	1.182946	16.000000	n/a	8	2.682292e-01	2.682292e-01
200.000800	1.182946	dec_social_accept_high	1.182946	16.000000	n/a	8	2.682292e-01	2.682292e-01
206.833770	1.033179	dec_nonsocial_choice	1.033179	16.000000	n/a	0	0	-2.304688e-01
206.833770	1.033179	dec_choice	1.033179	16.000000	n/a	0	0	-2.291667e-01
206.833770	1.033179	dec_nonsocial_reject	1.033179	16.000000	n/a	0	0	-2.343750e-02
206.833770	1.033179	dec_reject	1.033179	16.000000	n/a	0	0	-2.083333e-02
206.833770	1.033179	dec_nonsocial_low	1.033179	16.000000	n/a	0	-2.291667e-01	-2.291667e-01
206.833770	1.033179	dec_nonsocial_reject_low	1.033179	16.000000	n/a	1	-2.083333e-02	-8.333333e-02
213.667020	1.116419	dec_nonsocial_choice	1.116419	32.000000	n/a	16	2.695312e-01	2.695312e-01
213.667020	1.116419	dec_choice	1.116419	32.000000	n/a	16	2.708333e-01	2.708333e-01
213.667020	1.116419	dec_nonsocial_accept	1.116419	32.000000	n/a	16	1.250000e-01	1.250000e-01
213.667020	1.116419	dec_accept	1.116419	32.000000	n/a	16	1.250000e-01	1.250000e-01
213.667020	1.116419	dec_nonsocial_accept_high	1.116419	32.000000	n/a	16	1.250000e-01	1.250000e-01
220.500000	1.350328	dec_social_choice	1.350328	32.000000	n/a	8	1.953125e-02	1.953125e-02
220.500000	1.350328	dec_choice	1.350328	32.000000	n/a	8	1.822917e-02	1.822917e-02
220.500000	1.350328	dec_social_accept	1.350328	32.000000	n/a	8	-1.250000e-01	-1.250000e-01
220.500000	1.350328	dec_accept	1.350328	32.000000	n/a	8	-1.250000e-01	-1.250000e-01
220.500000	1.350328	dec_social_accept_high	1.350328	32.000000	n/a	8	1.822917e-02	1.822917e-02
231.368120	1.098634	dec_nonsocial_choice	1.098634	32.000000	n/a	0	0	-2.304688e-01
231.368120	1.098634	dec_choice	1.098634	32.000000	n/a	0	0	-2.291667e-01
231.368120	1.098634	dec_nonsocial_reject	1.098634	32.000000	n/a	0	0	-2.343750e-02
231.368120	1.098634	dec_reject	1.098634	32.000000	n/a	0	0	-2.083333e-02
231.368120	1.098634	dec_nonsocial_low	1.098634	32.000000	n/a	0	-2.291667e-01	-2.291667e-01
231.368120	1.098634	dec_nonsocial_reject_low	1.098634	32.000000	n/a	2	-2.083333e-02	-8.333333e-02
238.199980	1.000377	dec_social_choice	1.000377	32.000000	n/a	0	0	-2.304688e-01
238.199980	1.000377	dec_choice	1.000377	32.000000	n/a	0	0	-2.317708e-01
238.199980	1.000377	dec_social_reject	1.000377	32.000000	n/a	0	0	-2.343750e-02
238.199980	1.000377	dec_reject	1.000377	32.000000	n/a	0	0	-2.604167e-02
238.199980	1.000377	dec_social_low	1.000377	32.000000	n/a	0	-2.317708e-01	-2.317708e-01
238.199980	1.000377	dec_social_reject_low	1.000377	32.000000	n/a	2	-1.692708e-01	-2.317708e-01
245.033070	1.150483	dec_nonsocial_choice	1.150483	32.000000	n/a	8	1.953125e-02	1.953125e-02
245.033070	1.150483	dec_choice	1.150483	32.000000	n/a	8	2.083333e-02	2.083333e-02
245.033070	1.150483	dec_nonsocial_accept	1.150483	32.000000	n/a	8	-1.250000e-01	-1.250000e-01
245.033070	1.150483	dec_accept	1.150483	32.000000	n/a	8	-1.250000e-01	-1.250000e-01
245.033070	1.150483	dec_nonsocial_high	1.150483	32.000000	n/a	8	2.083333e-02	2.083333e-02
245.033070	1.150483	dec_nonsocial_accept_high	1.150483	32.000000	n/a	8	-1.250000e-01	-1.250000e-01
255.900540	1.133032	dec_nonsocial_choice	1.133032	16.000000	n/a	4	1.953125e-02	1.953125e-02
255.900540	1.133032	dec_choice	1.133032	16.000000	n/a	4	2.083333e-02	2.083333e-02
255.900540	1.133032	dec_nonsocial_accept	1.133032	16.000000	n/a	4	-1.250000e-01	-1.250000e-01
255.900540	1.133032	dec_accept	1.133032	16.000000	n/a	4	-1.250000e-01	-1.250000e-01
255.900540	1.133032	dec_nonsocial_accept_high	1.133032	16.000000	n/a	4	-1.250000e-01	-1.250000e-01
262.733060	1.334012	dec_nonsocial_choice	1.334012	16.000000	n/a	8	2.695312e-01	2.695312e-01
262.733060	1.334012	dec_choice	1.334012	16.000000	n/a	8	2.708333e-01	2.708333e-01
262.733060	1.334012	dec_nonsocial_accept	1.334012	16.000000	n/a	8	1.250000e-01	1.250000e-01
262.733060	1.334012	dec_accept	1.334012	16.000000	n/a	8	1.250000e-01	1.250000e-01
262.733060	1.334012	dec_nonsocial_accept_high	1.334012	16.000000	n/a	8	1.250000e-01	1.250000e-01
270.367130	1.065900	dec_nonsocial_choice	1.065900	32.000000	n/a	0	0	-2.304688e-01
270.367130	1.065900	dec_choice	1.065900	32.000000	n/a	0	0	-2.291667e-01
270.367130	1.065900	dec_nonsocial_reject	1.065900	32.000000	n/a	0	0	7.812500e-03
270.367130	1.065900	dec_reject	1.065900	32.000000	n/a	0	0	1.041667e-02
270.367130	1.065900	dec_nonsocial_low	1.065900	32.000000	n/a	0	-2.291667e-01	-2.291667e-01
270.367130	1.065900	dec_nonsocial_reject_low	1.065900	32.000000	n/a	3	1.041667e-02	-8.333333e-02
277.201000	1.115229	dec_social_choice	1.115229	16.000000	n/a	0	0	-2.304688e-01
277.201000	1.115229	dec_choice	1.115229	16.000000	n/a	0	0	-2.317708e-01
277.201000	1.115229	dec_social_reject	1.115229	16.000000	n/a	0	0	-2.343750e-02
277.201000	1.115229	dec_reject	1.115229	16.000000	n/a	0	0	-2.604167e-02
277.201000	1.115229	dec_social_reject_low	1.115229	16.000000	n/a	1	-1.692708e-01	-2.317708e-01
284.034100	1.165182	dec_social_choice	1.165182	32.000000	n/a	16	2.695312e-01	2.695312e-01
284.034100	1.165182	dec_choice	1.165182	32.000000	n/a	16	2.682292e-01	2.682292e-01
284.034100	1.165182	dec_social_accept	1.165182	32.000000	n/a	16	1.250000e-01	1.250000e-01
284.034100	1.165182	dec_accept	1.165182	32.000000	n/a	16	1.250000e-01	1.250000e-01
284.034100	1.165182	dec_social_high	1.165182	32.000000	n/a	16	2.682292e-01	2.682292e-01
284.034100	1.165182	dec_social_accept_high	1.165182	32.000000	n/a	16	2.682292e-01	2.682292e-01
293.301120	1.465243	dec_nonsocial_choice	1.465243	16.000000	n/a	0	0	-2.304688e-01
293.301120	1.465243	dec_choice	1.465243	16.000000	n/a	0	0	-2.291667e-01
293.301120	1.465243	dec_nonsocial_reject	1.465243	16.000000	n/a	0	0	3.906250e-02
293.301120	1.465243	dec_reject	1.465243	16.000000	n/a	0	0	4.166667e-02
293.301120	1.465243	dec_nonsocial_low	1.465243	16.000000	n/a	0	-2.291667e-01	-2.291667e-01
293.301120	1.465243	dec_nonsocial_reject_low	1.465243	16.000000	n/a	2	4.166667e-02	-8.333333e-02
300.951050	1.332270	dec_social_choice	1.332270	32.000000	n/a	0	0	-2.304688e-01
300.951050	1.332270	dec_choice	1.332270	32.000000	n/a	0	0	-2.317708e-01
300.951050	1.332270	dec_social_reject	1.332270	32.000000	n/a	0	0	7.812500e-03
300.951050	1.332270	dec_reject	1.332270	32.000000	n/a	0	0	5.208333e-03
300.951050	1.332270	dec_social_reject_low	1.332270	32.000000	n/a	3	-1.380208e-01	-2.317708e-01
307.782600	1.150526	dec_nonsocial_choice	1.150526	32.000000	n/a	0	0	-2.304688e-01
307.782600	1.150526	dec_choice	1.150526	32.000000	n/a	0	0	-2.291667e-01
307.782600	1.150526	dec_nonsocial_reject	1.150526	32.000000	n/a	0	0	7.812500e-03
307.782600	1.150526	dec_reject	1.150526	32.000000	n/a	0	0	1.041667e-02
307.782600	1.150526	dec_nonsocial_low	1.150526	32.000000	n/a	0	-2.291667e-01	-2.291667e-01
307.782600	1.150526	dec_nonsocial_reject_low	1.150526	32.000000	n/a	3	1.041667e-02	-8.333333e-02
315.416930	1.115848	dec_social_choice	1.115848	32.000000	n/a	0	0	-2.304688e-01
315.416930	1.115848	dec_choice	1.115848	32.000000	n/a	0	0	-2.317708e-01
315.416930	1.115848	dec_social_reject	1.115848	32.000000	n/a	0	0	-2.343750e-02
315.416930	1.115848	dec_reject	1.115848	32.000000	n/a	0	0	-2.604167e-02
315.416930	1.115848	dec_social_reject_low	1.115848	32.000000	n/a	2	-1.692708e-01	-2.317708e-01
322.249050	0.984387	dec_nonsocial_choice	0.984387	32.000000	n/a	8	1.953125e-02	1.953125e-02
322.249050	0.984387	dec_choice	0.984387	32.000000	n/a	8	2.083333e-02	2.083333e-02
322.249050	0.984387	dec_nonsocial_accept	0.984387	32.000000	n/a	8	-1.250000e-01	-1.250000e-01
322.249050	0.984387	dec_accept	0.984387	32.000000	n/a	8	-1.250000e-01	-1.250000e-01
322.249050	0.984387	dec_nonsocial_high	0.984387	32.000000	n/a	8	2.083333e-02	2.083333e-02
322.249050	0.984387	dec_nonsocial_accept_high	0.984387	32.000000	n/a	8	-1.250000e-01	-1.250000e-01
331.500120	1.265896	dec_nonsocial_choice	1.265896	32.000000	n/a	0	0	-2.304688e-01
331.500120	1.265896	dec_choice	1.265896	32.000000	n/a	0	0	-2.291667e-01
331.500120	1.265896	dec_nonsocial_reject	1.265896	32.000000	n/a	0	0	-2.343750e-02
331.500120	1.265896	dec_reject	1.265896	32.000000	n/a	0	0	-2.083333e-02
331.500120	1.265896	dec_nonsocial_low	1.265896	32.000000	n/a	0	-2.291667e-01	-2.291667e-01
331.500120	1.265896	dec_nonsocial_reject_low	1.265896	32.000000	n/a	2	-2.083333e-02	-8.333333e-02
338.332670	1.150587	dec_social_choice	1.150587	16.000000	n/a	0	0	-2.304688e-01
338.332670	1.150587	dec_choice	1.150587	16.000000	n/a	0	0	-2.317708e-01
338.332670	1.150587	dec_social_reject	1.150587	16.000000	n/a	0	0	3.906250e-02
338.332670	1.150587	dec_reject	1.150587	16.000000	n/a	0	0	3.645833e-02
338.332670	1.150587	dec_social_low	1.150587	16.000000	n/a	0	-2.317708e-01	-2.317708e-01
338.332670	1.150587	dec_social_reject_low	1.150587	16.000000	n/a	2	-1.067708e-01	-2.317708e-01
347.583100	0.949901	dec_social_choice	0.949901	16.000000	n/a	0	0	-2.304688e-01
347.583100	0.949901	dec_choice	0.949901	16.000000	n/a	0	0	-2.317708e-01
347.583100	0.949901	dec_social_reject	0.949901	16.000000	n/a	0	0	3.906250e-02
347.583100	0.949901	dec_reject	0.949901	16.000000	n/a	0	0	3.645833e-02
347.583100	0.949901	dec_social_low	0.949901	16.000000	n/a	0	-2.317708e-01	-2.317708e-01
347.583100	0.949901	dec_social_reject_low	0.949901	16.000000	n/a	2	-1.067708e-01	-2.317708e-01
354.417330	0.849329	dec_nonsocial_choice	0.849329	32.000000	n/a	0	0	-2.304688e-01
354.417330	0.849329	dec_choice	0.849329	32.000000	n/a	0	0	-2.291667e-01
354.417330	0.849329	dec_nonsocial_reject	0.849329	32.000000	n/a	0	0	-2.343750e-02
354.417330	0.849329	dec_reject	0.849329	32.000000	n/a	0	0	-2.083333e-02
354.417330	0.849329	dec_nonsocial_low	0.849329	32.000000	n/a	0	-2.291667e-01	-2.291667e-01
354.417330	0.849329	dec_nonsocial_reject_low	0.849329	32.000000	n/a	2	-2.083333e-02	-8.333333e-02
365.283330	1.116200	dec_nonsocial_choice	1.116200	32.000000	n/a	8	1.953125e-02	1.953125e-02
365.283330	1.116200	dec_choice	1.116200	32.000000	n/a	8	2.083333e-02	2.083333e-02
365.283330	1.116200	dec_nonsocial_accept	1.116200	32.000000	n/a	8	-1.250000e-01	-1.250000e-01
365.283330	1.116200	dec_accept	1.116200	32.000000	n/a	8	-1.250000e-01	-1.250000e-01
365.283330	1.116200	dec_nonsocial_accept_high	1.116200	32.000000	n/a	8	-1.250000e-01	-1.250000e-01
372.934100	0.865178	dec_nonsocial_choice	0.865178	16.000000	n/a	0	0	-2.304688e-01
372.934100	0.865178	dec_choice	0.865178	16.000000	n/a	0	0	-2.291667e-01
372.934100	0.865178	dec_nonsocial_reject	0.865178	16.000000	n/a	0	0	-2.343750e-02
372.934100	0.865178	dec_reject	0.865178	16.000000	n/a	0	0	-2.083333e-02
372.934100	0.865178	dec_nonsocial_low	0.865178	16.000000	n/a	0	-2.291667e-01	-2.291667e-01
372.934100	0.865178	dec_nonsocial_reject_low	0.865178	16.000000	n/a	1	-2.083333e-02	-8.333333e-02
