onset	duration	trial_type	response_time	Endowment	Endowment_pmod	Decision	Decision_pmod	Offer_pmod
4.581449	2	cue_social	n/a	32	6	n/a	n/a	n/a
4.581449	2	cue_social_high	n/a	32	9	n/a	n/a	n/a
15.384843	2	cue_social	n/a	32	6	n/a	n/a	n/a
15.384843	2	cue_social_high	n/a	32	9	n/a	n/a	n/a
23.110435	2	cue_social	n/a	32	6	n/a	n/a	n/a
23.110435	2	cue_social_high	n/a	32	9	n/a	n/a	n/a
29.863500	2	cue_nonsocial	n/a	32	9	n/a	n/a	n/a
29.863500	2	cue_nonsocial_high	n/a	32	6	n/a	n/a	n/a
39.130074	2	cue_nonsocial	n/a	16	-7	n/a	n/a	n/a
39.130074	2	cue_nonsocial_low	n/a	16	-10	n/a	n/a	n/a
46.763860	2	cue_nonsocial	n/a	32	9	n/a	n/a	n/a
46.763860	2	cue_nonsocial_high	n/a	32	6	n/a	n/a	n/a
56.095608	2	cue_social	n/a	32	6	n/a	n/a	n/a
56.095608	2	cue_social_high	n/a	32	9	n/a	n/a	n/a
62.846800	2	cue_nonsocial	n/a	16	-7	n/a	n/a	n/a
62.846800	2	cue_nonsocial_low	n/a	16	-10	n/a	n/a	n/a
69.754170	2	cue_social	n/a	16	-10	n/a	n/a	n/a
69.754170	2	cue_social_low	n/a	16	-7	n/a	n/a	n/a
76.624560	2	cue_social	n/a	32	6	n/a	n/a	n/a
76.624560	2	cue_social_high	n/a	32	9	n/a	n/a	n/a
83.377770	2	cue_social	n/a	16	-10	n/a	n/a	n/a
83.377770	2	cue_social_low	n/a	16	-7	n/a	n/a	n/a
90.180595	2	cue_nonsocial	n/a	16	-7	n/a	n/a	n/a
90.180595	2	cue_nonsocial_low	n/a	16	-10	n/a	n/a	n/a
97.013300	2	cue_nonsocial	n/a	16	-7	n/a	n/a	n/a
97.013300	2	cue_nonsocial_low	n/a	16	-10	n/a	n/a	n/a
103.846590	2	cue_nonsocial	n/a	16	-7	n/a	n/a	n/a
103.846590	2	cue_nonsocial_low	n/a	16	-10	n/a	n/a	n/a
113.170204	2	cue_social	n/a	32	6	n/a	n/a	n/a
113.170204	2	cue_social_high	n/a	32	9	n/a	n/a	n/a
119.929950	2	cue_nonsocial	n/a	32	9	n/a	n/a	n/a
119.929950	2	cue_nonsocial_high	n/a	32	6	n/a	n/a	n/a
129.180200	2	cue_nonsocial	n/a	32	9	n/a	n/a	n/a
129.180200	2	cue_nonsocial_high	n/a	32	6	n/a	n/a	n/a
136.909240	2	cue_social	n/a	16	-10	n/a	n/a	n/a
136.909240	2	cue_social_low	n/a	16	-7	n/a	n/a	n/a
143.731540	2	cue_social	n/a	16	-10	n/a	n/a	n/a
143.731540	2	cue_social_low	n/a	16	-7	n/a	n/a	n/a
150.554890	2	cue_social	n/a	32	6	n/a	n/a	n/a
150.554890	2	cue_social_high	n/a	32	9	n/a	n/a	n/a
158.203960	2	cue_social	n/a	16	-10	n/a	n/a	n/a
158.203960	2	cue_social_low	n/a	16	-7	n/a	n/a	n/a
165.796520	2	cue_nonsocial	n/a	16	-7	n/a	n/a	n/a
165.796520	2	cue_nonsocial_low	n/a	16	-10	n/a	n/a	n/a
173.446640	2	cue_nonsocial	n/a	16	-7	n/a	n/a	n/a
173.446640	2	cue_nonsocial_low	n/a	16	-10	n/a	n/a	n/a
181.096630	2	cue_nonsocial	n/a	16	-7	n/a	n/a	n/a
181.096630	2	cue_nonsocial_low	n/a	16	-10	n/a	n/a	n/a
190.443270	2	cue_social	n/a	32	6	n/a	n/a	n/a
190.443270	2	cue_social_high	n/a	32	9	n/a	n/a	n/a
197.996350	2	cue_nonsocial	n/a	32	9	n/a	n/a	n/a
197.996350	2	cue_nonsocial_high	n/a	32	6	n/a	n/a	n/a
204.888050	2	cue_social	n/a	32	6	n/a	n/a	n/a
204.888050	2	cue_social_high	n/a	32	9	n/a	n/a	n/a
212.479680	2	cue_nonsocial	n/a	16	-7	n/a	n/a	n/a
212.479680	2	cue_nonsocial_low	n/a	16	-10	n/a	n/a	n/a
219.312770	2	cue_nonsocial	n/a	16	-7	n/a	n/a	n/a
219.312770	2	cue_nonsocial_low	n/a	16	-10	n/a	n/a	n/a
226.146500	2	cue_nonsocial	n/a	16	-7	n/a	n/a	n/a
226.146500	2	cue_nonsocial_low	n/a	16	-10	n/a	n/a	n/a
233.041100	2	cue_social	n/a	16	-10	n/a	n/a	n/a
233.041100	2	cue_social_low	n/a	16	-7	n/a	n/a	n/a
239.813060	2	cue_nonsocial	n/a	16	-7	n/a	n/a	n/a
239.813060	2	cue_nonsocial_low	n/a	16	-10	n/a	n/a	n/a
246.709380	2	cue_social	n/a	16	-10	n/a	n/a	n/a
246.709380	2	cue_social_low	n/a	16	-7	n/a	n/a	n/a
257.513060	2	cue_nonsocial	n/a	32	9	n/a	n/a	n/a
257.513060	2	cue_nonsocial_high	n/a	32	6	n/a	n/a	n/a
265.225220	2	cue_social	n/a	16	-10	n/a	n/a	n/a
265.225220	2	cue_social_low	n/a	16	-7	n/a	n/a	n/a
271.996340	2	cue_nonsocial	n/a	32	9	n/a	n/a	n/a
271.996340	2	cue_nonsocial_high	n/a	32	6	n/a	n/a	n/a
282.926540	2	cue_social	n/a	32	6	n/a	n/a	n/a
282.926540	2	cue_social_high	n/a	32	9	n/a	n/a	n/a
289.749330	2	cue_social	n/a	32	6	n/a	n/a	n/a
289.749330	2	cue_social_high	n/a	32	9	n/a	n/a	n/a
296.590480	2	cue_social	n/a	32	6	n/a	n/a	n/a
296.590480	2	cue_social_high	n/a	32	9	n/a	n/a	n/a
304.237200	2	cue_social	n/a	32	6	n/a	n/a	n/a
304.237200	2	cue_social_high	n/a	32	9	n/a	n/a	n/a
313.429440	2	cue_nonsocial	n/a	16	-7	n/a	n/a	n/a
313.429440	2	cue_nonsocial_low	n/a	16	-10	n/a	n/a	n/a
321.079700	2	cue_nonsocial	n/a	32	9	n/a	n/a	n/a
321.079700	2	cue_nonsocial_high	n/a	32	6	n/a	n/a	n/a
327.912660	2	cue_nonsocial	n/a	32	9	n/a	n/a	n/a
327.912660	2	cue_nonsocial_high	n/a	32	6	n/a	n/a	n/a
334.815550	2	cue_social	n/a	16	-10	n/a	n/a	n/a
334.815550	2	cue_social_low	n/a	16	-7	n/a	n/a	n/a
342.466060	2	cue_social	n/a	32	6	n/a	n/a	n/a
342.466060	2	cue_social_high	n/a	32	9	n/a	n/a	n/a
354.879580	2	cue_nonsocial	n/a	16	-7	n/a	n/a	n/a
354.879580	2	cue_nonsocial_low	n/a	16	-10	n/a	n/a	n/a
361.801450	2	cue_social	n/a	32	6	n/a	n/a	n/a
361.801450	2	cue_social_high	n/a	32	9	n/a	n/a	n/a
368.546200	2	cue_nonsocial	n/a	32	9	n/a	n/a	n/a
368.546200	2	cue_nonsocial_high	n/a	32	6	n/a	n/a	n/a
6.520214	0.983500	dec_social_choice	0.983500	32.000000	n/a	3	-1.347656e-01	-1.347656e-01
6.520214	0.983500	dec_choice	0.983500	32.000000	n/a	3	-1.341146e-01	-1.341146e-01
6.520214	0.983500	dec_social_accept	0.983500	32.000000	n/a	3	-2.252604e-01	-2.252604e-01
6.520214	0.983500	dec_accept	0.983500	32.000000	n/a	3	-2.135417e-01	-2.135417e-01
6.520214	0.983500	dec_social_low	0.983500	32.000000	n/a	3	-1.341146e-01	-1.341146e-01
6.520214	0.983500	dec_social_accept_low	0.983500	32.000000	n/a	3	-1.341146e-01	-1.341146e-01
17.387648	1.399167	dec_social_choice	1.399167	32.000000	n/a	8	2.148438e-02	2.148438e-02
17.387648	1.399167	dec_choice	1.399167	32.000000	n/a	8	2.213542e-02	2.213542e-02
17.387648	1.399167	dec_social_accept	1.399167	32.000000	n/a	8	-6.901042e-02	-6.901042e-02
17.387648	1.399167	dec_accept	1.399167	32.000000	n/a	8	-5.729167e-02	-5.729167e-02
17.387648	1.399167	dec_social_high	1.399167	32.000000	n/a	8	2.213542e-02	2.213542e-02
17.387648	1.399167	dec_social_accept_high	1.399167	32.000000	n/a	8	2.213542e-02	2.213542e-02
25.036066	0.867310	dec_social_choice	0.867310	32.000000	n/a	8	2.148438e-02	2.148438e-02
25.036066	0.867310	dec_choice	0.867310	32.000000	n/a	8	2.213542e-02	2.213542e-02
25.036066	0.867310	dec_social_accept	0.867310	32.000000	n/a	8	-6.901042e-02	-6.901042e-02
25.036066	0.867310	dec_accept	0.867310	32.000000	n/a	8	-5.729167e-02	-5.729167e-02
25.036066	0.867310	dec_social_high	0.867310	32.000000	n/a	8	2.213542e-02	2.213542e-02
25.036066	0.867310	dec_social_accept_high	0.867310	32.000000	n/a	8	2.213542e-02	2.213542e-02
31.870764	0.915467	dec_nonsocial_choice	0.915467	32.000000	n/a	3	-1.347656e-01	-1.347656e-01
31.870764	0.915467	dec_choice	0.915467	32.000000	n/a	3	-1.354167e-01	-1.354167e-01
31.870764	0.915467	dec_nonsocial_accept	0.915467	32.000000	n/a	3	-2.252604e-01	-2.252604e-01
31.870764	0.915467	dec_accept	0.915467	32.000000	n/a	3	-2.369792e-01	-2.369792e-01
31.870764	0.915467	dec_nonsocial_accept_low	0.915467	32.000000	n/a	3	-2.135417e-01	-2.135417e-01
41.136200	1.334063	dec_nonsocial_choice	1.334063	16.000000	n/a	0	0	-2.285156e-01
41.136200	1.334063	dec_choice	1.334063	16.000000	n/a	0	0	-2.291667e-01
41.136200	1.334063	dec_nonsocial_reject	1.334063	16.000000	n/a	0	0	-7.552083e-02
41.136200	1.334063	dec_reject	1.334063	16.000000	n/a	0	0	-6.510417e-02
41.136200	1.334063	dec_nonsocial_low	1.334063	16.000000	n/a	0	-2.291667e-01	-2.291667e-01
41.136200	1.334063	dec_nonsocial_reject_low	1.334063	16.000000	n/a	1	-6.510417e-02	-1.276042e-01
48.769173	1.733872	dec_nonsocial_choice	1.733872	32.000000	n/a	16	2.714844e-01	2.714844e-01
48.769173	1.733872	dec_choice	1.733872	32.000000	n/a	16	2.708333e-01	2.708333e-01
48.769173	1.733872	dec_nonsocial_accept	1.733872	32.000000	n/a	16	1.809896e-01	1.809896e-01
48.769173	1.733872	dec_accept	1.733872	32.000000	n/a	16	1.692708e-01	1.692708e-01
48.769173	1.733872	dec_nonsocial_high	1.733872	32.000000	n/a	16	2.708333e-01	2.708333e-01
48.769173	1.733872	dec_nonsocial_accept_high	1.733872	32.000000	n/a	16	1.692708e-01	1.692708e-01
58.019220	1.350720	dec_social_choice	1.350720	32.000000	n/a	0	0	-2.285156e-01
58.019220	1.350720	dec_choice	1.350720	32.000000	n/a	0	0	-2.278646e-01
58.019220	1.350720	dec_social_reject	1.350720	32.000000	n/a	0	0	-7.552083e-02
58.019220	1.350720	dec_reject	1.350720	32.000000	n/a	0	0	-8.593750e-02
58.019220	1.350720	dec_social_low	1.350720	32.000000	n/a	0	-2.278646e-01	-2.278646e-01
58.019220	1.350720	dec_social_reject_low	1.350720	32.000000	n/a	2	-1.653646e-01	-2.278646e-01
64.853930	1.215498	dec_nonsocial_choice	1.215498	16.000000	n/a	2	-1.035156e-01	-1.035156e-01
64.853930	1.215498	dec_choice	1.215498	16.000000	n/a	2	-1.041667e-01	-1.041667e-01
64.853930	1.215498	dec_nonsocial_accept	1.215498	16.000000	n/a	2	-1.940104e-01	-1.940104e-01
64.853930	1.215498	dec_accept	1.215498	16.000000	n/a	2	-2.057292e-01	-2.057292e-01
64.853930	1.215498	dec_nonsocial_low	1.215498	16.000000	n/a	2	-1.041667e-01	-1.041667e-01
64.853930	1.215498	dec_nonsocial_accept_low	1.215498	16.000000	n/a	2	-2.057292e-01	-2.057292e-01
71.687100	1.182497	dec_social_choice	1.182497	16.000000	n/a	0	0	-2.285156e-01
71.687100	1.182497	dec_choice	1.182497	16.000000	n/a	0	0	-2.278646e-01
71.687100	1.182497	dec_social_reject	1.182497	16.000000	n/a	0	0	3.619792e-01
71.687100	1.182497	dec_reject	1.182497	16.000000	n/a	0	0	3.515625e-01
71.687100	1.182497	dec_social_reject_low	1.182497	16.000000	n/a	8	2.721354e-01	-2.278646e-01
78.520134	1.449607	dec_social_choice	1.449607	32.000000	n/a	0	0	-2.285156e-01
78.520134	1.449607	dec_choice	1.449607	32.000000	n/a	0	0	-2.278646e-01
78.520134	1.449607	dec_social_reject	1.449607	32.000000	n/a	0	0	-7.552083e-02
78.520134	1.449607	dec_reject	1.449607	32.000000	n/a	0	0	-8.593750e-02
78.520134	1.449607	dec_social_reject_low	1.449607	32.000000	n/a	2	-1.653646e-01	-2.278646e-01
85.353470	1.349818	dec_social_choice	1.349818	16.000000	n/a	0	0	-2.285156e-01
85.353470	1.349818	dec_choice	1.349818	16.000000	n/a	0	0	-2.278646e-01
85.353470	1.349818	dec_social_reject	1.349818	16.000000	n/a	0	0	-7.552083e-02
85.353470	1.349818	dec_reject	1.349818	16.000000	n/a	0	0	-8.593750e-02
85.353470	1.349818	dec_social_reject_low	1.349818	16.000000	n/a	1	-1.653646e-01	-2.278646e-01
92.185860	0.866981	dec_nonsocial_choice	0.866981	16.000000	n/a	4	2.148438e-02	2.148438e-02
92.185860	0.866981	dec_choice	0.866981	16.000000	n/a	4	2.083333e-02	2.083333e-02
92.185860	0.866981	dec_nonsocial_accept	0.866981	16.000000	n/a	4	-6.901042e-02	-6.901042e-02
92.185860	0.866981	dec_accept	0.866981	16.000000	n/a	4	-8.072917e-02	-8.072917e-02
92.185860	0.866981	dec_nonsocial_high	0.866981	16.000000	n/a	4	2.083333e-02	2.083333e-02
92.185860	0.866981	dec_nonsocial_accept_high	0.866981	16.000000	n/a	4	-8.072917e-02	-8.072917e-02
99.020490	0.982871	dec_nonsocial_choice	0.982871	16.000000	n/a	4	2.148438e-02	2.148438e-02
99.020490	0.982871	dec_choice	0.982871	16.000000	n/a	4	2.083333e-02	2.083333e-02
99.020490	0.982871	dec_nonsocial_accept	0.982871	16.000000	n/a	4	-6.901042e-02	-6.901042e-02
99.020490	0.982871	dec_accept	0.982871	16.000000	n/a	4	-8.072917e-02	-8.072917e-02
99.020490	0.982871	dec_nonsocial_high	0.982871	16.000000	n/a	4	2.083333e-02	2.083333e-02
99.020490	0.982871	dec_nonsocial_accept_high	0.982871	16.000000	n/a	4	-8.072917e-02	-8.072917e-02
105.852980	1.050390	dec_nonsocial_choice	1.050390	16.000000	n/a	4	2.148438e-02	2.148438e-02
105.852980	1.050390	dec_choice	1.050390	16.000000	n/a	4	2.083333e-02	2.083333e-02
105.852980	1.050390	dec_nonsocial_accept	1.050390	16.000000	n/a	4	-6.901042e-02	-6.901042e-02
105.852980	1.050390	dec_accept	1.050390	16.000000	n/a	4	-8.072917e-02	-8.072917e-02
105.852980	1.050390	dec_nonsocial_high	1.050390	16.000000	n/a	4	2.083333e-02	2.083333e-02
105.852980	1.050390	dec_nonsocial_accept_high	1.050390	16.000000	n/a	4	-8.072917e-02	-8.072917e-02
115.103160	1.616562	dec_social_choice	1.616562	32.000000	n/a	3	-1.347656e-01	-1.347656e-01
115.103160	1.616562	dec_choice	1.616562	32.000000	n/a	3	-1.341146e-01	-1.341146e-01
115.103160	1.616562	dec_social_accept	1.616562	32.000000	n/a	3	-2.252604e-01	-2.252604e-01
115.103160	1.616562	dec_accept	1.616562	32.000000	n/a	3	-2.135417e-01	-2.135417e-01
115.103160	1.616562	dec_social_low	1.616562	32.000000	n/a	3	-1.341146e-01	-1.341146e-01
115.103160	1.616562	dec_social_accept_low	1.616562	32.000000	n/a	3	-1.341146e-01	-1.341146e-01
121.936330	1.000315	dec_nonsocial_choice	1.000315	32.000000	n/a	0	0	-2.285156e-01
121.936330	1.000315	dec_choice	1.000315	32.000000	n/a	0	0	-2.291667e-01
121.936330	1.000315	dec_nonsocial_reject	1.000315	32.000000	n/a	0	0	-4.427083e-02
121.936330	1.000315	dec_reject	1.000315	32.000000	n/a	0	0	-3.385417e-02
121.936330	1.000315	dec_nonsocial_reject_low	1.000315	32.000000	n/a	3	-5.468750e-02	-1.484375e-01
131.186040	1.483847	dec_nonsocial_choice	1.483847	32.000000	n/a	16	2.714844e-01	2.714844e-01
131.186040	1.483847	dec_choice	1.483847	32.000000	n/a	16	2.708333e-01	2.708333e-01
131.186040	1.483847	dec_nonsocial_accept	1.483847	32.000000	n/a	16	1.809896e-01	1.809896e-01
131.186040	1.483847	dec_accept	1.483847	32.000000	n/a	16	1.692708e-01	1.692708e-01
131.186040	1.483847	dec_nonsocial_accept_high	1.483847	32.000000	n/a	16	1.927083e-01	1.927083e-01
138.836320	1.716890	dec_social_choice	1.716890	16.000000	n/a	0	0	-2.285156e-01
138.836320	1.716890	dec_choice	1.716890	16.000000	n/a	0	0	-2.278646e-01
138.836320	1.716890	dec_social_reject	1.716890	16.000000	n/a	0	0	-7.552083e-02
138.836320	1.716890	dec_reject	1.716890	16.000000	n/a	0	0	-8.593750e-02
138.836320	1.716890	dec_social_reject_low	1.716890	16.000000	n/a	1	-1.653646e-01	-2.278646e-01
145.669050	0.900759	dec_social_choice	0.900759	16.000000	n/a	8	2.714844e-01	2.714844e-01
145.669050	0.900759	dec_choice	0.900759	16.000000	n/a	8	2.721354e-01	2.721354e-01
145.669050	0.900759	dec_social_accept	0.900759	16.000000	n/a	8	1.809896e-01	1.809896e-01
145.669050	0.900759	dec_accept	0.900759	16.000000	n/a	8	1.927083e-01	1.927083e-01
145.669050	0.900759	dec_social_high	0.900759	16.000000	n/a	8	2.721354e-01	2.721354e-01
145.669050	0.900759	dec_social_accept_high	0.900759	16.000000	n/a	8	2.721354e-01	2.721354e-01
152.503000	1.483800	dec_social_choice	1.483800	32.000000	n/a	8	2.148438e-02	2.148438e-02
152.503000	1.483800	dec_choice	1.483800	32.000000	n/a	8	2.213542e-02	2.213542e-02
152.503000	1.483800	dec_social_accept	1.483800	32.000000	n/a	8	-6.901042e-02	-6.901042e-02
152.503000	1.483800	dec_accept	1.483800	32.000000	n/a	8	-5.729167e-02	-5.729167e-02
152.503000	1.483800	dec_social_high	1.483800	32.000000	n/a	8	2.213542e-02	2.213542e-02
152.503000	1.483800	dec_social_accept_high	1.483800	32.000000	n/a	8	2.213542e-02	2.213542e-02
160.154100	0.832551	dec_social_choice	0.832551	16.000000	n/a	0	0	-2.285156e-01
160.154100	0.832551	dec_choice	0.832551	16.000000	n/a	0	0	-2.278646e-01
160.154100	0.832551	dec_social_reject	0.832551	16.000000	n/a	0	0	3.619792e-01
160.154100	0.832551	dec_reject	0.832551	16.000000	n/a	0	0	3.515625e-01
160.154100	0.832551	dec_social_low	0.832551	16.000000	n/a	0	-2.278646e-01	-2.278646e-01
160.154100	0.832551	dec_social_reject_low	0.832551	16.000000	n/a	8	2.721354e-01	-2.278646e-01
167.802960	1.466469	dec_nonsocial_choice	1.466469	16.000000	n/a	0	0	-2.285156e-01
167.802960	1.466469	dec_choice	1.466469	16.000000	n/a	0	0	-2.291667e-01
167.802960	1.466469	dec_nonsocial_reject	1.466469	16.000000	n/a	0	0	3.619792e-01
167.802960	1.466469	dec_reject	1.466469	16.000000	n/a	0	0	3.723958e-01
167.802960	1.466469	dec_nonsocial_low	1.466469	16.000000	n/a	0	-2.291667e-01	-2.291667e-01
167.802960	1.466469	dec_nonsocial_reject_low	1.466469	16.000000	n/a	8	3.723958e-01	-1.276042e-01
175.453670	1.349327	dec_nonsocial_choice	1.349327	16.000000	n/a	8	2.714844e-01	2.714844e-01
175.453670	1.349327	dec_choice	1.349327	16.000000	n/a	8	2.708333e-01	2.708333e-01
175.453670	1.349327	dec_nonsocial_accept	1.349327	16.000000	n/a	8	1.809896e-01	1.809896e-01
175.453670	1.349327	dec_accept	1.349327	16.000000	n/a	8	1.692708e-01	1.692708e-01
175.453670	1.349327	dec_nonsocial_high	1.349327	16.000000	n/a	8	2.708333e-01	2.708333e-01
175.453670	1.349327	dec_nonsocial_accept_high	1.349327	16.000000	n/a	8	1.692708e-01	1.692708e-01
183.103200	1.399733	dec_nonsocial_choice	1.399733	16.000000	n/a	0	0	-2.285156e-01
183.103200	1.399733	dec_choice	1.399733	16.000000	n/a	0	0	-2.291667e-01
183.103200	1.399733	dec_nonsocial_reject	1.399733	16.000000	n/a	0	0	1.119792e-01
183.103200	1.399733	dec_reject	1.399733	16.000000	n/a	0	0	1.223958e-01
183.103200	1.399733	dec_nonsocial_low	1.399733	16.000000	n/a	0	-2.291667e-01	-2.291667e-01
183.103200	1.399733	dec_nonsocial_reject_low	1.399733	16.000000	n/a	4	1.223958e-01	-1.276042e-01
192.353870	1.065323	dec_social_choice	1.065323	32.000000	n/a	16	2.714844e-01	2.714844e-01
192.353870	1.065323	dec_choice	1.065323	32.000000	n/a	16	2.721354e-01	2.721354e-01
192.353870	1.065323	dec_social_accept	1.065323	32.000000	n/a	16	1.809896e-01	1.809896e-01
192.353870	1.065323	dec_accept	1.065323	32.000000	n/a	16	1.927083e-01	1.927083e-01
192.353870	1.065323	dec_social_high	1.065323	32.000000	n/a	16	2.721354e-01	2.721354e-01
192.353870	1.065323	dec_social_accept_high	1.065323	32.000000	n/a	16	2.721354e-01	2.721354e-01
200.003160	1.166193	dec_nonsocial_choice	1.166193	32.000000	n/a	0	0	-2.285156e-01
200.003160	1.166193	dec_choice	1.166193	32.000000	n/a	0	0	-2.291667e-01
200.003160	1.166193	dec_nonsocial_reject	1.166193	32.000000	n/a	0	0	-7.552083e-02
200.003160	1.166193	dec_reject	1.166193	32.000000	n/a	0	0	-6.510417e-02
200.003160	1.166193	dec_nonsocial_reject_low	1.166193	32.000000	n/a	2	-8.593750e-02	-1.484375e-01
206.836270	1.033264	dec_social_choice	1.033264	32.000000	n/a	0	0	-2.285156e-01
206.836270	1.033264	dec_choice	1.033264	32.000000	n/a	0	0	-2.278646e-01
206.836270	1.033264	dec_social_reject	1.033264	32.000000	n/a	0	0	-4.427083e-02
206.836270	1.033264	dec_reject	1.033264	32.000000	n/a	0	0	-5.468750e-02
206.836270	1.033264	dec_social_low	1.033264	32.000000	n/a	0	-2.278646e-01	-2.278646e-01
206.836270	1.033264	dec_social_reject_low	1.033264	32.000000	n/a	3	-1.341146e-01	-2.278646e-01
214.486110	1.066399	dec_nonsocial_choice	1.066399	16.000000	n/a	0	0	-2.285156e-01
214.486110	1.066399	dec_choice	1.066399	16.000000	n/a	0	0	-2.291667e-01
214.486110	1.066399	dec_nonsocial_reject	1.066399	16.000000	n/a	0	0	-7.552083e-02
214.486110	1.066399	dec_reject	1.066399	16.000000	n/a	0	0	-6.510417e-02
214.486110	1.066399	dec_nonsocial_low	1.066399	16.000000	n/a	0	-2.291667e-01	-2.291667e-01
214.486110	1.066399	dec_nonsocial_reject_low	1.066399	16.000000	n/a	1	-6.510417e-02	-1.276042e-01
221.320050	1.182720	dec_nonsocial_choice	1.182720	16.000000	n/a	8	2.714844e-01	2.714844e-01
221.320050	1.182720	dec_choice	1.182720	16.000000	n/a	8	2.708333e-01	2.708333e-01
221.320050	1.182720	dec_nonsocial_accept	1.182720	16.000000	n/a	8	1.809896e-01	1.809896e-01
221.320050	1.182720	dec_accept	1.182720	16.000000	n/a	8	1.692708e-01	1.692708e-01
221.320050	1.182720	dec_nonsocial_accept_high	1.182720	16.000000	n/a	8	1.927083e-01	1.927083e-01
228.152980	1.216250	dec_nonsocial_choice	1.216250	16.000000	n/a	8	2.714844e-01	2.714844e-01
228.152980	1.216250	dec_choice	1.216250	16.000000	n/a	8	2.708333e-01	2.708333e-01
228.152980	1.216250	dec_nonsocial_accept	1.216250	16.000000	n/a	8	1.809896e-01	1.809896e-01
228.152980	1.216250	dec_accept	1.216250	16.000000	n/a	8	1.692708e-01	1.692708e-01
228.152980	1.216250	dec_nonsocial_high	1.216250	16.000000	n/a	8	2.708333e-01	2.708333e-01
228.152980	1.216250	dec_nonsocial_accept_high	1.216250	16.000000	n/a	8	1.692708e-01	1.692708e-01
234.987030	1.015495	dec_social_choice	1.015495	16.000000	n/a	8	2.714844e-01	2.714844e-01
234.987030	1.015495	dec_choice	1.015495	16.000000	n/a	8	2.721354e-01	2.721354e-01
234.987030	1.015495	dec_social_accept	1.015495	16.000000	n/a	8	1.809896e-01	1.809896e-01
234.987030	1.015495	dec_accept	1.015495	16.000000	n/a	8	1.927083e-01	1.927083e-01
234.987030	1.015495	dec_social_accept_high	1.015495	16.000000	n/a	8	2.721354e-01	2.721354e-01
241.818770	1.584186	dec_nonsocial_choice	1.584186	16.000000	n/a	4	2.148438e-02	2.148438e-02
241.818770	1.584186	dec_choice	1.584186	16.000000	n/a	4	2.083333e-02	2.083333e-02
241.818770	1.584186	dec_nonsocial_accept	1.584186	16.000000	n/a	4	-6.901042e-02	-6.901042e-02
241.818770	1.584186	dec_accept	1.584186	16.000000	n/a	4	-8.072917e-02	-8.072917e-02
241.818770	1.584186	dec_nonsocial_accept_high	1.584186	16.000000	n/a	4	-5.729167e-02	-5.729167e-02
248.653100	1.299843	dec_social_choice	1.299843	16.000000	n/a	0	0	-2.285156e-01
248.653100	1.299843	dec_choice	1.299843	16.000000	n/a	0	0	-2.278646e-01
248.653100	1.299843	dec_social_reject	1.299843	16.000000	n/a	0	0	-7.552083e-02
248.653100	1.299843	dec_reject	1.299843	16.000000	n/a	0	0	-8.593750e-02
248.653100	1.299843	dec_social_reject_low	1.299843	16.000000	n/a	1	-1.653646e-01	-2.278646e-01
259.520020	1.182826	dec_nonsocial_choice	1.182826	32.000000	n/a	0	0	-2.285156e-01
259.520020	1.182826	dec_choice	1.182826	32.000000	n/a	0	0	-2.291667e-01
259.520020	1.182826	dec_nonsocial_reject	1.182826	32.000000	n/a	0	0	-7.552083e-02
259.520020	1.182826	dec_reject	1.182826	32.000000	n/a	0	0	-6.510417e-02
259.520020	1.182826	dec_nonsocial_low	1.182826	32.000000	n/a	0	-2.291667e-01	-2.291667e-01
259.520020	1.182826	dec_nonsocial_reject_low	1.182826	32.000000	n/a	2	-6.510417e-02	-1.276042e-01
267.169280	1.133901	dec_social_choice	1.133901	16.000000	n/a	0	0	-2.285156e-01
267.169280	1.133901	dec_choice	1.133901	16.000000	n/a	0	0	-2.278646e-01
267.169280	1.133901	dec_social_reject	1.133901	16.000000	n/a	0	0	-1.302083e-02
267.169280	1.133901	dec_reject	1.133901	16.000000	n/a	0	0	-2.343750e-02
267.169280	1.133901	dec_social_low	1.133901	16.000000	n/a	0	-2.278646e-01	-2.278646e-01
267.169280	1.133901	dec_social_reject_low	1.133901	16.000000	n/a	2	-1.028646e-01	-2.278646e-01
274.002960	1.316326	dec_nonsocial_choice	1.316326	32.000000	n/a	0	0	-2.285156e-01
274.002960	1.316326	dec_choice	1.316326	32.000000	n/a	0	0	-2.291667e-01
274.002960	1.316326	dec_nonsocial_reject	1.316326	32.000000	n/a	0	0	-4.427083e-02
274.002960	1.316326	dec_reject	1.316326	32.000000	n/a	0	0	-3.385417e-02
274.002960	1.316326	dec_nonsocial_reject_low	1.316326	32.000000	n/a	3	-5.468750e-02	-1.484375e-01
284.869720	1.083234	dec_social_choice	1.083234	32.000000	n/a	16	2.714844e-01	2.714844e-01
284.869720	1.083234	dec_choice	1.083234	32.000000	n/a	16	2.721354e-01	2.721354e-01
284.869720	1.083234	dec_social_accept	1.083234	32.000000	n/a	16	1.809896e-01	1.809896e-01
284.869720	1.083234	dec_accept	1.083234	32.000000	n/a	16	1.927083e-01	1.927083e-01
284.869720	1.083234	dec_social_accept_high	1.083234	32.000000	n/a	16	2.721354e-01	2.721354e-01
291.703860	1.415064	dec_social_choice	1.415064	32.000000	n/a	8	2.148438e-02	2.148438e-02
291.703860	1.415064	dec_choice	1.415064	32.000000	n/a	8	2.213542e-02	2.213542e-02
291.703860	1.415064	dec_social_accept	1.415064	32.000000	n/a	8	-6.901042e-02	-6.901042e-02
291.703860	1.415064	dec_accept	1.415064	32.000000	n/a	8	-5.729167e-02	-5.729167e-02
291.703860	1.415064	dec_social_high	1.415064	32.000000	n/a	8	2.213542e-02	2.213542e-02
291.703860	1.415064	dec_social_accept_high	1.415064	32.000000	n/a	8	2.213542e-02	2.213542e-02
298.537000	1.265508	dec_social_choice	1.265508	32.000000	n/a	0	0	-2.285156e-01
298.537000	1.265508	dec_choice	1.265508	32.000000	n/a	0	0	-2.278646e-01
298.537000	1.265508	dec_social_reject	1.265508	32.000000	n/a	0	0	-4.427083e-02
298.537000	1.265508	dec_reject	1.265508	32.000000	n/a	0	0	-5.468750e-02
298.537000	1.265508	dec_social_reject_low	1.265508	32.000000	n/a	3	-1.341146e-01	-2.278646e-01
306.186100	1.100054	dec_social_choice	1.100054	32.000000	n/a	0	0	-2.285156e-01
306.186100	1.100054	dec_choice	1.100054	32.000000	n/a	0	0	-2.278646e-01
306.186100	1.100054	dec_social_reject	1.100054	32.000000	n/a	0	0	-4.427083e-02
306.186100	1.100054	dec_reject	1.100054	32.000000	n/a	0	0	-5.468750e-02
306.186100	1.100054	dec_social_reject_low	1.100054	32.000000	n/a	3	-1.341146e-01	-2.278646e-01
315.436070	1.266306	dec_nonsocial_choice	1.266306	16.000000	n/a	0	0	-2.285156e-01
315.436070	1.266306	dec_choice	1.266306	16.000000	n/a	0	0	-2.291667e-01
315.436070	1.266306	dec_nonsocial_reject	1.266306	16.000000	n/a	0	0	-1.302083e-02
315.436070	1.266306	dec_reject	1.266306	16.000000	n/a	0	0	-2.604167e-03
315.436070	1.266306	dec_nonsocial_reject_low	1.266306	16.000000	n/a	2	-2.343750e-02	-1.484375e-01
323.085850	1.134041	dec_nonsocial_choice	1.134041	32.000000	n/a	0	0	-2.285156e-01
323.085850	1.134041	dec_choice	1.134041	32.000000	n/a	0	0	-2.291667e-01
323.085850	1.134041	dec_nonsocial_reject	1.134041	32.000000	n/a	0	0	-7.552083e-02
323.085850	1.134041	dec_reject	1.134041	32.000000	n/a	0	0	-6.510417e-02
323.085850	1.134041	dec_nonsocial_low	1.134041	32.000000	n/a	0	-2.291667e-01	-2.291667e-01
323.085850	1.134041	dec_nonsocial_reject_low	1.134041	32.000000	n/a	2	-6.510417e-02	-1.276042e-01
329.919070	1.133493	dec_nonsocial_choice	1.133493	32.000000	n/a	0	0	-2.285156e-01
329.919070	1.133493	dec_choice	1.133493	32.000000	n/a	0	0	-2.291667e-01
329.919070	1.133493	dec_nonsocial_reject	1.133493	32.000000	n/a	0	0	-4.427083e-02
329.919070	1.133493	dec_reject	1.133493	32.000000	n/a	0	0	-3.385417e-02
329.919070	1.133493	dec_nonsocial_low	1.133493	32.000000	n/a	0	-2.291667e-01	-2.291667e-01
329.919070	1.133493	dec_nonsocial_reject_low	1.133493	32.000000	n/a	3	-3.385417e-02	-1.276042e-01
336.753700	1.548809	dec_social_choice	1.548809	16.000000	n/a	4	2.148438e-02	2.148438e-02
336.753700	1.548809	dec_choice	1.548809	16.000000	n/a	4	2.213542e-02	2.213542e-02
336.753700	1.548809	dec_social_accept	1.548809	16.000000	n/a	4	-6.901042e-02	-6.901042e-02
336.753700	1.548809	dec_accept	1.548809	16.000000	n/a	4	-5.729167e-02	-5.729167e-02
336.753700	1.548809	dec_social_accept_high	1.548809	16.000000	n/a	4	2.213542e-02	2.213542e-02
344.402160	1.200541	dec_social_choice	1.200541	32.000000	n/a	0	0	-2.285156e-01
344.402160	1.200541	dec_choice	1.200541	32.000000	n/a	0	0	-2.278646e-01
344.402160	1.200541	dec_social_reject	1.200541	32.000000	n/a	0	0	-7.552083e-02
344.402160	1.200541	dec_reject	1.200541	32.000000	n/a	0	0	-8.593750e-02
344.402160	1.200541	dec_social_reject_low	1.200541	32.000000	n/a	2	-1.653646e-01	-2.278646e-01
356.886080	1.083220	dec_nonsocial_choice	1.083220	16.000000	n/a	0	0	-2.285156e-01
356.886080	1.083220	dec_choice	1.083220	16.000000	n/a	0	0	-2.291667e-01
356.886080	1.083220	dec_nonsocial_reject	1.083220	16.000000	n/a	0	0	-7.552083e-02
356.886080	1.083220	dec_reject	1.083220	16.000000	n/a	0	0	-6.510417e-02
356.886080	1.083220	dec_nonsocial_low	1.083220	16.000000	n/a	0	-2.291667e-01	-2.291667e-01
356.886080	1.083220	dec_nonsocial_reject_low	1.083220	16.000000	n/a	1	-6.510417e-02	-1.276042e-01
363.718440	1.050774	dec_social_choice	1.050774	32.000000	n/a	8	2.148438e-02	2.148438e-02
363.718440	1.050774	dec_choice	1.050774	32.000000	n/a	8	2.213542e-02	2.213542e-02
363.718440	1.050774	dec_social_accept	1.050774	32.000000	n/a	8	-6.901042e-02	-6.901042e-02
363.718440	1.050774	dec_accept	1.050774	32.000000	n/a	8	-5.729167e-02	-5.729167e-02
363.718440	1.050774	dec_social_high	1.050774	32.000000	n/a	8	2.213542e-02	2.213542e-02
363.718440	1.050774	dec_social_accept_high	1.050774	32.000000	n/a	8	2.213542e-02	2.213542e-02
370.552980	1.315782	dec_nonsocial_choice	1.315782	32.000000	n/a	8	2.148438e-02	2.148438e-02
370.552980	1.315782	dec_choice	1.315782	32.000000	n/a	8	2.083333e-02	2.083333e-02
370.552980	1.315782	dec_nonsocial_accept	1.315782	32.000000	n/a	8	-6.901042e-02	-6.901042e-02
370.552980	1.315782	dec_accept	1.315782	32.000000	n/a	8	-8.072917e-02	-8.072917e-02
370.552980	1.315782	dec_nonsocial_accept_high	1.315782	32.000000	n/a	8	-5.729167e-02	-5.729167e-02
