onset	duration	trial_type	response_time	Endowment	Endowment_pmod	Decision	Decision_pmod	Offer_pmod
4.505476	2	cue_nonsocial	n/a	32	6	n/a	n/a	n/a
4.505476	2	cue_nonsocial_high	n/a	32	8	n/a	n/a	n/a
11.347281	2	cue_social	n/a	16	-8	n/a	n/a	n/a
11.347281	2	cue_social_low	n/a	16	-10	n/a	n/a	n/a
18.172031	2	cue_nonsocial	n/a	32	6	n/a	n/a	n/a
18.172031	2	cue_nonsocial_high	n/a	32	8	n/a	n/a	n/a
25.005241	2	cue_nonsocial	n/a	16	-10	n/a	n/a	n/a
25.005241	2	cue_nonsocial_low	n/a	16	-8	n/a	n/a	n/a
31.838537	2	cue_nonsocial	n/a	32	6	n/a	n/a	n/a
31.838537	2	cue_nonsocial_high	n/a	32	8	n/a	n/a	n/a
42.720600	2	cue_social	n/a	32	8	n/a	n/a	n/a
42.720600	2	cue_social_high	n/a	32	6	n/a	n/a	n/a
51.971850	2	cue_nonsocial	n/a	32	6	n/a	n/a	n/a
51.971850	2	cue_nonsocial_high	n/a	32	8	n/a	n/a	n/a
58.805040	2	cue_nonsocial	n/a	32	6	n/a	n/a	n/a
58.805040	2	cue_nonsocial_high	n/a	32	8	n/a	n/a	n/a
65.671510	2	cue_social	n/a	32	8	n/a	n/a	n/a
65.671510	2	cue_social_high	n/a	32	6	n/a	n/a	n/a
74.888214	2	cue_nonsocial	n/a	16	-10	n/a	n/a	n/a
74.888214	2	cue_nonsocial_low	n/a	16	-8	n/a	n/a	n/a
82.554110	2	cue_social	n/a	32	8	n/a	n/a	n/a
82.554110	2	cue_social_high	n/a	32	6	n/a	n/a	n/a
89.371810	2	cue_nonsocial	n/a	16	-10	n/a	n/a	n/a
89.371810	2	cue_nonsocial_low	n/a	16	-8	n/a	n/a	n/a
97.034440	2	cue_social	n/a	32	8	n/a	n/a	n/a
97.034440	2	cue_social_high	n/a	32	6	n/a	n/a	n/a
103.856050	2	cue_nonsocial	n/a	16	-10	n/a	n/a	n/a
103.856050	2	cue_nonsocial_low	n/a	16	-8	n/a	n/a	n/a
111.556570	2	cue_social	n/a	32	8	n/a	n/a	n/a
111.556570	2	cue_social_high	n/a	32	6	n/a	n/a	n/a
119.164870	2	cue_social	n/a	16	-8	n/a	n/a	n/a
119.164870	2	cue_social_low	n/a	16	-10	n/a	n/a	n/a
125.988230	2	cue_nonsocial	n/a	32	6	n/a	n/a	n/a
125.988230	2	cue_nonsocial_high	n/a	32	8	n/a	n/a	n/a
133.638320	2	cue_nonsocial	n/a	16	-10	n/a	n/a	n/a
133.638320	2	cue_nonsocial_low	n/a	16	-8	n/a	n/a	n/a
141.301210	2	cue_social	n/a	16	-8	n/a	n/a	n/a
141.301210	2	cue_social_low	n/a	16	-10	n/a	n/a	n/a
148.121490	2	cue_nonsocial	n/a	16	-10	n/a	n/a	n/a
148.121490	2	cue_nonsocial_low	n/a	16	-8	n/a	n/a	n/a
154.954860	2	cue_nonsocial	n/a	32	6	n/a	n/a	n/a
154.954860	2	cue_nonsocial_high	n/a	32	8	n/a	n/a	n/a
161.804180	2	cue_social	n/a	32	8	n/a	n/a	n/a
161.804180	2	cue_social_high	n/a	32	6	n/a	n/a	n/a
171.038640	2	cue_nonsocial	n/a	16	-10	n/a	n/a	n/a
171.038640	2	cue_nonsocial_low	n/a	16	-8	n/a	n/a	n/a
180.316000	2	cue_social	n/a	16	-8	n/a	n/a	n/a
180.316000	2	cue_social_low	n/a	16	-10	n/a	n/a	n/a
187.932800	2	cue_social	n/a	32	8	n/a	n/a	n/a
187.932800	2	cue_social_high	n/a	32	6	n/a	n/a	n/a
194.826830	2	cue_social	n/a	32	8	n/a	n/a	n/a
194.826830	2	cue_social_high	n/a	32	6	n/a	n/a	n/a
201.628570	2	cue_social	n/a	32	8	n/a	n/a	n/a
201.628570	2	cue_social_high	n/a	32	6	n/a	n/a	n/a
208.458880	2	cue_social	n/a	16	-8	n/a	n/a	n/a
208.458880	2	cue_social_low	n/a	16	-10	n/a	n/a	n/a
215.298450	2	cue_social	n/a	16	-8	n/a	n/a	n/a
215.298450	2	cue_social_low	n/a	16	-10	n/a	n/a	n/a
224.542100	2	cue_social	n/a	16	-8	n/a	n/a	n/a
224.542100	2	cue_social_low	n/a	16	-10	n/a	n/a	n/a
231.371230	2	cue_nonsocial	n/a	16	-10	n/a	n/a	n/a
231.371230	2	cue_nonsocial_low	n/a	16	-8	n/a	n/a	n/a
238.237030	2	cue_social	n/a	16	-8	n/a	n/a	n/a
238.237030	2	cue_social_low	n/a	16	-10	n/a	n/a	n/a
245.037640	2	cue_nonsocial	n/a	32	6	n/a	n/a	n/a
245.037640	2	cue_nonsocial_high	n/a	32	8	n/a	n/a	n/a
251.899540	2	cue_social	n/a	32	8	n/a	n/a	n/a
251.899540	2	cue_social_high	n/a	32	6	n/a	n/a	n/a
259.521100	2	cue_nonsocial	n/a	32	6	n/a	n/a	n/a
259.521100	2	cue_nonsocial_high	n/a	32	8	n/a	n/a	n/a
267.171140	2	cue_nonsocial	n/a	16	-10	n/a	n/a	n/a
267.171140	2	cue_nonsocial_low	n/a	16	-8	n/a	n/a	n/a
274.839200	2	cue_social	n/a	16	-8	n/a	n/a	n/a
274.839200	2	cue_social_low	n/a	16	-10	n/a	n/a	n/a
281.637820	2	cue_nonsocial	n/a	32	6	n/a	n/a	n/a
281.637820	2	cue_nonsocial_high	n/a	32	8	n/a	n/a	n/a
289.284730	2	cue_social	n/a	32	8	n/a	n/a	n/a
289.284730	2	cue_social_high	n/a	32	6	n/a	n/a	n/a
296.168820	2	cue_social	n/a	16	-8	n/a	n/a	n/a
296.168820	2	cue_social_low	n/a	16	-10	n/a	n/a	n/a
305.393550	2	cue_social	n/a	16	-8	n/a	n/a	n/a
305.393550	2	cue_social_low	n/a	16	-10	n/a	n/a	n/a
316.281860	2	cue_social	n/a	16	-8	n/a	n/a	n/a
316.281860	2	cue_social_low	n/a	16	-10	n/a	n/a	n/a
325.504120	2	cue_nonsocial	n/a	32	6	n/a	n/a	n/a
325.504120	2	cue_nonsocial_high	n/a	32	8	n/a	n/a	n/a
332.365420	2	cue_social	n/a	32	8	n/a	n/a	n/a
332.365420	2	cue_social_high	n/a	32	6	n/a	n/a	n/a
339.987580	2	cue_nonsocial	n/a	32	6	n/a	n/a	n/a
339.987580	2	cue_nonsocial_high	n/a	32	8	n/a	n/a	n/a
350.854430	2	cue_nonsocial	n/a	32	6	n/a	n/a	n/a
350.854430	2	cue_nonsocial_high	n/a	32	8	n/a	n/a	n/a
357.687400	2	cue_nonsocial	n/a	32	6	n/a	n/a	n/a
357.687400	2	cue_nonsocial_high	n/a	32	8	n/a	n/a	n/a
365.337600	2	cue_nonsocial	n/a	32	6	n/a	n/a	n/a
365.337600	2	cue_nonsocial_high	n/a	32	8	n/a	n/a	n/a
6.513045	1.215686	dec_nonsocial_choice	1.215686	32.000000	n/a	8	2.083333e-02	2.083333e-02
6.513045	1.215686	dec_choice	1.215686	32.000000	n/a	8	2.083333e-02	2.083333e-02
6.513045	1.215686	dec_nonsocial_accept	1.215686	32.000000	n/a	8	-1.137500e-01	-1.137500e-01
6.513045	1.215686	dec_accept	1.215686	32.000000	n/a	8	-1.250000e-01	-1.250000e-01
6.513045	1.215686	dec_nonsocial_accept_high	1.215686	32.000000	n/a	8	-1.033654e-01	-1.033654e-01
13.345043	0.900297	dec_social_choice	0.900297	16.000000	n/a	8	2.708333e-01	2.708333e-01
13.345043	0.900297	dec_choice	0.900297	16.000000	n/a	8	2.708333e-01	2.708333e-01
13.345043	0.900297	dec_social_accept	0.900297	16.000000	n/a	8	1.362500e-01	1.362500e-01
13.345043	0.900297	dec_accept	0.900297	16.000000	n/a	8	1.466346e-01	1.466346e-01
13.345043	0.900297	dec_social_high	0.900297	16.000000	n/a	8	2.708333e-01	2.708333e-01
13.345043	0.900297	dec_social_accept_high	0.900297	16.000000	n/a	8	2.708333e-01	2.708333e-01
20.178997	0.833110	dec_nonsocial_choice	0.833110	32.000000	n/a	0	0	-2.291667e-01
20.178997	0.833110	dec_choice	0.833110	32.000000	n/a	0	0	-2.291667e-01
20.178997	0.833110	dec_nonsocial_reject	0.833110	32.000000	n/a	0	0	1.086957e-02
20.178997	0.833110	dec_reject	0.833110	32.000000	n/a	0	0	1.041667e-02
20.178997	0.833110	dec_nonsocial_reject_low	0.833110	32.000000	n/a	3	1.136364e-02	-8.238636e-02
27.012010	1.066396	dec_nonsocial_choice	1.066396	16.000000	n/a	4	2.083333e-02	2.083333e-02
27.012010	1.066396	dec_choice	1.066396	16.000000	n/a	4	2.083333e-02	2.083333e-02
27.012010	1.066396	dec_nonsocial_accept	1.066396	16.000000	n/a	4	-1.137500e-01	-1.137500e-01
27.012010	1.066396	dec_accept	1.066396	16.000000	n/a	4	-1.250000e-01	-1.250000e-01
27.012010	1.066396	dec_nonsocial_high	1.066396	16.000000	n/a	4	2.083333e-02	2.083333e-02
27.012010	1.066396	dec_nonsocial_accept_high	1.066396	16.000000	n/a	4	-1.250000e-01	-1.250000e-01
33.845370	1.316865	dec_nonsocial_choice	1.316865	32.000000	n/a	0	0	-2.291667e-01
33.845370	1.316865	dec_choice	1.316865	32.000000	n/a	0	0	-2.291667e-01
33.845370	1.316865	dec_nonsocial_reject	1.316865	32.000000	n/a	0	0	1.086957e-02
33.845370	1.316865	dec_reject	1.316865	32.000000	n/a	0	0	1.041667e-02
33.845370	1.316865	dec_nonsocial_reject_low	1.316865	32.000000	n/a	3	1.136364e-02	-8.238636e-02
44.713000	1.432578	dec_social_choice	1.432578	32.000000	n/a	8	2.083333e-02	2.083333e-02
44.713000	1.432578	dec_choice	1.432578	32.000000	n/a	8	2.083333e-02	2.083333e-02
44.713000	1.432578	dec_social_accept	1.432578	32.000000	n/a	8	-1.137500e-01	-1.137500e-01
44.713000	1.432578	dec_accept	1.432578	32.000000	n/a	8	-1.033654e-01	-1.033654e-01
44.713000	1.432578	dec_social_accept_high	1.432578	32.000000	n/a	8	2.083333e-02	2.083333e-02
53.978010	0.934023	dec_nonsocial_choice	0.934023	32.000000	n/a	16	2.708333e-01	2.708333e-01
53.978010	0.934023	dec_choice	0.934023	32.000000	n/a	16	2.708333e-01	2.708333e-01
53.978010	0.934023	dec_nonsocial_accept	0.934023	32.000000	n/a	16	1.362500e-01	1.362500e-01
53.978010	0.934023	dec_accept	0.934023	32.000000	n/a	16	1.250000e-01	1.250000e-01
53.978010	0.934023	dec_nonsocial_high	0.934023	32.000000	n/a	16	2.708333e-01	2.708333e-01
53.978010	0.934023	dec_nonsocial_accept_high	0.934023	32.000000	n/a	16	1.250000e-01	1.250000e-01
60.811960	1.283573	dec_nonsocial_choice	1.283573	32.000000	n/a	0	0	-2.291667e-01
60.811960	1.283573	dec_choice	1.283573	32.000000	n/a	0	0	-2.291667e-01
60.811960	1.283573	dec_nonsocial_reject	1.283573	32.000000	n/a	0	0	1.086957e-02
60.811960	1.283573	dec_reject	1.283573	32.000000	n/a	0	0	1.041667e-02
60.811960	1.283573	dec_nonsocial_low	1.283573	32.000000	n/a	0	-2.291667e-01	-2.291667e-01
60.811960	1.283573	dec_nonsocial_reject_low	1.283573	32.000000	n/a	3	1.041667e-02	-8.333333e-02
67.645160	0.883058	dec_social_choice	0.883058	32.000000	n/a	0	0	-2.291667e-01
67.645160	0.883058	dec_choice	0.883058	32.000000	n/a	0	0	-2.291667e-01
67.645160	0.883058	dec_social_reject	0.883058	32.000000	n/a	0	0	-2.038043e-02
67.645160	0.883058	dec_reject	0.883058	32.000000	n/a	0	0	-1.988636e-02
67.645160	0.883058	dec_social_reject_low	0.883058	32.000000	n/a	2	-1.666667e-01	-2.291667e-01
76.896940	1.031736	dec_nonsocial_choice	1.031736	16.000000	n/a	8	2.708333e-01	2.708333e-01
76.896940	1.031736	dec_choice	1.031736	16.000000	n/a	8	2.708333e-01	2.708333e-01
76.896940	1.031736	dec_nonsocial_accept	1.031736	16.000000	n/a	8	1.362500e-01	1.362500e-01
76.896940	1.031736	dec_accept	1.031736	16.000000	n/a	8	1.250000e-01	1.250000e-01
76.896940	1.031736	dec_nonsocial_accept_high	1.031736	16.000000	n/a	8	1.466346e-01	1.466346e-01
84.545364	0.950210	dec_social_choice	0.950210	32.000000	n/a	0	0	-2.291667e-01
84.545364	0.950210	dec_choice	0.950210	32.000000	n/a	0	0	-2.291667e-01
84.545364	0.950210	dec_social_reject	0.950210	32.000000	n/a	0	0	-2.038043e-02
84.545364	0.950210	dec_reject	0.950210	32.000000	n/a	0	0	-1.988636e-02
84.545364	0.950210	dec_social_low	0.950210	32.000000	n/a	0	-2.291667e-01	-2.291667e-01
84.545364	0.950210	dec_social_reject_low	0.950210	32.000000	n/a	2	-1.666667e-01	-2.291667e-01
91.378400	1.100575	dec_nonsocial_choice	1.100575	16.000000	n/a	0	0	-2.291667e-01
91.378400	1.100575	dec_choice	1.100575	16.000000	n/a	0	0	-2.291667e-01
91.378400	1.100575	dec_nonsocial_reject	1.100575	16.000000	n/a	0	0	4.211957e-02
91.378400	1.100575	dec_reject	1.100575	16.000000	n/a	0	0	4.166667e-02
91.378400	1.100575	dec_nonsocial_low	1.100575	16.000000	n/a	0	-2.291667e-01	-2.291667e-01
91.378400	1.100575	dec_nonsocial_reject_low	1.100575	16.000000	n/a	2	4.166667e-02	-8.333333e-02
99.027985	0.900686	dec_social_choice	0.900686	32.000000	n/a	16	2.708333e-01	2.708333e-01
99.027985	0.900686	dec_choice	0.900686	32.000000	n/a	16	2.708333e-01	2.708333e-01
99.027985	0.900686	dec_social_accept	0.900686	32.000000	n/a	16	1.362500e-01	1.362500e-01
99.027985	0.900686	dec_accept	0.900686	32.000000	n/a	16	1.466346e-01	1.466346e-01
99.027985	0.900686	dec_social_accept_high	0.900686	32.000000	n/a	16	2.708333e-01	2.708333e-01
105.861370	0.850324	dec_nonsocial_choice	0.850324	16.000000	n/a	0	0	-2.291667e-01
105.861370	0.850324	dec_choice	0.850324	16.000000	n/a	0	0	-2.291667e-01
105.861370	0.850324	dec_nonsocial_reject	0.850324	16.000000	n/a	0	0	-2.038043e-02
105.861370	0.850324	dec_reject	0.850324	16.000000	n/a	0	0	-2.083333e-02
105.861370	0.850324	dec_nonsocial_low	0.850324	16.000000	n/a	0	-2.291667e-01	-2.291667e-01
105.861370	0.850324	dec_nonsocial_reject_low	0.850324	16.000000	n/a	1	-2.083333e-02	-8.333333e-02
113.511990	0.950010	dec_social_choice	0.950010	32.000000	n/a	8	2.083333e-02	2.083333e-02
113.511990	0.950010	dec_choice	0.950010	32.000000	n/a	8	2.083333e-02	2.083333e-02
113.511990	0.950010	dec_social_accept	0.950010	32.000000	n/a	8	-1.137500e-01	-1.137500e-01
113.511990	0.950010	dec_accept	0.950010	32.000000	n/a	8	-1.033654e-01	-1.033654e-01
113.511990	0.950010	dec_social_accept_high	0.950010	32.000000	n/a	8	2.083333e-02	2.083333e-02
121.161900	0.866501	dec_social_choice	0.866501	16.000000	n/a	0	0	-2.291667e-01
121.161900	0.866501	dec_choice	0.866501	16.000000	n/a	0	0	-2.291667e-01
121.161900	0.866501	dec_social_reject	0.866501	16.000000	n/a	0	0	-2.038043e-02
121.161900	0.866501	dec_reject	0.866501	16.000000	n/a	0	0	-1.988636e-02
121.161900	0.866501	dec_social_low	0.866501	16.000000	n/a	0	-2.291667e-01	-2.291667e-01
121.161900	0.866501	dec_social_reject_low	0.866501	16.000000	n/a	1	-1.666667e-01	-2.291667e-01
127.995520	1.016038	dec_nonsocial_choice	1.016038	32.000000	n/a	16	2.708333e-01	2.708333e-01
127.995520	1.016038	dec_choice	1.016038	32.000000	n/a	16	2.708333e-01	2.708333e-01
127.995520	1.016038	dec_nonsocial_accept	1.016038	32.000000	n/a	16	1.362500e-01	1.362500e-01
127.995520	1.016038	dec_accept	1.016038	32.000000	n/a	16	1.250000e-01	1.250000e-01
127.995520	1.016038	dec_nonsocial_high	1.016038	32.000000	n/a	16	2.708333e-01	2.708333e-01
127.995520	1.016038	dec_nonsocial_accept_high	1.016038	32.000000	n/a	16	1.250000e-01	1.250000e-01
135.644880	1.334067	dec_nonsocial_choice	1.334067	16.000000	n/a	0	0	-2.291667e-01
135.644880	1.334067	dec_choice	1.334067	16.000000	n/a	0	0	-2.291667e-01
135.644880	1.334067	dec_nonsocial_reject	1.334067	16.000000	n/a	0	0	-2.038043e-02
135.644880	1.334067	dec_reject	1.334067	16.000000	n/a	0	0	-2.083333e-02
135.644880	1.334067	dec_nonsocial_reject_low	1.334067	16.000000	n/a	1	-1.988636e-02	-8.238636e-02
143.295270	1.133337	dec_social_choice	1.133337	16.000000	n/a	8	2.708333e-01	2.708333e-01
143.295270	1.133337	dec_choice	1.133337	16.000000	n/a	8	2.708333e-01	2.708333e-01
143.295270	1.133337	dec_social_accept	1.133337	16.000000	n/a	8	1.362500e-01	1.362500e-01
143.295270	1.133337	dec_accept	1.133337	16.000000	n/a	8	1.466346e-01	1.466346e-01
143.295270	1.133337	dec_social_accept_high	1.133337	16.000000	n/a	8	2.708333e-01	2.708333e-01
150.127880	1.616983	dec_nonsocial_choice	1.616983	16.000000	n/a	0	0	-2.291667e-01
150.127880	1.616983	dec_choice	1.616983	16.000000	n/a	0	0	-2.291667e-01
150.127880	1.616983	dec_nonsocial_reject	1.616983	16.000000	n/a	0	0	4.211957e-02
150.127880	1.616983	dec_reject	1.616983	16.000000	n/a	0	0	4.166667e-02
150.127880	1.616983	dec_nonsocial_reject_low	1.616983	16.000000	n/a	2	4.261364e-02	-8.238636e-02
156.961870	0.766303	dec_nonsocial_choice	0.766303	32.000000	n/a	16	2.708333e-01	2.708333e-01
156.961870	0.766303	dec_choice	0.766303	32.000000	n/a	16	2.708333e-01	2.708333e-01
156.961870	0.766303	dec_nonsocial_accept	0.766303	32.000000	n/a	16	1.362500e-01	1.362500e-01
156.961870	0.766303	dec_accept	0.766303	32.000000	n/a	16	1.250000e-01	1.250000e-01
156.961870	0.766303	dec_nonsocial_accept_high	0.766303	32.000000	n/a	16	1.466346e-01	1.466346e-01
163.794850	1.016463	dec_social_choice	1.016463	32.000000	n/a	0	0	-2.291667e-01
163.794850	1.016463	dec_choice	1.016463	32.000000	n/a	0	0	-2.291667e-01
163.794850	1.016463	dec_social_reject	1.016463	32.000000	n/a	0	0	1.086957e-02
163.794850	1.016463	dec_reject	1.016463	32.000000	n/a	0	0	1.136364e-02
163.794850	1.016463	dec_social_low	1.016463	32.000000	n/a	0	-2.291667e-01	-2.291667e-01
163.794850	1.016463	dec_social_reject_low	1.016463	32.000000	n/a	3	-1.354167e-01	-2.291667e-01
173.045870	1.299287	dec_nonsocial_choice	1.299287	16.000000	n/a	4	2.083333e-02	2.083333e-02
173.045870	1.299287	dec_choice	1.299287	16.000000	n/a	4	2.083333e-02	2.083333e-02
173.045870	1.299287	dec_nonsocial_accept	1.299287	16.000000	n/a	4	-1.137500e-01	-1.137500e-01
173.045870	1.299287	dec_accept	1.299287	16.000000	n/a	4	-1.250000e-01	-1.250000e-01
173.045870	1.299287	dec_nonsocial_high	1.299287	16.000000	n/a	4	2.083333e-02	2.083333e-02
173.045870	1.299287	dec_nonsocial_accept_high	1.299287	16.000000	n/a	4	-1.250000e-01	-1.250000e-01
182.294880	1.083471	dec_social_choice	1.083471	16.000000	n/a	8	2.708333e-01	2.708333e-01
182.294880	1.083471	dec_choice	1.083471	16.000000	n/a	8	2.708333e-01	2.708333e-01
182.294880	1.083471	dec_social_accept	1.083471	16.000000	n/a	8	1.362500e-01	1.362500e-01
182.294880	1.083471	dec_accept	1.083471	16.000000	n/a	8	1.466346e-01	1.466346e-01
182.294880	1.083471	dec_social_accept_high	1.083471	16.000000	n/a	8	2.708333e-01	2.708333e-01
189.944840	1.450229	dec_social_choice	1.450229	32.000000	n/a	0	0	-2.291667e-01
189.944840	1.450229	dec_choice	1.450229	32.000000	n/a	0	0	-2.291667e-01
189.944840	1.450229	dec_social_reject	1.450229	32.000000	n/a	0	0	-2.038043e-02
189.944840	1.450229	dec_reject	1.450229	32.000000	n/a	0	0	-1.988636e-02
189.944840	1.450229	dec_social_reject_low	1.450229	32.000000	n/a	2	-1.666667e-01	-2.291667e-01
196.778820	1.065861	dec_social_choice	1.065861	32.000000	n/a	0	0	-2.291667e-01
196.778820	1.065861	dec_choice	1.065861	32.000000	n/a	0	0	-2.291667e-01
196.778820	1.065861	dec_social_reject	1.065861	32.000000	n/a	0	0	1.086957e-02
196.778820	1.065861	dec_reject	1.065861	32.000000	n/a	0	0	1.136364e-02
196.778820	1.065861	dec_social_low	1.065861	32.000000	n/a	0	-2.291667e-01	-2.291667e-01
196.778820	1.065861	dec_social_reject_low	1.065861	32.000000	n/a	3	-1.354167e-01	-2.291667e-01
203.611820	0.982815	dec_social_choice	0.982815	32.000000	n/a	0	0	-2.291667e-01
203.611820	0.982815	dec_choice	0.982815	32.000000	n/a	0	0	-2.291667e-01
203.611820	0.982815	dec_social_reject	0.982815	32.000000	n/a	0	0	1.086957e-02
203.611820	0.982815	dec_reject	0.982815	32.000000	n/a	0	0	1.136364e-02
203.611820	0.982815	dec_social_reject_low	0.982815	32.000000	n/a	3	-1.354167e-01	-2.291667e-01
210.445830	1.499551	dec_social_choice	1.499551	16.000000	n/a	4	2.083333e-02	2.083333e-02
210.445830	1.499551	dec_choice	1.499551	16.000000	n/a	4	2.083333e-02	2.083333e-02
210.445830	1.499551	dec_social_accept	1.499551	16.000000	n/a	4	-1.137500e-01	-1.137500e-01
210.445830	1.499551	dec_accept	1.499551	16.000000	n/a	4	-1.033654e-01	-1.033654e-01
210.445830	1.499551	dec_social_accept_high	1.499551	16.000000	n/a	4	2.083333e-02	2.083333e-02
217.277790	1.482989	dec_social_choice	1.482989	16.000000	n/a	4	2.083333e-02	2.083333e-02
217.277790	1.482989	dec_choice	1.482989	16.000000	n/a	4	2.083333e-02	2.083333e-02
217.277790	1.482989	dec_social_accept	1.482989	16.000000	n/a	4	-1.137500e-01	-1.137500e-01
217.277790	1.482989	dec_accept	1.482989	16.000000	n/a	4	-1.033654e-01	-1.033654e-01
217.277790	1.482989	dec_social_high	1.482989	16.000000	n/a	4	2.083333e-02	2.083333e-02
217.277790	1.482989	dec_social_accept_high	1.482989	16.000000	n/a	4	2.083333e-02	2.083333e-02
226.544800	1.116482	dec_social_choice	1.116482	16.000000	n/a	0	0	-2.291667e-01
226.544800	1.116482	dec_choice	1.116482	16.000000	n/a	0	0	-2.291667e-01
226.544800	1.116482	dec_social_reject	1.116482	16.000000	n/a	0	0	-2.038043e-02
226.544800	1.116482	dec_reject	1.116482	16.000000	n/a	0	0	-1.988636e-02
226.544800	1.116482	dec_social_low	1.116482	16.000000	n/a	0	-2.291667e-01	-2.291667e-01
226.544800	1.116482	dec_social_reject_low	1.116482	16.000000	n/a	1	-1.666667e-01	-2.291667e-01
233.378800	0.899636	dec_nonsocial_choice	0.899636	16.000000	n/a	0	0	-2.291667e-01
233.378800	0.899636	dec_choice	0.899636	16.000000	n/a	0	0	-2.291667e-01
233.378800	0.899636	dec_nonsocial_reject	0.899636	16.000000	n/a	0	0	-2.038043e-02
233.378800	0.899636	dec_reject	0.899636	16.000000	n/a	0	0	-2.083333e-02
233.378800	0.899636	dec_nonsocial_reject_low	0.899636	16.000000	n/a	1	-1.988636e-02	-8.238636e-02
240.211730	1.099809	dec_social_choice	1.099809	16.000000	n/a	4	2.083333e-02	2.083333e-02
240.211730	1.099809	dec_choice	1.099809	16.000000	n/a	4	2.083333e-02	2.083333e-02
240.211730	1.099809	dec_social_accept	1.099809	16.000000	n/a	4	-1.137500e-01	-1.137500e-01
240.211730	1.099809	dec_accept	1.099809	16.000000	n/a	4	-1.033654e-01	-1.033654e-01
240.211730	1.099809	dec_social_accept_high	1.099809	16.000000	n/a	4	2.083333e-02	2.083333e-02
247.044780	0.933898	dec_nonsocial_choice	0.933898	32.000000	n/a	8	2.083333e-02	2.083333e-02
247.044780	0.933898	dec_choice	0.933898	32.000000	n/a	8	2.083333e-02	2.083333e-02
247.044780	0.933898	dec_nonsocial_accept	0.933898	32.000000	n/a	8	-1.137500e-01	-1.137500e-01
247.044780	0.933898	dec_accept	0.933898	32.000000	n/a	8	-1.250000e-01	-1.250000e-01
247.044780	0.933898	dec_nonsocial_high	0.933898	32.000000	n/a	8	2.083333e-02	2.083333e-02
247.044780	0.933898	dec_nonsocial_accept_high	0.933898	32.000000	n/a	8	-1.250000e-01	-1.250000e-01
253.877530	0.751095	dec_social_choice	0.751095	32.000000	n/a	0	0	-2.291667e-01
253.877530	0.751095	dec_choice	0.751095	32.000000	n/a	0	0	-2.291667e-01
253.877530	0.751095	dec_social_reject	0.751095	32.000000	n/a	0	0	-2.038043e-02
253.877530	0.751095	dec_reject	0.751095	32.000000	n/a	0	0	-1.988636e-02
253.877530	0.751095	dec_social_reject_low	0.751095	32.000000	n/a	2	-1.666667e-01	-2.291667e-01
261.528100	1.150109	dec_nonsocial_choice	1.150109	32.000000	n/a	0	0	-2.291667e-01
261.528100	1.150109	dec_choice	1.150109	32.000000	n/a	0	0	-2.291667e-01
261.528100	1.150109	dec_nonsocial_reject	1.150109	32.000000	n/a	0	0	-2.038043e-02
261.528100	1.150109	dec_reject	1.150109	32.000000	n/a	0	0	-2.083333e-02
261.528100	1.150109	dec_nonsocial_reject_low	1.150109	32.000000	n/a	2	-1.988636e-02	-8.238636e-02
269.177550	1.300461	dec_nonsocial_choice	1.300461	16.000000	n/a	4	2.083333e-02	2.083333e-02
269.177550	1.300461	dec_choice	1.300461	16.000000	n/a	4	2.083333e-02	2.083333e-02
269.177550	1.300461	dec_nonsocial_accept	1.300461	16.000000	n/a	4	-1.137500e-01	-1.137500e-01
269.177550	1.300461	dec_accept	1.300461	16.000000	n/a	4	-1.250000e-01	-1.250000e-01
269.177550	1.300461	dec_nonsocial_accept_high	1.300461	16.000000	n/a	4	-1.033654e-01	-1.033654e-01
276.811740	1.449811	dec_social_choice	1.449811	16.000000	n/a	0	0	-2.291667e-01
276.811740	1.449811	dec_choice	1.449811	16.000000	n/a	0	0	-2.291667e-01
276.811740	1.449811	dec_social_reject	1.449811	16.000000	n/a	0	0	4.211957e-02
276.811740	1.449811	dec_reject	1.449811	16.000000	n/a	0	0	4.261364e-02
276.811740	1.449811	dec_social_reject_low	1.449811	16.000000	n/a	2	-1.041667e-01	-2.291667e-01
283.644740	1.050388	dec_nonsocial_choice	1.050388	32.000000	n/a	0	0	-2.291667e-01
283.644740	1.050388	dec_choice	1.050388	32.000000	n/a	0	0	-2.291667e-01
283.644740	1.050388	dec_nonsocial_reject	1.050388	32.000000	n/a	0	0	1.086957e-02
283.644740	1.050388	dec_reject	1.050388	32.000000	n/a	0	0	1.041667e-02
283.644740	1.050388	dec_nonsocial_reject_low	1.050388	32.000000	n/a	3	1.136364e-02	-8.238636e-02
291.294740	0.899977	dec_social_choice	0.899977	32.000000	n/a	3	-1.354167e-01	-1.354167e-01
291.294740	0.899977	dec_choice	0.899977	32.000000	n/a	3	-1.354167e-01	-1.354167e-01
291.294740	0.899977	dec_social_accept	0.899977	32.000000	n/a	3	-2.700000e-01	-2.700000e-01
291.294740	0.899977	dec_accept	0.899977	32.000000	n/a	3	-2.596154e-01	-2.596154e-01
291.294740	0.899977	dec_social_accept_low	0.899977	32.000000	n/a	3	-1.354167e-01	-1.354167e-01
298.128720	1.165267	dec_social_choice	1.165267	16.000000	n/a	8	2.708333e-01	2.708333e-01
298.128720	1.165267	dec_choice	1.165267	16.000000	n/a	8	2.708333e-01	2.708333e-01
298.128720	1.165267	dec_social_accept	1.165267	16.000000	n/a	8	1.362500e-01	1.362500e-01
298.128720	1.165267	dec_accept	1.165267	16.000000	n/a	8	1.466346e-01	1.466346e-01
298.128720	1.165267	dec_social_accept_high	1.165267	16.000000	n/a	8	2.708333e-01	2.708333e-01
307.394700	0.933148	dec_social_choice	0.933148	16.000000	n/a	0	0	-2.291667e-01
307.394700	0.933148	dec_choice	0.933148	16.000000	n/a	0	0	-2.291667e-01
307.394700	0.933148	dec_social_reject	0.933148	16.000000	n/a	0	0	4.211957e-02
307.394700	0.933148	dec_reject	0.933148	16.000000	n/a	0	0	4.261364e-02
307.394700	0.933148	dec_social_reject_low	0.933148	16.000000	n/a	2	-1.041667e-01	-2.291667e-01
318.261750	1.082347	dec_social_choice	1.082347	16.000000	n/a	4	2.083333e-02	2.083333e-02
318.261750	1.082347	dec_choice	1.082347	16.000000	n/a	4	2.083333e-02	2.083333e-02
318.261750	1.082347	dec_social_accept	1.082347	16.000000	n/a	4	-1.137500e-01	-1.137500e-01
318.261750	1.082347	dec_accept	1.082347	16.000000	n/a	4	-1.033654e-01	-1.033654e-01
318.261750	1.082347	dec_social_high	1.082347	16.000000	n/a	4	2.083333e-02	2.083333e-02
318.261750	1.082347	dec_social_accept_high	1.082347	16.000000	n/a	4	2.083333e-02	2.083333e-02
327.511750	0.982813	dec_nonsocial_choice	0.982813	32.000000	n/a	16	2.708333e-01	2.708333e-01
327.511750	0.982813	dec_choice	0.982813	32.000000	n/a	16	2.708333e-01	2.708333e-01
327.511750	0.982813	dec_nonsocial_accept	0.982813	32.000000	n/a	16	1.362500e-01	1.362500e-01
327.511750	0.982813	dec_accept	0.982813	32.000000	n/a	16	1.250000e-01	1.250000e-01
327.511750	0.982813	dec_nonsocial_accept_high	0.982813	32.000000	n/a	16	1.466346e-01	1.466346e-01
334.344700	0.716881	dec_social_choice	0.716881	32.000000	n/a	16	2.708333e-01	2.708333e-01
334.344700	0.716881	dec_choice	0.716881	32.000000	n/a	16	2.708333e-01	2.708333e-01
334.344700	0.716881	dec_social_accept	0.716881	32.000000	n/a	16	1.362500e-01	1.362500e-01
334.344700	0.716881	dec_accept	0.716881	32.000000	n/a	16	1.466346e-01	1.466346e-01
334.344700	0.716881	dec_social_accept_high	0.716881	32.000000	n/a	16	2.708333e-01	2.708333e-01
341.993740	1.267158	dec_nonsocial_choice	1.267158	32.000000	n/a	0	0	-2.291667e-01
341.993740	1.267158	dec_choice	1.267158	32.000000	n/a	0	0	-2.291667e-01
341.993740	1.267158	dec_nonsocial_reject	1.267158	32.000000	n/a	0	0	-2.038043e-02
341.993740	1.267158	dec_reject	1.267158	32.000000	n/a	0	0	-2.083333e-02
341.993740	1.267158	dec_nonsocial_reject_low	1.267158	32.000000	n/a	2	-1.988636e-02	-8.238636e-02
352.860700	1.216822	dec_nonsocial_choice	1.216822	32.000000	n/a	8	2.083333e-02	2.083333e-02
352.860700	1.216822	dec_choice	1.216822	32.000000	n/a	8	2.083333e-02	2.083333e-02
352.860700	1.216822	dec_nonsocial_accept	1.216822	32.000000	n/a	8	-1.137500e-01	-1.137500e-01
352.860700	1.216822	dec_accept	1.216822	32.000000	n/a	8	-1.250000e-01	-1.250000e-01
352.860700	1.216822	dec_nonsocial_high	1.216822	32.000000	n/a	8	2.083333e-02	2.083333e-02
352.860700	1.216822	dec_nonsocial_accept_high	1.216822	32.000000	n/a	8	-1.250000e-01	-1.250000e-01
359.694670	0.733208	dec_nonsocial_choice	0.733208	32.000000	n/a	0	0	-2.291667e-01
359.694670	0.733208	dec_choice	0.733208	32.000000	n/a	0	0	-2.291667e-01
359.694670	0.733208	dec_nonsocial_reject	0.733208	32.000000	n/a	0	0	-2.038043e-02
359.694670	0.733208	dec_reject	0.733208	32.000000	n/a	0	0	-2.083333e-02
359.694670	0.733208	dec_nonsocial_reject_low	0.733208	32.000000	n/a	2	-1.988636e-02	-8.238636e-02
367.344200	1.700375	dec_nonsocial_choice	1.700375	32.000000	n/a	16	2.708333e-01	2.708333e-01
367.344200	1.700375	dec_choice	1.700375	32.000000	n/a	16	2.708333e-01	2.708333e-01
367.344200	1.700375	dec_nonsocial_accept	1.700375	32.000000	n/a	16	1.362500e-01	1.362500e-01
367.344200	1.700375	dec_accept	1.700375	32.000000	n/a	16	1.250000e-01	1.250000e-01
367.344200	1.700375	dec_nonsocial_high	1.700375	32.000000	n/a	16	2.708333e-01	2.708333e-01
367.344200	1.700375	dec_nonsocial_accept_high	1.700375	32.000000	n/a	16	1.250000e-01	1.250000e-01
