onset	duration	trial_type	response_time	Endowment	Endowment_pmod	Decision	Decision_pmod	Offer_pmod
4.547746	2	cue_social	n/a	32	7	n/a	n/a	n/a
4.547746	2	cue_social_high	n/a	32	7	n/a	n/a	n/a
13.790916	2	cue_social	n/a	16	-9	n/a	n/a	n/a
13.790916	2	cue_social_low	n/a	16	-9	n/a	n/a	n/a
21.443365	2	cue_social	n/a	16	-9	n/a	n/a	n/a
21.443365	2	cue_social_low	n/a	16	-9	n/a	n/a	n/a
28.236765	2	cue_nonsocial	n/a	32	7	n/a	n/a	n/a
28.236765	2	cue_nonsocial_high	n/a	32	7	n/a	n/a	n/a
35.922750	2	cue_social	n/a	16	-9	n/a	n/a	n/a
35.922750	2	cue_social_low	n/a	16	-9	n/a	n/a	n/a
43.520237	2	cue_nonsocial	n/a	16	-9	n/a	n/a	n/a
43.520237	2	cue_nonsocial_low	n/a	16	-9	n/a	n/a	n/a
54.386864	2	cue_nonsocial	n/a	32	7	n/a	n/a	n/a
54.386864	2	cue_nonsocial_high	n/a	32	7	n/a	n/a	n/a
65.376495	2	cue_social	n/a	32	7	n/a	n/a	n/a
65.376495	2	cue_social_high	n/a	32	7	n/a	n/a	n/a
74.553790	2	cue_social	n/a	16	-9	n/a	n/a	n/a
74.553790	2	cue_social_low	n/a	16	-9	n/a	n/a	n/a
81.336410	2	cue_nonsocial	n/a	32	7	n/a	n/a	n/a
81.336410	2	cue_nonsocial_high	n/a	32	7	n/a	n/a	n/a
88.169870	2	cue_nonsocial	n/a	32	7	n/a	n/a	n/a
88.169870	2	cue_nonsocial_high	n/a	32	7	n/a	n/a	n/a
95.003174	2	cue_nonsocial	n/a	32	7	n/a	n/a	n/a
95.003174	2	cue_nonsocial_high	n/a	32	7	n/a	n/a	n/a
104.253690	2	cue_nonsocial	n/a	16	-9	n/a	n/a	n/a
104.253690	2	cue_nonsocial_low	n/a	16	-9	n/a	n/a	n/a
111.086586	2	cue_nonsocial	n/a	32	7	n/a	n/a	n/a
111.086586	2	cue_nonsocial_high	n/a	32	7	n/a	n/a	n/a
120.355170	2	cue_social	n/a	32	7	n/a	n/a	n/a
120.355170	2	cue_social_high	n/a	32	7	n/a	n/a	n/a
128.086350	2	cue_social	n/a	32	7	n/a	n/a	n/a
128.086350	2	cue_social_high	n/a	32	7	n/a	n/a	n/a
134.819900	2	cue_nonsocial	n/a	16	-9	n/a	n/a	n/a
134.819900	2	cue_nonsocial_low	n/a	16	-9	n/a	n/a	n/a
142.484300	2	cue_social	n/a	32	7	n/a	n/a	n/a
142.484300	2	cue_social_high	n/a	32	7	n/a	n/a	n/a
151.749420	2	cue_social	n/a	32	7	n/a	n/a	n/a
151.749420	2	cue_social_high	n/a	32	7	n/a	n/a	n/a
158.553090	2	cue_nonsocial	n/a	32	7	n/a	n/a	n/a
158.553090	2	cue_nonsocial_high	n/a	32	7	n/a	n/a	n/a
166.218120	2	cue_social	n/a	16	-9	n/a	n/a	n/a
166.218120	2	cue_social_low	n/a	16	-9	n/a	n/a	n/a
178.686300	2	cue_nonsocial	n/a	16	-9	n/a	n/a	n/a
178.686300	2	cue_nonsocial_low	n/a	16	-9	n/a	n/a	n/a
185.526380	2	cue_social	n/a	16	-9	n/a	n/a	n/a
185.526380	2	cue_social_low	n/a	16	-9	n/a	n/a	n/a
192.352980	2	cue_nonsocial	n/a	16	-9	n/a	n/a	n/a
192.352980	2	cue_nonsocial_low	n/a	16	-9	n/a	n/a	n/a
199.186310	2	cue_nonsocial	n/a	16	-9	n/a	n/a	n/a
199.186310	2	cue_nonsocial_low	n/a	16	-9	n/a	n/a	n/a
206.033260	2	cue_social	n/a	32	7	n/a	n/a	n/a
206.033260	2	cue_social_high	n/a	32	7	n/a	n/a	n/a
213.678560	2	cue_social	n/a	32	7	n/a	n/a	n/a
213.678560	2	cue_social_high	n/a	32	7	n/a	n/a	n/a
220.522930	2	cue_social	n/a	16	-9	n/a	n/a	n/a
220.522930	2	cue_social_low	n/a	16	-9	n/a	n/a	n/a
227.336010	2	cue_nonsocial	n/a	32	7	n/a	n/a	n/a
227.336010	2	cue_nonsocial_high	n/a	32	7	n/a	n/a	n/a
234.169650	2	cue_nonsocial	n/a	32	7	n/a	n/a	n/a
234.169650	2	cue_nonsocial_high	n/a	32	7	n/a	n/a	n/a
241.035890	2	cue_social	n/a	16	-9	n/a	n/a	n/a
241.035890	2	cue_social_low	n/a	16	-9	n/a	n/a	n/a
248.652910	2	cue_nonsocial	n/a	32	7	n/a	n/a	n/a
248.652910	2	cue_nonsocial_high	n/a	32	7	n/a	n/a	n/a
256.302900	2	cue_nonsocial	n/a	16	-9	n/a	n/a	n/a
256.302900	2	cue_nonsocial_low	n/a	16	-9	n/a	n/a	n/a
263.985800	2	cue_social	n/a	32	7	n/a	n/a	n/a
263.985800	2	cue_social_high	n/a	32	7	n/a	n/a	n/a
273.214540	2	cue_social	n/a	32	7	n/a	n/a	n/a
273.214540	2	cue_social_high	n/a	32	7	n/a	n/a	n/a
280.036100	2	cue_nonsocial	n/a	32	7	n/a	n/a	n/a
280.036100	2	cue_nonsocial_high	n/a	32	7	n/a	n/a	n/a
286.909700	2	cue_social	n/a	16	-9	n/a	n/a	n/a
286.909700	2	cue_social_low	n/a	16	-9	n/a	n/a	n/a
293.702760	2	cue_nonsocial	n/a	32	7	n/a	n/a	n/a
293.702760	2	cue_nonsocial_high	n/a	32	7	n/a	n/a	n/a
301.346340	2	cue_social	n/a	32	7	n/a	n/a	n/a
301.346340	2	cue_social_high	n/a	32	7	n/a	n/a	n/a
308.986360	2	cue_nonsocial	n/a	16	-9	n/a	n/a	n/a
308.986360	2	cue_nonsocial_low	n/a	16	-9	n/a	n/a	n/a
316.636050	2	cue_nonsocial	n/a	32	7	n/a	n/a	n/a
316.636050	2	cue_nonsocial_high	n/a	32	7	n/a	n/a	n/a
323.483430	2	cue_social	n/a	32	7	n/a	n/a	n/a
323.483430	2	cue_social_high	n/a	32	7	n/a	n/a	n/a
330.355530	2	cue_social	n/a	16	-9	n/a	n/a	n/a
330.355530	2	cue_social_low	n/a	16	-9	n/a	n/a	n/a
337.135770	2	cue_nonsocial	n/a	16	-9	n/a	n/a	n/a
337.135770	2	cue_nonsocial_low	n/a	16	-9	n/a	n/a	n/a
346.402620	2	cue_nonsocial	n/a	32	7	n/a	n/a	n/a
346.402620	2	cue_nonsocial_high	n/a	32	7	n/a	n/a	n/a
353.278530	2	cue_social	n/a	16	-9	n/a	n/a	n/a
353.278530	2	cue_social_low	n/a	16	-9	n/a	n/a	n/a
360.068940	2	cue_nonsocial	n/a	16	-9	n/a	n/a	n/a
360.068940	2	cue_nonsocial_low	n/a	16	-9	n/a	n/a	n/a
366.950960	2	cue_social	n/a	32	7	n/a	n/a	n/a
366.950960	2	cue_social_high	n/a	32	7	n/a	n/a	n/a
6.510048	3.133835	dec_social_choice	3.133835	32.000000	n/a	0	0	-2.298177e-01
6.510048	3.133835	dec_choice	3.133835	32.000000	n/a	0	0	-2.304688e-01
6.510048	3.133835	dec_social_reject	3.133835	32.000000	n/a	0	0	8.152174e-03
6.510048	3.133835	dec_reject	3.133835	32.000000	n/a	0	0	5.681818e-03
6.510048	3.133835	dec_social_reject_low	3.133835	32.000000	n/a	3	-1.367188e-01	-2.304688e-01
15.777368	1.033193	dec_social_choice	1.033193	16.000000	n/a	8	2.701823e-01	2.701823e-01
15.777368	1.033193	dec_choice	1.033193	16.000000	n/a	8	2.695312e-01	2.695312e-01
15.777368	1.033193	dec_social_accept	1.033193	16.000000	n/a	8	1.375000e-01	1.375000e-01
15.777368	1.033193	dec_accept	1.033193	16.000000	n/a	8	1.490385e-01	1.490385e-01
15.777368	1.033193	dec_social_high	1.033193	16.000000	n/a	8	2.695312e-01	2.695312e-01
15.777368	1.033193	dec_social_accept_high	1.033193	16.000000	n/a	8	2.695312e-01	2.695312e-01
23.410725	2.116150	dec_social_choice	2.116150	16.000000	n/a	0	0	-2.298177e-01
23.410725	2.116150	dec_choice	2.116150	16.000000	n/a	0	0	-2.304688e-01
23.410725	2.116150	dec_social_reject	2.116150	16.000000	n/a	0	0	3.940217e-02
23.410725	2.116150	dec_reject	2.116150	16.000000	n/a	0	0	3.693182e-02
23.410725	2.116150	dec_social_reject_low	2.116150	16.000000	n/a	2	-1.054688e-01	-2.304688e-01
30.243946	1.433265	dec_nonsocial_choice	1.433265	32.000000	n/a	16	2.701823e-01	2.701823e-01
30.243946	1.433265	dec_choice	1.433265	32.000000	n/a	16	2.708333e-01	2.708333e-01
30.243946	1.433265	dec_nonsocial_accept	1.433265	32.000000	n/a	16	1.375000e-01	1.375000e-01
30.243946	1.433265	dec_accept	1.433265	32.000000	n/a	16	1.250000e-01	1.250000e-01
30.243946	1.433265	dec_nonsocial_accept_high	1.433265	32.000000	n/a	16	1.490385e-01	1.490385e-01
37.893020	1.867253	dec_social_choice	1.867253	16.000000	n/a	0	0	-2.298177e-01
37.893020	1.867253	dec_choice	1.867253	16.000000	n/a	0	0	-2.304688e-01
37.893020	1.867253	dec_social_reject	1.867253	16.000000	n/a	0	0	3.940217e-02
37.893020	1.867253	dec_reject	1.867253	16.000000	n/a	0	0	3.693182e-02
37.893020	1.867253	dec_social_low	1.867253	16.000000	n/a	0	-2.304688e-01	-2.304688e-01
37.893020	1.867253	dec_social_reject_low	1.867253	16.000000	n/a	2	-1.054688e-01	-2.304688e-01
45.526894	1.950395	dec_nonsocial_choice	1.950395	16.000000	n/a	0	0	-2.298177e-01
45.526894	1.950395	dec_choice	1.950395	16.000000	n/a	0	0	-2.291667e-01
45.526894	1.950395	dec_nonsocial_reject	1.950395	16.000000	n/a	0	0	3.940217e-02
45.526894	1.950395	dec_reject	1.950395	16.000000	n/a	0	0	4.166667e-02
45.526894	1.950395	dec_nonsocial_low	1.950395	16.000000	n/a	0	-2.291667e-01	-2.291667e-01
45.526894	1.950395	dec_nonsocial_reject_low	1.950395	16.000000	n/a	2	4.166667e-02	-8.333333e-02
56.393955	1.715918	dec_nonsocial_choice	1.715918	32.000000	n/a	0	0	-2.298177e-01
56.393955	1.715918	dec_choice	1.715918	32.000000	n/a	0	0	-2.291667e-01
56.393955	1.715918	dec_nonsocial_reject	1.715918	32.000000	n/a	0	0	-2.309783e-02
56.393955	1.715918	dec_reject	1.715918	32.000000	n/a	0	0	-2.083333e-02
56.393955	1.715918	dec_nonsocial_low	1.715918	32.000000	n/a	0	-2.291667e-01	-2.291667e-01
56.393955	1.715918	dec_nonsocial_reject_low	1.715918	32.000000	n/a	2	-2.083333e-02	-8.333333e-02
67.259910	1.566945	dec_social_choice	1.566945	32.000000	n/a	2	-1.673177e-01	-1.673177e-01
67.259910	1.566945	dec_choice	1.566945	32.000000	n/a	2	-1.679688e-01	-1.679688e-01
67.259910	1.566945	dec_social_accept	1.566945	32.000000	n/a	2	-3.000000e-01	-3.000000e-01
67.259910	1.566945	dec_accept	1.566945	32.000000	n/a	2	-2.884615e-01	-2.884615e-01
67.259910	1.566945	dec_social_accept_low	1.566945	32.000000	n/a	2	-1.679688e-01	-1.679688e-01
76.509770	1.683907	dec_social_choice	1.683907	16.000000	n/a	0	0	-2.298177e-01
76.509770	1.683907	dec_choice	1.683907	16.000000	n/a	0	0	-2.304688e-01
76.509770	1.683907	dec_social_reject	1.683907	16.000000	n/a	0	0	-2.309783e-02
76.509770	1.683907	dec_reject	1.683907	16.000000	n/a	0	0	-2.556818e-02
76.509770	1.683907	dec_social_reject_low	1.683907	16.000000	n/a	1	-1.679688e-01	-2.304688e-01
83.342940	1.350741	dec_nonsocial_choice	1.350741	32.000000	n/a	8	2.018229e-02	2.018229e-02
83.342940	1.350741	dec_choice	1.350741	32.000000	n/a	8	2.083333e-02	2.083333e-02
83.342940	1.350741	dec_nonsocial_accept	1.350741	32.000000	n/a	8	-1.125000e-01	-1.125000e-01
83.342940	1.350741	dec_accept	1.350741	32.000000	n/a	8	-1.250000e-01	-1.250000e-01
83.342940	1.350741	dec_nonsocial_high	1.350741	32.000000	n/a	8	2.083333e-02	2.083333e-02
83.342940	1.350741	dec_nonsocial_accept_high	1.350741	32.000000	n/a	8	-1.250000e-01	-1.250000e-01
90.177900	2.199281	dec_nonsocial_choice	2.199281	32.000000	n/a	0	0	-2.298177e-01
90.177900	2.199281	dec_choice	2.199281	32.000000	n/a	0	0	-2.291667e-01
90.177900	2.199281	dec_nonsocial_reject	2.199281	32.000000	n/a	0	0	8.152174e-03
90.177900	2.199281	dec_reject	2.199281	32.000000	n/a	0	0	1.041667e-02
90.177900	2.199281	dec_nonsocial_reject_low	2.199281	32.000000	n/a	3	5.681818e-03	-8.806818e-02
97.009880	1.533738	dec_nonsocial_choice	1.533738	32.000000	n/a	0	0	-2.298177e-01
97.009880	1.533738	dec_choice	1.533738	32.000000	n/a	0	0	-2.291667e-01
97.009880	1.533738	dec_nonsocial_reject	1.533738	32.000000	n/a	0	0	8.152174e-03
97.009880	1.533738	dec_reject	1.533738	32.000000	n/a	0	0	1.041667e-02
97.009880	1.533738	dec_nonsocial_reject_low	1.533738	32.000000	n/a	3	5.681818e-03	-8.806818e-02
106.260900	0.849042	dec_nonsocial_choice	0.849042	16.000000	n/a	8	2.701823e-01	2.701823e-01
106.260900	0.849042	dec_choice	0.849042	16.000000	n/a	8	2.708333e-01	2.708333e-01
106.260900	0.849042	dec_nonsocial_accept	0.849042	16.000000	n/a	8	1.375000e-01	1.375000e-01
106.260900	0.849042	dec_accept	0.849042	16.000000	n/a	8	1.250000e-01	1.250000e-01
106.260900	0.849042	dec_nonsocial_high	0.849042	16.000000	n/a	8	2.708333e-01	2.708333e-01
106.260900	0.849042	dec_nonsocial_accept_high	0.849042	16.000000	n/a	8	1.250000e-01	1.250000e-01
113.093544	1.150090	dec_nonsocial_choice	1.150090	32.000000	n/a	8	2.018229e-02	2.018229e-02
113.093544	1.150090	dec_choice	1.150090	32.000000	n/a	8	2.083333e-02	2.083333e-02
113.093544	1.150090	dec_nonsocial_accept	1.150090	32.000000	n/a	8	-1.125000e-01	-1.125000e-01
113.093544	1.150090	dec_accept	1.150090	32.000000	n/a	8	-1.250000e-01	-1.250000e-01
113.093544	1.150090	dec_nonsocial_high	1.150090	32.000000	n/a	8	2.083333e-02	2.083333e-02
113.093544	1.150090	dec_nonsocial_accept_high	1.150090	32.000000	n/a	8	-1.250000e-01	-1.250000e-01
122.342920	1.666971	dec_social_choice	1.666971	32.000000	n/a	8	2.018229e-02	2.018229e-02
122.342920	1.666971	dec_choice	1.666971	32.000000	n/a	8	1.953125e-02	1.953125e-02
122.342920	1.666971	dec_social_accept	1.666971	32.000000	n/a	8	-1.125000e-01	-1.125000e-01
122.342920	1.666971	dec_accept	1.666971	32.000000	n/a	8	-1.009615e-01	-1.009615e-01
122.342920	1.666971	dec_social_accept_high	1.666971	32.000000	n/a	8	1.953125e-02	1.953125e-02
129.994520	1.049111	dec_social_choice	1.049111	32.000000	n/a	16	2.701823e-01	2.701823e-01
129.994520	1.049111	dec_choice	1.049111	32.000000	n/a	16	2.695312e-01	2.695312e-01
129.994520	1.049111	dec_social_accept	1.049111	32.000000	n/a	16	1.375000e-01	1.375000e-01
129.994520	1.049111	dec_accept	1.049111	32.000000	n/a	16	1.490385e-01	1.490385e-01
129.994520	1.049111	dec_social_high	1.049111	32.000000	n/a	16	2.695312e-01	2.695312e-01
129.994520	1.049111	dec_social_accept_high	1.049111	32.000000	n/a	16	2.695312e-01	2.695312e-01
136.826830	1.033294	dec_nonsocial_choice	1.033294	16.000000	n/a	8	2.701823e-01	2.701823e-01
136.826830	1.033294	dec_choice	1.033294	16.000000	n/a	8	2.708333e-01	2.708333e-01
136.826830	1.033294	dec_nonsocial_accept	1.033294	16.000000	n/a	8	1.375000e-01	1.375000e-01
136.826830	1.033294	dec_accept	1.033294	16.000000	n/a	8	1.250000e-01	1.250000e-01
136.826830	1.033294	dec_nonsocial_high	1.033294	16.000000	n/a	8	2.708333e-01	2.708333e-01
136.826830	1.033294	dec_nonsocial_accept_high	1.033294	16.000000	n/a	8	1.250000e-01	1.250000e-01
144.476760	1.966156	dec_social_choice	1.966156	32.000000	n/a	0	0	-2.298177e-01
144.476760	1.966156	dec_choice	1.966156	32.000000	n/a	0	0	-2.304688e-01
144.476760	1.966156	dec_social_reject	1.966156	32.000000	n/a	0	0	-2.309783e-02
144.476760	1.966156	dec_reject	1.966156	32.000000	n/a	0	0	-2.556818e-02
144.476760	1.966156	dec_social_low	1.966156	32.000000	n/a	0	-2.304688e-01	-2.304688e-01
144.476760	1.966156	dec_social_reject_low	1.966156	32.000000	n/a	2	-1.679688e-01	-2.304688e-01
153.726820	1.032804	dec_social_choice	1.032804	32.000000	n/a	8	2.018229e-02	2.018229e-02
153.726820	1.032804	dec_choice	1.032804	32.000000	n/a	8	1.953125e-02	1.953125e-02
153.726820	1.032804	dec_social_accept	1.032804	32.000000	n/a	8	-1.125000e-01	-1.125000e-01
153.726820	1.032804	dec_accept	1.032804	32.000000	n/a	8	-1.009615e-01	-1.009615e-01
153.726820	1.032804	dec_social_high	1.032804	32.000000	n/a	8	1.953125e-02	1.953125e-02
153.726820	1.032804	dec_social_accept_high	1.032804	32.000000	n/a	8	1.953125e-02	1.953125e-02
160.559370	1.584002	dec_nonsocial_choice	1.584002	32.000000	n/a	0	0	-2.298177e-01
160.559370	1.584002	dec_choice	1.584002	32.000000	n/a	0	0	-2.291667e-01
160.559370	1.584002	dec_nonsocial_reject	1.584002	32.000000	n/a	0	0	-2.309783e-02
160.559370	1.584002	dec_reject	1.584002	32.000000	n/a	0	0	-2.083333e-02
160.559370	1.584002	dec_nonsocial_reject_low	1.584002	32.000000	n/a	2	-2.556818e-02	-8.806818e-02
168.210830	0.915551	dec_social_choice	0.915551	16.000000	n/a	8	2.701823e-01	2.701823e-01
168.210830	0.915551	dec_choice	0.915551	16.000000	n/a	8	2.695312e-01	2.695312e-01
168.210830	0.915551	dec_social_accept	0.915551	16.000000	n/a	8	1.375000e-01	1.375000e-01
168.210830	0.915551	dec_accept	0.915551	16.000000	n/a	8	1.490385e-01	1.490385e-01
168.210830	0.915551	dec_social_high	0.915551	16.000000	n/a	8	2.695312e-01	2.695312e-01
168.210830	0.915551	dec_social_accept_high	0.915551	16.000000	n/a	8	2.695312e-01	2.695312e-01
180.693800	1.766266	dec_nonsocial_choice	1.766266	16.000000	n/a	4	2.018229e-02	2.018229e-02
180.693800	1.766266	dec_choice	1.766266	16.000000	n/a	4	2.083333e-02	2.083333e-02
180.693800	1.766266	dec_nonsocial_accept	1.766266	16.000000	n/a	4	-1.125000e-01	-1.125000e-01
180.693800	1.766266	dec_accept	1.766266	16.000000	n/a	4	-1.250000e-01	-1.250000e-01
180.693800	1.766266	dec_nonsocial_accept_high	1.766266	16.000000	n/a	4	-1.009615e-01	-1.009615e-01
187.526800	1.066057	dec_social_choice	1.066057	16.000000	n/a	0	0	-2.298177e-01
187.526800	1.066057	dec_choice	1.066057	16.000000	n/a	0	0	-2.304688e-01
187.526800	1.066057	dec_social_reject	1.066057	16.000000	n/a	0	0	3.940217e-02
187.526800	1.066057	dec_reject	1.066057	16.000000	n/a	0	0	3.693182e-02
187.526800	1.066057	dec_social_low	1.066057	16.000000	n/a	0	-2.304688e-01	-2.304688e-01
187.526800	1.066057	dec_social_reject_low	1.066057	16.000000	n/a	2	-1.054688e-01	-2.304688e-01
194.360800	1.065564	dec_nonsocial_choice	1.065564	16.000000	n/a	0	0	-2.298177e-01
194.360800	1.065564	dec_choice	1.065564	16.000000	n/a	0	0	-2.291667e-01
194.360800	1.065564	dec_nonsocial_reject	1.065564	16.000000	n/a	0	0	-2.309783e-02
194.360800	1.065564	dec_reject	1.065564	16.000000	n/a	0	0	-2.083333e-02
194.360800	1.065564	dec_nonsocial_low	1.065564	16.000000	n/a	0	-2.291667e-01	-2.291667e-01
194.360800	1.065564	dec_nonsocial_reject_low	1.065564	16.000000	n/a	1	-2.083333e-02	-8.333333e-02
201.193800	1.682797	dec_nonsocial_choice	1.682797	16.000000	n/a	4	2.018229e-02	2.018229e-02
201.193800	1.682797	dec_choice	1.682797	16.000000	n/a	4	2.083333e-02	2.083333e-02
201.193800	1.682797	dec_nonsocial_accept	1.682797	16.000000	n/a	4	-1.125000e-01	-1.125000e-01
201.193800	1.682797	dec_accept	1.682797	16.000000	n/a	4	-1.250000e-01	-1.250000e-01
201.193800	1.682797	dec_nonsocial_high	1.682797	16.000000	n/a	4	2.083333e-02	2.083333e-02
201.193800	1.682797	dec_nonsocial_accept_high	1.682797	16.000000	n/a	4	-1.250000e-01	-1.250000e-01
208.027800	1.632096	dec_social_choice	1.632096	32.000000	n/a	0	0	-2.298177e-01
208.027800	1.632096	dec_choice	1.632096	32.000000	n/a	0	0	-2.304688e-01
208.027800	1.632096	dec_social_reject	1.632096	32.000000	n/a	0	0	-2.309783e-02
208.027800	1.632096	dec_reject	1.632096	32.000000	n/a	0	0	-2.556818e-02
208.027800	1.632096	dec_social_low	1.632096	32.000000	n/a	0	-2.304688e-01	-2.304688e-01
208.027800	1.632096	dec_social_reject_low	1.632096	32.000000	n/a	2	-1.679688e-01	-2.304688e-01
215.676770	1.333236	dec_social_choice	1.333236	32.000000	n/a	16	2.701823e-01	2.701823e-01
215.676770	1.333236	dec_choice	1.333236	32.000000	n/a	16	2.695312e-01	2.695312e-01
215.676770	1.333236	dec_social_accept	1.333236	32.000000	n/a	16	1.375000e-01	1.375000e-01
215.676770	1.333236	dec_accept	1.333236	32.000000	n/a	16	1.490385e-01	1.490385e-01
215.676770	1.333236	dec_social_accept_high	1.333236	32.000000	n/a	16	2.695312e-01	2.695312e-01
222.509930	1.433383	dec_social_choice	1.433383	16.000000	n/a	0	0	-2.298177e-01
222.509930	1.433383	dec_choice	1.433383	16.000000	n/a	0	0	-2.304688e-01
222.509930	1.433383	dec_social_reject	1.433383	16.000000	n/a	0	0	-2.309783e-02
222.509930	1.433383	dec_reject	1.433383	16.000000	n/a	0	0	-2.556818e-02
222.509930	1.433383	dec_social_reject_low	1.433383	16.000000	n/a	1	-1.679688e-01	-2.304688e-01
229.343480	1.350169	dec_nonsocial_choice	1.350169	32.000000	n/a	16	2.701823e-01	2.701823e-01
229.343480	1.350169	dec_choice	1.350169	32.000000	n/a	16	2.708333e-01	2.708333e-01
229.343480	1.350169	dec_nonsocial_accept	1.350169	32.000000	n/a	16	1.375000e-01	1.375000e-01
229.343480	1.350169	dec_accept	1.350169	32.000000	n/a	16	1.250000e-01	1.250000e-01
229.343480	1.350169	dec_nonsocial_accept_high	1.350169	32.000000	n/a	16	1.490385e-01	1.490385e-01
236.176760	0.949594	dec_nonsocial_choice	0.949594	32.000000	n/a	16	2.701823e-01	2.701823e-01
236.176760	0.949594	dec_choice	0.949594	32.000000	n/a	16	2.708333e-01	2.708333e-01
236.176760	0.949594	dec_nonsocial_accept	0.949594	32.000000	n/a	16	1.375000e-01	1.375000e-01
236.176760	0.949594	dec_accept	0.949594	32.000000	n/a	16	1.250000e-01	1.250000e-01
236.176760	0.949594	dec_nonsocial_accept_high	0.949594	32.000000	n/a	16	1.490385e-01	1.490385e-01
243.009250	1.584000	dec_social_choice	1.584000	16.000000	n/a	4	2.018229e-02	2.018229e-02
243.009250	1.584000	dec_choice	1.584000	16.000000	n/a	4	1.953125e-02	1.953125e-02
243.009250	1.584000	dec_social_accept	1.584000	16.000000	n/a	4	-1.125000e-01	-1.125000e-01
243.009250	1.584000	dec_accept	1.584000	16.000000	n/a	4	-1.009615e-01	-1.009615e-01
243.009250	1.584000	dec_social_accept_high	1.584000	16.000000	n/a	4	1.953125e-02	1.953125e-02
250.659760	0.883622	dec_nonsocial_choice	0.883622	32.000000	n/a	16	2.701823e-01	2.701823e-01
250.659760	0.883622	dec_choice	0.883622	32.000000	n/a	16	2.708333e-01	2.708333e-01
250.659760	0.883622	dec_nonsocial_accept	0.883622	32.000000	n/a	16	1.375000e-01	1.375000e-01
250.659760	0.883622	dec_accept	0.883622	32.000000	n/a	16	1.250000e-01	1.250000e-01
250.659760	0.883622	dec_nonsocial_high	0.883622	32.000000	n/a	16	2.708333e-01	2.708333e-01
250.659760	0.883622	dec_nonsocial_accept_high	0.883622	32.000000	n/a	16	1.250000e-01	1.250000e-01
258.310760	1.165327	dec_nonsocial_choice	1.165327	16.000000	n/a	4	2.018229e-02	2.018229e-02
258.310760	1.165327	dec_choice	1.165327	16.000000	n/a	4	2.083333e-02	2.083333e-02
258.310760	1.165327	dec_nonsocial_accept	1.165327	16.000000	n/a	4	-1.125000e-01	-1.125000e-01
258.310760	1.165327	dec_accept	1.165327	16.000000	n/a	4	-1.250000e-01	-1.250000e-01
258.310760	1.165327	dec_nonsocial_high	1.165327	16.000000	n/a	4	2.083333e-02	2.083333e-02
258.310760	1.165327	dec_nonsocial_accept_high	1.165327	16.000000	n/a	4	-1.250000e-01	-1.250000e-01
265.959350	1.467193	dec_social_choice	1.467193	32.000000	n/a	0	0	-2.298177e-01
265.959350	1.467193	dec_choice	1.467193	32.000000	n/a	0	0	-2.304688e-01
265.959350	1.467193	dec_social_reject	1.467193	32.000000	n/a	0	0	8.152174e-03
265.959350	1.467193	dec_reject	1.467193	32.000000	n/a	0	0	5.681818e-03
265.959350	1.467193	dec_social_reject_low	1.467193	32.000000	n/a	3	-1.367188e-01	-2.304688e-01
275.210720	0.965285	dec_social_choice	0.965285	32.000000	n/a	8	2.018229e-02	2.018229e-02
275.210720	0.965285	dec_choice	0.965285	32.000000	n/a	8	1.953125e-02	1.953125e-02
275.210720	0.965285	dec_social_accept	0.965285	32.000000	n/a	8	-1.125000e-01	-1.125000e-01
275.210720	0.965285	dec_accept	0.965285	32.000000	n/a	8	-1.009615e-01	-1.009615e-01
275.210720	0.965285	dec_social_high	0.965285	32.000000	n/a	8	1.953125e-02	1.953125e-02
275.210720	0.965285	dec_social_accept_high	0.965285	32.000000	n/a	8	1.953125e-02	1.953125e-02
282.042900	1.100193	dec_nonsocial_choice	1.100193	32.000000	n/a	0	0	-2.298177e-01
282.042900	1.100193	dec_choice	1.100193	32.000000	n/a	0	0	-2.291667e-01
282.042900	1.100193	dec_nonsocial_reject	1.100193	32.000000	n/a	0	0	-2.309783e-02
282.042900	1.100193	dec_reject	1.100193	32.000000	n/a	0	0	-2.083333e-02
282.042900	1.100193	dec_nonsocial_reject_low	1.100193	32.000000	n/a	2	-2.556818e-02	-8.806818e-02
288.875820	0.783935	dec_social_choice	0.783935	16.000000	n/a	8	2.701823e-01	2.701823e-01
288.875820	0.783935	dec_choice	0.783935	16.000000	n/a	8	2.695312e-01	2.695312e-01
288.875820	0.783935	dec_social_accept	0.783935	16.000000	n/a	8	1.375000e-01	1.375000e-01
288.875820	0.783935	dec_accept	0.783935	16.000000	n/a	8	1.490385e-01	1.490385e-01
288.875820	0.783935	dec_social_high	0.783935	16.000000	n/a	8	2.695312e-01	2.695312e-01
288.875820	0.783935	dec_social_accept_high	0.783935	16.000000	n/a	8	2.695312e-01	2.695312e-01
295.709700	1.250030	dec_nonsocial_choice	1.250030	32.000000	n/a	0	0	-2.298177e-01
295.709700	1.250030	dec_choice	1.250030	32.000000	n/a	0	0	-2.291667e-01
295.709700	1.250030	dec_nonsocial_reject	1.250030	32.000000	n/a	0	0	8.152174e-03
295.709700	1.250030	dec_reject	1.250030	32.000000	n/a	0	0	1.041667e-02
295.709700	1.250030	dec_nonsocial_low	1.250030	32.000000	n/a	0	-2.291667e-01	-2.291667e-01
295.709700	1.250030	dec_nonsocial_reject_low	1.250030	32.000000	n/a	3	1.041667e-02	-8.333333e-02
303.343660	0.982943	dec_social_choice	0.982943	32.000000	n/a	8	2.018229e-02	2.018229e-02
303.343660	0.982943	dec_choice	0.982943	32.000000	n/a	8	1.953125e-02	1.953125e-02
303.343660	0.982943	dec_social_accept	0.982943	32.000000	n/a	8	-1.125000e-01	-1.125000e-01
303.343660	0.982943	dec_accept	0.982943	32.000000	n/a	8	-1.009615e-01	-1.009615e-01
303.343660	0.982943	dec_social_high	0.982943	32.000000	n/a	8	1.953125e-02	1.953125e-02
303.343660	0.982943	dec_social_accept_high	0.982943	32.000000	n/a	8	1.953125e-02	1.953125e-02
310.993680	1.132707	dec_nonsocial_choice	1.132707	16.000000	n/a	0	0	-2.298177e-01
310.993680	1.132707	dec_choice	1.132707	16.000000	n/a	0	0	-2.291667e-01
310.993680	1.132707	dec_nonsocial_reject	1.132707	16.000000	n/a	0	0	-2.309783e-02
310.993680	1.132707	dec_reject	1.132707	16.000000	n/a	0	0	-2.083333e-02
310.993680	1.132707	dec_nonsocial_low	1.132707	16.000000	n/a	0	-2.291667e-01	-2.291667e-01
310.993680	1.132707	dec_nonsocial_reject_low	1.132707	16.000000	n/a	1	-2.083333e-02	-8.333333e-02
318.643700	1.082508	dec_nonsocial_choice	1.082508	32.000000	n/a	0	0	-2.298177e-01
318.643700	1.082508	dec_choice	1.082508	32.000000	n/a	0	0	-2.291667e-01
318.643700	1.082508	dec_nonsocial_reject	1.082508	32.000000	n/a	0	0	-2.309783e-02
318.643700	1.082508	dec_reject	1.082508	32.000000	n/a	0	0	-2.083333e-02
318.643700	1.082508	dec_nonsocial_low	1.082508	32.000000	n/a	0	-2.291667e-01	-2.291667e-01
318.643700	1.082508	dec_nonsocial_reject_low	1.082508	32.000000	n/a	2	-2.083333e-02	-8.333333e-02
325.476600	0.915983	dec_social_choice	0.915983	32.000000	n/a	0	0	-2.298177e-01
325.476600	0.915983	dec_choice	0.915983	32.000000	n/a	0	0	-2.304688e-01
325.476600	0.915983	dec_social_reject	0.915983	32.000000	n/a	0	0	8.152174e-03
325.476600	0.915983	dec_reject	0.915983	32.000000	n/a	0	0	5.681818e-03
325.476600	0.915983	dec_social_low	0.915983	32.000000	n/a	0	-2.304688e-01	-2.304688e-01
325.476600	0.915983	dec_social_reject_low	0.915983	32.000000	n/a	3	-1.367188e-01	-2.304688e-01
332.309630	1.700024	dec_social_choice	1.700024	16.000000	n/a	4	2.018229e-02	2.018229e-02
332.309630	1.700024	dec_choice	1.700024	16.000000	n/a	4	1.953125e-02	1.953125e-02
332.309630	1.700024	dec_social_accept	1.700024	16.000000	n/a	4	-1.125000e-01	-1.125000e-01
332.309630	1.700024	dec_accept	1.700024	16.000000	n/a	4	-1.009615e-01	-1.009615e-01
332.309630	1.700024	dec_social_high	1.700024	16.000000	n/a	4	1.953125e-02	1.953125e-02
332.309630	1.700024	dec_social_accept_high	1.700024	16.000000	n/a	4	1.953125e-02	1.953125e-02
339.142240	1.266849	dec_nonsocial_choice	1.266849	16.000000	n/a	4	2.018229e-02	2.018229e-02
339.142240	1.266849	dec_choice	1.266849	16.000000	n/a	4	2.083333e-02	2.083333e-02
339.142240	1.266849	dec_nonsocial_accept	1.266849	16.000000	n/a	4	-1.125000e-01	-1.125000e-01
339.142240	1.266849	dec_accept	1.266849	16.000000	n/a	4	-1.250000e-01	-1.250000e-01
339.142240	1.266849	dec_nonsocial_accept_high	1.266849	16.000000	n/a	4	-1.009615e-01	-1.009615e-01
348.409820	1.799622	dec_nonsocial_choice	1.799622	32.000000	n/a	0	0	-2.298177e-01
348.409820	1.799622	dec_choice	1.799622	32.000000	n/a	0	0	-2.291667e-01
348.409820	1.799622	dec_nonsocial_reject	1.799622	32.000000	n/a	0	0	8.152174e-03
348.409820	1.799622	dec_reject	1.799622	32.000000	n/a	0	0	1.041667e-02
348.409820	1.799622	dec_nonsocial_reject_low	1.799622	32.000000	n/a	3	5.681818e-03	-8.806818e-02
355.242740	1.234020	dec_social_choice	1.234020	16.000000	n/a	0	0	-2.298177e-01
355.242740	1.234020	dec_choice	1.234020	16.000000	n/a	0	0	-2.304688e-01
355.242740	1.234020	dec_social_reject	1.234020	16.000000	n/a	0	0	-2.309783e-02
355.242740	1.234020	dec_reject	1.234020	16.000000	n/a	0	0	-2.556818e-02
355.242740	1.234020	dec_social_low	1.234020	16.000000	n/a	0	-2.304688e-01	-2.304688e-01
355.242740	1.234020	dec_social_reject_low	1.234020	16.000000	n/a	1	-1.679688e-01	-2.304688e-01
362.075500	0.983889	dec_nonsocial_choice	0.983889	16.000000	n/a	0	0	-2.298177e-01
362.075500	0.983889	dec_choice	0.983889	16.000000	n/a	0	0	-2.291667e-01
362.075500	0.983889	dec_nonsocial_reject	0.983889	16.000000	n/a	0	0	3.940217e-02
362.075500	0.983889	dec_reject	0.983889	16.000000	n/a	0	0	4.166667e-02
362.075500	0.983889	dec_nonsocial_low	0.983889	16.000000	n/a	0	-2.291667e-01	-2.291667e-01
362.075500	0.983889	dec_nonsocial_reject_low	0.983889	16.000000	n/a	2	4.166667e-02	-8.333333e-02
368.909600	1.133043	dec_social_choice	1.133043	32.000000	n/a	16	2.701823e-01	2.701823e-01
368.909600	1.133043	dec_choice	1.133043	32.000000	n/a	16	2.695312e-01	2.695312e-01
368.909600	1.133043	dec_social_accept	1.133043	32.000000	n/a	16	1.375000e-01	1.375000e-01
368.909600	1.133043	dec_accept	1.133043	32.000000	n/a	16	1.490385e-01	1.490385e-01
368.909600	1.133043	dec_social_accept_high	1.133043	32.000000	n/a	16	2.695312e-01	2.695312e-01
