TrialNumber,Trial,cLeft,cRight,Partner,Reciprocate,ISI,ITI,ran,order,onset,bpress,resp,resp_onset,highlow,rt,ISIpad,ISI_onset,ISI_offset,outcome_onset,outcome_offset,duration,ITI_onset,ITI_offset
1,1,4,2,1,0,5.000000e-01,8.075000e-01,1.0,0.0,4.020637,1.0,4,6.051683,high,2.0310462,0.9689539,6.5714173,9.271098,9.274035,11.27569,7.255053,11.276151,12.07901
2,2,0,8,1,1,2,2.422500e+00,1.0,1.0,12.08451,2.0,8,13.668187,high,1.5836776,1.4163224,14.188261,18.835026,18.837683,20.840004,8.755495,20.840387,23.258095
3,3,2,0,2,0,5.000000e-01,8.075000e-01,1.0,2.0,23.37957,1.0,2,24.951603,high,1.5720323,1.4279677,25.471155,28.630054,28.631767,30.633955,7.254385,30.63435,31.43771
4,4,0,8,3,1,2,5.652500e+00,1.0,3.0,31.464375,2.0,8,33.085297,high,1.6209215,1.3790785,33.604084,38.215046,38.216972,40.218742,8.754367,40.219116,45.867413
5,5,4,2,3,0,5.000000e-01,8.075000e-01,1.0,4.0,45.882137,1.0,4,47.601402,high,1.7192671,1.2807329,48.12013,51.133003,51.13478,53.13696,7.254822,53.137333,53.940113
6,6,8,4,3,0,2,4.037500e+00,1.0,5.0,53.955093,1.0,8,55.635426,high,1.6803329,1.3196671,56.153664,60.705994,60.70639,62.708664,8.7535715,62.70904,66.74192
7,7,8,0,2,0,5.000000e-01,2.422500e+00,1.0,6.0,66.858696,1.0,8,68.31825,high,1.459556,1.540444,68.83815,72.108955,72.11075,74.11258,7.253887,74.11297,76.53105
8,8,2,4,2,1,2,2.422500e+00,1.0,7.0,76.64764,1.0,2,78.30196,low,1.6543286,1.3456714,78.821075,83.39898,83.40106,85.40259,8.754952,85.40298,87.820946
9,9,8,4,2,0,2,7.267500e+00,1.0,8.0,87.9363,1.0,8,89.68458,high,1.7482789,1.2517211,90.203995,94.68657,94.688324,96.69101,8.75471,96.69141,103.95373
10,10,8,2,2,0,2,2.422500e+00,1.0,9.0,104.07299,2.0,2,105.76773,low,1.6947448,1.3052552,106.287415,110.82357,110.823975,112.82704,8.754052,112.82742,115.245895
11,11,4,8,1,0,2,2.422500e+00,1.0,10.0,115.251854,2.0,8,116.81738,high,1.565527,1.434473,117.33802,122.0029,122.004814,124.009285,8.757428,124.00967,126.42486
12,12,0,4,1,0,5.000000e-01,8.075000e-01,1.0,11.0,126.429665,2.0,4,128.03442,high,1.6047655,1.3952345,128.5535,131.67944,131.67986,133.68193,7.2522635,133.68231,134.48769
13,13,0,2,1,0,5.000000e-01,8.075000e-01,1.0,12.0,134.491,2.0,2,136.5343,high,2.0432909,0.9567091,137.0532,139.7421,139.7425,141.7454,7.254406,141.74582,142.54892
14,14,2,4,1,1,5.000000e-01,8.075000e-01,1.0,13.0,142.55325,2.0,4,144.03494,high,1.4816935,1.5183065,144.55423,147.8035,147.80547,149.80698,7.2537293,149.80736,150.61082
15,15,4,0,2,0,2,2.422500e+00,1.0,14.0,150.72536,1.0,4,152.18434,high,1.458995,1.541005,152.70398,157.47484,157.47655,159.47849,8.753128,159.47887,161.89795
16,16,0,2,1,1,5.000000e-01,2.422500e+00,1.0,15.0,161.90327,2.0,2,163.73476,high,1.8314712,1.1685288,164.25507,167.15381,167.15598,169.1583,7.255015,169.15868,171.57579
17,17,8,0,2,1,2,8.075000e-01,1.0,16.0,171.6916,2.0,0,173.51762,low,1.8260194,1.1739806,174.03705,178.44199,178.4421,180.44345,8.751838,180.44385,181.25
18,18,8,2,3,1,5.000000e-01,8.075000e-01,1.0,17.0,181.26517,1.0,8,182.56793,high,1.3027579,1.6972421,183.08794,186.51585,186.51779,188.51984,7.2546644,188.52022,189.32378
19,19,0,2,2,1,3.500000e+00,8.075000e-01,1.0,18.0,189.43579,2.0,2,190.98405,high,1.548266,1.451734,191.50525,197.68634,197.6882,199.69188,10.256097,199.69226,200.49353
20,20,8,2,3,1,5.000000e-01,8.075000e-01,1.0,19.0,200.50839,1.0,8,201.9179,high,1.4095021,1.5904979,202.43732,205.7589,205.76077,207.76338,7.254993,207.76376,208.56573
21,21,0,8,1,0,2,5.652500e+00,1.0,20.0,208.57176,2.0,8,210.051,high,1.4792387,1.5207613,210.57088,215.32227,215.32417,217.32672,8.75497,217.3271,222.97472
22,22,8,2,3,0,5.000000e-01,4.037500e+00,1.0,21.0,222.99051,1.0,8,224.38371,high,1.3931957,1.6068043,224.90292,228.24179,228.24356,230.24547,7.2549496,230.24585,234.27872
23,23,0,4,3,1,5.000000e-01,8.882500e+00,1.0,22.0,234.29367,2.0,4,235.75105,high,1.4573911,1.5426089,236.2708,239.54434,239.54628,241.54869,7.2550263,241.54907,250.42697
24,24,4,2,3,1,5.000000e-01,8.075000e-01,1.0,23.0,250.44173,1.0,4,251.93399,high,1.4922675,1.5077325,252.45287,255.69247,255.69287,257.6956,7.253853,257.69595,258.49963
25,25,0,4,3,0,5.000000e-01,2.422500e+00,1.0,24.0,258.51434,2.0,4,260.0505,high,1.5361471,1.4638529,260.57104,263.7646,263.7664,265.76822,7.253853,265.7686,268.18668
26,26,8,4,2,1,5.000000e-01,4.037500e+00,1.0,25.0,268.2995,2.0,4,269.75095,low,1.4514323,1.5485677,270.27026,273.54977,273.55173,275.55365,7.254129,275.55402,279.58765
27,27,0,2,3,1,3.500000e+00,8.075000e-01,1.0,26.0,279.6035,2.0,2,280.98392,high,1.380443,1.619557,281.5028,287.85364,287.8557,289.85895,10.255474,289.85934,290.66214
28,28,2,8,3,0,5.000000e-01,8.075000e-01,1.0,27.0,290.67746,2.0,8,291.98386,high,1.3063955,1.6936045,292.50296,295.9287,295.93045,297.9336,7.2561464,297.934,298.73563
29,29,4,8,1,1,2,8.075000e-01,1.0,28.0,298.7405,2.0,8,300.35043,high,1.6099415,1.3900585,300.87036,305.49066,305.49265,307.49515,8.754648,307.49554,308.29855
30,30,2,0,3,0,5.000000e-01,8.075000e-01,1.0,29.0,308.3149,1.0,2,309.80014,high,1.4852355,1.5147645,310.3197,313.56577,313.5675,315.57144,7.2565465,315.57184,316.3736
31,31,8,2,1,0,5.000000e-01,8.075000e-01,1.0,30.0,316.37885,1.0,8,317.96713,high,1.5882885,1.4117115,318.48666,321.6305,321.6324,323.63657,7.257734,323.63696,324.43655
32,32,8,2,2,0,2,8.075000e-01,1.0,31.0,324.5485,1.0,8,326.00034,high,1.4518448,1.5481552,326.51984,331.2988,331.30057,333.30466,8.756141,333.30502,334.10602
33,33,8,2,2,1,5.000000e-01,8.075000e-01,1.0,32.0,334.21768,1.0,8,336.317,high,2.0992908,0.9007092,336.83673,339.46774,339.46954,341.4724,7.254733,341.4728,342.27554
34,34,4,8,3,1,2,2.422500e+00,1.0,33.0,342.2918,2.0,8,343.6675,high,1.3757043,1.6242957,344.18573,349.04218,349.04428,351.04654,8.754738,351.04694,353.46405
35,35,4,0,2,1,5.000000e-01,4.037500e+00,1.0,34.0,353.58066,1.0,4,354.85046,high,1.2698059,1.7301941,355.3688,358.83163,358.83353,360.8362,7.255566,360.8366,364.86758
36,36,0,8,3,0,5.000000e-01,2.422500e+00,1.0,35.0,364.88333,2.0,8,366.1175,high,1.2341657,1.7658343,366.63565,370.13354,370.1353,372.1377,7.254389,372.1381,374.55536
37,37,2,8,1,1,5.000000e-01,2.422500e+00,1.0,36.0,374.5603,2.0,8,375.78384,high,1.2235446,1.7764554,376.3033,379.81158,379.8136,381.81552,7.255205,381.8159,384.23364
38,38,4,0,1,1,2,8.075000e-01,1.0,37.0,384.23804,1.0,4,385.5834,high,1.3453838,1.6546162,386.10242,390.9885,390.9889,392.9915,8.753457,392.99185,393.7965
39,39,2,8,1,1,3.500000e+00,4.037500e+00,1.0,38.0,393.80096,2.0,8,394.9834,high,1.1824301,1.8175699,395.5028,402.0512,402.0516,404.05368,10.25272,404.05408,408.08838
40,40,4,2,2,0,5.000000e-01,8.075000e-01,1.0,39.0,408.2066,1.0,4,409.6837,high,1.4770681,1.5229319,410.2037,413.45764,413.45938,415.46155,7.2549467,415.46194,416.26453
41,41,2,8,1,0,3.500000e+00,7.267500e+00,1.0,40.0,416.27002,2.0,8,417.61685,high,1.3468229,1.6531771,418.13657,424.52145,424.52335,426.52512,10.255092,426.5255,433.7878
42,42,8,2,2,1,2,8.075000e-01,1.0,41.0,433.9053,2.0,2,436.03372,low,2.1283984,0.8716016,436.55362,440.65616,440.65802,442.65955,8.754225,442.6599,443.4641
