TrialNumber,Trial,cLeft,cRight,Partner,Reciprocate,ISI,ITI,ran,order,onset,bpress,resp,resp_onset,highlow,rt,ISIpad,ISI_onset,ISI_offset,outcome_onset,outcome_offset,duration,ITI_onset,ITI_offset
1,1,8,2,1,0,5.000000e-01,5.652500e+00,1.0,0.0,4.0210714,1.0,8,5.2266593,high,1.2055881,1.7944119,5.746294,9.270922,9.273813,11.275909,7.254838,11.276374,16.923588
2,2,8,2,2,0,5.000000e-01,8.075000e-01,1.0,1.0,17.040268,1.0,8,18.410316,high,1.3700482,1.6299518,18.929436,22.292023,22.293777,24.296679,7.25641,24.297075,25.098948
3,3,2,0,2,0,3.500000e+00,5.652500e+00,1.0,2.0,25.215218,1.0,2,26.56,high,1.3447806,1.6552194,27.080008,33.466904,33.46732,35.47031,10.255093,35.47072,41.117672
4,4,2,4,1,1,2,2.422500e+00,1.0,3.0,41.122868,1.0,2,43.46083,low,2.3379643,0.6620358,43.979248,47.874073,47.877003,49.87966,8.756796,49.880276,52.29516
5,5,2,8,1,1,5.000000e-01,8.075000e-01,1.0,4.0,52.29842,1.0,2,53.877003,low,1.578584,1.421416,54.39647,57.5498,57.550194,59.553154,7.254736,59.553543,60.356934
6,6,4,8,3,0,5.000000e-01,7.267500e+00,1.0,5.0,60.366264,2.0,8,61.72722,high,1.3609555,1.6390445,62.24701,65.61642,65.61819,67.61996,7.253692,67.620346,74.88345
7,7,4,8,1,1,2,8.075000e-01,1.0,6.0,74.88639,1.0,4,76.826904,low,1.9405134,1.0594866,77.346245,81.63639,81.638405,83.640854,8.7544565,83.64124,84.44443
8,8,4,2,3,1,2,8.075000e-01,1.0,7.0,84.45183,1.0,4,85.92698,high,1.475152,1.524848,86.44706,91.20195,91.20386,93.205666,8.753838,93.20606,94.01018
9,9,2,8,3,0,2,2.422500e+00,1.0,8.0,94.017944,2.0,8,95.34368,high,1.3257334,1.6742666,95.86288,100.76865,100.77056,102.77216,8.754215,102.77255,105.19085
10,10,4,0,2,0,5.000000e-01,8.075000e-01,1.0,9.0,105.30276,1.0,4,106.86018,high,1.5574275,1.4425725,107.37938,110.55442,110.55621,112.55815,7.2553954,112.55853,113.36093
11,11,8,4,2,0,2,2.422500e+00,1.0,10.0,113.47405,1.0,8,114.79359,high,1.3195335,1.6804665,115.312584,120.2245,120.22491,122.22776,8.753711,122.22816,124.647896
12,12,8,0,1,1,5.000000e-01,7.267500e+00,1.0,11.0,124.65207,1.0,8,127.25981,high,2.6077416,0.3922584,127.77969,129.90189,129.90387,131.90579,7.253726,131.90619,139.17047
13,13,0,8,1,0,2,8.075000e-01,1.0,12.0,139.1749,2.0,8,140.54364,high,1.368745,1.631255,141.06302,145.92542,145.92734,147.92966,8.7547655,147.93005,148.73381
14,14,2,8,1,1,5.000000e-01,8.075000e-01,1.0,13.0,148.73694,2.0,8,150.29298,high,1.5560523,1.4439477,150.81303,153.98688,153.98906,155.99094,7.2540073,155.99133,156.7946
15,15,2,4,1,0,5.000000e-01,8.075000e-01,1.0,14.0,156.79797,2.0,4,158.44344,high,1.6454655,1.3545345,158.96234,162.04785,162.0498,164.05188,7.2539067,164.05226,164.85588
16,16,0,8,3,0,3.500000e+00,2.422500e+00,1.0,15.0,164.86516,2.0,8,166.15965,high,1.2944983,1.7055017,166.6803,173.11502,173.11685,175.11954,10.254385,175.11993,177.53857
17,17,0,4,2,1,5.000000e-01,8.075000e-01,1.0,16.0,177.64932,2.0,4,179.34303,high,1.6937051,1.3062949,179.86307,182.8989,182.90085,184.90262,7.2533016,184.90302,185.70747
18,18,8,2,3,1,5.000000e-01,2.422500e+00,1.0,17.0,185.71693,1.0,8,187.37694,high,1.6599995,1.3400005,187.8961,190.96704,190.96901,192.97086,7.25392,192.97124,195.38957
19,19,0,2,3,1,3.500000e+00,8.075000e-01,1.0,18.0,195.39679,2.0,2,196.97685,high,1.5800635,1.4199365,197.49678,203.64694,203.64734,205.64919,10.2523985,205.64963,206.45474
20,20,4,0,3,1,2,8.075000e-01,1.0,19.0,206.46254,1.0,4,207.80952,high,1.3469872,1.6530128,208.32921,213.2127,213.2131,215.21545,8.752916,215.21593,216.02063
21,21,4,0,1,1,2,2.422500e+00,1.0,20.0,216.02362,1.0,4,217.90994,high,1.88632,1.11368,218.42989,222.7749,222.77704,224.77954,8.755916,224.77994,227.1969
22,22,8,0,3,1,5.000000e-01,8.882500e+00,1.0,21.0,227.20432,1.0,8,228.54266,high,1.3383467,1.6616533,229.06226,232.45477,232.45667,234.45836,7.254053,234.45876,243.33702
23,23,8,4,1,0,2,8.075000e-01,1.0,22.0,243.34113,1.0,8,245.84358,high,2.50246,0.4975401,246.36229,250.09164,250.09355,252.0963,8.755171,252.0967,252.89877
24,24,8,4,2,1,5.000000e-01,2.422500e+00,1.0,23.0,253.00641,1.0,8,254.15984,high,1.153416,1.846584,254.68027,258.25784,258.2598,260.26224,7.2558174,260.26263,262.68
25,25,0,8,2,0,5.000000e-01,8.075000e-01,1.0,24.0,262.79312,2.0,8,264.14288,high,1.3497657,1.6502343,264.6622,268.044,268.0458,270.04755,7.2544107,270.0479,270.8519
26,26,2,0,2,1,2,8.075000e-01,1.0,25.0,270.9655,2.0,0,272.24326,low,1.2777425,1.7222575,272.76218,277.71677,277.7169,279.71832,8.752806,279.71872,280.5245
27,27,2,8,1,0,2,4.037500e+00,1.0,26.0,280.52875,2.0,8,281.92654,high,1.3977785,1.6022215,282.446,287.27957,287.28156,289.28464,8.75589,289.28503,293.31717
28,28,0,2,1,0,2,8.075000e-01,1.0,27.0,293.32166,2.0,2,294.94318,high,1.6215225,1.3784775,295.46317,300.07285,300.07324,302.07538,8.75374,302.07578,302.8797
29,29,0,4,3,0,5.000000e-01,8.075000e-01,1.0,28.0,302.8878,2.0,4,304.52603,high,1.6382462,1.3617538,305.04602,308.13785,308.13965,310.14194,7.2541428,310.14233,310.9459
30,30,8,2,3,1,5.000000e-01,4.037500e+00,1.0,29.0,310.95374,2.0,2,312.09268,low,1.1389289,1.8610711,312.612,316.20386,316.20578,318.208,7.254265,318.2084,322.24158
31,31,8,4,3,1,2,8.075000e-01,1.0,30.0,322.24835,1.0,8,323.4097,high,1.161372,1.838628,323.92932,328.99887,328.99927,331.002,8.753675,331.0024,331.80573
32,32,2,8,3,0,5.000000e-01,8.075000e-01,1.0,31.0,331.81335,2.0,8,333.14282,high,1.3294448,1.6705552,333.662,337.06403,337.0658,339.0676,7.254245,339.068,339.87097
33,33,4,2,2,1,5.000000e-01,2.422500e+00,1.0,32.0,339.9815,1.0,4,341.35983,high,1.3783128,1.6216872,341.87848,345.23312,345.23502,347.23688,7.2553697,347.23724,349.65485
34,34,4,0,1,0,2,8.075000e-01,1.0,33.0,349.6592,1.0,4,351.7764,high,2.1171722,0.8828277,352.29526,356.40936,356.41135,358.4138,8.754564,358.41418,359.21732
35,35,2,4,3,0,5.000000e-01,8.075000e-01,1.0,34.0,359.22632,2.0,4,360.70966,high,1.4833539,1.5166461,361.2292,364.47772,364.47952,366.4813,7.254967,366.4817,367.28506
36,36,2,8,2,1,2,4.037500e+00,1.0,35.0,367.39716,2.0,8,368.86002,high,1.4628762,1.5371238,369.37903,374.14697,374.14893,376.15073,8.753574,376.15112,380.1855
37,37,0,8,2,1,5.000000e-01,4.037500e+00,1.0,36.0,380.29837,2.0,8,381.62622,high,1.3278655,1.6721345,382.14563,385.54895,385.54935,387.55157,7.253228,387.55197,391.58688
38,38,8,2,2,0,5.000000e-01,2.422500e+00,1.0,37.0,391.70157,1.0,8,393.17615,high,1.4745941,1.5254059,393.69543,396.95227,396.95416,398.9557,7.2541366,398.9561,401.37424
39,39,2,0,3,0,3.500000e+00,2.422500e+00,1.0,38.0,401.3836,1.0,2,402.77554,high,1.3919657,1.6080343,403.2961,409.63483,409.63657,411.63974,10.256162,411.64014,414.0564
40,40,2,4,2,0,5.000000e-01,8.075000e-01,1.0,39.0,414.1685,2.0,4,415.99237,high,1.8238637,1.1761363,416.51248,419.41843,419.42017,421.42172,7.253236,421.42212,422.22675
41,41,0,2,1,1,5.000000e-01,2.422500e+00,1.0,40.0,422.23245,2.0,2,424.2095,high,1.9770612,1.0229388,424.72894,427.48264,427.48462,429.48663,7.254197,429.48703,431.90573
42,42,8,2,2,1,5.000000e-01,4.037500e+00,1.0,41.0,432.017,1.0,8,433.2426,high,1.2256079,1.7743921,433.76196,437.26688,437.2687,439.2705,7.2534842,439.2709,443.30484
