onset	duration	trial_type	response_time	Endowment	Endowment_pmod	Decision	Decision_pmod	Offer_pmod
4.505747	2	cue_nonsocial	n/a	16	-9	n/a	n/a	n/a
4.505747	2	cue_nonsocial_low	n/a	16	-7	n/a	n/a	n/a
11.339985	2	cue_nonsocial	n/a	32	7	n/a	n/a	n/a
11.339985	2	cue_nonsocial_high	n/a	32	9	n/a	n/a	n/a
22.298176	2	cue_social	n/a	32	9	n/a	n/a	n/a
22.298176	2	cue_social_high	n/a	32	7	n/a	n/a	n/a
29.903366	2	cue_social	n/a	16	-7	n/a	n/a	n/a
29.903366	2	cue_social_low	n/a	16	-9	n/a	n/a	n/a
37.488754	2	cue_nonsocial	n/a	32	7	n/a	n/a	n/a
37.488754	2	cue_nonsocial_high	n/a	32	9	n/a	n/a	n/a
44.322163	2	cue_nonsocial	n/a	32	7	n/a	n/a	n/a
44.322163	2	cue_nonsocial_high	n/a	32	9	n/a	n/a	n/a
51.190643	2	cue_social	n/a	32	9	n/a	n/a	n/a
51.190643	2	cue_social_high	n/a	32	7	n/a	n/a	n/a
57.988552	2	cue_nonsocial	n/a	32	7	n/a	n/a	n/a
57.988552	2	cue_nonsocial_high	n/a	32	9	n/a	n/a	n/a
64.866760	2	cue_social	n/a	16	-7	n/a	n/a	n/a
64.866760	2	cue_social_low	n/a	16	-9	n/a	n/a	n/a
75.688840	2	cue_nonsocial	n/a	16	-9	n/a	n/a	n/a
75.688840	2	cue_nonsocial_low	n/a	16	-7	n/a	n/a	n/a
83.338610	2	cue_nonsocial	n/a	16	-9	n/a	n/a	n/a
83.338610	2	cue_nonsocial_low	n/a	16	-7	n/a	n/a	n/a
92.588300	2	cue_nonsocial	n/a	16	-9	n/a	n/a	n/a
92.588300	2	cue_nonsocial_low	n/a	16	-7	n/a	n/a	n/a
99.485790	2	cue_social	n/a	32	9	n/a	n/a	n/a
99.485790	2	cue_social_high	n/a	32	7	n/a	n/a	n/a
108.723180	2	cue_social	n/a	16	-7	n/a	n/a	n/a
108.723180	2	cue_social_low	n/a	16	-9	n/a	n/a	n/a
115.560455	2	cue_social	n/a	32	9	n/a	n/a	n/a
115.560455	2	cue_social_high	n/a	32	7	n/a	n/a	n/a
124.755356	2	cue_nonsocial	n/a	32	7	n/a	n/a	n/a
124.755356	2	cue_nonsocial_high	n/a	32	9	n/a	n/a	n/a
131.588670	2	cue_nonsocial	n/a	32	7	n/a	n/a	n/a
131.588670	2	cue_nonsocial_high	n/a	32	9	n/a	n/a	n/a
138.422030	2	cue_nonsocial	n/a	32	7	n/a	n/a	n/a
138.422030	2	cue_nonsocial_high	n/a	32	9	n/a	n/a	n/a
146.140610	2	cue_social	n/a	16	-7	n/a	n/a	n/a
146.140610	2	cue_social_low	n/a	16	-9	n/a	n/a	n/a
152.905600	2	cue_nonsocial	n/a	16	-9	n/a	n/a	n/a
152.905600	2	cue_nonsocial_low	n/a	16	-7	n/a	n/a	n/a
159.788400	2	cue_social	n/a	32	9	n/a	n/a	n/a
159.788400	2	cue_social_high	n/a	32	7	n/a	n/a	n/a
167.388730	2	cue_nonsocial	n/a	32	7	n/a	n/a	n/a
167.388730	2	cue_nonsocial_high	n/a	32	9	n/a	n/a	n/a
174.221790	2	cue_nonsocial	n/a	16	-9	n/a	n/a	n/a
174.221790	2	cue_nonsocial_low	n/a	16	-7	n/a	n/a	n/a
181.901690	2	cue_social	n/a	16	-7	n/a	n/a	n/a
181.901690	2	cue_social_low	n/a	16	-9	n/a	n/a	n/a
191.196580	2	cue_social	n/a	32	9	n/a	n/a	n/a
191.196580	2	cue_social_high	n/a	32	7	n/a	n/a	n/a
197.938080	2	cue_nonsocial	n/a	16	-9	n/a	n/a	n/a
197.938080	2	cue_nonsocial_low	n/a	16	-7	n/a	n/a	n/a
205.677890	2	cue_social	n/a	16	-7	n/a	n/a	n/a
205.677890	2	cue_social_low	n/a	16	-9	n/a	n/a	n/a
212.474640	2	cue_social	n/a	32	9	n/a	n/a	n/a
212.474640	2	cue_social_high	n/a	32	7	n/a	n/a	n/a
219.355300	2	cue_social	n/a	16	-7	n/a	n/a	n/a
219.355300	2	cue_social_low	n/a	16	-9	n/a	n/a	n/a
226.981890	2	cue_social	n/a	16	-7	n/a	n/a	n/a
226.981890	2	cue_social_low	n/a	16	-9	n/a	n/a	n/a
233.738460	2	cue_nonsocial	n/a	16	-9	n/a	n/a	n/a
233.738460	2	cue_nonsocial_low	n/a	16	-7	n/a	n/a	n/a
240.625800	2	cue_social	n/a	32	9	n/a	n/a	n/a
240.625800	2	cue_social_high	n/a	32	7	n/a	n/a	n/a
247.461960	2	cue_social	n/a	16	-7	n/a	n/a	n/a
247.461960	2	cue_social_low	n/a	16	-9	n/a	n/a	n/a
255.038300	2	cue_nonsocial	n/a	32	7	n/a	n/a	n/a
255.038300	2	cue_nonsocial_high	n/a	32	9	n/a	n/a	n/a
264.351140	2	cue_social	n/a	32	9	n/a	n/a	n/a
264.351140	2	cue_social_high	n/a	32	7	n/a	n/a	n/a
273.582120	2	cue_social	n/a	32	9	n/a	n/a	n/a
273.582120	2	cue_social_high	n/a	32	7	n/a	n/a	n/a
280.371580	2	cue_nonsocial	n/a	32	7	n/a	n/a	n/a
280.371580	2	cue_nonsocial_high	n/a	32	9	n/a	n/a	n/a
289.674160	2	cue_social	n/a	32	9	n/a	n/a	n/a
289.674160	2	cue_social_high	n/a	32	7	n/a	n/a	n/a
300.505000	2	cue_nonsocial	n/a	32	7	n/a	n/a	n/a
300.505000	2	cue_nonsocial_high	n/a	32	9	n/a	n/a	n/a
312.988000	2	cue_nonsocial	n/a	16	-9	n/a	n/a	n/a
312.988000	2	cue_nonsocial_low	n/a	16	-7	n/a	n/a	n/a
319.821380	2	cue_nonsocial	n/a	16	-9	n/a	n/a	n/a
319.821380	2	cue_nonsocial_low	n/a	16	-7	n/a	n/a	n/a
327.471600	2	cue_nonsocial	n/a	16	-9	n/a	n/a	n/a
327.471600	2	cue_nonsocial_low	n/a	16	-7	n/a	n/a	n/a
335.146000	2	cue_social	n/a	16	-7	n/a	n/a	n/a
335.146000	2	cue_social_low	n/a	16	-9	n/a	n/a	n/a
342.754670	2	cue_nonsocial	n/a	32	7	n/a	n/a	n/a
342.754670	2	cue_nonsocial_high	n/a	32	9	n/a	n/a	n/a
349.630770	2	cue_social	n/a	16	-7	n/a	n/a	n/a
349.630770	2	cue_social_low	n/a	16	-9	n/a	n/a	n/a
356.481300	2	cue_social	n/a	16	-7	n/a	n/a	n/a
356.481300	2	cue_social_low	n/a	16	-9	n/a	n/a	n/a
364.071600	2	cue_nonsocial	n/a	32	7	n/a	n/a	n/a
364.071600	2	cue_nonsocial_high	n/a	32	9	n/a	n/a	n/a
370.951350	2	cue_social	n/a	16	-7	n/a	n/a	n/a
370.951350	2	cue_social_low	n/a	16	-9	n/a	n/a	n/a
6.513168	0.882082	dec_nonsocial_choice	0.882082	16.000000	n/a	4	2.018229e-02	2.018229e-02
6.513168	0.882082	dec_choice	0.882082	16.000000	n/a	4	1.953125e-02	1.953125e-02
6.513168	0.882082	dec_nonsocial_accept	0.882082	16.000000	n/a	4	2.018229e-02	2.018229e-02
6.513168	0.882082	dec_accept	0.882082	16.000000	n/a	4	1.953125e-02	1.953125e-02
6.513168	0.882082	dec_nonsocial_high	0.882082	16.000000	n/a	4	1.953125e-02	1.953125e-02
6.513168	0.882082	dec_nonsocial_accept_high	0.882082	16.000000	n/a	4	1.953125e-02	1.953125e-02
13.345872	1.132986	dec_nonsocial_choice	1.132986	32.000000	n/a	8	2.018229e-02	2.018229e-02
13.345872	1.132986	dec_choice	1.132986	32.000000	n/a	8	1.953125e-02	1.953125e-02
13.345872	1.132986	dec_nonsocial_accept	1.132986	32.000000	n/a	8	2.018229e-02	2.018229e-02
13.345872	1.132986	dec_accept	1.132986	32.000000	n/a	8	1.953125e-02	1.953125e-02
13.345872	1.132986	dec_nonsocial_accept_high	1.132986	32.000000	n/a	8	2.083333e-02	2.083333e-02
24.212273	1.133025	dec_social_choice	1.133025	32.000000	n/a	8	2.018229e-02	2.018229e-02
24.212273	1.133025	dec_choice	1.133025	32.000000	n/a	8	2.083333e-02	2.083333e-02
24.212273	1.133025	dec_social_accept	1.133025	32.000000	n/a	8	2.018229e-02	2.018229e-02
24.212273	1.133025	dec_accept	1.133025	32.000000	n/a	8	2.083333e-02	2.083333e-02
24.212273	1.133025	dec_social_accept_high	1.133025	32.000000	n/a	8	2.083333e-02	2.083333e-02
31.861916	1.100083	dec_social_choice	1.100083	16.000000	n/a	4	2.018229e-02	2.018229e-02
31.861916	1.100083	dec_choice	1.100083	16.000000	n/a	4	2.083333e-02	2.083333e-02
31.861916	1.100083	dec_social_accept	1.100083	16.000000	n/a	4	2.018229e-02	2.018229e-02
31.861916	1.100083	dec_accept	1.100083	16.000000	n/a	4	2.083333e-02	2.083333e-02
31.861916	1.100083	dec_social_high	1.100083	16.000000	n/a	4	2.083333e-02	2.083333e-02
31.861916	1.100083	dec_social_accept_high	1.100083	16.000000	n/a	4	2.083333e-02	2.083333e-02
39.495010	1.216367	dec_nonsocial_choice	1.216367	32.000000	n/a	8	2.018229e-02	2.018229e-02
39.495010	1.216367	dec_choice	1.216367	32.000000	n/a	8	1.953125e-02	1.953125e-02
39.495010	1.216367	dec_nonsocial_accept	1.216367	32.000000	n/a	8	2.018229e-02	2.018229e-02
39.495010	1.216367	dec_accept	1.216367	32.000000	n/a	8	1.953125e-02	1.953125e-02
39.495010	1.216367	dec_nonsocial_high	1.216367	32.000000	n/a	8	1.953125e-02	1.953125e-02
39.495010	1.216367	dec_nonsocial_accept_high	1.216367	32.000000	n/a	8	1.953125e-02	1.953125e-02
46.328995	1.099644	dec_nonsocial_choice	1.099644	32.000000	n/a	2	-1.673177e-01	-1.673177e-01
46.328995	1.099644	dec_choice	1.099644	32.000000	n/a	2	-1.679688e-01	-1.679688e-01
46.328995	1.099644	dec_nonsocial_accept	1.099644	32.000000	n/a	2	-1.673177e-01	-1.673177e-01
46.328995	1.099644	dec_accept	1.099644	32.000000	n/a	2	-1.679688e-01	-1.679688e-01
46.328995	1.099644	dec_nonsocial_low	1.099644	32.000000	n/a	2	-1.679688e-01	-1.679688e-01
46.328995	1.099644	dec_nonsocial_accept_low	1.099644	32.000000	n/a	2	-1.679688e-01	-1.679688e-01
53.161167	1.267472	dec_social_choice	1.267472	32.000000	n/a	3	-1.360677e-01	-1.360677e-01
53.161167	1.267472	dec_choice	1.267472	32.000000	n/a	3	-1.354167e-01	-1.354167e-01
53.161167	1.267472	dec_social_accept	1.267472	32.000000	n/a	3	-1.360677e-01	-1.360677e-01
53.161167	1.267472	dec_accept	1.267472	32.000000	n/a	3	-1.354167e-01	-1.354167e-01
53.161167	1.267472	dec_social_low	1.267472	32.000000	n/a	3	-1.354167e-01	-1.354167e-01
53.161167	1.267472	dec_social_accept_low	1.267472	32.000000	n/a	3	-1.354167e-01	-1.354167e-01
59.996502	1.115065	dec_nonsocial_choice	1.115065	32.000000	n/a	16	2.701823e-01	2.701823e-01
59.996502	1.115065	dec_choice	1.115065	32.000000	n/a	16	2.695312e-01	2.695312e-01
59.996502	1.115065	dec_nonsocial_accept	1.115065	32.000000	n/a	16	2.701823e-01	2.701823e-01
59.996502	1.115065	dec_accept	1.115065	32.000000	n/a	16	2.695312e-01	2.695312e-01
59.996502	1.115065	dec_nonsocial_high	1.115065	32.000000	n/a	16	2.695312e-01	2.695312e-01
59.996502	1.115065	dec_nonsocial_accept_high	1.115065	32.000000	n/a	16	2.695312e-01	2.695312e-01
66.828040	1.100507	dec_social_choice	1.100507	16.000000	n/a	8	2.701823e-01	2.701823e-01
66.828040	1.100507	dec_choice	1.100507	16.000000	n/a	8	2.708333e-01	2.708333e-01
66.828040	1.100507	dec_social_accept	1.100507	16.000000	n/a	8	2.701823e-01	2.701823e-01
66.828040	1.100507	dec_accept	1.100507	16.000000	n/a	8	2.708333e-01	2.708333e-01
66.828040	1.100507	dec_social_accept_high	1.100507	16.000000	n/a	8	2.708333e-01	2.708333e-01
77.696130	0.965352	dec_nonsocial_choice	0.965352	16.000000	n/a	2	-1.048177e-01	-1.048177e-01
77.696130	0.965352	dec_choice	0.965352	16.000000	n/a	2	-1.054688e-01	-1.054688e-01
77.696130	0.965352	dec_nonsocial_accept	0.965352	16.000000	n/a	2	-1.048177e-01	-1.048177e-01
77.696130	0.965352	dec_accept	0.965352	16.000000	n/a	2	-1.054688e-01	-1.054688e-01
77.696130	0.965352	dec_nonsocial_low	0.965352	16.000000	n/a	2	-1.054688e-01	-1.054688e-01
77.696130	0.965352	dec_nonsocial_accept_low	0.965352	16.000000	n/a	2	-1.054688e-01	-1.054688e-01
85.345980	0.899272	dec_nonsocial_choice	0.899272	16.000000	n/a	8	2.701823e-01	2.701823e-01
85.345980	0.899272	dec_choice	0.899272	16.000000	n/a	8	2.695312e-01	2.695312e-01
85.345980	0.899272	dec_nonsocial_accept	0.899272	16.000000	n/a	8	2.701823e-01	2.701823e-01
85.345980	0.899272	dec_accept	0.899272	16.000000	n/a	8	2.695312e-01	2.695312e-01
85.345980	0.899272	dec_nonsocial_accept_high	0.899272	16.000000	n/a	8	2.708333e-01	2.708333e-01
94.595024	1.200210	dec_nonsocial_choice	1.200210	16.000000	n/a	4	2.018229e-02	2.018229e-02
94.595024	1.200210	dec_choice	1.200210	16.000000	n/a	4	1.953125e-02	1.953125e-02
94.595024	1.200210	dec_nonsocial_accept	1.200210	16.000000	n/a	4	2.018229e-02	2.018229e-02
94.595024	1.200210	dec_accept	1.200210	16.000000	n/a	4	1.953125e-02	1.953125e-02
94.595024	1.200210	dec_nonsocial_high	1.200210	16.000000	n/a	4	1.953125e-02	1.953125e-02
94.595024	1.200210	dec_nonsocial_accept_high	1.200210	16.000000	n/a	4	1.953125e-02	1.953125e-02
101.428800	1.116028	dec_social_choice	1.116028	32.000000	n/a	3	-1.360677e-01	-1.360677e-01
101.428800	1.116028	dec_choice	1.116028	32.000000	n/a	3	-1.354167e-01	-1.354167e-01
101.428800	1.116028	dec_social_accept	1.116028	32.000000	n/a	3	-1.360677e-01	-1.360677e-01
101.428800	1.116028	dec_accept	1.116028	32.000000	n/a	3	-1.354167e-01	-1.354167e-01
101.428800	1.116028	dec_social_accept_low	1.116028	32.000000	n/a	3	-1.354167e-01	-1.354167e-01
110.679080	0.849522	dec_social_choice	0.849522	16.000000	n/a	1	-1.673177e-01	-1.673177e-01
110.679080	0.849522	dec_choice	0.849522	16.000000	n/a	1	-1.666667e-01	-1.666667e-01
110.679080	0.849522	dec_social_accept	0.849522	16.000000	n/a	1	-1.673177e-01	-1.673177e-01
110.679080	0.849522	dec_accept	0.849522	16.000000	n/a	1	-1.666667e-01	-1.666667e-01
110.679080	0.849522	dec_social_low	0.849522	16.000000	n/a	1	-1.666667e-01	-1.666667e-01
110.679080	0.849522	dec_social_accept_low	0.849522	16.000000	n/a	1	-1.666667e-01	-1.666667e-01
117.512590	1.099205	dec_social_choice	1.099205	32.000000	n/a	2	-1.673177e-01	-1.673177e-01
117.512590	1.099205	dec_choice	1.099205	32.000000	n/a	2	-1.666667e-01	-1.666667e-01
117.512590	1.099205	dec_social_accept	1.099205	32.000000	n/a	2	-1.673177e-01	-1.673177e-01
117.512590	1.099205	dec_accept	1.099205	32.000000	n/a	2	-1.666667e-01	-1.666667e-01
117.512590	1.099205	dec_social_low	1.099205	32.000000	n/a	2	-1.666667e-01	-1.666667e-01
117.512590	1.099205	dec_social_accept_low	1.099205	32.000000	n/a	2	-1.666667e-01	-1.666667e-01
126.761000	1.084060	dec_nonsocial_choice	1.084060	32.000000	n/a	8	2.018229e-02	2.018229e-02
126.761000	1.084060	dec_choice	1.084060	32.000000	n/a	8	1.953125e-02	1.953125e-02
126.761000	1.084060	dec_nonsocial_accept	1.084060	32.000000	n/a	8	2.018229e-02	2.018229e-02
126.761000	1.084060	dec_accept	1.084060	32.000000	n/a	8	1.953125e-02	1.953125e-02
126.761000	1.084060	dec_nonsocial_high	1.084060	32.000000	n/a	8	1.953125e-02	1.953125e-02
126.761000	1.084060	dec_nonsocial_accept_high	1.084060	32.000000	n/a	8	1.953125e-02	1.953125e-02
133.594510	1.100564	dec_nonsocial_choice	1.100564	32.000000	n/a	3	-1.360677e-01	-1.360677e-01
133.594510	1.100564	dec_choice	1.100564	32.000000	n/a	3	-1.367188e-01	-1.367188e-01
133.594510	1.100564	dec_nonsocial_accept	1.100564	32.000000	n/a	3	-1.360677e-01	-1.360677e-01
133.594510	1.100564	dec_accept	1.100564	32.000000	n/a	3	-1.367188e-01	-1.367188e-01
133.594510	1.100564	dec_nonsocial_low	1.100564	32.000000	n/a	3	-1.367188e-01	-1.367188e-01
133.594510	1.100564	dec_nonsocial_accept_low	1.100564	32.000000	n/a	3	-1.367188e-01	-1.367188e-01
140.428820	0.849309	dec_nonsocial_choice	0.849309	32.000000	n/a	2	-1.673177e-01	-1.673177e-01
140.428820	0.849309	dec_choice	0.849309	32.000000	n/a	2	-1.679688e-01	-1.679688e-01
140.428820	0.849309	dec_nonsocial_accept	0.849309	32.000000	n/a	2	-1.673177e-01	-1.673177e-01
140.428820	0.849309	dec_accept	0.849309	32.000000	n/a	2	-1.679688e-01	-1.679688e-01
140.428820	0.849309	dec_nonsocial_accept_low	0.849309	32.000000	n/a	2	-1.666667e-01	-1.666667e-01
148.078670	0.782917	dec_social_choice	0.782917	16.000000	n/a	1	-1.673177e-01	-1.673177e-01
148.078670	0.782917	dec_choice	0.782917	16.000000	n/a	1	-1.666667e-01	-1.666667e-01
148.078670	0.782917	dec_social_accept	0.782917	16.000000	n/a	1	-1.673177e-01	-1.673177e-01
148.078670	0.782917	dec_accept	0.782917	16.000000	n/a	1	-1.666667e-01	-1.666667e-01
148.078670	0.782917	dec_social_accept_low	0.782917	16.000000	n/a	1	-1.666667e-01	-1.666667e-01
154.911740	1.249608	dec_nonsocial_choice	1.249608	16.000000	n/a	2	-1.048177e-01	-1.048177e-01
154.911740	1.249608	dec_choice	1.249608	16.000000	n/a	2	-1.054688e-01	-1.054688e-01
154.911740	1.249608	dec_nonsocial_accept	1.249608	16.000000	n/a	2	-1.048177e-01	-1.048177e-01
154.911740	1.249608	dec_accept	1.249608	16.000000	n/a	2	-1.054688e-01	-1.054688e-01
154.911740	1.249608	dec_nonsocial_accept_low	1.249608	16.000000	n/a	2	-1.041667e-01	-1.041667e-01
161.744800	1.366630	dec_social_choice	1.366630	32.000000	n/a	8	2.018229e-02	2.018229e-02
161.744800	1.366630	dec_choice	1.366630	32.000000	n/a	8	2.083333e-02	2.083333e-02
161.744800	1.366630	dec_social_accept	1.366630	32.000000	n/a	8	2.018229e-02	2.018229e-02
161.744800	1.366630	dec_accept	1.366630	32.000000	n/a	8	2.083333e-02	2.083333e-02
161.744800	1.366630	dec_social_high	1.366630	32.000000	n/a	8	2.083333e-02	2.083333e-02
161.744800	1.366630	dec_social_accept_high	1.366630	32.000000	n/a	8	2.083333e-02	2.083333e-02
169.394960	1.333451	dec_nonsocial_choice	1.333451	32.000000	n/a	16	2.701823e-01	2.701823e-01
169.394960	1.333451	dec_choice	1.333451	32.000000	n/a	16	2.695312e-01	2.695312e-01
169.394960	1.333451	dec_nonsocial_accept	1.333451	32.000000	n/a	16	2.701823e-01	2.701823e-01
169.394960	1.333451	dec_accept	1.333451	32.000000	n/a	16	2.695312e-01	2.695312e-01
169.394960	1.333451	dec_nonsocial_high	1.333451	32.000000	n/a	16	2.695312e-01	2.695312e-01
169.394960	1.333451	dec_nonsocial_accept_high	1.333451	32.000000	n/a	16	2.695312e-01	2.695312e-01
176.228090	0.900270	dec_nonsocial_choice	0.900270	16.000000	n/a	8	2.701823e-01	2.701823e-01
176.228090	0.900270	dec_choice	0.900270	16.000000	n/a	8	2.695312e-01	2.695312e-01
176.228090	0.900270	dec_nonsocial_accept	0.900270	16.000000	n/a	8	2.701823e-01	2.701823e-01
176.228090	0.900270	dec_accept	0.900270	16.000000	n/a	8	2.695312e-01	2.695312e-01
176.228090	0.900270	dec_nonsocial_accept_high	0.900270	16.000000	n/a	8	2.708333e-01	2.708333e-01
183.862050	0.799825	dec_social_choice	0.799825	16.000000	n/a	1	-1.673177e-01	-1.673177e-01
183.862050	0.799825	dec_choice	0.799825	16.000000	n/a	1	-1.666667e-01	-1.666667e-01
183.862050	0.799825	dec_social_accept	0.799825	16.000000	n/a	1	-1.673177e-01	-1.673177e-01
183.862050	0.799825	dec_accept	0.799825	16.000000	n/a	1	-1.666667e-01	-1.666667e-01
183.862050	0.799825	dec_social_accept_low	0.799825	16.000000	n/a	1	-1.666667e-01	-1.666667e-01
193.111820	0.799864	dec_social_choice	0.799864	32.000000	n/a	16	2.701823e-01	2.701823e-01
193.111820	0.799864	dec_choice	0.799864	32.000000	n/a	16	2.708333e-01	2.708333e-01
193.111820	0.799864	dec_social_accept	0.799864	32.000000	n/a	16	2.701823e-01	2.701823e-01
193.111820	0.799864	dec_accept	0.799864	32.000000	n/a	16	2.708333e-01	2.708333e-01
193.111820	0.799864	dec_social_accept_high	0.799864	32.000000	n/a	16	2.708333e-01	2.708333e-01
199.944930	1.116290	dec_nonsocial_choice	1.116290	16.000000	n/a	4	2.018229e-02	2.018229e-02
199.944930	1.116290	dec_choice	1.116290	16.000000	n/a	4	1.953125e-02	1.953125e-02
199.944930	1.116290	dec_nonsocial_accept	1.116290	16.000000	n/a	4	2.018229e-02	2.018229e-02
199.944930	1.116290	dec_accept	1.116290	16.000000	n/a	4	1.953125e-02	1.953125e-02
199.944930	1.116290	dec_nonsocial_high	1.116290	16.000000	n/a	4	1.953125e-02	1.953125e-02
199.944930	1.116290	dec_nonsocial_accept_high	1.116290	16.000000	n/a	4	1.953125e-02	1.953125e-02
207.594940	0.966345	dec_social_choice	0.966345	16.000000	n/a	1	-1.673177e-01	-1.673177e-01
207.594940	0.966345	dec_choice	0.966345	16.000000	n/a	1	-1.666667e-01	-1.666667e-01
207.594940	0.966345	dec_social_accept	0.966345	16.000000	n/a	1	-1.673177e-01	-1.673177e-01
207.594940	0.966345	dec_accept	0.966345	16.000000	n/a	1	-1.666667e-01	-1.666667e-01
207.594940	0.966345	dec_social_low	0.966345	16.000000	n/a	1	-1.666667e-01	-1.666667e-01
207.594940	0.966345	dec_social_accept_low	0.966345	16.000000	n/a	1	-1.666667e-01	-1.666667e-01
214.428280	0.750125	dec_social_choice	0.750125	32.000000	n/a	16	2.701823e-01	2.701823e-01
214.428280	0.750125	dec_choice	0.750125	32.000000	n/a	16	2.708333e-01	2.708333e-01
214.428280	0.750125	dec_social_accept	0.750125	32.000000	n/a	16	2.701823e-01	2.701823e-01
214.428280	0.750125	dec_accept	0.750125	32.000000	n/a	16	2.708333e-01	2.708333e-01
214.428280	0.750125	dec_social_accept_high	0.750125	32.000000	n/a	16	2.708333e-01	2.708333e-01
221.260970	1.033957	dec_social_choice	1.033957	16.000000	n/a	8	2.701823e-01	2.701823e-01
221.260970	1.033957	dec_choice	1.033957	16.000000	n/a	8	2.708333e-01	2.708333e-01
221.260970	1.033957	dec_social_accept	1.033957	16.000000	n/a	8	2.701823e-01	2.701823e-01
221.260970	1.033957	dec_accept	1.033957	16.000000	n/a	8	2.708333e-01	2.708333e-01
221.260970	1.033957	dec_social_accept_high	1.033957	16.000000	n/a	8	2.708333e-01	2.708333e-01
228.911620	1.066596	dec_social_choice	1.066596	16.000000	n/a	4	2.018229e-02	2.018229e-02
228.911620	1.066596	dec_choice	1.066596	16.000000	n/a	4	2.083333e-02	2.083333e-02
228.911620	1.066596	dec_social_accept	1.066596	16.000000	n/a	4	2.018229e-02	2.018229e-02
228.911620	1.066596	dec_accept	1.066596	16.000000	n/a	4	2.083333e-02	2.083333e-02
228.911620	1.066596	dec_social_high	1.066596	16.000000	n/a	4	2.083333e-02	2.083333e-02
228.911620	1.066596	dec_social_accept_high	1.066596	16.000000	n/a	4	2.083333e-02	2.083333e-02
235.744920	0.733397	dec_nonsocial_choice	0.733397	16.000000	n/a	1	-1.673177e-01	-1.673177e-01
235.744920	0.733397	dec_choice	0.733397	16.000000	n/a	1	-1.679688e-01	-1.679688e-01
235.744920	0.733397	dec_nonsocial_accept	0.733397	16.000000	n/a	1	-1.673177e-01	-1.673177e-01
235.744920	0.733397	dec_accept	0.733397	16.000000	n/a	1	-1.679688e-01	-1.679688e-01
235.744920	0.733397	dec_nonsocial_accept_low	0.733397	16.000000	n/a	1	-1.666667e-01	-1.666667e-01
242.578810	0.732723	dec_social_choice	0.732723	32.000000	n/a	3	-1.360677e-01	-1.360677e-01
242.578810	0.732723	dec_choice	0.732723	32.000000	n/a	3	-1.354167e-01	-1.354167e-01
242.578810	0.732723	dec_social_accept	0.732723	32.000000	n/a	3	-1.360677e-01	-1.360677e-01
242.578810	0.732723	dec_accept	0.732723	32.000000	n/a	3	-1.354167e-01	-1.354167e-01
242.578810	0.732723	dec_social_accept_low	0.732723	32.000000	n/a	3	-1.354167e-01	-1.354167e-01
249.411000	1.050488	dec_social_choice	1.050488	16.000000	n/a	4	2.018229e-02	2.018229e-02
249.411000	1.050488	dec_choice	1.050488	16.000000	n/a	4	2.083333e-02	2.083333e-02
249.411000	1.050488	dec_social_accept	1.050488	16.000000	n/a	4	2.018229e-02	2.018229e-02
249.411000	1.050488	dec_accept	1.050488	16.000000	n/a	4	2.083333e-02	2.083333e-02
249.411000	1.050488	dec_social_high	1.050488	16.000000	n/a	4	2.083333e-02	2.083333e-02
249.411000	1.050488	dec_social_accept_high	1.050488	16.000000	n/a	4	2.083333e-02	2.083333e-02
257.044040	1.284017	dec_nonsocial_choice	1.284017	32.000000	n/a	3	-1.360677e-01	-1.360677e-01
257.044040	1.284017	dec_choice	1.284017	32.000000	n/a	3	-1.367188e-01	-1.367188e-01
257.044040	1.284017	dec_nonsocial_accept	1.284017	32.000000	n/a	3	-1.360677e-01	-1.360677e-01
257.044040	1.284017	dec_accept	1.284017	32.000000	n/a	3	-1.367188e-01	-1.367188e-01
257.044040	1.284017	dec_nonsocial_low	1.284017	32.000000	n/a	3	-1.367188e-01	-1.367188e-01
257.044040	1.284017	dec_nonsocial_accept_low	1.284017	32.000000	n/a	3	-1.367188e-01	-1.367188e-01
266.294800	1.166219	dec_social_choice	1.166219	32.000000	n/a	3	-1.360677e-01	-1.360677e-01
266.294800	1.166219	dec_choice	1.166219	32.000000	n/a	3	-1.354167e-01	-1.354167e-01
266.294800	1.166219	dec_social_accept	1.166219	32.000000	n/a	3	-1.360677e-01	-1.360677e-01
266.294800	1.166219	dec_accept	1.166219	32.000000	n/a	3	-1.354167e-01	-1.354167e-01
266.294800	1.166219	dec_social_low	1.166219	32.000000	n/a	3	-1.354167e-01	-1.354167e-01
266.294800	1.166219	dec_social_accept_low	1.166219	32.000000	n/a	3	-1.354167e-01	-1.354167e-01
275.544000	0.883960	dec_social_choice	0.883960	32.000000	n/a	16	2.701823e-01	2.701823e-01
275.544000	0.883960	dec_choice	0.883960	32.000000	n/a	16	2.708333e-01	2.708333e-01
275.544000	0.883960	dec_social_accept	0.883960	32.000000	n/a	16	2.701823e-01	2.701823e-01
275.544000	0.883960	dec_accept	0.883960	32.000000	n/a	16	2.708333e-01	2.708333e-01
275.544000	0.883960	dec_social_accept_high	0.883960	32.000000	n/a	16	2.708333e-01	2.708333e-01
282.378800	1.565468	dec_nonsocial_choice	1.565468	32.000000	n/a	2	-1.673177e-01	-1.673177e-01
282.378800	1.565468	dec_choice	1.565468	32.000000	n/a	2	-1.679688e-01	-1.679688e-01
282.378800	1.565468	dec_nonsocial_accept	1.565468	32.000000	n/a	2	-1.673177e-01	-1.673177e-01
282.378800	1.565468	dec_accept	1.565468	32.000000	n/a	2	-1.679688e-01	-1.679688e-01
282.378800	1.565468	dec_nonsocial_accept_low	1.565468	32.000000	n/a	2	-1.666667e-01	-1.666667e-01
291.644040	0.783636	dec_social_choice	0.783636	32.000000	n/a	8	2.018229e-02	2.018229e-02
291.644040	0.783636	dec_choice	0.783636	32.000000	n/a	8	2.083333e-02	2.083333e-02
291.644040	0.783636	dec_social_accept	0.783636	32.000000	n/a	8	2.018229e-02	2.018229e-02
291.644040	0.783636	dec_accept	0.783636	32.000000	n/a	8	2.083333e-02	2.083333e-02
291.644040	0.783636	dec_social_accept_high	0.783636	32.000000	n/a	8	2.083333e-02	2.083333e-02
302.511780	1.115654	dec_nonsocial_choice	1.115654	32.000000	n/a	3	-1.360677e-01	-1.360677e-01
302.511780	1.115654	dec_choice	1.115654	32.000000	n/a	3	-1.367188e-01	-1.367188e-01
302.511780	1.115654	dec_nonsocial_accept	1.115654	32.000000	n/a	3	-1.360677e-01	-1.360677e-01
302.511780	1.115654	dec_accept	1.115654	32.000000	n/a	3	-1.367188e-01	-1.367188e-01
302.511780	1.115654	dec_nonsocial_low	1.115654	32.000000	n/a	3	-1.367188e-01	-1.367188e-01
302.511780	1.115654	dec_nonsocial_accept_low	1.115654	32.000000	n/a	3	-1.367188e-01	-1.367188e-01
314.995150	1.232725	dec_nonsocial_choice	1.232725	16.000000	n/a	2	-1.048177e-01	-1.048177e-01
314.995150	1.232725	dec_choice	1.232725	16.000000	n/a	2	-1.054688e-01	-1.054688e-01
314.995150	1.232725	dec_nonsocial_accept	1.232725	16.000000	n/a	2	-1.048177e-01	-1.048177e-01
314.995150	1.232725	dec_accept	1.232725	16.000000	n/a	2	-1.054688e-01	-1.054688e-01
314.995150	1.232725	dec_nonsocial_accept_low	1.232725	16.000000	n/a	2	-1.041667e-01	-1.041667e-01
321.828670	1.015541	dec_nonsocial_choice	1.015541	16.000000	n/a	8	2.701823e-01	2.701823e-01
321.828670	1.015541	dec_choice	1.015541	16.000000	n/a	8	2.695312e-01	2.695312e-01
321.828670	1.015541	dec_nonsocial_accept	1.015541	16.000000	n/a	8	2.701823e-01	2.701823e-01
321.828670	1.015541	dec_accept	1.015541	16.000000	n/a	8	2.695312e-01	2.695312e-01
321.828670	1.015541	dec_nonsocial_accept_high	1.015541	16.000000	n/a	8	2.708333e-01	2.708333e-01
329.477900	0.833314	dec_nonsocial_choice	0.833314	16.000000	n/a	8	2.701823e-01	2.701823e-01
329.477900	0.833314	dec_choice	0.833314	16.000000	n/a	8	2.695312e-01	2.695312e-01
329.477900	0.833314	dec_nonsocial_accept	0.833314	16.000000	n/a	8	2.701823e-01	2.701823e-01
329.477900	0.833314	dec_accept	0.833314	16.000000	n/a	8	2.695312e-01	2.695312e-01
329.477900	0.833314	dec_nonsocial_accept_high	0.833314	16.000000	n/a	8	2.708333e-01	2.708333e-01
337.111940	1.082827	dec_social_choice	1.082827	16.000000	n/a	2	-1.048177e-01	-1.048177e-01
337.111940	1.082827	dec_choice	1.082827	16.000000	n/a	2	-1.041667e-01	-1.041667e-01
337.111940	1.082827	dec_social_accept	1.082827	16.000000	n/a	2	-1.048177e-01	-1.048177e-01
337.111940	1.082827	dec_accept	1.082827	16.000000	n/a	2	-1.041667e-01	-1.041667e-01
337.111940	1.082827	dec_social_accept_low	1.082827	16.000000	n/a	2	-1.041667e-01	-1.041667e-01
344.761020	0.916355	dec_nonsocial_choice	0.916355	32.000000	n/a	2	-1.673177e-01	-1.673177e-01
344.761020	0.916355	dec_choice	0.916355	32.000000	n/a	2	-1.679688e-01	-1.679688e-01
344.761020	0.916355	dec_nonsocial_accept	0.916355	32.000000	n/a	2	-1.673177e-01	-1.673177e-01
344.761020	0.916355	dec_accept	0.916355	32.000000	n/a	2	-1.679688e-01	-1.679688e-01
344.761020	0.916355	dec_nonsocial_accept_low	0.916355	32.000000	n/a	2	-1.666667e-01	-1.666667e-01
351.594670	0.816316	dec_social_choice	0.816316	16.000000	n/a	8	2.701823e-01	2.701823e-01
351.594670	0.816316	dec_choice	0.816316	16.000000	n/a	8	2.708333e-01	2.708333e-01
351.594670	0.816316	dec_social_accept	0.816316	16.000000	n/a	8	2.701823e-01	2.701823e-01
351.594670	0.816316	dec_accept	0.816316	16.000000	n/a	8	2.708333e-01	2.708333e-01
351.594670	0.816316	dec_social_high	0.816316	16.000000	n/a	8	2.708333e-01	2.708333e-01
351.594670	0.816316	dec_social_accept_high	0.816316	16.000000	n/a	8	2.708333e-01	2.708333e-01
358.427900	0.816229	dec_social_choice	0.816229	16.000000	n/a	2	-1.048177e-01	-1.048177e-01
358.427900	0.816229	dec_choice	0.816229	16.000000	n/a	2	-1.041667e-01	-1.041667e-01
358.427900	0.816229	dec_social_accept	0.816229	16.000000	n/a	2	-1.048177e-01	-1.048177e-01
358.427900	0.816229	dec_accept	0.816229	16.000000	n/a	2	-1.041667e-01	-1.041667e-01
358.427900	0.816229	dec_social_accept_low	0.816229	16.000000	n/a	2	-1.041667e-01	-1.041667e-01
366.077760	1.083309	dec_nonsocial_choice	1.083309	32.000000	n/a	2	-1.673177e-01	-1.673177e-01
366.077760	1.083309	dec_choice	1.083309	32.000000	n/a	2	-1.679688e-01	-1.679688e-01
366.077760	1.083309	dec_nonsocial_accept	1.083309	32.000000	n/a	2	-1.673177e-01	-1.673177e-01
366.077760	1.083309	dec_accept	1.083309	32.000000	n/a	2	-1.679688e-01	-1.679688e-01
366.077760	1.083309	dec_nonsocial_low	1.083309	32.000000	n/a	2	-1.679688e-01	-1.679688e-01
366.077760	1.083309	dec_nonsocial_accept_low	1.083309	32.000000	n/a	2	-1.679688e-01	-1.679688e-01
372.910860	0.983738	dec_social_choice	0.983738	16.000000	n/a	1	-1.673177e-01	-1.673177e-01
372.910860	0.983738	dec_choice	0.983738	16.000000	n/a	1	-1.666667e-01	-1.666667e-01
372.910860	0.983738	dec_social_accept	0.983738	16.000000	n/a	1	-1.673177e-01	-1.673177e-01
372.910860	0.983738	dec_accept	0.983738	16.000000	n/a	1	-1.666667e-01	-1.666667e-01
372.910860	0.983738	dec_social_low	0.983738	16.000000	n/a	1	-1.666667e-01	-1.666667e-01
372.910860	0.983738	dec_social_accept_low	0.983738	16.000000	n/a	1	-1.666667e-01	-1.666667e-01
