onset	duration	trial_type	response_time	Endowment	Endowment_pmod	Decision	Decision_pmod	Offer_pmod
4.552388	2	cue_social	n/a	32	7	n/a	n/a	n/a
4.552388	2	cue_social_high	n/a	32	9	n/a	n/a	n/a
11.351567	2	cue_nonsocial	n/a	16	-7	n/a	n/a	n/a
11.351567	2	cue_nonsocial_low	n/a	16	-9	n/a	n/a	n/a
19.050594	2	cue_social	n/a	32	7	n/a	n/a	n/a
19.050594	2	cue_social_high	n/a	32	9	n/a	n/a	n/a
25.834557	2	cue_nonsocial	n/a	16	-7	n/a	n/a	n/a
25.834557	2	cue_nonsocial_low	n/a	16	-9	n/a	n/a	n/a
32.668076	2	cue_nonsocial	n/a	32	9	n/a	n/a	n/a
32.668076	2	cue_nonsocial_high	n/a	32	7	n/a	n/a	n/a
41.934723	2	cue_nonsocial	n/a	16	-7	n/a	n/a	n/a
41.934723	2	cue_nonsocial_low	n/a	16	-9	n/a	n/a	n/a
52.801437	2	cue_nonsocial	n/a	16	-7	n/a	n/a	n/a
52.801437	2	cue_nonsocial_low	n/a	16	-9	n/a	n/a	n/a
60.435097	2	cue_nonsocial	n/a	16	-7	n/a	n/a	n/a
60.435097	2	cue_nonsocial_low	n/a	16	-9	n/a	n/a	n/a
67.350640	2	cue_social	n/a	16	-9	n/a	n/a	n/a
67.350640	2	cue_social_low	n/a	16	-7	n/a	n/a	n/a
74.101540	2	cue_nonsocial	n/a	32	9	n/a	n/a	n/a
74.101540	2	cue_nonsocial_high	n/a	32	7	n/a	n/a	n/a
81.785520	2	cue_social	n/a	16	-9	n/a	n/a	n/a
81.785520	2	cue_social_low	n/a	16	-7	n/a	n/a	n/a
91.078110	2	cue_social	n/a	16	-9	n/a	n/a	n/a
91.078110	2	cue_social_low	n/a	16	-7	n/a	n/a	n/a
98.698790	2	cue_social	n/a	16	-9	n/a	n/a	n/a
98.698790	2	cue_social_low	n/a	16	-7	n/a	n/a	n/a
105.484990	2	cue_nonsocial	n/a	32	9	n/a	n/a	n/a
105.484990	2	cue_nonsocial_high	n/a	32	7	n/a	n/a	n/a
112.389310	2	cue_social	n/a	16	-9	n/a	n/a	n/a
112.389310	2	cue_social_low	n/a	16	-7	n/a	n/a	n/a
120.020454	2	cue_social	n/a	32	7	n/a	n/a	n/a
120.020454	2	cue_social_high	n/a	32	9	n/a	n/a	n/a
126.851234	2	cue_social	n/a	32	7	n/a	n/a	n/a
126.851234	2	cue_social_high	n/a	32	9	n/a	n/a	n/a
133.634300	2	cue_nonsocial	n/a	16	-7	n/a	n/a	n/a
133.634300	2	cue_nonsocial_low	n/a	16	-9	n/a	n/a	n/a
140.526900	2	cue_social	n/a	16	-9	n/a	n/a	n/a
140.526900	2	cue_social_low	n/a	16	-7	n/a	n/a	n/a
147.301150	2	cue_nonsocial	n/a	16	-7	n/a	n/a	n/a
147.301150	2	cue_nonsocial_low	n/a	16	-9	n/a	n/a	n/a
154.197390	2	cue_social	n/a	32	7	n/a	n/a	n/a
154.197390	2	cue_social_high	n/a	32	9	n/a	n/a	n/a
163.401140	2	cue_nonsocial	n/a	16	-7	n/a	n/a	n/a
163.401140	2	cue_nonsocial_low	n/a	16	-9	n/a	n/a	n/a
170.276920	2	cue_social	n/a	32	7	n/a	n/a	n/a
170.276920	2	cue_social_high	n/a	32	9	n/a	n/a	n/a
179.537190	2	cue_social	n/a	32	7	n/a	n/a	n/a
179.537190	2	cue_social_high	n/a	32	9	n/a	n/a	n/a
190.350860	2	cue_nonsocial	n/a	16	-7	n/a	n/a	n/a
190.350860	2	cue_nonsocial_low	n/a	16	-9	n/a	n/a	n/a
197.184250	2	cue_nonsocial	n/a	32	9	n/a	n/a	n/a
197.184250	2	cue_nonsocial_high	n/a	32	7	n/a	n/a	n/a
204.879600	2	cue_social	n/a	32	7	n/a	n/a	n/a
204.879600	2	cue_social_high	n/a	32	9	n/a	n/a	n/a
212.484800	2	cue_nonsocial	n/a	16	-7	n/a	n/a	n/a
212.484800	2	cue_nonsocial_low	n/a	16	-9	n/a	n/a	n/a
221.796050	2	cue_social	n/a	16	-9	n/a	n/a	n/a
221.796050	2	cue_social_low	n/a	16	-7	n/a	n/a	n/a
231.033810	2	cue_social	n/a	32	7	n/a	n/a	n/a
231.033810	2	cue_social_high	n/a	32	9	n/a	n/a	n/a
237.834550	2	cue_nonsocial	n/a	16	-7	n/a	n/a	n/a
237.834550	2	cue_nonsocial_low	n/a	16	-9	n/a	n/a	n/a
248.720580	2	cue_social	n/a	16	-9	n/a	n/a	n/a
248.720580	2	cue_social_low	n/a	16	-7	n/a	n/a	n/a
256.396800	2	cue_social	n/a	32	7	n/a	n/a	n/a
256.396800	2	cue_social_high	n/a	32	9	n/a	n/a	n/a
263.184300	2	cue_nonsocial	n/a	32	9	n/a	n/a	n/a
263.184300	2	cue_nonsocial_high	n/a	32	7	n/a	n/a	n/a
270.018000	2	cue_nonsocial	n/a	16	-7	n/a	n/a	n/a
270.018000	2	cue_nonsocial_low	n/a	16	-9	n/a	n/a	n/a
277.667200	2	cue_nonsocial	n/a	32	9	n/a	n/a	n/a
277.667200	2	cue_nonsocial_high	n/a	32	7	n/a	n/a	n/a
284.554530	2	cue_social	n/a	32	7	n/a	n/a	n/a
284.554530	2	cue_social_high	n/a	32	9	n/a	n/a	n/a
296.983760	2	cue_nonsocial	n/a	32	9	n/a	n/a	n/a
296.983760	2	cue_nonsocial_high	n/a	32	7	n/a	n/a	n/a
304.669620	2	cue_social	n/a	16	-9	n/a	n/a	n/a
304.669620	2	cue_social_low	n/a	16	-7	n/a	n/a	n/a
311.521640	2	cue_social	n/a	16	-9	n/a	n/a	n/a
311.521640	2	cue_social_low	n/a	16	-7	n/a	n/a	n/a
318.300540	2	cue_nonsocial	n/a	32	9	n/a	n/a	n/a
318.300540	2	cue_nonsocial_high	n/a	32	7	n/a	n/a	n/a
325.187380	2	cue_social	n/a	32	7	n/a	n/a	n/a
325.187380	2	cue_social_high	n/a	32	9	n/a	n/a	n/a
332.822450	2	cue_social	n/a	32	7	n/a	n/a	n/a
332.822450	2	cue_social_high	n/a	32	9	n/a	n/a	n/a
340.434170	2	cue_nonsocial	n/a	32	9	n/a	n/a	n/a
340.434170	2	cue_nonsocial_high	n/a	32	7	n/a	n/a	n/a
347.318970	2	cue_social	n/a	16	-9	n/a	n/a	n/a
347.318970	2	cue_social_low	n/a	16	-7	n/a	n/a	n/a
356.517100	2	cue_nonsocial	n/a	32	9	n/a	n/a	n/a
356.517100	2	cue_nonsocial_high	n/a	32	7	n/a	n/a	n/a
363.350700	2	cue_nonsocial	n/a	32	9	n/a	n/a	n/a
363.350700	2	cue_nonsocial_high	n/a	32	7	n/a	n/a	n/a
370.184020	2	cue_nonsocial	n/a	16	-7	n/a	n/a	n/a
370.184020	2	cue_nonsocial_low	n/a	16	-9	n/a	n/a	n/a
6.524503	2.750128	dec_social_choice	2.750128	32.000000	n/a	3	-1.360677e-01	-1.360677e-01
6.524503	2.750128	dec_choice	2.750128	32.000000	n/a	3	-1.354167e-01	-1.354167e-01
6.524503	2.750128	dec_social_accept	2.750128	32.000000	n/a	3	-1.360677e-01	-1.360677e-01
6.524503	2.750128	dec_accept	2.750128	32.000000	n/a	3	-1.354167e-01	-1.354167e-01
6.524503	2.750128	dec_social_accept_low	2.750128	32.000000	n/a	3	-1.354167e-01	-1.354167e-01
13.357292	1.500746	dec_nonsocial_choice	1.500746	16.000000	n/a	4	2.018229e-02	2.018229e-02
13.357292	1.500746	dec_choice	1.500746	16.000000	n/a	4	1.953125e-02	1.953125e-02
13.357292	1.500746	dec_nonsocial_accept	1.500746	16.000000	n/a	4	2.018229e-02	2.018229e-02
13.357292	1.500746	dec_accept	1.500746	16.000000	n/a	4	1.953125e-02	1.953125e-02
13.357292	1.500746	dec_nonsocial_high	1.500746	16.000000	n/a	4	1.953125e-02	1.953125e-02
13.357292	1.500746	dec_nonsocial_accept_high	1.500746	16.000000	n/a	4	1.953125e-02	1.953125e-02
21.007238	0.984199	dec_social_choice	0.984199	32.000000	n/a	16	2.701823e-01	2.701823e-01
21.007238	0.984199	dec_choice	0.984199	32.000000	n/a	16	2.708333e-01	2.708333e-01
21.007238	0.984199	dec_social_accept	0.984199	32.000000	n/a	16	2.701823e-01	2.701823e-01
21.007238	0.984199	dec_accept	0.984199	32.000000	n/a	16	2.708333e-01	2.708333e-01
21.007238	0.984199	dec_social_accept_high	0.984199	32.000000	n/a	16	2.708333e-01	2.708333e-01
27.840845	1.150225	dec_nonsocial_choice	1.150225	16.000000	n/a	8	2.701823e-01	2.701823e-01
27.840845	1.150225	dec_choice	1.150225	16.000000	n/a	8	2.695312e-01	2.695312e-01
27.840845	1.150225	dec_nonsocial_accept	1.150225	16.000000	n/a	8	2.701823e-01	2.701823e-01
27.840845	1.150225	dec_accept	1.150225	16.000000	n/a	8	2.695312e-01	2.695312e-01
27.840845	1.150225	dec_nonsocial_high	1.150225	16.000000	n/a	8	2.695312e-01	2.695312e-01
27.840845	1.150225	dec_nonsocial_accept_high	1.150225	16.000000	n/a	8	2.695312e-01	2.695312e-01
34.674080	1.366936	dec_nonsocial_choice	1.366936	32.000000	n/a	3	-1.360677e-01	-1.360677e-01
34.674080	1.366936	dec_choice	1.366936	32.000000	n/a	3	-1.367188e-01	-1.367188e-01
34.674080	1.366936	dec_nonsocial_accept	1.366936	32.000000	n/a	3	-1.360677e-01	-1.360677e-01
34.674080	1.366936	dec_accept	1.366936	32.000000	n/a	3	-1.367188e-01	-1.367188e-01
34.674080	1.366936	dec_nonsocial_accept_low	1.366936	32.000000	n/a	3	-1.354167e-01	-1.354167e-01
43.941010	1.333540	dec_nonsocial_choice	1.333540	16.000000	n/a	8	2.701823e-01	2.701823e-01
43.941010	1.333540	dec_choice	1.333540	16.000000	n/a	8	2.695312e-01	2.695312e-01
43.941010	1.333540	dec_nonsocial_accept	1.333540	16.000000	n/a	8	2.701823e-01	2.701823e-01
43.941010	1.333540	dec_accept	1.333540	16.000000	n/a	8	2.695312e-01	2.695312e-01
43.941010	1.333540	dec_nonsocial_high	1.333540	16.000000	n/a	8	2.695312e-01	2.695312e-01
43.941010	1.333540	dec_nonsocial_accept_high	1.333540	16.000000	n/a	8	2.695312e-01	2.695312e-01
54.807400	1.400457	dec_nonsocial_choice	1.400457	16.000000	n/a	2	-1.048177e-01	-1.048177e-01
54.807400	1.400457	dec_choice	1.400457	16.000000	n/a	2	-1.054688e-01	-1.054688e-01
54.807400	1.400457	dec_nonsocial_accept	1.400457	16.000000	n/a	2	-1.048177e-01	-1.048177e-01
54.807400	1.400457	dec_accept	1.400457	16.000000	n/a	2	-1.054688e-01	-1.054688e-01
54.807400	1.400457	dec_nonsocial_accept_low	1.400457	16.000000	n/a	2	-1.041667e-01	-1.041667e-01
62.441080	0.900156	dec_nonsocial_choice	0.900156	16.000000	n/a	4	2.018229e-02	2.018229e-02
62.441080	0.900156	dec_choice	0.900156	16.000000	n/a	4	1.953125e-02	1.953125e-02
62.441080	0.900156	dec_nonsocial_accept	0.900156	16.000000	n/a	4	2.018229e-02	2.018229e-02
62.441080	0.900156	dec_accept	0.900156	16.000000	n/a	4	1.953125e-02	1.953125e-02
62.441080	0.900156	dec_nonsocial_accept_high	0.900156	16.000000	n/a	4	2.083333e-02	2.083333e-02
69.274880	1.132614	dec_social_choice	1.132614	16.000000	n/a	1	-1.673177e-01	-1.673177e-01
69.274880	1.132614	dec_choice	1.132614	16.000000	n/a	1	-1.666667e-01	-1.666667e-01
69.274880	1.132614	dec_social_accept	1.132614	16.000000	n/a	1	-1.673177e-01	-1.673177e-01
69.274880	1.132614	dec_accept	1.132614	16.000000	n/a	1	-1.666667e-01	-1.666667e-01
69.274880	1.132614	dec_social_accept_low	1.132614	16.000000	n/a	1	-1.666667e-01	-1.666667e-01
76.107960	1.316136	dec_nonsocial_choice	1.316136	32.000000	n/a	8	2.018229e-02	2.018229e-02
76.107960	1.316136	dec_choice	1.316136	32.000000	n/a	8	1.953125e-02	1.953125e-02
76.107960	1.316136	dec_nonsocial_accept	1.316136	32.000000	n/a	8	2.018229e-02	2.018229e-02
76.107960	1.316136	dec_accept	1.316136	32.000000	n/a	8	1.953125e-02	1.953125e-02
76.107960	1.316136	dec_nonsocial_high	1.316136	32.000000	n/a	8	1.953125e-02	1.953125e-02
76.107960	1.316136	dec_nonsocial_accept_high	1.316136	32.000000	n/a	8	1.953125e-02	1.953125e-02
83.756890	0.967710	dec_social_choice	0.967710	16.000000	n/a	1	-1.673177e-01	-1.673177e-01
83.756890	0.967710	dec_choice	0.967710	16.000000	n/a	1	-1.666667e-01	-1.666667e-01
83.756890	0.967710	dec_social_accept	0.967710	16.000000	n/a	1	-1.673177e-01	-1.673177e-01
83.756890	0.967710	dec_accept	0.967710	16.000000	n/a	1	-1.666667e-01	-1.666667e-01
83.756890	0.967710	dec_social_accept_low	0.967710	16.000000	n/a	1	-1.666667e-01	-1.666667e-01
93.006870	0.950832	dec_social_choice	0.950832	16.000000	n/a	4	2.018229e-02	2.018229e-02
93.006870	0.950832	dec_choice	0.950832	16.000000	n/a	4	2.083333e-02	2.083333e-02
93.006870	0.950832	dec_social_accept	0.950832	16.000000	n/a	4	2.018229e-02	2.018229e-02
93.006870	0.950832	dec_accept	0.950832	16.000000	n/a	4	2.083333e-02	2.083333e-02
93.006870	0.950832	dec_social_accept_high	0.950832	16.000000	n/a	4	2.083333e-02	2.083333e-02
100.657620	1.416571	dec_social_choice	1.416571	16.000000	n/a	2	-1.048177e-01	-1.048177e-01
100.657620	1.416571	dec_choice	1.416571	16.000000	n/a	2	-1.041667e-01	-1.041667e-01
100.657620	1.416571	dec_social_accept	1.416571	16.000000	n/a	2	-1.048177e-01	-1.048177e-01
100.657620	1.416571	dec_accept	1.416571	16.000000	n/a	2	-1.041667e-01	-1.041667e-01
100.657620	1.416571	dec_social_low	1.416571	16.000000	n/a	2	-1.041667e-01	-1.041667e-01
100.657620	1.416571	dec_social_accept_low	1.416571	16.000000	n/a	2	-1.041667e-01	-1.041667e-01
107.491356	1.349770	dec_nonsocial_choice	1.349770	32.000000	n/a	16	2.701823e-01	2.701823e-01
107.491356	1.349770	dec_choice	1.349770	32.000000	n/a	16	2.695312e-01	2.695312e-01
107.491356	1.349770	dec_nonsocial_accept	1.349770	32.000000	n/a	16	2.701823e-01	2.701823e-01
107.491356	1.349770	dec_accept	1.349770	32.000000	n/a	16	2.695312e-01	2.695312e-01
107.491356	1.349770	dec_nonsocial_high	1.349770	32.000000	n/a	16	2.695312e-01	2.695312e-01
107.491356	1.349770	dec_nonsocial_accept_high	1.349770	32.000000	n/a	16	2.695312e-01	2.695312e-01
114.323970	1.350442	dec_social_choice	1.350442	16.000000	n/a	4	2.018229e-02	2.018229e-02
114.323970	1.350442	dec_choice	1.350442	16.000000	n/a	4	2.083333e-02	2.083333e-02
114.323970	1.350442	dec_social_accept	1.350442	16.000000	n/a	4	2.018229e-02	2.018229e-02
114.323970	1.350442	dec_accept	1.350442	16.000000	n/a	4	2.083333e-02	2.083333e-02
114.323970	1.350442	dec_social_high	1.350442	16.000000	n/a	4	2.083333e-02	2.083333e-02
114.323970	1.350442	dec_social_accept_high	1.350442	16.000000	n/a	4	2.083333e-02	2.083333e-02
121.973800	0.783880	dec_social_choice	0.783880	32.000000	n/a	2	-1.673177e-01	-1.673177e-01
121.973800	0.783880	dec_choice	0.783880	32.000000	n/a	2	-1.666667e-01	-1.666667e-01
121.973800	0.783880	dec_social_accept	0.783880	32.000000	n/a	2	-1.673177e-01	-1.673177e-01
121.973800	0.783880	dec_accept	0.783880	32.000000	n/a	2	-1.666667e-01	-1.666667e-01
121.973800	0.783880	dec_social_accept_low	0.783880	32.000000	n/a	2	-1.666667e-01	-1.666667e-01
128.808000	1.266149	dec_social_choice	1.266149	32.000000	n/a	16	2.701823e-01	2.701823e-01
128.808000	1.266149	dec_choice	1.266149	32.000000	n/a	16	2.708333e-01	2.708333e-01
128.808000	1.266149	dec_social_accept	1.266149	32.000000	n/a	16	2.701823e-01	2.701823e-01
128.808000	1.266149	dec_accept	1.266149	32.000000	n/a	16	2.708333e-01	2.708333e-01
128.808000	1.266149	dec_social_accept_high	1.266149	32.000000	n/a	16	2.708333e-01	2.708333e-01
135.642010	1.115319	dec_nonsocial_choice	1.115319	16.000000	n/a	1	-1.673177e-01	-1.673177e-01
135.642010	1.115319	dec_choice	1.115319	16.000000	n/a	1	-1.679688e-01	-1.679688e-01
135.642010	1.115319	dec_nonsocial_accept	1.115319	16.000000	n/a	1	-1.673177e-01	-1.673177e-01
135.642010	1.115319	dec_accept	1.115319	16.000000	n/a	1	-1.679688e-01	-1.679688e-01
135.642010	1.115319	dec_nonsocial_accept_low	1.115319	16.000000	n/a	1	-1.666667e-01	-1.666667e-01
142.473980	0.916528	dec_social_choice	0.916528	16.000000	n/a	4	2.018229e-02	2.018229e-02
142.473980	0.916528	dec_choice	0.916528	16.000000	n/a	4	2.083333e-02	2.083333e-02
142.473980	0.916528	dec_social_accept	0.916528	16.000000	n/a	4	2.018229e-02	2.018229e-02
142.473980	0.916528	dec_accept	0.916528	16.000000	n/a	4	2.083333e-02	2.083333e-02
142.473980	0.916528	dec_social_accept_high	0.916528	16.000000	n/a	4	2.083333e-02	2.083333e-02
149.306960	1.384288	dec_nonsocial_choice	1.384288	16.000000	n/a	4	2.018229e-02	2.018229e-02
149.306960	1.384288	dec_choice	1.384288	16.000000	n/a	4	1.953125e-02	1.953125e-02
149.306960	1.384288	dec_nonsocial_accept	1.384288	16.000000	n/a	4	2.018229e-02	2.018229e-02
149.306960	1.384288	dec_accept	1.384288	16.000000	n/a	4	1.953125e-02	1.953125e-02
149.306960	1.384288	dec_nonsocial_high	1.384288	16.000000	n/a	4	1.953125e-02	1.953125e-02
149.306960	1.384288	dec_nonsocial_accept_high	1.384288	16.000000	n/a	4	1.953125e-02	1.953125e-02
156.141830	1.382612	dec_social_choice	1.382612	32.000000	n/a	3	-1.360677e-01	-1.360677e-01
156.141830	1.382612	dec_choice	1.382612	32.000000	n/a	3	-1.354167e-01	-1.354167e-01
156.141830	1.382612	dec_social_accept	1.382612	32.000000	n/a	3	-1.360677e-01	-1.360677e-01
156.141830	1.382612	dec_accept	1.382612	32.000000	n/a	3	-1.354167e-01	-1.354167e-01
156.141830	1.382612	dec_social_low	1.382612	32.000000	n/a	3	-1.354167e-01	-1.354167e-01
156.141830	1.382612	dec_social_accept_low	1.382612	32.000000	n/a	3	-1.354167e-01	-1.354167e-01
165.407410	1.150474	dec_nonsocial_choice	1.150474	16.000000	n/a	1	-1.673177e-01	-1.673177e-01
165.407410	1.150474	dec_choice	1.150474	16.000000	n/a	1	-1.679688e-01	-1.679688e-01
165.407410	1.150474	dec_nonsocial_accept	1.150474	16.000000	n/a	1	-1.673177e-01	-1.673177e-01
165.407410	1.150474	dec_accept	1.150474	16.000000	n/a	1	-1.679688e-01	-1.679688e-01
165.407410	1.150474	dec_nonsocial_accept_low	1.150474	16.000000	n/a	1	-1.666667e-01	-1.666667e-01
172.240830	1.083577	dec_social_choice	1.083577	32.000000	n/a	8	2.018229e-02	2.018229e-02
172.240830	1.083577	dec_choice	1.083577	32.000000	n/a	8	2.083333e-02	2.083333e-02
172.240830	1.083577	dec_social_accept	1.083577	32.000000	n/a	8	2.018229e-02	2.018229e-02
172.240830	1.083577	dec_accept	1.083577	32.000000	n/a	8	2.083333e-02	2.083333e-02
172.240830	1.083577	dec_social_high	1.083577	32.000000	n/a	8	2.083333e-02	2.083333e-02
172.240830	1.083577	dec_social_accept_high	1.083577	32.000000	n/a	8	2.083333e-02	2.083333e-02
181.491150	0.899887	dec_social_choice	0.899887	32.000000	n/a	8	2.018229e-02	2.018229e-02
181.491150	0.899887	dec_choice	0.899887	32.000000	n/a	8	2.083333e-02	2.083333e-02
181.491150	0.899887	dec_social_accept	0.899887	32.000000	n/a	8	2.018229e-02	2.018229e-02
181.491150	0.899887	dec_accept	0.899887	32.000000	n/a	8	2.083333e-02	2.083333e-02
181.491150	0.899887	dec_social_accept_high	0.899887	32.000000	n/a	8	2.083333e-02	2.083333e-02
192.357940	0.899650	dec_nonsocial_choice	0.899650	16.000000	n/a	1	-1.673177e-01	-1.673177e-01
192.357940	0.899650	dec_choice	0.899650	16.000000	n/a	1	-1.679688e-01	-1.679688e-01
192.357940	0.899650	dec_nonsocial_accept	0.899650	16.000000	n/a	1	-1.673177e-01	-1.673177e-01
192.357940	0.899650	dec_accept	0.899650	16.000000	n/a	1	-1.679688e-01	-1.679688e-01
192.357940	0.899650	dec_nonsocial_low	0.899650	16.000000	n/a	1	-1.679688e-01	-1.679688e-01
192.357940	0.899650	dec_nonsocial_accept_low	0.899650	16.000000	n/a	1	-1.679688e-01	-1.679688e-01
199.192060	0.882297	dec_nonsocial_choice	0.882297	32.000000	n/a	16	2.701823e-01	2.701823e-01
199.192060	0.882297	dec_choice	0.882297	32.000000	n/a	16	2.695312e-01	2.695312e-01
199.192060	0.882297	dec_nonsocial_accept	0.882297	32.000000	n/a	16	2.701823e-01	2.701823e-01
199.192060	0.882297	dec_accept	0.882297	32.000000	n/a	16	2.695312e-01	2.695312e-01
199.192060	0.882297	dec_nonsocial_high	0.882297	32.000000	n/a	16	2.695312e-01	2.695312e-01
199.192060	0.882297	dec_nonsocial_accept_high	0.882297	32.000000	n/a	16	2.695312e-01	2.695312e-01
206.840930	0.816445	dec_social_choice	0.816445	32.000000	n/a	3	-1.360677e-01	-1.360677e-01
206.840930	0.816445	dec_choice	0.816445	32.000000	n/a	3	-1.354167e-01	-1.354167e-01
206.840930	0.816445	dec_social_accept	0.816445	32.000000	n/a	3	-1.360677e-01	-1.360677e-01
206.840930	0.816445	dec_accept	0.816445	32.000000	n/a	3	-1.354167e-01	-1.354167e-01
206.840930	0.816445	dec_social_low	0.816445	32.000000	n/a	3	-1.354167e-01	-1.354167e-01
206.840930	0.816445	dec_social_accept_low	0.816445	32.000000	n/a	3	-1.354167e-01	-1.354167e-01
214.490900	0.933407	dec_nonsocial_choice	0.933407	16.000000	n/a	8	2.701823e-01	2.701823e-01
214.490900	0.933407	dec_choice	0.933407	16.000000	n/a	8	2.695312e-01	2.695312e-01
214.490900	0.933407	dec_nonsocial_accept	0.933407	16.000000	n/a	8	2.701823e-01	2.701823e-01
214.490900	0.933407	dec_accept	0.933407	16.000000	n/a	8	2.695312e-01	2.695312e-01
214.490900	0.933407	dec_nonsocial_accept_high	0.933407	16.000000	n/a	8	2.708333e-01	2.708333e-01
223.740890	0.933284	dec_social_choice	0.933284	16.000000	n/a	1	-1.673177e-01	-1.673177e-01
223.740890	0.933284	dec_choice	0.933284	16.000000	n/a	1	-1.666667e-01	-1.666667e-01
223.740890	0.933284	dec_social_accept	0.933284	16.000000	n/a	1	-1.673177e-01	-1.673177e-01
223.740890	0.933284	dec_accept	0.933284	16.000000	n/a	1	-1.666667e-01	-1.666667e-01
223.740890	0.933284	dec_social_low	0.933284	16.000000	n/a	1	-1.666667e-01	-1.666667e-01
223.740890	0.933284	dec_social_accept_low	0.933284	16.000000	n/a	1	-1.666667e-01	-1.666667e-01
233.007130	0.850390	dec_social_choice	0.850390	32.000000	n/a	16	2.701823e-01	2.701823e-01
233.007130	0.850390	dec_choice	0.850390	32.000000	n/a	16	2.708333e-01	2.708333e-01
233.007130	0.850390	dec_social_accept	0.850390	32.000000	n/a	16	2.701823e-01	2.701823e-01
233.007130	0.850390	dec_accept	0.850390	32.000000	n/a	16	2.708333e-01	2.708333e-01
233.007130	0.850390	dec_social_accept_high	0.850390	32.000000	n/a	16	2.708333e-01	2.708333e-01
239.840650	0.833523	dec_nonsocial_choice	0.833523	16.000000	n/a	2	-1.048177e-01	-1.048177e-01
239.840650	0.833523	dec_choice	0.833523	16.000000	n/a	2	-1.054688e-01	-1.054688e-01
239.840650	0.833523	dec_nonsocial_accept	0.833523	16.000000	n/a	2	-1.048177e-01	-1.048177e-01
239.840650	0.833523	dec_accept	0.833523	16.000000	n/a	2	-1.054688e-01	-1.054688e-01
239.840650	0.833523	dec_nonsocial_low	0.833523	16.000000	n/a	2	-1.054688e-01	-1.054688e-01
239.840650	0.833523	dec_nonsocial_accept_low	0.833523	16.000000	n/a	2	-1.054688e-01	-1.054688e-01
250.707280	0.783511	dec_social_choice	0.783511	16.000000	n/a	8	2.701823e-01	2.701823e-01
250.707280	0.783511	dec_choice	0.783511	16.000000	n/a	8	2.708333e-01	2.708333e-01
250.707280	0.783511	dec_social_accept	0.783511	16.000000	n/a	8	2.701823e-01	2.701823e-01
250.707280	0.783511	dec_accept	0.783511	16.000000	n/a	8	2.708333e-01	2.708333e-01
250.707280	0.783511	dec_social_high	0.783511	16.000000	n/a	8	2.708333e-01	2.708333e-01
250.707280	0.783511	dec_social_accept_high	0.783511	16.000000	n/a	8	2.708333e-01	2.708333e-01
258.356930	1.016751	dec_social_choice	1.016751	32.000000	n/a	3	-1.360677e-01	-1.360677e-01
258.356930	1.016751	dec_choice	1.016751	32.000000	n/a	3	-1.354167e-01	-1.354167e-01
258.356930	1.016751	dec_social_accept	1.016751	32.000000	n/a	3	-1.360677e-01	-1.360677e-01
258.356930	1.016751	dec_accept	1.016751	32.000000	n/a	3	-1.354167e-01	-1.354167e-01
258.356930	1.016751	dec_social_low	1.016751	32.000000	n/a	3	-1.354167e-01	-1.354167e-01
258.356930	1.016751	dec_social_accept_low	1.016751	32.000000	n/a	3	-1.354167e-01	-1.354167e-01
265.189940	0.934290	dec_nonsocial_choice	0.934290	32.000000	n/a	8	2.018229e-02	2.018229e-02
265.189940	0.934290	dec_choice	0.934290	32.000000	n/a	8	1.953125e-02	1.953125e-02
265.189940	0.934290	dec_nonsocial_accept	0.934290	32.000000	n/a	8	2.018229e-02	2.018229e-02
265.189940	0.934290	dec_accept	0.934290	32.000000	n/a	8	1.953125e-02	1.953125e-02
265.189940	0.934290	dec_nonsocial_high	0.934290	32.000000	n/a	8	1.953125e-02	1.953125e-02
265.189940	0.934290	dec_nonsocial_accept_high	0.934290	32.000000	n/a	8	1.953125e-02	1.953125e-02
272.024750	1.132794	dec_nonsocial_choice	1.132794	16.000000	n/a	2	-1.048177e-01	-1.048177e-01
272.024750	1.132794	dec_choice	1.132794	16.000000	n/a	2	-1.054688e-01	-1.054688e-01
272.024750	1.132794	dec_nonsocial_accept	1.132794	16.000000	n/a	2	-1.048177e-01	-1.048177e-01
272.024750	1.132794	dec_accept	1.132794	16.000000	n/a	2	-1.054688e-01	-1.054688e-01
272.024750	1.132794	dec_nonsocial_low	1.132794	16.000000	n/a	2	-1.054688e-01	-1.054688e-01
272.024750	1.132794	dec_nonsocial_accept_low	1.132794	16.000000	n/a	2	-1.054688e-01	-1.054688e-01
279.673800	1.233564	dec_nonsocial_choice	1.233564	32.000000	n/a	2	-1.673177e-01	-1.673177e-01
279.673800	1.233564	dec_choice	1.233564	32.000000	n/a	2	-1.679688e-01	-1.679688e-01
279.673800	1.233564	dec_nonsocial_accept	1.233564	32.000000	n/a	2	-1.673177e-01	-1.673177e-01
279.673800	1.233564	dec_accept	1.233564	32.000000	n/a	2	-1.679688e-01	-1.679688e-01
279.673800	1.233564	dec_nonsocial_low	1.233564	32.000000	n/a	2	-1.679688e-01	-1.679688e-01
279.673800	1.233564	dec_nonsocial_accept_low	1.233564	32.000000	n/a	2	-1.679688e-01	-1.679688e-01
286.508500	1.082246	dec_social_choice	1.082246	32.000000	n/a	8	2.018229e-02	2.018229e-02
286.508500	1.082246	dec_choice	1.082246	32.000000	n/a	8	2.083333e-02	2.083333e-02
286.508500	1.082246	dec_social_accept	1.082246	32.000000	n/a	8	2.018229e-02	2.018229e-02
286.508500	1.082246	dec_accept	1.082246	32.000000	n/a	8	2.083333e-02	2.083333e-02
286.508500	1.082246	dec_social_high	1.082246	32.000000	n/a	8	2.083333e-02	2.083333e-02
286.508500	1.082246	dec_social_accept_high	1.082246	32.000000	n/a	8	2.083333e-02	2.083333e-02
298.990420	1.300229	dec_nonsocial_choice	1.300229	32.000000	n/a	3	-1.360677e-01	-1.360677e-01
298.990420	1.300229	dec_choice	1.300229	32.000000	n/a	3	-1.367188e-01	-1.367188e-01
298.990420	1.300229	dec_nonsocial_accept	1.300229	32.000000	n/a	3	-1.360677e-01	-1.360677e-01
298.990420	1.300229	dec_accept	1.300229	32.000000	n/a	3	-1.367188e-01	-1.367188e-01
298.990420	1.300229	dec_nonsocial_low	1.300229	32.000000	n/a	3	-1.367188e-01	-1.367188e-01
298.990420	1.300229	dec_nonsocial_accept_low	1.300229	32.000000	n/a	3	-1.367188e-01	-1.367188e-01
306.640840	0.966518	dec_social_choice	0.966518	16.000000	n/a	8	2.701823e-01	2.701823e-01
306.640840	0.966518	dec_choice	0.966518	16.000000	n/a	8	2.708333e-01	2.708333e-01
306.640840	0.966518	dec_social_accept	0.966518	16.000000	n/a	8	2.701823e-01	2.701823e-01
306.640840	0.966518	dec_accept	0.966518	16.000000	n/a	8	2.708333e-01	2.708333e-01
306.640840	0.966518	dec_social_high	0.966518	16.000000	n/a	8	2.708333e-01	2.708333e-01
306.640840	0.966518	dec_social_accept_high	0.966518	16.000000	n/a	8	2.708333e-01	2.708333e-01
313.474760	0.865500	dec_social_choice	0.865500	16.000000	n/a	2	-1.048177e-01	-1.048177e-01
313.474760	0.865500	dec_choice	0.865500	16.000000	n/a	2	-1.041667e-01	-1.041667e-01
313.474760	0.865500	dec_social_accept	0.865500	16.000000	n/a	2	-1.048177e-01	-1.048177e-01
313.474760	0.865500	dec_accept	0.865500	16.000000	n/a	2	-1.041667e-01	-1.041667e-01
313.474760	0.865500	dec_social_accept_low	0.865500	16.000000	n/a	2	-1.041667e-01	-1.041667e-01
320.307560	0.983071	dec_nonsocial_choice	0.983071	32.000000	n/a	2	-1.673177e-01	-1.673177e-01
320.307560	0.983071	dec_choice	0.983071	32.000000	n/a	2	-1.679688e-01	-1.679688e-01
320.307560	0.983071	dec_nonsocial_accept	0.983071	32.000000	n/a	2	-1.673177e-01	-1.673177e-01
320.307560	0.983071	dec_accept	0.983071	32.000000	n/a	2	-1.679688e-01	-1.679688e-01
320.307560	0.983071	dec_nonsocial_low	0.983071	32.000000	n/a	2	-1.679688e-01	-1.679688e-01
320.307560	0.983071	dec_nonsocial_accept_low	0.983071	32.000000	n/a	2	-1.679688e-01	-1.679688e-01
327.140930	0.999749	dec_social_choice	0.999749	32.000000	n/a	2	-1.673177e-01	-1.673177e-01
327.140930	0.999749	dec_choice	0.999749	32.000000	n/a	2	-1.666667e-01	-1.666667e-01
327.140930	0.999749	dec_social_accept	0.999749	32.000000	n/a	2	-1.673177e-01	-1.673177e-01
327.140930	0.999749	dec_accept	0.999749	32.000000	n/a	2	-1.666667e-01	-1.666667e-01
327.140930	0.999749	dec_social_low	0.999749	32.000000	n/a	2	-1.666667e-01	-1.666667e-01
327.140930	0.999749	dec_social_accept_low	0.999749	32.000000	n/a	2	-1.666667e-01	-1.666667e-01
334.790000	0.983870	dec_social_choice	0.983870	32.000000	n/a	16	2.701823e-01	2.701823e-01
334.790000	0.983870	dec_choice	0.983870	32.000000	n/a	16	2.708333e-01	2.708333e-01
334.790000	0.983870	dec_social_accept	0.983870	32.000000	n/a	16	2.701823e-01	2.701823e-01
334.790000	0.983870	dec_accept	0.983870	32.000000	n/a	16	2.708333e-01	2.708333e-01
334.790000	0.983870	dec_social_accept_high	0.983870	32.000000	n/a	16	2.708333e-01	2.708333e-01
342.441200	0.965728	dec_nonsocial_choice	0.965728	32.000000	n/a	2	-1.673177e-01	-1.673177e-01
342.441200	0.965728	dec_choice	0.965728	32.000000	n/a	2	-1.679688e-01	-1.679688e-01
342.441200	0.965728	dec_nonsocial_accept	0.965728	32.000000	n/a	2	-1.673177e-01	-1.673177e-01
342.441200	0.965728	dec_accept	0.965728	32.000000	n/a	2	-1.679688e-01	-1.679688e-01
342.441200	0.965728	dec_nonsocial_low	0.965728	32.000000	n/a	2	-1.679688e-01	-1.679688e-01
342.441200	0.965728	dec_nonsocial_accept_low	0.965728	32.000000	n/a	2	-1.679688e-01	-1.679688e-01
349.273930	1.199934	dec_social_choice	1.199934	16.000000	n/a	1	-1.673177e-01	-1.673177e-01
349.273930	1.199934	dec_choice	1.199934	16.000000	n/a	1	-1.666667e-01	-1.666667e-01
349.273930	1.199934	dec_social_accept	1.199934	16.000000	n/a	1	-1.673177e-01	-1.673177e-01
349.273930	1.199934	dec_accept	1.199934	16.000000	n/a	1	-1.666667e-01	-1.666667e-01
349.273930	1.199934	dec_social_accept_low	1.199934	16.000000	n/a	1	-1.666667e-01	-1.666667e-01
358.523860	0.765924	dec_nonsocial_choice	0.765924	32.000000	n/a	3	-1.360677e-01	-1.360677e-01
358.523860	0.765924	dec_choice	0.765924	32.000000	n/a	3	-1.367188e-01	-1.367188e-01
358.523860	0.765924	dec_nonsocial_accept	0.765924	32.000000	n/a	3	-1.360677e-01	-1.360677e-01
358.523860	0.765924	dec_accept	0.765924	32.000000	n/a	3	-1.367188e-01	-1.367188e-01
358.523860	0.765924	dec_nonsocial_accept_low	0.765924	32.000000	n/a	3	-1.354167e-01	-1.354167e-01
365.356870	0.833651	dec_nonsocial_choice	0.833651	32.000000	n/a	8	2.018229e-02	2.018229e-02
365.356870	0.833651	dec_choice	0.833651	32.000000	n/a	8	1.953125e-02	1.953125e-02
365.356870	0.833651	dec_nonsocial_accept	0.833651	32.000000	n/a	8	2.018229e-02	2.018229e-02
365.356870	0.833651	dec_accept	0.833651	32.000000	n/a	8	1.953125e-02	1.953125e-02
365.356870	0.833651	dec_nonsocial_accept_high	0.833651	32.000000	n/a	8	2.083333e-02	2.083333e-02
372.189850	1.016743	dec_nonsocial_choice	1.016743	16.000000	n/a	8	2.701823e-01	2.701823e-01
372.189850	1.016743	dec_choice	1.016743	16.000000	n/a	8	2.695312e-01	2.695312e-01
372.189850	1.016743	dec_nonsocial_accept	1.016743	16.000000	n/a	8	2.701823e-01	2.701823e-01
372.189850	1.016743	dec_accept	1.016743	16.000000	n/a	8	2.695312e-01	2.695312e-01
372.189850	1.016743	dec_nonsocial_high	1.016743	16.000000	n/a	8	2.695312e-01	2.695312e-01
372.189850	1.016743	dec_nonsocial_accept_high	1.016743	16.000000	n/a	8	2.695312e-01	2.695312e-01
