onset	duration	trial_type	response_time	Endowment	Decision	Offer
4.503734	2	cue_nonsocial	n/a	32	n/a	n/a
4.503734	2	cue_nonsocial_high	n/a	32	n/a	n/a
6.511042	0.883125	dec_nonsocial_high	0.883125	32	n/a	3
6.511042	0.883125	dec_nonsocial_high_reject	0.883125	32	reject	3
15.370369	2	cue_nonsocial	n/a	32	n/a	n/a
15.370369	2	cue_nonsocial_high	n/a	32	n/a	n/a
17.377903	0.999276	dec_nonsocial_high	0.999276	32	n/a	2
17.377903	0.999276	dec_nonsocial_high_reject	0.999276	32	reject	2
22.203241	2	cue_nonsocial	n/a	32	n/a	n/a
22.203241	2	cue_nonsocial_high	n/a	32	n/a	n/a
24.209452	0.867571	dec_nonsocial_high	0.867571	32	n/a	16
24.209452	0.867571	dec_nonsocial_high_accept	0.867571	32	accept	16
31.522537	2	cue_social	n/a	16	n/a	n/a
31.522537	2	cue_social_low	n/a	16	n/a	n/a
33.460785	0.699575	dec_social_low	0.699575	16	n/a	1
33.460785	0.699575	dec_social_low_reject	0.699575	16	reject	1
38.349210	2	cue_social	n/a	16	n/a	n/a
38.349210	2	cue_social_low	n/a	16	n/a	n/a
40.294006	0.899834	dec_social_low	0.899834	16	n/a	8
40.294006	0.899834	dec_social_low_accept	0.899834	16	accept	8
45.120520	2	cue_nonsocial	n/a	32	n/a	n/a
45.120520	2	cue_nonsocial_high	n/a	32	n/a	n/a
47.126167	1.300969	dec_nonsocial_high	1.300969	32	n/a	2
47.126167	1.300969	dec_nonsocial_high_reject	1.300969	32	reject	2
55.986767	2	cue_nonsocial	n/a	16	n/a	n/a
55.986767	2	cue_nonsocial_low	n/a	16	n/a	n/a
57.995037	0.765127	dec_nonsocial_low	0.765127	16	n/a	8
57.995037	0.765127	dec_nonsocial_low_accept	0.765127	16	accept	8
65.253590	2	cue_nonsocial	n/a	16	n/a	n/a
65.253590	2	cue_nonsocial_low	n/a	16	n/a	n/a
67.260630	0.999922	dec_nonsocial_low	0.999922	16	n/a	4
67.260630	0.999922	dec_nonsocial_low_accept	0.999922	16	accept	4
72.908950	2	cue_social	n/a	32	n/a	n/a
72.908950	2	cue_social_high	n/a	32	n/a	n/a
74.910900	0.882867	dec_social_high	0.882867	32	n/a	8
74.910900	0.882867	dec_social_high_accept	0.882867	32	accept	8
79.803100	2	cue_social	n/a	16	n/a	n/a
79.803100	2	cue_social_low	n/a	16	n/a	n/a
81.743835	0.966255	dec_social_low	0.966255	16	n/a	1
81.743835	0.966255	dec_social_low_reject	0.966255	16	reject	1
86.645460	2	cue_social	n/a	32	n/a	n/a
86.645460	2	cue_social_high	n/a	32	n/a	n/a
88.575940	0.984110	dec_social_high	0.984110	32	n/a	3
88.575940	0.984110	dec_social_high_reject	0.984110	32	reject	3
94.277990	2	cue_social	n/a	16	n/a	n/a
94.277990	2	cue_social_low	n/a	16	n/a	n/a
96.209900	1.050145	dec_social_low	1.050145	16	n/a	4
96.209900	1.050145	dec_social_low_accept	1.050145	16	accept	4
101.095210	2	cue_social	n/a	16	n/a	n/a
101.095210	2	cue_social_low	n/a	16	n/a	n/a
103.043960	0.999880	dec_social_low	0.999880	16	n/a	4
103.043960	0.999880	dec_social_low_accept	0.999880	16	accept	4
110.286450	2	cue_nonsocial	n/a	16	n/a	n/a
110.286450	2	cue_nonsocial_low	n/a	16	n/a	n/a
112.293640	0.982993	dec_nonsocial_low	0.982993	16	n/a	8
112.293640	0.982993	dec_nonsocial_low_accept	0.982993	16	accept	8
117.119730	2	cue_nonsocial	n/a	32	n/a	n/a
117.119730	2	cue_nonsocial_high	n/a	32	n/a	n/a
119.127290	1.015948	dec_nonsocial_high	1.015948	32	n/a	8
119.127290	1.015948	dec_nonsocial_high_accept	1.015948	32	accept	8
124.067620	2	cue_social	n/a	32	n/a	n/a
124.067620	2	cue_social_high	n/a	32	n/a	n/a
125.960890	0.865485	dec_social_high	0.865485	32	n/a	8
125.960890	0.865485	dec_social_high_accept	0.865485	32	accept	8
130.786480	2	cue_nonsocial	n/a	32	n/a	n/a
130.786480	2	cue_nonsocial_high	n/a	32	n/a	n/a
132.793660	0.916256	dec_nonsocial_high	0.916256	32	n/a	3
132.793660	0.916256	dec_nonsocial_high_reject	0.916256	32	reject	3
138.436400	2	cue_nonsocial	n/a	32	n/a	n/a
138.436400	2	cue_nonsocial_high	n/a	32	n/a	n/a
140.444080	0.865370	dec_nonsocial_high	0.865370	32	n/a	8
140.444080	0.865370	dec_nonsocial_high_accept	0.865370	32	accept	8
145.343460	2	cue_social	n/a	32	n/a	n/a
145.343460	2	cue_social_high	n/a	32	n/a	n/a
147.275670	1.033912	dec_social_high	1.033912	32	n/a	8
147.275670	1.033912	dec_social_high_accept	1.033912	32	accept	8
157.753400	2	cue_nonsocial	n/a	16	n/a	n/a
157.753400	2	cue_nonsocial_low	n/a	16	n/a	n/a
159.759830	0.833249	dec_nonsocial_low	0.833249	16	n/a	1
159.759830	0.833249	dec_nonsocial_low_reject	0.833249	16	reject	1
165.446270	2	cue_social	n/a	32	n/a	n/a
165.446270	2	cue_social_high	n/a	32	n/a	n/a
167.393810	1.083114	dec_social_high	1.083114	32	n/a	3
167.393810	1.083114	dec_social_high_reject	1.083114	32	reject	3
172.273470	2	cue_social	n/a	32	n/a	n/a
172.273470	2	cue_social_high	n/a	32	n/a	n/a
174.226820	0.915694	dec_social_high	0.915694	32	n/a	2
174.226820	0.915694	dec_social_high_reject	0.915694	32	reject	2
179.919720	2	cue_social	n/a	16	n/a	n/a
179.919720	2	cue_social_low	n/a	16	n/a	n/a
181.876770	0.916320	dec_social_low	0.916320	16	n/a	1
181.876770	0.916320	dec_social_low_reject	0.916320	16	reject	1
190.830890	2	cue_social	n/a	32	n/a	n/a
190.830890	2	cue_social_high	n/a	32	n/a	n/a
192.743790	0.932776	dec_social_high	0.932776	32	n/a	8
192.743790	0.932776	dec_social_high_accept	0.932776	32	accept	8
200.029170	2	cue_social	n/a	32	n/a	n/a
200.029170	2	cue_social_high	n/a	32	n/a	n/a
202.008790	0.951039	dec_social_high	0.951039	32	n/a	3
202.008790	0.951039	dec_social_high_reject	0.951039	32	reject	3
207.636150	2	cue_nonsocial	n/a	32	n/a	n/a
207.636150	2	cue_nonsocial_high	n/a	32	n/a	n/a
209.643750	0.732941	dec_nonsocial_high	0.732941	32	n/a	2
209.643750	0.732941	dec_nonsocial_high_reject	0.732941	32	reject	2
215.371570	2	cue_social	n/a	16	n/a	n/a
215.371570	2	cue_social_low	n/a	16	n/a	n/a
217.291750	0.918146	dec_social_low	0.918146	16	n/a	8
217.291750	0.918146	dec_social_low_accept	0.918146	16	accept	8
223.004200	2	cue_social	n/a	32	n/a	n/a
223.004200	2	cue_social_high	n/a	32	n/a	n/a
224.942730	1.366490	dec_social_high	1.366490	32	n/a	2
224.942730	1.366490	dec_social_high_reject	1.366490	32	reject	2
230.649550	2	cue_social	n/a	16	n/a	n/a
230.649550	2	cue_social_low	n/a	16	n/a	n/a
232.593140	0.850047	dec_social_low	0.850047	16	n/a	2
232.593140	0.850047	dec_social_low_reject	0.850047	16	reject	2
239.903700	2	cue_social	n/a	16	n/a	n/a
239.903700	2	cue_social_low	n/a	16	n/a	n/a
241.842730	0.733482	dec_social_low	0.733482	16	n/a	8
241.842730	0.733482	dec_social_low_accept	0.733482	16	accept	8
246.729190	2	cue_social	n/a	32	n/a	n/a
246.729190	2	cue_social_high	n/a	32	n/a	n/a
248.676670	0.783157	dec_social_high	0.783157	32	n/a	16
248.676670	0.783157	dec_social_high_accept	0.783157	32	accept	16
254.319600	2	cue_nonsocial	n/a	16	n/a	n/a
254.319600	2	cue_nonsocial_low	n/a	16	n/a	n/a
256.326400	0.815753	dec_nonsocial_low	0.815753	16	n/a	2
256.326400	0.815753	dec_nonsocial_low_reject	0.815753	16	reject	2
261.152740	2	cue_nonsocial	n/a	32	n/a	n/a
261.152740	2	cue_nonsocial_high	n/a	32	n/a	n/a
263.160680	0.849199	dec_nonsocial_high	0.849199	32	n/a	16
263.160680	0.849199	dec_nonsocial_high_accept	0.849199	32	accept	16
267.986150	2	cue_nonsocial	n/a	32	n/a	n/a
267.986150	2	cue_nonsocial_high	n/a	32	n/a	n/a
269.993440	0.899496	dec_nonsocial_high	0.899496	32	n/a	3
269.993440	0.899496	dec_nonsocial_high_reject	0.899496	32	reject	3
274.881560	2	cue_social	n/a	32	n/a	n/a
274.881560	2	cue_social_high	n/a	32	n/a	n/a
276.827270	0.849138	dec_social_high	0.849138	32	n/a	3
276.827270	0.849138	dec_social_high_reject	0.849138	32	reject	3
281.652470	2	cue_nonsocial	n/a	32	n/a	n/a
281.652470	2	cue_nonsocial_high	n/a	32	n/a	n/a
283.658660	0.767246	dec_nonsocial_high	0.767246	32	n/a	3
283.658660	0.767246	dec_nonsocial_high_reject	0.767246	32	reject	3
290.902400	2	cue_nonsocial	n/a	32	n/a	n/a
290.902400	2	cue_nonsocial_high	n/a	32	n/a	n/a
292.909640	1.016289	dec_nonsocial_high	1.016289	32	n/a	8
292.909640	1.016289	dec_nonsocial_high_accept	1.016289	32	accept	8
297.790400	2	cue_social	n/a	16	n/a	n/a
297.790400	2	cue_social_low	n/a	16	n/a	n/a
299.742770	0.733352	dec_social_low	0.733352	16	n/a	8
299.742770	0.733352	dec_social_low_accept	0.733352	16	accept	8
305.452360	2	cue_social	n/a	16	n/a	n/a
305.452360	2	cue_social_low	n/a	16	n/a	n/a
307.392600	0.833691	dec_social_low	0.833691	16	n/a	2
307.392600	0.833691	dec_social_low_reject	0.833691	16	reject	2
312.218900	2	cue_nonsocial	n/a	16	n/a	n/a
312.218900	2	cue_nonsocial_low	n/a	16	n/a	n/a
314.226750	1.099487	dec_nonsocial_low	1.099487	16	n/a	4
314.226750	1.099487	dec_nonsocial_low_reject	1.099487	16	reject	4
319.102800	2	cue_social	n/a	32	n/a	n/a
319.102800	2	cue_social_high	n/a	32	n/a	n/a
321.059500	0.983115	dec_social_high	0.983115	32	n/a	16
321.059500	0.983115	dec_social_high_accept	0.983115	32	accept	16
326.702200	2	cue_nonsocial	n/a	32	n/a	n/a
326.702200	2	cue_nonsocial_high	n/a	32	n/a	n/a
328.709560	1.000055	dec_nonsocial_high	1.000055	32	n/a	2
328.709560	1.000055	dec_nonsocial_high_reject	1.000055	32	reject	2
334.352400	2	cue_nonsocial	n/a	16	n/a	n/a
334.352400	2	cue_nonsocial_low	n/a	16	n/a	n/a
336.360600	1.015152	dec_nonsocial_low	1.015152	16	n/a	1
336.360600	1.015152	dec_nonsocial_low_reject	1.015152	16	reject	1
341.268220	2	cue_social	n/a	16	n/a	n/a
341.268220	2	cue_social_low	n/a	16	n/a	n/a
343.192570	1.116903	dec_social_low	1.116903	16	n/a	1
343.192570	1.116903	dec_social_low_reject	1.116903	16	reject	1
348.018950	2	cue_nonsocial	n/a	32	n/a	n/a
348.018950	2	cue_nonsocial_high	n/a	32	n/a	n/a
350.026250	1.116121	dec_nonsocial_high	1.116121	32	n/a	3
350.026250	1.116121	dec_nonsocial_high_reject	1.116121	32	reject	3
354.852260	2	cue_nonsocial	n/a	32	n/a	n/a
354.852260	2	cue_nonsocial_high	n/a	32	n/a	n/a
356.859530	0.865912	dec_nonsocial_high	0.865912	32	n/a	16
356.859530	0.865912	dec_nonsocial_high_accept	0.865912	32	accept	16
361.685550	2	cue_nonsocial	n/a	32	n/a	n/a
361.685550	2	cue_nonsocial_high	n/a	32	n/a	n/a
363.692540	0.683484	dec_nonsocial_high	0.683484	32	n/a	16
363.692540	0.683484	dec_nonsocial_high_accept	0.683484	32	accept	16
370.952200	2	cue_nonsocial	n/a	16	n/a	n/a
370.952200	2	cue_nonsocial_low	n/a	16	n/a	n/a
372.959100	0.800232	dec_nonsocial_low	0.800232	16	n/a	4
372.959100	0.800232	dec_nonsocial_low_accept	0.800232	16	accept	4
