instrText,stimDoor,stimDoorLure,stimFace,stimFaceLure,Instructions.thisRepN,Instructions.thisTrialN,Instructions.thisN,Instructions.thisIndex,Trials.thisRepN,Trials.thisTrialN,Trials.thisN,Trials.thisIndex,Func,Keys,Text,RespTime,Onset,Offset,SystemTime_Start,SystemTime_Stop,Stim,Lure,Participant*,Age,date,expName,psychopyVersion,frameRate,
"In the earlier Feedback Games, you chose which doors contained a prize, and which peers liked you. 

You then saw positive or negative feedback (green check mark or red X) from the door or peer you selected.

You will now see a series of doors and peers, some of which you saw during the earlier Feedback Games, and some that you have never seen before.

Please press the spacebar to continue.",,,,,0,0,0,0,,,,,instrFunc,space,"In the earlier Feedback Games, you chose which doors contained a prize, and which peers liked you. 

You then saw positive or negative feedback (green check mark or red X) from the door or peer you selected.

You will now see a series of doors and peers, some of which you saw during the earlier Feedback Games, and some that you have never seen before.

Please press the spacebar to continue.",23.394233100116253,16.70556059991941,40.215636119712144,2023-04-18 13:35:56.867999,2023-04-18 13:36:20.368659,,,10603,40-69,2023_Apr_18_1335,Recall,2021.2.3,59.93788043800888,
"For doors/peers that you remember selecting and getting feedback from, your job is to RECALL what feedback you received. 

Press '1' if you recall positive feedback. 

Press '2' if you recall negative feedback

Press the spacebar to continue.",,,,,0,1,1,1,,,,,instrFunc,space,"For doors/peers that you remember selecting and getting feedback from, your job is to RECALL what feedback you received. 

Press '1' if you recall positive feedback. 

Press '2' if you recall negative feedback

Press the spacebar to continue.",16.88272489979863,40.14506690017879,57.08204114018008,2023-04-18 13:36:20.369459,2023-04-18 13:36:37.296707,,,10603,40-69,2023_Apr_18_1335,Recall,2021.2.3,59.93788043800888,
"For doors/peers that you don't remember getting feedback from, your job is to PREDICT what feedback you WOULD HAVE received.

Press '9' if you predict positive feedback.

Press '0' if you predict negative feedback. 

Please press the spacebar to continue.",,,,,0,2,2,2,,,,,instrFunc,space,"For doors/peers that you don't remember getting feedback from, your job is to PREDICT what feedback you WOULD HAVE received.

Press '9' if you predict positive feedback.

Press '0' if you predict negative feedback. 

Please press the spacebar to continue.",20.08924390003085,57.07466229982674,77.2149413395673,2023-04-18 13:36:37.297503,2023-04-18 13:36:57.427993,,,10603,40-69,2023_Apr_18_1335,Recall,2021.2.3,59.93788043800888,
"This task is self-paced, and the prompts will always stay on the screen so that you know which buttons to press.

On the next screen we will show you what those prompts look like, so that you know exactly what to expect. 

You will start with either doors or peers, and then switch halfway through. 

Please press the spacebar to continue.",,,,,0,3,3,3,,,,,instrFunc,space,"This task is self-paced, and the prompts will always stay on the screen so that you know which buttons to press.

On the next screen we will show you what those prompts look like, so that you know exactly what to expect. 

You will start with either doors or peers, and then switch halfway through. 

Please press the spacebar to continue.",16.71400209981948,77.20175779983401,93.97232263954356,2023-04-18 13:36:57.428939,2023-04-18 13:37:14.189571,,,10603,40-69,2023_Apr_18_1335,Recall,2021.2.3,59.93788043800888,
,,,,,,,,,,,,,imgtextFunc,space,"Here is what the screen will look like while you make your ratings.
The green circles remind you to press 1 or 9 for positive feedback.
The red circles remind you to press 2 or 0 for positive feedback.









Please let the experimenter know if you have any questions.

Whenever you're ready, press the spacebar to start the task.",24.374086000025272,94.09375019976869,118.63689753971994,2023-04-18 13:37:14.200377,2023-04-18 13:37:38.741282,,,10603,40-69,2023_Apr_18_1335,Recall,2021.2.3,59.93788043800888,
,DD009.jpg,0,FF009.jpg,0,,,,,0,0,0,8,imgFunc,1,NA,8.860840300098062,118.65480249980465,127.65538656013086,2023-04-18 13:37:38.791846,2023-04-18 13:37:47.781587,DD009.jpg,0,10603,40-69,2023_Apr_18_1335,Recall,2021.2.3,59.93788043800888,
,DD033.jpg,0,FF033.jpg,0,,,,,0,1,1,32,imgFunc,1,NA,11.651517400052398,127.60825969977304,139.35631723934785,2023-04-18 13:37:47.791563,2023-04-18 13:37:59.539755,DD033.jpg,0,10603,40-69,2023_Apr_18_1335,Recall,2021.2.3,59.93788043800888,
,DD016.jpg,0,FF016.jpg,0,,,,,0,2,2,15,imgFunc,1,NA,57.4443413997069,139.3911692001857,196.95517324050888,2023-04-18 13:37:59.549582,2023-04-18 13:38:57.113717,DD016.jpg,0,10603,40-69,2023_Apr_18_1335,Recall,2021.2.3,59.93788043800888,
,DD040.jpg,0,FF040.jpg,0,,,,,0,3,3,39,imgFunc,1,NA,1.687425599899143,196.96422890014946,198.76892913971096,2023-04-18 13:38:57.125685,2023-04-18 13:38:58.932543,DD040.jpg,0,10603,40-69,2023_Apr_18_1335,Recall,2021.2.3,59.93788043800888,
,DD023.jpg,0,FF023.jpg,0,,,,,0,4,4,22,imgFunc,1,NA,2.628575300332159,198.75079739978537,201.46235034009442,2023-04-18 13:38:58.940299,2023-04-18 13:39:01.650168,DD023.jpg,0,10603,40-69,2023_Apr_18_1335,Recall,2021.2.3,59.93788043800888,
,L_SD506.jpg,1,L_MF506.jpg,1,,,,,0,5,5,95,imgFunc,9,NA,5.0887997997924685,201.47454260010272,206.65639053983614,2023-04-18 13:39:01.657918,2023-04-18 13:39:06.836731,L_SD506.jpg,1,10603,40-69,2023_Apr_18_1335,Recall,2021.2.3,59.93788043800888,
,SD036.jpg,0,MF036.jpg,0,,,,,0,6,6,85,imgFunc,9,NA,2.4109978997148573,206.66463659983128,209.17777543980628,2023-04-18 13:39:06.845528,2023-04-18 13:39:09.356524,SD036.jpg,0,10603,40-69,2023_Apr_18_1335,Recall,2021.2.3,59.93788043800888,
,SD017.jpg,0,MF017.jpg,0,,,,,0,7,7,66,imgFunc,1,NA,1.9147342997603118,209.1767625999637,211.17265674006194,2023-04-18 13:39:09.363504,2023-04-18 13:39:11.357647,SD017.jpg,0,10603,40-69,2023_Apr_18_1335,Recall,2021.2.3,59.93788043800888,
,SD001.jpg,0,MF001.jpg,0,,,,,0,8,8,50,imgFunc,1,NA,2.2077669999562204,211.17983169993386,213.47683423943818,2023-04-18 13:39:11.365410,2023-04-18 13:39:13.659133,SD001.jpg,0,10603,40-69,2023_Apr_18_1335,Recall,2021.2.3,59.93788043800888,
,L_DD506.jpg,1,L_FF506.jpg,1,,,,,0,9,9,45,imgFunc,1,NA,2.7388840997591615,213.48069849982858,216.31266163941473,2023-04-18 13:39:13.666915,2023-04-18 13:39:16.494387,L_DD506.jpg,1,10603,40-69,2023_Apr_18_1335,Recall,2021.2.3,59.93788043800888,
,SD026.jpg,0,MF026.jpg,0,,,,,0,10,10,75,imgFunc,1,NA,1.4413331001996994,216.31427730014548,217.8453443394974,2023-04-18 13:39:16.502235,2023-04-18 13:39:18.029875,SD026.jpg,0,10603,40-69,2023_Apr_18_1335,Recall,2021.2.3,59.93788043800888,
,SD039.jpg,0,MF039.jpg,0,,,,,0,11,11,88,imgFunc,1,NA,1.8966068997979164,217.8509069001302,219.83023384027183,2023-04-18 13:39:18.037679,2023-04-18 13:39:20.013633,SD039.jpg,0,10603,40-69,2023_Apr_18_1335,Recall,2021.2.3,59.93788043800888,
,DD038.jpg,0,FF038.jpg,0,,,,,0,12,12,37,imgFunc,1,NA,2.5779713997617364,219.83362249983475,222.4977432396263,2023-04-18 13:39:20.021400,2023-04-18 13:39:22.682227,DD038.jpg,0,10603,40-69,2023_Apr_18_1335,Recall,2021.2.3,59.93788043800888,
,DD008.jpg,0,FF008.jpg,0,,,,,0,13,13,7,imgFunc,1,NA,0.8621936999261379,222.50153349991888,223.44809514004737,2023-04-18 13:39:22.689988,2023-04-18 13:39:23.633042,DD008.jpg,0,10603,40-69,2023_Apr_18_1335,Recall,2021.2.3,59.93788043800888,
,SD022.jpg,0,MF022.jpg,0,,,,,0,14,14,71,imgFunc,1,NA,1.1493779998272657,223.45424719993025,224.70162933971733,2023-04-18 13:39:23.640836,2023-04-18 13:39:24.883788,SD022.jpg,0,10603,40-69,2023_Apr_18_1335,Recall,2021.2.3,59.93788043800888,
,DD018.jpg,0,FF018.jpg,0,,,,,0,15,15,17,imgFunc,1,NA,1.3001753999851644,224.70341840013862,226.08433124003932,2023-04-18 13:39:24.891553,2023-04-18 13:39:26.269061,DD018.jpg,0,10603,40-69,2023_Apr_18_1335,Recall,2021.2.3,59.93788043800888,
,L_SD507.jpg,1,L_MF507.jpg,1,,,,,0,16,16,96,imgFunc,1,NA,1.6124077998101711,226.08711670013145,227.78196624014527,2023-04-18 13:39:26.276862,2023-04-18 13:39:27.969429,L_SD507.jpg,1,10603,40-69,2023_Apr_18_1335,Recall,2021.2.3,59.93788043800888,
,DD003.jpg,0,FF003.jpg,0,,,,,0,17,17,2,imgFunc,1,NA,0.9737105001695454,227.7897572000511,228.85367023944855,2023-04-18 13:39:27.977212,2023-04-18 13:39:29.036889,DD003.jpg,0,10603,40-69,2023_Apr_18_1335,Recall,2021.2.3,59.93788043800888,
,L_DD502.jpg,1,L_FF502.jpg,1,,,,,0,18,18,41,imgFunc,1,NA,1.245697799604386,228.85395530005917,230.18380903964862,2023-04-18 13:39:29.044661,2023-04-18 13:39:30.370973,L_DD502.jpg,1,10603,40-69,2023_Apr_18_1335,Recall,2021.2.3,59.93788043800888,
,DD019.jpg,0,FF019.jpg,0,,,,,0,19,19,18,imgFunc,1,NA,1.8682902003638446,230.19120660005137,232.15608203969896,2023-04-18 13:39:30.377788,2023-04-18 13:39:32.339635,DD019.jpg,0,10603,40-69,2023_Apr_18_1335,Recall,2021.2.3,59.93788043800888,
,DD011.jpg,0,FF011.jpg,0,,,,,0,20,20,10,imgFunc,1,NA,0.988803300075233,232.15911810006946,233.23771253973246,2023-04-18 13:39:32.346616,2023-04-18 13:39:33.422904,DD011.jpg,0,10603,40-69,2023_Apr_18_1335,Recall,2021.2.3,59.93788043800888,
,L_SD509.jpg,1,L_MF509.jpg,1,,,,,0,21,21,98,imgFunc,1,NA,1.913657700177282,233.2420919998549,235.2400419395417,2023-04-18 13:39:33.430722,2023-04-18 13:39:35.425573,L_SD509.jpg,1,10603,40-69,2023_Apr_18_1335,Recall,2021.2.3,59.93788043800888,
,L_DD509.jpg,1,L_FF509.jpg,1,,,,,0,22,22,48,imgFunc,9,NA,1.199649800080806,235.2441345998086,236.52244494017214,2023-04-18 13:39:35.433455,2023-04-18 13:39:36.709718,L_DD509.jpg,1,10603,40-69,2023_Apr_18_1335,Recall,2021.2.3,59.93788043800888,
,SD032.jpg,0,MF032.jpg,0,,,,,0,23,23,81,imgFunc,1,NA,2.497676699887961,236.52989050000906,239.1088634398766,2023-04-18 13:39:36.717574,2023-04-18 13:39:39.294353,SD032.jpg,0,10603,40-69,2023_Apr_18_1335,Recall,2021.2.3,59.93788043800888,
,DD027.jpg,0,FF027.jpg,0,,,,,0,24,24,26,imgFunc,1,NA,1.1405067997984588,239.11099539976567,240.34129883954301,2023-04-18 13:39:39.301130,2023-04-18 13:39:40.528422,DD027.jpg,0,10603,40-69,2023_Apr_18_1335,Recall,2021.2.3,59.93788043800888,
,SD018.jpg,0,MF018.jpg,0,,,,,0,25,25,67,imgFunc,9,NA,2.289154800120741,240.3461774000898,242.72713724011555,2023-04-18 13:39:40.535205,2023-04-18 13:39:42.913233,SD018.jpg,0,10603,40-69,2023_Apr_18_1335,Recall,2021.2.3,59.93788043800888,
,SD003.jpg,0,MF003.jpg,0,,,,,0,26,26,52,imgFunc,1,NA,1.311983599793166,242.73148089973256,244.12845753971487,2023-04-18 13:39:42.921021,2023-04-18 13:39:44.314776,SD003.jpg,0,10603,40-69,2023_Apr_18_1335,Recall,2021.2.3,59.93788043800888,
,SD009.jpg,0,MF009.jpg,0,,,,,0,27,27,58,imgFunc,1,NA,3.2446754998527467,244.1347551997751,247.46533583989367,2023-04-18 13:39:44.322757,2023-04-18 13:39:47.650163,SD009.jpg,0,10603,40-69,2023_Apr_18_1335,Recall,2021.2.3,59.93788043800888,
,L_SD502.jpg,1,L_MF502.jpg,1,,,,,0,28,28,91,imgFunc,1,NA,0.9042008998803794,247.46733260015026,248.46349673951045,2023-04-18 13:39:47.657938,2023-04-18 13:39:48.651706,L_SD502.jpg,1,10603,40-69,2023_Apr_18_1335,Recall,2021.2.3,59.93788043800888,
,SD027.jpg,0,MF027.jpg,0,,,,,0,29,29,76,imgFunc,1,NA,1.3289135000668466,248.47450259979814,249.88692203955725,2023-04-18 13:39:48.659597,2023-04-18 13:39:50.069415,SD027.jpg,0,10603,40-69,2023_Apr_18_1335,Recall,2021.2.3,59.93788043800888,
,DD010.jpg,0,FF010.jpg,0,,,,,0,30,30,9,imgFunc,1,NA,1.2183243003673851,249.8890027999878,251.200746439863,2023-04-18 13:39:50.076214,2023-04-18 13:39:51.386048,DD010.jpg,0,10603,40-69,2023_Apr_18_1335,Recall,2021.2.3,59.93788043800888,
,SD023.jpg,0,MF023.jpg,0,,,,,0,31,31,72,imgFunc,1,NA,1.3725999998860061,251.19882360007614,252.64686603983864,2023-04-18 13:39:51.393025,2023-04-18 13:39:52.837156,SD023.jpg,0,10603,40-69,2023_Apr_18_1335,Recall,2021.2.3,59.93788043800888,
,DD039.jpg,0,FF039.jpg,0,,,,,0,32,32,38,imgFunc,1,NA,1.5501512996852398,252.65341809997335,254.28389853984118,2023-04-18 13:39:52.844967,2023-04-18 13:39:54.472766,DD039.jpg,0,10603,40-69,2023_Apr_18_1335,Recall,2021.2.3,59.93788043800888,
,DD037.jpg,0,FF037.jpg,0,,,,,0,33,33,36,imgFunc,1,NA,1.0075699998997152,254.29185499995947,255.38655273988843,2023-04-18 13:39:54.480633,2023-04-18 13:39:55.572432,DD037.jpg,0,10603,40-69,2023_Apr_18_1335,Recall,2021.2.3,59.93788043800888,
,DD022.jpg,0,FF022.jpg,0,,,,,0,34,34,21,imgFunc,1,NA,1.0467778998427093,255.38880319986492,256.5188287398778,2023-04-18 13:39:55.580202,2023-04-18 13:39:56.706745,DD022.jpg,0,10603,40-69,2023_Apr_18_1335,Recall,2021.2.3,59.93788043800888,
,L_SD501.jpg,1,L_MF501.jpg,1,,,,,0,35,35,90,imgFunc,1,NA,1.0898770997300744,256.52173129981384,257.701809739694,2023-04-18 13:39:56.713532,2023-04-18 13:39:57.890674,L_SD501.jpg,1,10603,40-69,2023_Apr_18_1335,Recall,2021.2.3,59.93788043800888,
,DD032.jpg,0,FF032.jpg,0,,,,,0,36,36,31,imgFunc,9,NA,1.5516106998547912,257.70788259990513,259.33898943988606,2023-04-18 13:39:57.898451,2023-04-18 13:39:59.526135,DD032.jpg,0,10603,40-69,2023_Apr_18_1335,Recall,2021.2.3,59.93788043800888,
,SD031.jpg,0,MF031.jpg,0,,,,,0,37,37,80,imgFunc,1,NA,1.1890257000923157,259.3423731997609,260.6209390396252,2023-04-18 13:39:59.533894,2023-04-18 13:40:00.809561,SD031.jpg,0,10603,40-69,2023_Apr_18_1335,Recall,2021.2.3,59.93788043800888,
,DD021.jpg,0,FF021.jpg,0,,,,,0,38,38,20,imgFunc,1,NA,1.5492062997072935,260.63046049978584,262.2607744396664,2023-04-18 13:40:00.817337,2023-04-18 13:40:02.444182,DD021.jpg,0,10603,40-69,2023_Apr_18_1335,Recall,2021.2.3,59.93788043800888,
,L_DD508.jpg,1,L_FF508.jpg,1,,,,,0,39,39,47,imgFunc,1,NA,0.9162503001280129,262.2631076001562,263.26035044016317,2023-04-18 13:40:02.451939,2023-04-18 13:40:03.445854,L_DD508.jpg,1,10603,40-69,2023_Apr_18_1335,Recall,2021.2.3,59.93788043800888,
,DD005.jpg,0,FF005.jpg,0,,,,,0,40,40,4,imgFunc,9,NA,1.378026599995792,263.26549240015447,264.72737884009257,2023-04-18 13:40:03.452712,2023-04-18 13:40:04.912548,DD005.jpg,0,10603,40-69,2023_Apr_18_1335,Recall,2021.2.3,59.93788043800888,
,SD007.jpg,0,MF007.jpg,0,,,,,0,41,41,56,imgFunc,1,NA,1.2589508001692593,264.7286319998093,266.07537543959916,2023-04-18 13:40:04.920345,2023-04-18 13:40:06.263521,SD007.jpg,0,10603,40-69,2023_Apr_18_1335,Recall,2021.2.3,59.93788043800888,
,SD035.jpg,0,MF035.jpg,0,,,,,0,42,42,84,imgFunc,1,NA,1.6582961999811232,266.08162730000913,267.83000933984295,2023-04-18 13:40:06.270316,2023-04-18 13:40:08.014830,SD035.jpg,0,10603,40-69,2023_Apr_18_1335,Recall,2021.2.3,59.93788043800888,
,SD024.jpg,0,MF024.jpg,0,,,,,0,43,43,73,imgFunc,9,NA,2.0521980999037623,267.8313111998141,269.9622826394625,2023-04-18 13:40:08.022581,2023-04-18 13:40:10.149921,SD024.jpg,0,10603,40-69,2023_Apr_18_1335,Recall,2021.2.3,59.93788043800888,
,DD013.jpg,0,FF013.jpg,0,,,,,0,44,44,12,imgFunc,9,NA,4.748261900153011,269.9670319999568,274.79980483977124,2023-04-18 13:40:10.156754,2023-04-18 13:40:14.986460,DD013.jpg,0,10603,40-69,2023_Apr_18_1335,Recall,2021.2.3,59.93788043800888,
,DD017.jpg,0,FF017.jpg,0,,,,,0,45,45,16,imgFunc,1,NA,0.8396521001122892,274.8117157998495,275.73891453957185,2023-04-18 13:40:14.995264,2023-04-18 13:40:15.921025,DD017.jpg,0,10603,40-69,2023_Apr_18_1335,Recall,2021.2.3,59.93788043800888,
,SD025.jpg,0,MF025.jpg,0,,,,,0,46,46,74,imgFunc,1,NA,1.6570594999939203,275.73852529982105,277.48438653955236,2023-04-18 13:40:15.927981,2023-04-18 13:40:17.671580,SD025.jpg,0,10603,40-69,2023_Apr_18_1335,Recall,2021.2.3,59.93788043800888,
,SD013.jpg,0,MF013.jpg,0,,,,,0,47,47,62,imgFunc,1,NA,1.4265962997451425,277.4887548000552,279.0027181399055,2023-04-18 13:40:17.679373,2023-04-18 13:40:19.189457,SD013.jpg,0,10603,40-69,2023_Apr_18_1335,Recall,2021.2.3,59.93788043800888,
,SD011.jpg,0,MF011.jpg,0,,,,,0,48,48,60,imgFunc,1,NA,1.6451623002067208,279.0064928997308,280.7379548391327,2023-04-18 13:40:19.196269,2023-04-18 13:40:20.923867,SD011.jpg,0,10603,40-69,2023_Apr_18_1335,Recall,2021.2.3,59.93788043800888,
,SD005.jpg,0,MF005.jpg,0,,,,,0,49,49,54,imgFunc,9,NA,1.0171473999507725,280.73842389974743,281.8360940394923,2023-04-18 13:40:20.931641,2023-04-18 13:40:22.026157,SD005.jpg,0,10603,40-69,2023_Apr_18_1335,Recall,2021.2.3,59.93788043800888,
,SD015.jpg,0,MF015.jpg,0,,,,,0,50,50,64,imgFunc,1,NA,1.3350458000786602,281.8443507999182,283.2732633394189,2023-04-18 13:40:22.033137,2023-04-18 13:40:23.460217,SD015.jpg,0,10603,40-69,2023_Apr_18_1335,Recall,2021.2.3,59.93788043800888,
,DD014.jpg,0,FF014.jpg,0,,,,,0,51,51,13,imgFunc,1,NA,1.2590895001776516,283.2803285000846,284.62552303960547,2023-04-18 13:40:23.467197,2023-04-18 13:40:24.810242,DD014.jpg,0,10603,40-69,2023_Apr_18_1335,Recall,2021.2.3,59.93788043800888,
,SD021.jpg,0,MF021.jpg,0,,,,,0,52,52,70,imgFunc,9,NA,1.1070228000171483,284.62433160003275,285.8210693397559,2023-04-18 13:40:24.818007,2023-04-18 13:40:26.011060,SD021.jpg,0,10603,40-69,2023_Apr_18_1335,Recall,2021.2.3,59.93788043800888,
,SD019.jpg,0,MF019.jpg,0,,,,,0,53,53,68,imgFunc,1,NA,1.328442799858749,285.8271280997433,287.2414742396213,2023-04-18 13:40:26.018862,2023-04-18 13:40:27.429606,SD019.jpg,0,10603,40-69,2023_Apr_18_1335,Recall,2021.2.3,59.93788043800888,
,SD002.jpg,0,MF002.jpg,0,,,,,0,54,54,51,imgFunc,9,NA,1.1328925997950137,287.2465456998907,288.457746040076,2023-04-18 13:40:27.437587,2023-04-18 13:40:28.646106,SD002.jpg,0,10603,40-69,2023_Apr_18_1335,Recall,2021.2.3,59.93788043800888,
,SD020.jpg,0,MF020.jpg,0,,,,,0,55,55,69,imgFunc,1,NA,1.235479800030589,288.4720962001011,289.80268743960187,2023-04-18 13:40:28.653000,2023-04-18 13:40:29.980541,SD020.jpg,0,10603,40-69,2023_Apr_18_1335,Recall,2021.2.3,59.93788043800888,
,DD036.jpg,0,FF036.jpg,0,,,,,0,56,56,35,imgFunc,1,NA,1.2930053998716176,289.7984083998017,291.17848373996094,2023-04-18 13:40:29.988313,2023-04-18 13:40:31.364676,DD036.jpg,0,10603,40-69,2023_Apr_18_1335,Recall,2021.2.3,59.93788043800888,
,DD006.jpg,0,FF006.jpg,0,,,,,0,57,57,5,imgFunc,1,NA,1.0528748999349773,291.1825044997968,292.3296836395748,2023-04-18 13:40:31.371475,2023-04-18 13:40:32.515739,DD006.jpg,0,10603,40-69,2023_Apr_18_1335,Recall,2021.2.3,59.93788043800888,
,SD004.jpg,0,MF004.jpg,0,,,,,0,58,58,53,imgFunc,9,NA,1.0402436996810138,292.331016600132,293.4610588401556,2023-04-18 13:40:32.523534,2023-04-18 13:40:33.649727,SD004.jpg,0,10603,40-69,2023_Apr_18_1335,Recall,2021.2.3,59.93788043800888,
,DD031.jpg,0,FF031.jpg,0,,,,,0,59,59,30,imgFunc,1,NA,1.1581175001338124,293.46941540017724,294.7151149404235,2023-04-18 13:40:33.657543,2023-04-18 13:40:34.900880,DD031.jpg,0,10603,40-69,2023_Apr_18_1335,Recall,2021.2.3,59.93788043800888,
,SD016.jpg,0,MF016.jpg,0,,,,,0,60,60,65,imgFunc,1,NA,1.3843108997680247,294.7152060000226,296.180027639959,2023-04-18 13:40:34.907655,2023-04-18 13:40:36.369268,SD016.jpg,0,10603,40-69,2023_Apr_18_1335,Recall,2021.2.3,59.93788043800888,
,DD020.jpg,0,FF020.jpg,0,,,,,0,61,61,19,imgFunc,9,NA,1.661491900216788,296.18991070007905,297.935681339819,2023-04-18 13:40:36.376248,2023-04-18 13:40:38.119931,DD020.jpg,0,10603,40-69,2023_Apr_18_1335,Recall,2021.2.3,59.93788043800888,
,DD015.jpg,0,FF015.jpg,0,,,,,0,62,62,14,imgFunc,1,NA,1.1945638000033796,297.93699820013717,299.21694404026493,2023-04-18 13:40:38.127720,2023-04-18 13:40:39.404758,DD015.jpg,0,10603,40-69,2023_Apr_18_1335,Recall,2021.2.3,59.93788043800888,
,SD014.jpg,0,MF014.jpg,0,,,,,0,63,63,63,imgFunc,1,NA,1.160752599593252,299.2187560000457,300.46416344027966,2023-04-18 13:40:39.412550,2023-04-18 13:40:40.655098,SD014.jpg,0,10603,40-69,2023_Apr_18_1335,Recall,2021.2.3,59.93788043800888,
,L_DD507.jpg,1,L_FF507.jpg,1,,,,,0,64,64,46,imgFunc,1,NA,1.1213298002257943,300.4741210001521,301.6870383406058,2023-04-18 13:40:40.662878,2023-04-18 13:40:41.872264,L_DD507.jpg,1,10603,40-69,2023_Apr_18_1335,Recall,2021.2.3,59.93788043800888,
,L_DD501.jpg,1,L_FF501.jpg,1,,,,,0,65,65,40,imgFunc,1,NA,1.211887499783188,301.6876297998242,302.9855309394188,2023-04-18 13:40:41.879222,2023-04-18 13:40:43.174231,L_DD501.jpg,1,10603,40-69,2023_Apr_18_1335,Recall,2021.2.3,59.93788043800888,
,DD001.jpg,0,FF001.jpg,0,,,,,0,66,66,0,imgFunc,1,NA,1.3023386001586914,302.98898620018736,304.3675972400233,2023-04-18 13:40:43.182170,2023-04-18 13:40:44.558377,DD001.jpg,0,10603,40-69,2023_Apr_18_1335,Recall,2021.2.3,59.93788043800888,
,DD029.jpg,0,FF029.jpg,0,,,,,0,67,67,28,imgFunc,9,NA,1.3647531000897288,304.3746846001595,305.81993533996865,2023-04-18 13:40:44.566358,2023-04-18 13:40:46.008051,DD029.jpg,0,10603,40-69,2023_Apr_18_1335,Recall,2021.2.3,59.93788043800888,
,SD033.jpg,0,MF033.jpg,0,,,,,0,68,68,82,imgFunc,1,NA,1.2036345000378788,305.83147529978305,307.13043073983863,2023-04-18 13:40:46.015056,2023-04-18 13:40:47.310291,SD033.jpg,0,10603,40-69,2023_Apr_18_1335,Recall,2021.2.3,59.93788043800888,
,DD004.jpg,0,FF004.jpg,0,,,,,0,69,69,3,imgFunc,1,NA,2.1331613999791443,307.1262019001879,309.3388540400192,2023-04-18 13:40:47.318232,2023-04-18 13:40:49.528071,DD004.jpg,0,10603,40-69,2023_Apr_18_1335,Recall,2021.2.3,59.93788043800888,
,DD026.jpg,0,FF026.jpg,0,,,,,0,70,70,25,imgFunc,1,NA,1.6427068002521992,309.3447456997819,311.07599983969703,2023-04-18 13:40:49.535867,2023-04-18 13:40:51.262698,DD026.jpg,0,10603,40-69,2023_Apr_18_1335,Recall,2021.2.3,59.93788043800888,
,L_DD504.jpg,1,L_FF504.jpg,1,,,,,0,71,71,43,imgFunc,9,NA,1.6628489000722766,311.0845022997819,312.83237113943323,2023-04-18 13:40:51.270466,2023-04-18 13:40:53.014310,L_DD504.jpg,1,10603,40-69,2023_Apr_18_1335,Recall,2021.2.3,59.93788043800888,
,SD040.jpg,0,MF040.jpg,0,,,,,0,72,72,89,imgFunc,9,NA,1.2135830000042915,312.82965270010754,314.12509123981,2023-04-18 13:40:53.022208,2023-04-18 13:40:54.314647,SD040.jpg,0,10603,40-69,2023_Apr_18_1335,Recall,2021.2.3,59.93788043800888,
,L_SD510.jpg,1,L_MF510.jpg,1,,,,,0,73,73,99,imgFunc,9,NA,1.487602399662137,314.1316915997304,315.71212953934446,2023-04-18 13:40:54.322410,2023-04-18 13:40:55.899109,L_SD510.jpg,1,10603,40-69,2023_Apr_18_1335,Recall,2021.2.3,59.93788043800888,
,DD035.jpg,0,FF035.jpg,0,,,,,0,74,74,34,imgFunc,1,NA,1.092726199887693,315.71859230007976,316.8985641398467,2023-04-18 13:40:55.906893,2023-04-18 13:40:57.083400,DD035.jpg,0,10603,40-69,2023_Apr_18_1335,Recall,2021.2.3,59.93788043800888,
,L_DD510.jpg,1,L_FF510.jpg,1,,,,,0,75,75,49,imgFunc,9,NA,2.625535300001502,316.8976596998982,319.6126359398477,2023-04-18 13:40:57.090357,2023-04-18 13:40:59.802158,L_DD510.jpg,1,10603,40-69,2023_Apr_18_1335,Recall,2021.2.3,59.93788043800888,
,DD030.jpg,0,FF030.jpg,0,,,,,0,76,76,29,imgFunc,1,NA,0.9714584001339972,319.61594699975103,320.66350103961304,2023-04-18 13:40:59.808943,2023-04-18 13:41:00.853426,DD030.jpg,0,10603,40-69,2023_Apr_18_1335,Recall,2021.2.3,59.93788043800888,
,L_SD504.jpg,1,L_MF504.jpg,1,,,,,0,77,77,93,imgFunc,1,NA,1.9399520996958017,320.67187329987064,322.70175733976066,2023-04-18 13:41:00.861407,2023-04-18 13:41:02.888439,L_SD504.jpg,1,10603,40-69,2023_Apr_18_1335,Recall,2021.2.3,59.93788043800888,
,SD029.jpg,0,MF029.jpg,0,,,,,0,78,78,78,imgFunc,9,NA,1.2663245000876486,322.7050735000521,324.0504026398994,2023-04-18 13:41:02.896325,2023-04-18 13:41:04.238884,SD029.jpg,0,10603,40-69,2023_Apr_18_1335,Recall,2021.2.3,59.93788043800888,
,DD012.jpg,0,FF012.jpg,0,,,,,0,79,79,11,imgFunc,9,NA,1.326409799978137,324.05304990010336,325.46611463977024,2023-04-18 13:41:04.246691,2023-04-18 13:41:05.656563,DD012.jpg,0,10603,40-69,2023_Apr_18_1335,Recall,2021.2.3,59.93788043800888,
,DD025.jpg,0,FF025.jpg,0,,,,,0,80,80,24,imgFunc,1,NA,1.1308769998140633,325.47261419985443,326.6846815398894,2023-04-18 13:41:05.664326,2023-04-18 13:41:06.874096,DD025.jpg,0,10603,40-69,2023_Apr_18_1335,Recall,2021.2.3,59.93788043800888,
,DD034.jpg,0,FF034.jpg,0,,,,,0,81,81,33,imgFunc,1,NA,1.239326999988407,326.6921489997767,328.0233218395151,2023-04-18 13:41:06.880894,2023-04-18 13:41:08.208261,DD034.jpg,0,10603,40-69,2023_Apr_18_1335,Recall,2021.2.3,59.93788043800888,
,SD037.jpg,0,MF037.jpg,0,,,,,0,82,82,86,imgFunc,1,NA,1.3247905001044273,328.03100269986317,329.44379513990134,2023-04-18 13:41:08.216036,2023-04-18 13:41:09.625970,SD037.jpg,0,10603,40-69,2023_Apr_18_1335,Recall,2021.2.3,59.93788043800888,
,SD010.jpg,0,MF010.jpg,0,,,,,0,83,83,59,imgFunc,1,NA,1.2199093997478485,329.4394744001329,330.7372411401011,2023-04-18 13:41:09.633780,2023-04-18 13:41:10.926890,SD010.jpg,0,10603,40-69,2023_Apr_18_1335,Recall,2021.2.3,59.93788043800888,
,SD034.jpg,0,MF034.jpg,0,,,,,0,84,84,83,imgFunc,9,NA,4.1552141001448035,330.74416220001876,334.99386934004724,2023-04-18 13:41:10.934643,2023-04-18 13:41:15.180954,SD034.jpg,0,10603,40-69,2023_Apr_18_1335,Recall,2021.2.3,59.93788043800888,
,L_DD503.jpg,1,L_FF503.jpg,1,,,,,0,85,85,42,imgFunc,9,NA,1.1258455999195576,334.9977239998989,336.20784443989396,2023-04-18 13:41:15.188716,2023-04-18 13:41:16.397082,L_DD503.jpg,1,10603,40-69,2023_Apr_18_1335,Recall,2021.2.3,59.93788043800888,
,SD028.jpg,0,MF028.jpg,0,,,,,0,86,86,77,imgFunc,1,NA,1.1272371001541615,336.21227469993755,337.42698533972725,2023-04-18 13:41:16.404884,2023-04-18 13:41:17.615585,SD028.jpg,0,10603,40-69,2023_Apr_18_1335,Recall,2021.2.3,59.93788043800888,
,DD028.jpg,0,FF028.jpg,0,,,,,0,87,87,27,imgFunc,9,NA,4.299968400038779,337.4313988001086,341.8119890396483,2023-04-18 13:41:17.623540,2023-04-18 13:41:22.002055,DD028.jpg,0,10603,40-69,2023_Apr_18_1335,Recall,2021.2.3,59.93788043800888,
,SD030.jpg,0,MF030.jpg,0,,,,,0,88,88,79,imgFunc,9,NA,1.4569876003079116,341.8263129000552,343.3705255398527,2023-04-18 13:41:22.010055,2023-04-18 13:41:23.552483,SD030.jpg,0,10603,40-69,2023_Apr_18_1335,Recall,2021.2.3,59.93788043800888,
,DD002.jpg,0,FF002.jpg,0,,,,,0,89,89,1,imgFunc,1,NA,1.0660822000354528,343.3691929001361,344.51552073983476,2023-04-18 13:41:23.560266,2023-04-18 13:41:24.703321,DD002.jpg,0,10603,40-69,2023_Apr_18_1335,Recall,2021.2.3,59.93788043800888,
,L_SD505.jpg,1,L_MF505.jpg,1,,,,,0,90,90,94,imgFunc,9,NA,2.402350699994713,344.5209462000057,347.01914573973045,2023-04-18 13:41:24.711116,2023-04-18 13:41:27.205050,L_SD505.jpg,1,10603,40-69,2023_Apr_18_1335,Recall,2021.2.3,59.93788043800888,
,L_DD505.jpg,1,L_FF505.jpg,1,,,,,0,91,91,44,imgFunc,1,NA,1.090632800012827,347.0328069999814,348.2143098395318,2023-04-18 13:41:27.211811,2023-04-18 13:41:28.390317,L_DD505.jpg,1,10603,40-69,2023_Apr_18_1335,Recall,2021.2.3,59.93788043800888,
,SD008.jpg,0,MF008.jpg,0,,,,,0,92,92,57,imgFunc,1,NA,10.309681900311261,348.2057171999477,358.60801143944263,2023-04-18 13:41:28.398083,2023-04-18 13:41:38.797852,SD008.jpg,0,10603,40-69,2023_Apr_18_1335,Recall,2021.2.3,59.93788043800888,
,L_SD508.jpg,1,L_MF508.jpg,1,,,,,0,93,93,97,imgFunc,9,NA,1.1715955999679863,358.6477485001087,359.9385427404195,2023-04-18 13:41:38.807615,2023-04-18 13:41:40.097661,L_SD508.jpg,1,10603,40-69,2023_Apr_18_1335,Recall,2021.2.3,59.93788043800888,
,SD038.jpg,0,MF038.jpg,0,,,,,0,94,94,87,imgFunc,9,NA,1.163784600328654,359.9116142001003,361.15895334025845,2023-04-18 13:41:40.105434,2023-04-18 13:41:41.348283,SD038.jpg,0,10603,40-69,2023_Apr_18_1335,Recall,2021.2.3,59.93788043800888,
,L_SD503.jpg,1,L_MF503.jpg,1,,,,,0,95,95,92,imgFunc,9,NA,2.4627304999157786,361.1646143998951,363.7126540397294,2023-04-18 13:41:41.356115,2023-04-18 13:41:43.900413,L_SD503.jpg,1,10603,40-69,2023_Apr_18_1335,Recall,2021.2.3,59.93788043800888,
,SD006.jpg,0,MF006.jpg,0,,,,,0,96,96,55,imgFunc,1,NA,1.215239499695599,363.7161340001039,365.00987904006615,2023-04-18 13:41:43.909237,2023-04-18 13:41:45.201959,SD006.jpg,0,10603,40-69,2023_Apr_18_1335,Recall,2021.2.3,59.93788043800888,
,DD007.jpg,0,FF007.jpg,0,,,,,0,97,97,6,imgFunc,9,NA,1.230626099742949,365.0206466000527,366.3342744400725,2023-04-18 13:41:45.208940,2023-04-18 13:41:46.519073,DD007.jpg,0,10603,40-69,2023_Apr_18_1335,Recall,2021.2.3,59.93788043800888,
,DD024.jpg,0,FF024.jpg,0,,,,,0,98,98,23,imgFunc,9,NA,1.020078199915588,366.3352568000555,367.4484522398561,2023-04-18 13:41:46.526841,2023-04-18 13:41:47.636396,DD024.jpg,0,10603,40-69,2023_Apr_18_1335,Recall,2021.2.3,59.93788043800888,
,SD012.jpg,0,MF012.jpg,0,,,,,0,99,99,61,imgFunc,1,NA,0.9887600997462869,367.454561999999,368.53486974025145,2023-04-18 13:41:47.644166,2023-04-18 13:41:48.720786,SD012.jpg,0,10603,40-69,2023_Apr_18_1335,Recall,2021.2.3,59.93788043800888,
,,,,,,,,,,,,,instrFunc,space,"Great work! 

 Now you will switch to the other image type.

 Press the spacebar whenever you are ready to start.",5.359304300043732,368.47604089975357,373.871830239892,2023-04-18 13:41:48.721573,2023-04-18 13:41:54.106376,,,10603,40-69,2023_Apr_18_1335,Recall,2021.2.3,59.93788043800888,
,L_SD510.jpg,1,L_MF510.jpg,1,,,,,0,0,0,99,imgFunc,1,NA,5.241237400099635,373.95423540007323,379.2850129199214,2023-04-18 13:41:54.141285,2023-04-18 13:41:59.462721,L_MF510.jpg,1,10603,40-69,2023_Apr_18_1335,Recall,2021.2.3,59.93788043800888,
,SD007.jpg,0,MF007.jpg,0,,,,,0,1,1,56,imgFunc,1,NA,2.010067000053823,379.2892684000544,381.3988112397492,2023-04-18 13:41:59.471500,2023-04-18 13:42:01.579967,MF007.jpg,0,10603,40-69,2023_Apr_18_1335,Recall,2021.2.3,59.93788043800888,
,DD004.jpg,0,FF004.jpg,0,,,,,0,2,2,3,imgFunc,1,NA,1.2432904997840524,381.40013429988176,382.7292891400866,2023-04-18 13:42:01.587715,2023-04-18 13:42:02.914027,FF004.jpg,0,10603,40-69,2023_Apr_18_1335,Recall,2021.2.3,59.93788043800888,
,SD015.jpg,0,MF015.jpg,0,,,,,0,3,3,64,imgFunc,1,NA,1.1973919002339244,382.73388329986483,384.0151553400792,2023-04-18 13:42:02.920925,2023-04-18 13:42:04.199211,MF015.jpg,0,10603,40-69,2023_Apr_18_1335,Recall,2021.2.3,59.93788043800888,
,SD038.jpg,0,MF038.jpg,0,,,,,0,4,4,87,imgFunc,1,NA,1.3944255001842976,384.01678369985893,385.49576083989814,2023-04-18 13:42:04.206191,2023-04-18 13:42:05.682995,MF038.jpg,0,10603,40-69,2023_Apr_18_1335,Recall,2021.2.3,59.93788043800888,
,DD036.jpg,0,FF036.jpg,0,,,,,0,5,5,35,imgFunc,1,NA,1.530405200086534,385.50494930008426,387.1355176400393,2023-04-18 13:42:05.690755,2023-04-18 13:42:07.317531,FF036.jpg,0,10603,40-69,2023_Apr_18_1335,Recall,2021.2.3,59.93788043800888,
,DD023.jpg,0,FF023.jpg,0,,,,,0,6,6,22,imgFunc,1,NA,1.3855519997887313,387.13781460002065,388.6182512398809,2023-04-18 13:42:07.324309,2023-04-18 13:42:08.801744,FF023.jpg,0,10603,40-69,2023_Apr_18_1335,Recall,2021.2.3,59.93788043800888,
,DD034.jpg,0,FF034.jpg,0,,,,,0,7,7,33,imgFunc,9,NA,5.536991599947214,388.6184010999277,394.2362966397777,2023-04-18 13:42:08.808520,2023-04-18 13:42:14.422548,FF034.jpg,0,10603,40-69,2023_Apr_18_1335,Recall,2021.2.3,59.93788043800888,
,SD004.jpg,0,MF004.jpg,0,,,,,0,8,8,53,imgFunc,1,NA,1.175642200279981,394.2515703998506,395.52876533940434,2023-04-18 13:42:14.431358,2023-04-18 13:42:15.707542,MF004.jpg,0,10603,40-69,2023_Apr_18_1335,Recall,2021.2.3,59.93788043800888,
,L_SD508.jpg,1,L_MF508.jpg,1,,,,,0,9,9,97,imgFunc,1,NA,1.1187420999631286,395.524403499905,396.7369662397541,2023-04-18 13:42:15.715330,2023-04-18 13:42:16.925034,L_MF508.jpg,1,10603,40-69,2023_Apr_18_1335,Recall,2021.2.3,59.93788043800888,
,L_SD503.jpg,1,L_MF503.jpg,1,,,,,0,10,10,92,imgFunc,1,NA,0.8810247001238167,396.74620410008356,397.7252840399742,2023-04-18 13:42:16.932017,2023-04-18 13:42:17.908365,L_MF503.jpg,1,10603,40-69,2023_Apr_18_1335,Recall,2021.2.3,59.93788043800888,
,SD012.jpg,0,MF012.jpg,0,,,,,0,11,11,61,imgFunc,1,NA,0.9428987000137568,397.72444179980084,398.75565903959796,2023-04-18 13:42:17.915136,2023-04-18 13:42:18.943188,MF012.jpg,0,10603,40-69,2023_Apr_18_1335,Recall,2021.2.3,59.93788043800888,
,SD014.jpg,0,MF014.jpg,0,,,,,0,12,12,63,imgFunc,1,NA,1.0073250997811556,398.76390000013635,399.8592992401682,2023-04-18 13:42:18.951025,2023-04-18 13:42:20.044260,MF014.jpg,0,10603,40-69,2023_Apr_18_1335,Recall,2021.2.3,59.93788043800888,
,SD010.jpg,0,MF010.jpg,0,,,,,0,13,13,59,imgFunc,1,NA,1.0932773002423346,399.86197659978643,401.0408966396935,2023-04-18 13:42:20.052037,2023-04-18 13:42:21.228227,MF010.jpg,0,10603,40-69,2023_Apr_18_1335,Recall,2021.2.3,59.93788043800888,
,SD019.jpg,0,MF019.jpg,0,,,,,0,14,14,68,imgFunc,1,NA,1.3377986000850797,401.0499215000309,402.47890443960205,2023-04-18 13:42:21.236168,2023-04-18 13:42:22.661695,MF019.jpg,0,10603,40-69,2023_Apr_18_1335,Recall,2021.2.3,59.93788043800888,
,DD030.jpg,0,FF030.jpg,0,,,,,0,15,15,29,imgFunc,1,NA,1.4492162000387907,402.48204510007054,404.0278649395332,2023-04-18 13:42:22.669506,2023-04-18 13:42:24.213002,FF030.jpg,0,10603,40-69,2023_Apr_18_1335,Recall,2021.2.3,59.93788043800888,
,SD028.jpg,0,MF028.jpg,0,,,,,0,16,16,77,imgFunc,1,NA,1.0740729998797178,404.0332208001055,405.19616664014757,2023-04-18 13:42:24.220789,2023-04-18 13:42:25.380236,MF028.jpg,0,10603,40-69,2023_Apr_18_1335,Recall,2021.2.3,59.93788043800888,
,SD033.jpg,0,MF033.jpg,0,,,,,0,17,17,82,imgFunc,1,NA,1.1715770000591874,405.1997620998882,406.4627993395552,2023-04-18 13:42:25.388104,2023-04-18 13:42:26.647798,MF033.jpg,0,10603,40-69,2023_Apr_18_1335,Recall,2021.2.3,59.93788043800888,
,SD035.jpg,0,MF035.jpg,0,,,,,0,18,18,84,imgFunc,1,NA,1.1654857001267374,406.4695505001582,407.73287833994254,2023-04-18 13:42:26.655602,2023-04-18 13:42:27.916274,MF035.jpg,0,10603,40-69,2023_Apr_18_1335,Recall,2021.2.3,59.93788043800888,
,SD018.jpg,0,MF018.jpg,0,,,,,0,19,19,67,imgFunc,9,NA,1.149864099919796,407.7334328000434,408.96258134022355,2023-04-18 13:42:27.924254,2023-04-18 13:42:29.150782,MF018.jpg,0,10603,40-69,2023_Apr_18_1335,Recall,2021.2.3,59.93788043800888,
,DD012.jpg,0,FF012.jpg,0,,,,,0,20,20,11,imgFunc,1,NA,2.1712726997211576,408.9680694998242,411.230326639954,2023-04-18 13:42:29.157591,2023-04-18 13:42:31.417692,FF012.jpg,0,10603,40-69,2023_Apr_18_1335,Recall,2021.2.3,59.93788043800888,
,SD008.jpg,0,MF008.jpg,0,,,,,0,21,21,57,imgFunc,9,NA,1.3672596998512745,411.23608870012686,412.70130953984335,2023-04-18 13:42:31.424649,2023-04-18 13:42:32.886378,MF008.jpg,0,10603,40-69,2023_Apr_18_1335,Recall,2021.2.3,59.93788043800888,
,L_SD507.jpg,1,L_MF507.jpg,1,,,,,0,22,22,96,imgFunc,9,NA,1.1377392001450062,412.7055251998827,413.9342049397528,2023-04-18 13:42:32.893348,2023-04-18 13:42:34.119876,L_MF507.jpg,1,10603,40-69,2023_Apr_18_1335,Recall,2021.2.3,59.93788043800888,
,DD006.jpg,0,FF006.jpg,0,,,,,0,23,23,5,imgFunc,9,NA,2.8577583003789186,413.93757739989087,416.88586423918605,2023-04-18 13:42:34.127649,2023-04-18 13:42:37.072159,FF006.jpg,0,10603,40-69,2023_Apr_18_1335,Recall,2021.2.3,59.93788043800888,
,DD018.jpg,0,FF018.jpg,0,,,,,0,24,24,17,imgFunc,1,NA,1.0174199999310076,416.8896658997983,418.0029813395813,2023-04-18 13:42:37.078937,2023-04-18 13:42:38.189301,FF018.jpg,0,10603,40-69,2023_Apr_18_1335,Recall,2021.2.3,59.93788043800888,
,SD027.jpg,0,MF027.jpg,0,,,,,0,25,25,76,imgFunc,1,NA,2.4778559003025293,418.00549580017105,420.57035973947495,2023-04-18 13:42:38.196292,2023-04-18 13:42:40.758001,MF027.jpg,0,10603,40-69,2023_Apr_18_1335,Recall,2021.2.3,59.93788043800888,
,DD005.jpg,0,FF005.jpg,0,,,,,0,26,26,4,imgFunc,9,NA,1.2679212996736169,420.5753224999644,421.93944393936545,2023-04-18 13:42:40.765799,2023-04-18 13:42:42.126795,FF005.jpg,0,10603,40-69,2023_Apr_18_1335,Recall,2021.2.3,59.93788043800888,
,SD032.jpg,0,MF032.jpg,0,,,,,0,27,27,81,imgFunc,1,NA,11.466521400026977,421.9445953001268,433.4956152397208,2023-04-18 13:42:42.134613,2023-04-18 13:42:53.684089,MF032.jpg,0,10603,40-69,2023_Apr_18_1335,Recall,2021.2.3,59.93788043800888,
,DD002.jpg,0,FF002.jpg,0,,,,,0,28,28,1,imgFunc,1,NA,1.5236304998397827,433.5356020000763,435.17609974043444,2023-04-18 13:42:53.694877,2023-04-18 13:42:55.335519,FF002.jpg,0,10603,40-69,2023_Apr_18_1335,Recall,2021.2.3,59.93788043800888,
,DD016.jpg,0,FF016.jpg,0,,,,,0,29,29,15,imgFunc,1,NA,1.073781100101769,435.153566500172,436.31690564006567,2023-04-18 13:42:55.343432,2023-04-18 13:42:56.503377,FF016.jpg,0,10603,40-69,2023_Apr_18_1335,Recall,2021.2.3,59.93788043800888,
,DD020.jpg,0,FF020.jpg,0,,,,,0,30,30,19,imgFunc,1,NA,1.7616163999773562,436.3216997999698,438.1673145396635,2023-04-18 13:42:56.511176,2023-04-18 13:42:58.354314,FF020.jpg,0,10603,40-69,2023_Apr_18_1335,Recall,2021.2.3,59.93788043800888,
,SD026.jpg,0,MF026.jpg,0,,,,,0,31,31,75,imgFunc,1,NA,1.911371000111103,438.171691800002,440.1696009398438,2023-04-18 13:42:58.362087,2023-04-18 13:43:00.356526,MF026.jpg,0,10603,40-69,2023_Apr_18_1335,Recall,2021.2.3,59.93788043800888,
,DD011.jpg,0,FF011.jpg,0,,,,,0,32,32,10,imgFunc,9,NA,1.5967132998630404,440.1750129000284,441.85431024013087,2023-04-18 13:43:00.364427,2023-04-18 13:43:02.041242,FF011.jpg,0,10603,40-69,2023_Apr_18_1335,Recall,2021.2.3,59.93788043800888,
,SD009.jpg,0,MF009.jpg,0,,,,,0,33,33,58,imgFunc,9,NA,1.4546739999204874,441.86061719991267,443.40574003988877,2023-04-18 13:43:02.048043,2023-04-18 13:43:03.591253,MF009.jpg,0,10603,40-69,2023_Apr_18_1335,Recall,2021.2.3,59.93788043800888,
,DD022.jpg,0,FF022.jpg,0,,,,,0,34,34,21,imgFunc,1,NA,1.5924459998495877,443.4107758998871,445.0920879393816,2023-04-18 13:43:03.599049,2023-04-18 13:43:05.276637,FF022.jpg,0,10603,40-69,2023_Apr_18_1335,Recall,2021.2.3,59.93788043800888,
,SD011.jpg,0,MF011.jpg,0,,,,,0,35,35,60,imgFunc,9,NA,1.497480799909681,445.0977411000058,446.69289844017476,2023-04-18 13:43:05.284554,2023-04-18 13:43:06.876062,MF011.jpg,0,10603,40-69,2023_Apr_18_1335,Recall,2021.2.3,59.93788043800888,
,DD028.jpg,0,FF028.jpg,0,,,,,0,36,36,27,imgFunc,1,NA,1.1976676997728646,446.6934990999289,447.9750806395896,2023-04-18 13:43:06.883876,2023-04-18 13:43:08.161297,FF028.jpg,0,10603,40-69,2023_Apr_18_1335,Recall,2021.2.3,59.93788043800888,
,DD039.jpg,0,FF039.jpg,0,,,,,0,37,37,38,imgFunc,1,NA,1.1177591998130083,447.98149339994416,449.19533063983545,2023-04-18 13:43:08.169067,2023-04-18 13:43:09.378362,FF039.jpg,0,10603,40-69,2023_Apr_18_1335,Recall,2021.2.3,59.93788043800888,
,DD033.jpg,0,FF033.jpg,0,,,,,0,38,38,32,imgFunc,9,NA,1.5674892999231815,449.19583499990404,450.8607901399955,2023-04-18 13:43:09.386158,2023-04-18 13:43:11.046421,FF033.jpg,0,10603,40-69,2023_Apr_18_1335,Recall,2021.2.3,59.93788043800888,
,DD032.jpg,0,FF032.jpg,0,,,,,0,39,39,31,imgFunc,9,NA,1.529037400148809,450.86619509989396,452.4796655396931,2023-04-18 13:43:11.054430,2023-04-18 13:43:12.664505,FF032.jpg,0,10603,40-69,2023_Apr_18_1335,Recall,2021.2.3,59.93788043800888,
,SD040.jpg,0,MF040.jpg,0,,,,,0,40,40,89,imgFunc,1,NA,1.2473131995648146,452.483784600161,453.81269543943927,2023-04-18 13:43:12.672304,2023-04-18 13:43:13.998860,MF040.jpg,0,10603,40-69,2023_Apr_18_1335,Recall,2021.2.3,59.93788043800888,
,DD015.jpg,0,FF015.jpg,0,,,,,0,41,41,14,imgFunc,9,NA,1.326501099858433,453.82061540009454,455.2335823401809,2023-04-18 13:43:14.005843,2023-04-18 13:43:15.416340,FF015.jpg,0,10603,40-69,2023_Apr_18_1335,Recall,2021.2.3,59.93788043800888,
,DD029.jpg,0,FF029.jpg,0,,,,,0,42,42,28,imgFunc,1,NA,1.3753272998146713,455.23581970017403,456.7003195397556,2023-04-18 13:43:15.424113,2023-04-18 13:43:16.885201,FF029.jpg,0,10603,40-69,2023_Apr_18_1335,Recall,2021.2.3,59.93788043800888,
,DD014.jpg,0,FF014.jpg,0,,,,,0,43,43,13,imgFunc,1,NA,1.1884253998287022,456.7028314997442,457.98068393953145,2023-04-18 13:43:16.893014,2023-04-18 13:43:18.167959,FF014.jpg,0,10603,40-69,2023_Apr_18_1335,Recall,2021.2.3,59.93788043800888,
,SD039.jpg,0,MF039.jpg,0,,,,,0,44,44,88,imgFunc,9,NA,1.5229735998436809,457.984233699739,459.59939193958417,2023-04-18 13:43:18.174940,2023-04-18 13:43:19.786991,MF039.jpg,0,10603,40-69,2023_Apr_18_1335,Recall,2021.2.3,59.93788043800888,
,SD002.jpg,0,MF002.jpg,0,,,,,0,45,45,51,imgFunc,9,NA,1.2557195001281798,459.6033805999905,460.94896463956684,2023-04-18 13:43:19.794754,2023-04-18 13:43:21.137770,MF002.jpg,0,10603,40-69,2023_Apr_18_1335,Recall,2021.2.3,59.93788043800888,
,L_DD504.jpg,1,L_FF504.jpg,1,,,,,0,46,46,43,imgFunc,1,NA,1.2230057995766401,460.9561306000687,462.26686784019694,2023-04-18 13:43:21.145710,2023-04-18 13:43:22.454417,L_FF504.jpg,1,10603,40-69,2023_Apr_18_1335,Recall,2021.2.3,59.93788043800888,
,L_DD506.jpg,1,L_FF506.jpg,1,,,,,0,47,47,45,imgFunc,9,NA,1.0100754001177847,462.27289299992844,463.37029003957286,2023-04-18 13:43:22.462215,2023-04-18 13:43:23.556383,L_FF506.jpg,1,10603,40-69,2023_Apr_18_1335,Recall,2021.2.3,59.93788043800888,
,L_SD506.jpg,1,L_MF506.jpg,1,,,,,0,48,48,95,imgFunc,9,NA,1.3375376001931727,463.377663299907,464.805180139374,2023-04-18 13:43:23.564362,2023-04-18 13:43:24.990778,L_MF506.jpg,1,10603,40-69,2023_Apr_18_1335,Recall,2021.2.3,59.93788043800888,
,DD035.jpg,0,FF035.jpg,0,,,,,0,49,49,34,imgFunc,1,NA,1.1529210000298917,464.81037769978866,466.0539496396668,2023-04-18 13:43:24.998557,2023-04-18 13:43:26.240829,FF035.jpg,0,10603,40-69,2023_Apr_18_1335,Recall,2021.2.3,59.93788043800888,
,DD040.jpg,0,FF040.jpg,0,,,,,0,50,50,39,imgFunc,1,NA,1.367621900048107,466.05945609975606,467.52287323912606,2023-04-18 13:43:26.248713,2023-04-18 13:43:27.708889,FF040.jpg,0,10603,40-69,2023_Apr_18_1335,Recall,2021.2.3,59.93788043800888,
,DD007.jpg,0,FF007.jpg,0,,,,,0,51,51,6,imgFunc,1,NA,1.3485606000758708,467.5266070999205,468.9564907392487,2023-04-18 13:43:27.716847,2023-04-18 13:43:29.143625,FF007.jpg,0,10603,40-69,2023_Apr_18_1335,Recall,2021.2.3,59.93788043800888,
,L_DD510.jpg,1,L_FF510.jpg,1,,,,,0,52,52,49,imgFunc,9,NA,1.034997799899429,468.96004380006343,470.088203240186,2023-04-18 13:43:29.151405,2023-04-18 13:43:30.276970,L_FF510.jpg,1,10603,40-69,2023_Apr_18_1335,Recall,2021.2.3,59.93788043800888,
,SD029.jpg,0,MF029.jpg,0,,,,,0,53,53,78,imgFunc,1,NA,1.3228851999156177,470.0963427000679,471.51079923985526,2023-04-18 13:43:30.284741,2023-04-18 13:43:31.695897,MF029.jpg,0,10603,40-69,2023_Apr_18_1335,Recall,2021.2.3,59.93788043800888,
,SD021.jpg,0,MF021.jpg,0,,,,,0,54,54,70,imgFunc,9,NA,1.3306780997663736,471.51255019987,472.9241352393292,2023-04-18 13:43:31.703805,2023-04-18 13:43:33.113045,MF021.jpg,0,10603,40-69,2023_Apr_18_1335,Recall,2021.2.3,59.93788043800888,
,L_DD505.jpg,1,L_FF505.jpg,1,,,,,0,55,55,44,imgFunc,1,NA,1.2942352001555264,472.9327265000902,474.3122297404334,2023-04-18 13:43:33.120025,2023-04-18 13:43:34.496845,L_FF505.jpg,1,10603,40-69,2023_Apr_18_1335,Recall,2021.2.3,59.93788043800888,
,DD031.jpg,0,FF031.jpg,0,,,,,0,56,56,30,imgFunc,1,NA,1.1451238999143243,474.3142268997617,475.5451186397113,2023-04-18 13:43:34.503829,2023-04-18 13:43:35.731838,FF031.jpg,0,10603,40-69,2023_Apr_18_1335,Recall,2021.2.3,59.93788043800888,
,L_DD509.jpg,1,L_FF509.jpg,1,,,,,0,57,57,48,imgFunc,1,NA,2.066930000204593,475.5520893000066,477.7146045397967,2023-04-18 13:43:35.739804,2023-04-18 13:43:37.899968,L_FF509.jpg,1,10603,40-69,2023_Apr_18_1335,Recall,2021.2.3,59.93788043800888,
,SD023.jpg,0,MF023.jpg,0,,,,,0,58,58,72,imgFunc,9,NA,1.051949500106275,477.7192355999723,478.86432653991506,2023-04-18 13:43:37.906951,2023-04-18 13:43:39.049952,MF023.jpg,0,10603,40-69,2023_Apr_18_1335,Recall,2021.2.3,59.93788043800888,
,L_SD505.jpg,1,L_MF505.jpg,1,,,,,0,59,59,94,imgFunc,1,NA,1.2314540999941528,478.8675877000205,480.1813325402327,2023-04-18 13:43:39.057832,2023-04-18 13:43:40.367238,L_MF505.jpg,1,10603,40-69,2023_Apr_18_1335,Recall,2021.2.3,59.93788043800888,
,SD024.jpg,0,MF024.jpg,0,,,,,0,60,60,73,imgFunc,9,NA,2.2957868999801576,480.18733499990776,482.56893763970584,2023-04-18 13:43:40.375003,2023-04-18 13:43:42.753266,MF024.jpg,0,10603,40-69,2023_Apr_18_1335,Recall,2021.2.3,59.93788043800888,
,L_DD503.jpg,1,L_FF503.jpg,1,,,,,0,61,61,42,imgFunc,1,NA,1.3756764000281692,482.57123500015587,484.0344403395429,2023-04-18 13:43:42.761016,2023-04-18 13:43:44.220324,L_FF503.jpg,1,10603,40-69,2023_Apr_18_1335,Recall,2021.2.3,59.93788043800888,
,DD024.jpg,0,FF024.jpg,0,,,,,0,62,62,23,imgFunc,1,NA,1.2579191997647285,484.041495999787,485.38898153975606,2023-04-18 13:43:44.228091,2023-04-18 13:43:45.572402,FF024.jpg,0,10603,40-69,2023_Apr_18_1335,Recall,2021.2.3,59.93788043800888,
,SD034.jpg,0,MF034.jpg,0,,,,,0,63,63,83,imgFunc,1,NA,1.1952915000729263,485.3917379998602,486.669909439981,2023-04-18 13:43:45.580214,2023-04-18 13:43:46.855274,MF034.jpg,0,10603,40-69,2023_Apr_18_1335,Recall,2021.2.3,59.93788043800888,
,DD009.jpg,0,FF009.jpg,0,,,,,0,64,64,8,imgFunc,1,NA,1.3044215003028512,486.6747948001139,488.0720749399625,2023-04-18 13:43:46.863068,2023-04-18 13:43:48.256577,FF009.jpg,0,10603,40-69,2023_Apr_18_1335,Recall,2021.2.3,59.93788043800888,
,L_SD501.jpg,1,L_MF501.jpg,1,,,,,0,65,65,90,imgFunc,9,NA,3.5359631003811955,488.07490220014006,491.7070123399608,2023-04-18 13:43:48.264382,2023-04-18 13:43:51.893213,L_MF501.jpg,1,10603,40-69,2023_Apr_18_1335,Recall,2021.2.3,59.93788043800888,
,SD003.jpg,0,MF003.jpg,0,,,,,0,66,66,52,imgFunc,1,NA,1.4199435003101826,491.71117309993133,493.22427563974634,2023-04-18 13:43:51.900196,2023-04-18 13:43:53.411132,MF003.jpg,0,10603,40-69,2023_Apr_18_1335,Recall,2021.2.3,59.93788043800888,
,DD017.jpg,0,FF017.jpg,0,,,,,0,67,67,16,imgFunc,1,NA,1.3256173003464937,493.2293945001438,494.6422963398509,2023-04-18 13:43:53.418115,2023-04-18 13:43:54.829089,FF017.jpg,0,10603,40-69,2023_Apr_18_1335,Recall,2021.2.3,59.93788043800888,
,DD038.jpg,0,FF038.jpg,0,,,,,0,68,68,37,imgFunc,9,NA,1.18856200017035,494.64665320003405,495.9245877400972,2023-04-18 13:43:54.836934,2023-04-18 13:43:56.112140,FF038.jpg,0,10603,40-69,2023_Apr_18_1335,Recall,2021.2.3,59.93788043800888,
,L_DD508.jpg,1,L_FF508.jpg,1,,,,,0,69,69,47,imgFunc,9,NA,1.2004808001220226,495.93066449975595,497.22550473967567,2023-04-18 13:43:56.121005,2023-04-18 13:43:57.414151,L_FF508.jpg,1,10603,40-69,2023_Apr_18_1335,Recall,2021.2.3,59.93788043800888,
,SD031.jpg,0,MF031.jpg,0,,,,,0,70,70,80,imgFunc,1,NA,1.625757799949497,497.2334169000387,498.94481504010037,2023-04-18 13:43:57.422110,2023-04-18 13:43:59.131145,MF031.jpg,0,10603,40-69,2023_Apr_18_1335,Recall,2021.2.3,59.93788043800888,
,SD036.jpg,0,MF036.jpg,0,,,,,0,71,71,85,imgFunc,1,NA,1.015454700216651,498.94740379974246,500.0446945396252,2023-04-18 13:43:59.137908,2023-04-18 13:44:00.232222,MF036.jpg,0,10603,40-69,2023_Apr_18_1335,Recall,2021.2.3,59.93788043800888,
,SD006.jpg,0,MF006.jpg,0,,,,,0,72,72,55,imgFunc,1,NA,3.033396900165826,500.0497078001499,503.16448024008423,2023-04-18 13:44:00.239171,2023-04-18 13:44:03.351721,MF006.jpg,0,10603,40-69,2023_Apr_18_1335,Recall,2021.2.3,59.93788043800888,
,DD010.jpg,0,FF010.jpg,0,,,,,0,73,73,9,imgFunc,1,NA,2.4416109998710454,503.1695535001345,505.6985360397957,2023-04-18 13:44:03.359521,2023-04-18 13:44:05.886348,FF010.jpg,0,10603,40-69,2023_Apr_18_1335,Recall,2021.2.3,59.93788043800888,
,L_DD501.jpg,1,L_FF501.jpg,1,,,,,0,74,74,40,imgFunc,1,NA,2.0421078000217676,505.70486410008743,507.834937939886,2023-04-18 13:44:05.893331,2023-04-18 13:44:08.020844,L_FF501.jpg,1,10603,40-69,2023_Apr_18_1335,Recall,2021.2.3,59.93788043800888,
,SD037.jpg,0,MF037.jpg,0,,,,,0,75,75,86,imgFunc,1,NA,1.5573932998813689,507.83773879986256,509.4850882398896,2023-04-18 13:44:08.028641,2023-04-18 13:44:09.672099,MF037.jpg,0,10603,40-69,2023_Apr_18_1335,Recall,2021.2.3,59.93788043800888,
,DD008.jpg,0,FF008.jpg,0,,,,,0,76,76,7,imgFunc,9,NA,1.864789499901235,509.49026759993285,511.4377320399508,2023-04-18 13:44:09.678884,2023-04-18 13:44:11.623394,FF008.jpg,0,10603,40-69,2023_Apr_18_1335,Recall,2021.2.3,59.93788043800888,
,DD025.jpg,0,FF025.jpg,0,,,,,0,77,77,24,imgFunc,1,NA,1.10494799958542,511.4421709999442,512.6385753396899,2023-04-18 13:44:11.631372,2023-04-18 13:44:12.824154,FF025.jpg,0,10603,40-69,2023_Apr_18_1335,Recall,2021.2.3,59.93788043800888,
,DD013.jpg,0,FF013.jpg,0,,,,,0,78,78,12,imgFunc,9,NA,1.4152417997829616,512.643836800009,514.1575171397999,2023-04-18 13:44:12.831927,2023-04-18 13:44:14.342047,FF013.jpg,0,10603,40-69,2023_Apr_18_1335,Recall,2021.2.3,59.93788043800888,
,SD001.jpg,0,MF001.jpg,0,,,,,0,79,79,50,imgFunc,9,NA,1.1781103000976145,514.1608989997767,515.425048539415,2023-04-18 13:44:14.349833,2023-04-18 13:44:15.609719,MF001.jpg,0,10603,40-69,2023_Apr_18_1335,Recall,2021.2.3,59.93788043800888,
,L_SD509.jpg,1,L_MF509.jpg,1,,,,,0,80,80,98,imgFunc,1,NA,1.0063086999580264,515.4292215001769,516.5258721401915,2023-04-18 13:44:15.617501,2023-04-18 13:44:16.710103,L_MF509.jpg,1,10603,40-69,2023_Apr_18_1335,Recall,2021.2.3,59.93788043800888,
,L_DD507.jpg,1,L_FF507.jpg,1,,,,,0,81,81,46,imgFunc,1,NA,2.602245599962771,516.5286945998669,519.2270767400041,2023-04-18 13:44:16.717870,2023-04-18 13:44:19.412477,L_FF507.jpg,1,10603,40-69,2023_Apr_18_1335,Recall,2021.2.3,59.93788043800888,
,DD026.jpg,0,FF026.jpg,0,,,,,0,82,82,25,imgFunc,9,NA,2.234758300241083,519.2321811998263,521.5628003398888,2023-04-18 13:44:19.419460,2023-04-18 13:44:21.747363,FF026.jpg,0,10603,40-69,2023_Apr_18_1335,Recall,2021.2.3,59.93788043800888,
,SD020.jpg,0,MF020.jpg,0,,,,,0,83,83,69,imgFunc,9,NA,1.4940511998720467,521.5650897999294,523.1458106399514,2023-04-18 13:44:21.754142,2023-04-18 13:44:23.331827,MF020.jpg,0,10603,40-69,2023_Apr_18_1335,Recall,2021.2.3,59.93788043800888,
,DD001.jpg,0,FF001.jpg,0,,,,,0,84,84,0,imgFunc,9,NA,1.2732148999348283,523.1538737001829,524.5171473398805,2023-04-18 13:44:23.339638,2023-04-18 13:44:24.699689,FF001.jpg,0,10603,40-69,2023_Apr_18_1335,Recall,2021.2.3,59.93788043800888,
,L_DD502.jpg,1,L_FF502.jpg,1,,,,,0,85,85,41,imgFunc,1,NA,1.4738133000209928,524.5213534999639,526.0850423397496,2023-04-18 13:44:24.707456,2023-04-18 13:44:26.267384,L_FF502.jpg,1,10603,40-69,2023_Apr_18_1335,Recall,2021.2.3,59.93788043800888,
,SD013.jpg,0,MF013.jpg,0,,,,,0,86,86,62,imgFunc,1,NA,3.431962599977851,526.0831605000421,529.5983307403512,2023-04-18 13:44:26.275183,2023-04-18 13:44:29.786435,MF013.jpg,0,10603,40-69,2023_Apr_18_1335,Recall,2021.2.3,59.93788043800888,
,L_SD502.jpg,1,L_MF502.jpg,1,,,,,0,87,87,91,imgFunc,9,NA,1.1494503999128938,529.6054382999428,530.8521104399115,2023-04-18 13:44:29.794324,2023-04-18 13:44:31.037256,L_MF502.jpg,1,10603,40-69,2023_Apr_18_1335,Recall,2021.2.3,59.93788043800888,
,L_SD504.jpg,1,L_MF504.jpg,1,,,,,0,88,88,93,imgFunc,9,NA,1.0474215000867844,530.8518973998725,531.983028839808,2023-04-18 13:44:31.045030,2023-04-18 13:44:32.172491,L_MF504.jpg,1,10603,40-69,2023_Apr_18_1335,Recall,2021.2.3,59.93788043800888,
,SD017.jpg,0,MF017.jpg,0,,,,,0,89,89,66,imgFunc,1,NA,1.2586399000138044,531.9924531001598,533.3370169401169,2023-04-18 13:44:32.180409,2023-04-18 13:44:33.522503,MF017.jpg,0,10603,40-69,2023_Apr_18_1335,Recall,2021.2.3,59.93788043800888,
,DD037.jpg,0,FF037.jpg,0,,,,,0,90,90,36,imgFunc,1,NA,1.0938471998088062,533.3412374998443,534.5213039396331,2023-04-18 13:44:33.530415,2023-04-18 13:44:34.706658,FF037.jpg,0,10603,40-69,2023_Apr_18_1335,Recall,2021.2.3,59.93788043800888,
,DD027.jpg,0,FF027.jpg,0,,,,,0,91,91,26,imgFunc,9,NA,1.7192734000273049,534.5235405997373,536.3390910397284,2023-04-18 13:44:34.713638,2023-04-18 13:44:36.525482,FF027.jpg,0,10603,40-69,2023_Apr_18_1335,Recall,2021.2.3,59.93788043800888,
,DD003.jpg,0,FF003.jpg,0,,,,,0,92,92,2,imgFunc,1,NA,1.7872052998282015,536.3438960998319,538.2221114393324,2023-04-18 13:44:36.533287,2023-04-18 13:44:38.409217,FF003.jpg,0,10603,40-69,2023_Apr_18_1335,Recall,2021.2.3,59.93788043800888,
,SD030.jpg,0,MF030.jpg,0,,,,,0,93,93,79,imgFunc,1,NA,1.904942899942398,538.2261316999793,540.2235392401926,2023-04-18 13:44:38.417017,2023-04-18 13:44:40.410575,MF030.jpg,0,10603,40-69,2023_Apr_18_1335,Recall,2021.2.3,59.93788043800888,
,DD021.jpg,0,FF021.jpg,0,,,,,0,94,94,20,imgFunc,9,NA,2.0778022999875247,540.2292073001154,542.3932370399125,2023-04-18 13:44:40.418492,2023-04-18 13:44:42.579081,FF021.jpg,0,10603,40-69,2023_Apr_18_1335,Recall,2021.2.3,59.93788043800888,
,SD005.jpg,0,MF005.jpg,0,,,,,0,95,95,54,imgFunc,9,NA,1.6536428001709282,542.3973404001445,544.1456674397923,2023-04-18 13:44:42.585882,2023-04-18 13:44:44.331039,MF005.jpg,0,10603,40-69,2023_Apr_18_1335,Recall,2021.2.3,59.93788043800888,
,DD019.jpg,0,FF019.jpg,0,,,,,0,96,96,18,imgFunc,9,NA,1.1911856001242995,544.1478870999999,545.4271366400644,2023-04-18 13:44:44.338883,2023-04-18 13:44:45.615451,FF019.jpg,0,10603,40-69,2023_Apr_18_1335,Recall,2021.2.3,59.93788043800888,
,SD025.jpg,0,MF025.jpg,0,,,,,0,97,97,74,imgFunc,1,NA,1.3448919001966715,545.434172899928,546.8629696397111,2023-04-18 13:44:45.623247,2023-04-18 13:44:47.049625,MF025.jpg,0,10603,40-69,2023_Apr_18_1335,Recall,2021.2.3,59.93788043800888,
,SD016.jpg,0,MF016.jpg,0,,,,,0,98,98,65,imgFunc,9,NA,1.1127315000630915,546.866339799948,548.0617428394035,2023-04-18 13:44:47.057516,2023-04-18 13:44:48.250139,MF016.jpg,0,10603,40-69,2023_Apr_18_1335,Recall,2021.2.3,59.93788043800888,
,SD022.jpg,0,MF022.jpg,0,,,,,0,99,99,71,imgFunc,1,NA,1.1727558001875877,548.0701838000678,549.332955439575,2023-04-18 13:44:48.257962,2023-04-18 13:44:49.517251,MF022.jpg,0,10603,40-69,2023_Apr_18_1335,Recall,2021.2.3,59.93788043800888,
