instrText,stimDoor,stimDoorLure,stimFace,stimFaceLure,Instructions.thisRepN,Instructions.thisTrialN,Instructions.thisN,Instructions.thisIndex,Trials.thisRepN,Trials.thisTrialN,Trials.thisN,Trials.thisIndex,Func,Keys,Text,RespTime,Onset,Offset,SystemTime_Start,SystemTime_Stop,Stim,Lure,Participant*,Age,date,expName,psychopyVersion,frameRate,
"In the earlier Feedback Games, you chose which doors contained a prize, and which peers liked you. 

You then saw positive or negative feedback (green check mark or red X) from the door or peer you selected.

You will now see a series of doors and peers, some of which you saw during the earlier Feedback Games, and some that you have never seen before.

Please press the spacebar to continue.",,,,,0,0,0,0,,,,,instrFunc,space,"In the earlier Feedback Games, you chose which doors contained a prize, and which peers liked you. 

You then saw positive or negative feedback (green check mark or red X) from the door or peer you selected.

You will now see a series of doors and peers, some of which you saw during the earlier Feedback Games, and some that you have never seen before.

Please press the spacebar to continue.",192.25322440010495,211.09737259987742,403.4167512508575,2024-02-01 12:27:56.262283,2024-02-01 12:31:08.575500,,,10858,70-89+,2024-02-01_12h27.52.262,Recall,2021.2.3,59.87547103691211,
"For doors/peers that you remember selecting and getting feedback from, your job is to RECALL what feedback you received. 

Press '1' if you recall positive feedback. 

Press '2' if you recall negative feedback

Press the spacebar to continue.",,,,,0,1,1,1,,,,,instrFunc,space,"For doors/peers that you remember selecting and getting feedback from, your job is to RECALL what feedback you received. 

Press '1' if you recall positive feedback. 

Press '2' if you recall negative feedback

Press the spacebar to continue.",11.845199200091884,403.39329749997705,415.28166935010813,2024-02-01 12:31:08.576500,2024-02-01 12:31:20.449893,,,10858,70-89+,2024-02-01_12h27.52.262,Recall,2021.2.3,59.87547103691211,
"For doors/peers that you don't remember getting feedback from, your job is to PREDICT what feedback you WOULD HAVE received.

Press '9' if you predict positive feedback.

Press '0' if you predict negative feedback. 

Please press the spacebar to continue.",,,,,0,2,2,2,,,,,instrFunc,space,"For doors/peers that you don't remember getting feedback from, your job is to PREDICT what feedback you WOULD HAVE received.

Press '9' if you predict positive feedback.

Press '0' if you predict negative feedback. 

Please press the spacebar to continue.",13.05449409992434,415.27220089989714,428.3797323498875,2024-02-01 12:31:20.450917,2024-02-01 12:31:33.543091,,,10858,70-89+,2024-02-01_12h27.52.262,Recall,2021.2.3,59.87547103691211,
"This task is self-paced, and the prompts will always stay on the screen so that you know which buttons to press.

On the next screen we will show you what those prompts look like, so that you know exactly what to expect. 

You will start with either doors or peers, and then switch halfway through. 

Please press the spacebar to continue.",,,,,0,3,3,3,,,,,instrFunc,space,"This task is self-paced, and the prompts will always stay on the screen so that you know which buttons to press.

On the next screen we will show you what those prompts look like, so that you know exactly what to expect. 

You will start with either doors or peers, and then switch halfway through. 

Please press the spacebar to continue.",6.599568899953738,428.35898209991865,435.0118147500325,2024-02-01 12:31:33.544091,2024-02-01 12:31:40.181411,,,10858,70-89+,2024-02-01_12h27.52.262,Recall,2021.2.3,59.87547103691211,
,,,,,,,,,,,,,imgtextFunc,space,"Here is what the screen will look like while you make your ratings.
The green circles remind you to press 1 or 9 for positive feedback.
The red circles remind you to press 2 or 0 for negative feedback.









Please let the experimenter know if you have any questions.

Whenever you're ready, press the spacebar to start the task.",20.071669399971142,435.14323389995843,455.3868004498072,2024-02-01 12:31:40.192384,2024-02-01 12:32:00.430145,,,10858,70-89+,2024-02-01_12h27.52.262,Recall,2021.2.3,59.87547103691211,
,DD002.jpg,0,FF002.jpg,0,,,,,0,0,0,1,imgFunc,1,NA,18.725359099917114,455.3933272000868,474.27258534985594,2024-02-01 12:32:00.471588,2024-02-01 12:32:19.343099,FF002.jpg,0,10858,70-89+,2024-02-01_12h27.52.262,Recall,2021.2.3,59.87547103691211,
,L_DD502.jpg,1,L_FF502.jpg,1,,,,,0,1,1,41,imgFunc,0,NA,5.71760610002093,474.2647418999113,480.1137281500269,2024-02-01 12:32:19.354071,2024-02-01 12:32:25.197261,L_FF502.jpg,1,10858,70-89+,2024-02-01_12h27.52.262,Recall,2021.2.3,59.87547103691211,
,L_SD502.jpg,1,L_MF502.jpg,1,,,,,0,2,2,91,imgFunc,2,NA,3.859167499933392,480.09929069993086,484.0834638499655,2024-02-01 12:32:25.206239,2024-02-01 12:32:29.182918,L_MF502.jpg,1,10858,70-89+,2024-02-01_12h27.52.262,Recall,2021.2.3,59.87547103691211,
,SD015.jpg,0,MF015.jpg,0,,,,,0,3,3,64,imgFunc,1,NA,7.218960799975321,484.0754605999682,491.406400549924,2024-02-01 12:32:29.194889,2024-02-01 12:32:36.522100,MF015.jpg,0,10858,70-89+,2024-02-01_12h27.52.262,Recall,2021.2.3,59.87547103691211,
,SD022.jpg,0,MF022.jpg,0,,,,,0,4,4,71,imgFunc,1,NA,1.577300500124693,491.41312690009363,493.0948188502807,2024-02-01 12:32:36.531077,2024-02-01 12:32:38.206418,MF022.jpg,0,10858,70-89+,2024-02-01_12h27.52.262,Recall,2021.2.3,59.87547103691211,
,SD030.jpg,0,MF030.jpg,0,,,,,0,5,5,79,imgFunc,2,NA,1.3668849000241607,493.08759270003065,494.5564164503012,2024-02-01 12:32:38.214420,2024-02-01 12:32:39.674172,MF030.jpg,0,10858,70-89+,2024-02-01_12h27.52.262,Recall,2021.2.3,59.87547103691211,
,DD026.jpg,0,FF026.jpg,0,,,,,0,6,6,25,imgFunc,1,NA,5.800235100090504,494.5662340000272,500.4722423499916,2024-02-01 12:32:39.681155,2024-02-01 12:32:45.578686,FF026.jpg,0,10858,70-89+,2024-02-01_12h27.52.262,Recall,2021.2.3,59.87547103691211,
,DD032.jpg,0,FF032.jpg,0,,,,,0,7,7,31,imgFunc,9,NA,2.6037878999486566,500.4986646999605,503.23469525016844,2024-02-01 12:32:45.594645,2024-02-01 12:32:48.330553,FF032.jpg,0,10858,70-89+,2024-02-01_12h27.52.262,Recall,2021.2.3,59.87547103691211,
,SD026.jpg,0,MF026.jpg,0,,,,,0,8,8,75,imgFunc,9,NA,0.9388027999084443,503.2115758000873,504.2465422498062,2024-02-01 12:32:48.338534,2024-02-01 12:32:49.364676,MF026.jpg,0,10858,70-89+,2024-02-01_12h27.52.262,Recall,2021.2.3,59.87547103691211,
,DD031.jpg,0,FF031.jpg,0,,,,,0,9,9,30,imgFunc,9,NA,2.6589056998491287,504.2434739000164,506.99671584996395,2024-02-01 12:32:49.371659,2024-02-01 12:32:52.116597,FF031.jpg,0,10858,70-89+,2024-02-01_12h27.52.262,Recall,2021.2.3,59.87547103691211,
,DD023.jpg,0,FF023.jpg,0,,,,,0,10,10,22,imgFunc,2,NA,2.4950961000286043,506.9993068999611,509.601947450079,2024-02-01 12:32:52.124600,2024-02-01 12:32:54.718167,FF023.jpg,0,10858,70-89+,2024-02-01_12h27.52.262,Recall,2021.2.3,59.87547103691211,
,DD021.jpg,0,FF021.jpg,0,,,,,0,11,11,20,imgFunc,1,NA,3.952440599910915,509.6060057999566,513.6602686501574,2024-02-01 12:32:54.726030,2024-02-01 12:32:58.771368,FF021.jpg,0,10858,70-89+,2024-02-01_12h27.52.262,Recall,2021.2.3,59.87547103691211,
,DD034.jpg,0,FF034.jpg,0,,,,,0,12,12,33,imgFunc,2,NA,6.5365240999963135,513.6700162000488,520.3087690500543,2024-02-01 12:32:58.787327,2024-02-01 12:33:05.425817,FF034.jpg,0,10858,70-89+,2024-02-01_12h27.52.262,Recall,2021.2.3,59.87547103691211,
,SD039.jpg,0,MF039.jpg,0,,,,,0,13,13,88,imgFunc,1,NA,6.6410810998640954,520.3093059000093,527.0459540500306,2024-02-01 12:33:05.434795,2024-02-01 12:33:12.164166,MF039.jpg,0,10858,70-89+,2024-02-01_12h27.52.262,Recall,2021.2.3,59.87547103691211,
,DD004.jpg,0,FF004.jpg,0,,,,,0,14,14,3,imgFunc,2,NA,4.102272099815309,527.0641165999696,531.2818313499447,2024-02-01 12:33:12.173143,2024-02-01 12:33:16.383714,FF004.jpg,0,10858,70-89+,2024-02-01_12h27.52.262,Recall,2021.2.3,59.87547103691211,
,DD019.jpg,0,FF019.jpg,0,,,,,0,15,15,18,imgFunc,2,NA,0.7098278000485152,531.2726288000122,532.0906238502357,2024-02-01 12:33:16.391695,2024-02-01 12:33:17.201056,FF019.jpg,0,10858,70-89+,2024-02-01_12h27.52.262,Recall,2021.2.3,59.87547103691211,
,L_SD509.jpg,1,L_MF509.jpg,1,,,,,0,16,16,98,imgFunc,2,NA,1.519089300185442,532.0872210999951,533.7066342500038,2024-02-01 12:33:17.208039,2024-02-01 12:33:18.819229,L_MF509.jpg,1,10858,70-89+,2024-02-01_12h27.52.262,Recall,2021.2.3,59.87547103691211,
,SD007.jpg,0,MF007.jpg,0,,,,,0,17,17,56,imgFunc,9,NA,3.116681900108233,533.7138429000042,536.9350121500902,2024-02-01 12:33:18.834190,2024-02-01 12:33:22.054630,MF007.jpg,0,10858,70-89+,2024-02-01_12h27.52.262,Recall,2021.2.3,59.87547103691211,
,SD005.jpg,0,MF005.jpg,0,,,,,0,18,18,54,imgFunc,2,NA,5.863468000199646,536.9348663000856,542.9075502501801,2024-02-01 12:33:22.061614,2024-02-01 12:33:28.025644,MF005.jpg,0,10858,70-89+,2024-02-01_12h27.52.262,Recall,2021.2.3,59.87547103691211,
,DD009.jpg,0,FF009.jpg,0,,,,,0,19,19,8,imgFunc,1,NA,3.4951873999089003,542.9111832999624,546.511698550079,2024-02-01 12:33:28.034621,2024-02-01 12:33:31.628027,FF009.jpg,0,10858,70-89+,2024-02-01_12h27.52.262,Recall,2021.2.3,59.87547103691211,
,SD023.jpg,0,MF023.jpg,0,,,,,0,20,20,72,imgFunc,1,NA,7.175073199905455,546.5270883000921,553.8173856502399,2024-02-01 12:33:31.635010,2024-02-01 12:33:38.916930,MF023.jpg,0,10858,70-89+,2024-02-01_12h27.52.262,Recall,2021.2.3,59.87547103691211,
,L_SD510.jpg,1,L_MF510.jpg,1,,,,,0,21,21,99,imgFunc,9,NA,1.6879934000317007,553.8224794000853,555.6372174501885,2024-02-01 12:33:38.925929,2024-02-01 12:33:40.734430,L_MF510.jpg,1,10858,70-89+,2024-02-01_12h27.52.262,Recall,2021.2.3,59.87547103691211,
,DD001.jpg,0,FF001.jpg,0,,,,,0,22,22,0,imgFunc,9,NA,3.860483800061047,555.6178713000845,559.5885614503641,2024-02-01 12:33:40.741433,2024-02-01 12:33:44.704048,FF001.jpg,0,10858,70-89+,2024-02-01_12h27.52.262,Recall,2021.2.3,59.87547103691211,
,DD038.jpg,0,FF038.jpg,0,,,,,0,23,23,37,imgFunc,9,NA,0.9129790000151843,559.5813857999165,560.5997853500303,2024-02-01 12:33:44.712050,2024-02-01 12:33:45.721712,FF038.jpg,0,10858,70-89+,2024-02-01_12h27.52.262,Recall,2021.2.3,59.87547103691211,
,SD006.jpg,0,MF006.jpg,0,,,,,0,24,24,55,imgFunc,2,NA,2.5344386000651866,560.6077097000089,563.2421321498696,2024-02-01 12:33:45.729693,2024-02-01 12:33:48.356608,MF006.jpg,0,10858,70-89+,2024-02-01_12h27.52.262,Recall,2021.2.3,59.87547103691211,
,L_DD503.jpg,1,L_FF503.jpg,1,,,,,0,25,25,42,imgFunc,0,NA,2.3301627999171615,563.2441020999104,565.6808652498294,2024-02-01 12:33:48.363592,2024-02-01 12:33:50.792049,L_FF503.jpg,1,10858,70-89+,2024-02-01_12h27.52.262,Recall,2021.2.3,59.87547103691211,
,DD012.jpg,0,FF012.jpg,0,,,,,0,26,26,11,imgFunc,9,NA,4.06337479990907,565.6950310000684,569.8653025503736,2024-02-01 12:33:50.808009,2024-02-01 12:33:54.978042,FF012.jpg,0,10858,70-89+,2024-02-01_12h27.52.262,Recall,2021.2.3,59.87547103691211,
,DD037.jpg,0,FF037.jpg,0,,,,,0,27,27,36,imgFunc,9,NA,3.567413500044495,569.8548993999138,573.5241140497383,2024-02-01 12:33:54.986044,2024-02-01 12:33:58.647595,FF037.jpg,0,10858,70-89+,2024-02-01_12h27.52.262,Recall,2021.2.3,59.87547103691211,
,L_DD505.jpg,1,L_FF505.jpg,1,,,,,0,28,28,44,imgFunc,2,NA,3.6429109999444336,573.5314452000894,577.2852679502685,2024-02-01 12:33:58.654578,2024-02-01 12:34:02.400109,L_FF505.jpg,1,10858,70-89+,2024-02-01_12h27.52.262,Recall,2021.2.3,59.87547103691211,
,DD022.jpg,0,FF022.jpg,0,,,,,0,29,29,21,imgFunc,2,NA,3.1934835999272764,577.300886800047,580.620642650174,2024-02-01 12:34:02.408089,2024-02-01 12:34:05.718890,FF022.jpg,0,10858,70-89+,2024-02-01_12h27.52.262,Recall,2021.2.3,59.87547103691211,
,L_SD501.jpg,1,L_MF501.jpg,1,,,,,0,30,30,90,imgFunc,2,NA,0.8448606999590993,580.6092928999569,581.5608750500251,2024-02-01 12:34:05.726870,2024-02-01 12:34:06.669821,L_MF501.jpg,1,10858,70-89+,2024-02-01_12h27.52.262,Recall,2021.2.3,59.87547103691211,
,L_SD505.jpg,1,L_MF505.jpg,1,,,,,0,31,31,94,imgFunc,2,NA,0.7711524001788348,581.5629415998701,582.4327925499529,2024-02-01 12:34:06.684789,2024-02-01 12:34:07.553074,L_MF505.jpg,1,10858,70-89+,2024-02-01_12h27.52.262,Recall,2021.2.3,59.87547103691211,
,DD008.jpg,0,FF008.jpg,0,,,,,0,32,32,7,imgFunc,1,NA,1.5424534999765456,582.4316477999091,584.0673733500298,2024-02-01 12:34:07.561051,2024-02-01 12:34:09.188519,FF008.jpg,0,10858,70-89+,2024-02-01_12h27.52.262,Recall,2021.2.3,59.87547103691211,
,L_DD507.jpg,1,L_FF507.jpg,1,,,,,0,33,33,46,imgFunc,0,NA,1.5220314001198858,584.0683090998791,585.6868200497702,2024-02-01 12:34:09.196522,2024-02-01 12:34:10.806459,L_FF507.jpg,1,10858,70-89+,2024-02-01_12h27.52.262,Recall,2021.2.3,59.87547103691211,
,L_SD506.jpg,1,L_MF506.jpg,1,,,,,0,34,34,95,imgFunc,9,NA,2.030970999971032,585.6872950999532,587.8221572500188,2024-02-01 12:34:10.814462,2024-02-01 12:34:12.940979,L_MF506.jpg,1,10858,70-89+,2024-02-01_12h27.52.262,Recall,2021.2.3,59.87547103691211,
,DD018.jpg,0,FF018.jpg,0,,,,,0,35,35,17,imgFunc,0,NA,6.541317999828607,587.8248646999709,594.4641908500344,2024-02-01 12:34:12.947962,2024-02-01 12:34:19.579053,FF018.jpg,0,10858,70-89+,2024-02-01_12h27.52.262,Recall,2021.2.3,59.87547103691211,
,SD020.jpg,0,MF020.jpg,0,,,,,0,36,36,69,imgFunc,0,NA,0.8315347000025213,594.4628453000914,595.3944861500058,2024-02-01 12:34:19.588042,2024-02-01 12:34:20.512787,MF020.jpg,0,10858,70-89+,2024-02-01_12h27.52.262,Recall,2021.2.3,59.87547103691211,
,SD024.jpg,0,MF024.jpg,0,,,,,0,37,37,73,imgFunc,0,NA,1.549576399847865,595.3926939999219,597.0449990497436,2024-02-01 12:34:20.520767,2024-02-01 12:34:22.164241,MF024.jpg,0,10858,70-89+,2024-02-01_12h27.52.262,Recall,2021.2.3,59.87547103691211,
,DD015.jpg,0,FF015.jpg,0,,,,,0,38,38,14,imgFunc,0,NA,1.4102842998690903,597.0519038999919,598.569554350106,2024-02-01 12:34:22.172221,2024-02-01 12:34:23.681947,FF015.jpg,0,10858,70-89+,2024-02-01_12h27.52.262,Recall,2021.2.3,59.87547103691211,
,DD025.jpg,0,FF025.jpg,0,,,,,0,39,39,24,imgFunc,9,NA,4.1815673999954015,598.5765458000824,602.8793392502703,2024-02-01 12:34:23.689927,2024-02-01 12:34:27.984677,FF025.jpg,0,10858,70-89+,2024-02-01_12h27.52.262,Recall,2021.2.3,59.87547103691211,
,SD010.jpg,0,MF010.jpg,0,,,,,0,40,40,59,imgFunc,9,NA,1.9981939001008868,602.8878712998703,604.9902046497446,2024-02-01 12:34:28.000630,2024-02-01 12:34:30.103338,MF010.jpg,0,10858,70-89+,2024-02-01_12h27.52.262,Recall,2021.2.3,59.87547103691211,
,SD004.jpg,0,MF004.jpg,0,,,,,0,41,41,53,imgFunc,9,NA,0.8985896001104265,604.9796040998772,605.9816558500752,2024-02-01 12:34:30.110321,2024-02-01 12:34:31.103888,MF004.jpg,0,10858,70-89+,2024-02-01_12h27.52.262,Recall,2021.2.3,59.87547103691211,
,SD016.jpg,0,MF016.jpg,0,,,,,0,42,42,65,imgFunc,0,NA,1.9134194001089782,605.9807184999809,608.0002132500522,2024-02-01 12:34:31.110872,2024-02-01 12:34:33.122066,MF016.jpg,0,10858,70-89+,2024-02-01_12h27.52.262,Recall,2021.2.3,59.87547103691211,
,L_DD508.jpg,1,L_FF508.jpg,1,,,,,0,43,43,47,imgFunc,0,NA,1.0845923000015318,608.0017232000828,609.1876979502849,2024-02-01 12:34:33.129049,2024-02-01 12:34:34.306443,L_FF508.jpg,1,10858,70-89+,2024-02-01_12h27.52.262,Recall,2021.2.3,59.87547103691211,
,DD030.jpg,0,FF030.jpg,0,,,,,0,44,44,29,imgFunc,0,NA,0.8694867000449449,609.1926519998815,610.1781145499554,2024-02-01 12:34:34.313426,2024-02-01 12:34:35.290138,FF030.jpg,0,10858,70-89+,2024-02-01_12h27.52.262,Recall,2021.2.3,59.87547103691211,
,SD035.jpg,0,MF035.jpg,0,,,,,0,45,45,84,imgFunc,0,NA,0.926447699777782,610.1838575000875,611.2044699501712,2024-02-01 12:34:35.305124,2024-02-01 12:34:36.324582,MF035.jpg,0,10858,70-89+,2024-02-01_12h27.52.262,Recall,2021.2.3,59.87547103691211,
,DD033.jpg,0,FF033.jpg,0,,,,,0,46,46,32,imgFunc,9,NA,2.2474758001044393,611.1987455000635,613.5355049502105,2024-02-01 12:34:36.331565,2024-02-01 12:34:38.659570,FF033.jpg,0,10858,70-89+,2024-02-01_12h27.52.262,Recall,2021.2.3,59.87547103691211,
,L_DD506.jpg,1,L_FF506.jpg,1,,,,,0,47,47,45,imgFunc,9,NA,1.8698216998018324,613.5364272999577,615.5061701501254,2024-02-01 12:34:38.666553,2024-02-01 12:34:40.627448,L_FF506.jpg,1,10858,70-89+,2024-02-01_12h27.52.262,Recall,2021.2.3,59.87547103691211,
,SD019.jpg,0,MF019.jpg,0,,,,,0,48,48,68,imgFunc,9,NA,1.7384942001663148,615.5077412999235,617.3440640498884,2024-02-01 12:34:40.634432,2024-02-01 12:34:42.462168,MF019.jpg,0,10858,70-89+,2024-02-01_12h27.52.262,Recall,2021.2.3,59.87547103691211,
,SD012.jpg,0,MF012.jpg,0,,,,,0,49,49,61,imgFunc,2,NA,4.414079699898139,617.3519995000679,621.8706841501407,2024-02-01 12:34:42.471145,2024-02-01 12:34:46.982075,MF012.jpg,0,10858,70-89+,2024-02-01_12h27.52.262,Recall,2021.2.3,59.87547103691211,
,SD036.jpg,0,MF036.jpg,0,,,,,0,50,50,85,imgFunc,2,NA,1.1057009000796825,621.8606602000073,623.0608404502273,2024-02-01 12:34:46.990077,2024-02-01 12:34:48.183108,MF036.jpg,0,10858,70-89+,2024-02-01_12h27.52.262,Recall,2021.2.3,59.87547103691211,
,L_SD508.jpg,1,L_MF508.jpg,1,,,,,0,51,51,97,imgFunc,0,NA,3.0947789000347257,623.0634628999978,626.2668674502056,2024-02-01 12:34:48.190091,2024-02-01 12:34:51.385101,L_MF508.jpg,1,10858,70-89+,2024-02-01_12h27.52.262,Recall,2021.2.3,59.87547103691211,
,SD008.jpg,0,MF008.jpg,0,,,,,0,52,52,57,imgFunc,1,NA,2.960923000006005,626.2693324000575,629.339248750126,2024-02-01 12:34:51.393081,2024-02-01 12:34:54.454091,MF008.jpg,0,10858,70-89+,2024-02-01_12h27.52.262,Recall,2021.2.3,59.87547103691211,
,SD033.jpg,0,MF033.jpg,0,,,,,0,53,53,82,imgFunc,2,NA,2.043991200160235,629.3463473999873,631.4984935501125,2024-02-01 12:34:54.462071,2024-02-01 12:34:56.605795,MF033.jpg,0,10858,70-89+,2024-02-01_12h27.52.262,Recall,2021.2.3,59.87547103691211,
,SD003.jpg,0,MF003.jpg,0,,,,,0,54,54,52,imgFunc,0,NA,6.489138100063428,631.4930801000446,638.0842929498758,2024-02-01 12:34:56.620757,2024-02-01 12:35:03.210221,MF003.jpg,0,10858,70-89+,2024-02-01_12h27.52.262,Recall,2021.2.3,59.87547103691211,
,DD040.jpg,0,FF040.jpg,0,,,,,0,55,55,39,imgFunc,0,NA,4.704663500189781,638.0935508999974,642.8940737501252,2024-02-01 12:35:03.220196,2024-02-01 12:35:08.013841,FF040.jpg,0,10858,70-89+,2024-02-01_12h27.52.262,Recall,2021.2.3,59.87547103691211,
,SD017.jpg,0,MF017.jpg,0,,,,,0,56,56,66,imgFunc,0,NA,0.8573614999186248,642.9007876000833,643.8655581502244,2024-02-01 12:35:08.022744,2024-02-01 12:35:08.980766,MF017.jpg,0,10858,70-89+,2024-02-01_12h27.52.262,Recall,2021.2.3,59.87547103691211,
,SD037.jpg,0,MF037.jpg,0,,,,,0,57,57,86,imgFunc,0,NA,1.112235999898985,643.8858775000554,645.118916350184,2024-02-01 12:35:08.989745,2024-02-01 12:35:10.215289,MF037.jpg,0,10858,70-89+,2024-02-01_12h27.52.262,Recall,2021.2.3,59.87547103691211,
,SD025.jpg,0,MF025.jpg,0,,,,,0,58,58,74,imgFunc,0,NA,0.900895900093019,645.1213487000205,646.1540286501404,2024-02-01 12:35:10.224267,2024-02-01 12:35:11.249257,MF025.jpg,0,10858,70-89+,2024-02-01_12h27.52.262,Recall,2021.2.3,59.87547103691211,
,DD029.jpg,0,FF029.jpg,0,,,,,0,59,59,28,imgFunc,0,NA,2.5484823000151664,646.1457567000762,648.8141006000806,2024-02-01 12:35:11.265474,2024-02-01 12:35:13.917746,FF029.jpg,0,10858,70-89+,2024-02-01_12h27.52.262,Recall,2021.2.3,59.87547103691211,
,DD035.jpg,0,FF035.jpg,0,,,,,0,60,60,34,imgFunc,0,NA,0.7435991000384092,648.7904757000506,649.6258683502674,2024-02-01 12:35:13.925728,2024-02-01 12:35:14.751802,FF035.jpg,0,10858,70-89+,2024-02-01_12h27.52.262,Recall,2021.2.3,59.87547103691211,
,SD013.jpg,0,MF013.jpg,0,,,,,0,61,61,62,imgFunc,1,NA,2.775859599933028,649.6303564000409,652.5001861499622,2024-02-01 12:35:14.759804,2024-02-01 12:35:17.620579,MF013.jpg,0,10858,70-89+,2024-02-01_12h27.52.262,Recall,2021.2.3,59.87547103691211,
,L_DD504.jpg,1,L_FF504.jpg,1,,,,,0,62,62,43,imgFunc,1,NA,1.0644171999301761,652.501799599966,653.6703685498796,2024-02-01 12:35:17.627561,2024-02-01 12:35:18.788100,L_FF504.jpg,1,10858,70-89+,2024-02-01_12h27.52.262,Recall,2021.2.3,59.87547103691211,
,L_SD504.jpg,1,L_MF504.jpg,1,,,,,0,63,63,93,imgFunc,9,NA,5.791189100127667,653.6788444998674,659.5844343500212,2024-02-01 12:35:18.795083,2024-02-01 12:35:24.692272,L_MF504.jpg,1,10858,70-89+,2024-02-01_12h27.52.262,Recall,2021.2.3,59.87547103691211,
,DD017.jpg,0,FF017.jpg,0,,,,,0,64,64,16,imgFunc,9,NA,0.6775891000870615,659.568432699889,660.333674750058,2024-02-01 12:35:24.701249,2024-02-01 12:35:25.459604,FF017.jpg,0,10858,70-89+,2024-02-01_12h27.52.262,Recall,2021.2.3,59.87547103691211,
,L_SD503.jpg,1,L_MF503.jpg,1,,,,,0,65,65,92,imgFunc,2,NA,3.5554684000089765,660.3385489999782,663.9921361499,2024-02-01 12:35:25.466587,2024-02-01 12:35:29.112157,L_MF503.jpg,1,10858,70-89+,2024-02-01_12h27.52.262,Recall,2021.2.3,59.87547103691211,
,SD029.jpg,0,MF029.jpg,0,,,,,0,66,66,78,imgFunc,2,NA,3.499709299998358,663.9863557000645,667.5897683498915,2024-02-01 12:35:29.120138,2024-02-01 12:35:32.714585,MF029.jpg,0,10858,70-89+,2024-02-01_12h27.52.262,Recall,2021.2.3,59.87547103691211,
,SD011.jpg,0,MF011.jpg,0,,,,,0,67,67,60,imgFunc,2,NA,1.3360129999928176,667.6060033999383,669.0576237500645,2024-02-01 12:35:32.722565,2024-02-01 12:35:34.164987,MF011.jpg,0,10858,70-89+,2024-02-01_12h27.52.262,Recall,2021.2.3,59.87547103691211,
,DD003.jpg,0,FF003.jpg,0,,,,,0,68,68,2,imgFunc,9,NA,2.8425189999397844,669.0596390999854,671.996122349985,2024-02-01 12:35:34.180948,2024-02-01 12:35:37.117972,FF003.jpg,0,10858,70-89+,2024-02-01_12h27.52.262,Recall,2021.2.3,59.87547103691211,
,DD006.jpg,0,FF006.jpg,0,,,,,0,69,69,5,imgFunc,0,NA,1.5475112001877278,671.9946457999758,673.6468348503113,2024-02-01 12:35:37.124955,2024-02-01 12:35:38.768958,FF006.jpg,0,10858,70-89+,2024-02-01_12h27.52.262,Recall,2021.2.3,59.87547103691211,
,L_DD509.jpg,1,L_FF509.jpg,1,,,,,0,70,70,48,imgFunc,0,NA,2.6066793999634683,673.6476133000106,676.3507444499992,2024-02-01 12:35:38.775941,2024-02-01 12:35:41.471021,L_FF509.jpg,1,10858,70-89+,2024-02-01_12h27.52.262,Recall,2021.2.3,59.87547103691211,
,SD009.jpg,0,MF009.jpg,0,,,,,0,71,71,58,imgFunc,1,NA,4.6304483998101205,676.3438027999364,681.0648636498954,2024-02-01 12:35:41.479001,2024-02-01 12:35:46.191119,MF009.jpg,0,10858,70-89+,2024-02-01_12h27.52.262,Recall,2021.2.3,59.87547103691211,
,SD027.jpg,0,MF027.jpg,0,,,,,0,72,72,76,imgFunc,1,NA,0.9518383999820799,681.0862501999363,682.1516622500494,2024-02-01 12:35:46.200097,2024-02-01 12:35:47.258700,MF027.jpg,0,10858,70-89+,2024-02-01_12h27.52.262,Recall,2021.2.3,59.87547103691211,
,SD038.jpg,0,MF038.jpg,0,,,,,0,73,73,87,imgFunc,1,NA,0.9542762998025864,682.1478518000804,683.20156794996,2024-02-01 12:35:47.273662,2024-02-01 12:35:48.325770,MF038.jpg,0,10858,70-89+,2024-02-01_12h27.52.262,Recall,2021.2.3,59.87547103691211,
,L_SD507.jpg,1,L_MF507.jpg,1,,,,,0,74,74,96,imgFunc,9,NA,2.3237217001151294,683.2022575000301,685.6225673502777,2024-02-01 12:35:48.332754,2024-02-01 12:35:50.744300,L_MF507.jpg,1,10858,70-89+,2024-02-01_12h27.52.262,Recall,2021.2.3,59.87547103691211,
,DD014.jpg,0,FF014.jpg,0,,,,,0,75,75,13,imgFunc,0,NA,2.3780211999546736,685.6282192999497,688.1146731500048,2024-02-01 12:35:50.751283,2024-02-01 12:35:53.229427,FF014.jpg,0,10858,70-89+,2024-02-01_12h27.52.262,Recall,2021.2.3,59.87547103691211,
,SD001.jpg,0,MF001.jpg,0,,,,,0,76,76,50,imgFunc,0,NA,1.6567883000243455,688.1092904000543,689.8621526502538,2024-02-01 12:35:53.236410,2024-02-01 12:35:54.980743,MF001.jpg,0,10858,70-89+,2024-02-01_12h27.52.262,Recall,2021.2.3,59.87547103691211,
,DD007.jpg,0,FF007.jpg,0,,,,,0,77,77,6,imgFunc,0,NA,2.477020699996501,689.865114999935,692.4518376500346,2024-02-01 12:35:54.987726,2024-02-01 12:35:57.565919,FF007.jpg,0,10858,70-89+,2024-02-01_12h27.52.262,Recall,2021.2.3,59.87547103691211,
,SD032.jpg,0,MF032.jpg,0,,,,,0,78,78,81,imgFunc,9,NA,1.3467656001448631,692.4433319999371,693.8954028498847,2024-02-01 12:35:57.572903,2024-02-01 12:35:59.016746,MF032.jpg,0,10858,70-89+,2024-02-01_12h27.52.262,Recall,2021.2.3,59.87547103691211,
,DD020.jpg,0,FF020.jpg,0,,,,,0,79,79,19,imgFunc,9,NA,2.856877300189808,693.8931613999885,696.8465671502054,2024-02-01 12:35:59.023730,2024-02-01 12:36:01.968728,FF020.jpg,0,10858,70-89+,2024-02-01_12h27.52.262,Recall,2021.2.3,59.87547103691211,
,DD011.jpg,0,FF011.jpg,0,,,,,0,80,80,10,imgFunc,9,NA,0.8086969000287354,696.8452198000159,697.7474242502358,2024-02-01 12:36:01.975711,2024-02-01 12:36:02.869560,FF011.jpg,0,10858,70-89+,2024-02-01_12h27.52.262,Recall,2021.2.3,59.87547103691211,
,DD039.jpg,0,FF039.jpg,0,,,,,0,81,81,38,imgFunc,9,NA,1.0819091000594199,697.7562664998695,698.9414729499258,2024-02-01 12:36:02.877541,2024-02-01 12:36:04.053957,FF039.jpg,0,10858,70-89+,2024-02-01_12h27.52.262,Recall,2021.2.3,59.87547103691211,
,SD028.jpg,0,MF028.jpg,0,,,,,0,82,82,77,imgFunc,0,NA,1.6706713000312448,698.9431944000535,700.714359850157,2024-02-01 12:36:04.068918,2024-02-01 12:36:05.838357,MF028.jpg,0,10858,70-89+,2024-02-01_12h27.52.262,Recall,2021.2.3,59.87547103691211,
,DD024.jpg,0,FF024.jpg,0,,,,,0,83,83,23,imgFunc,0,NA,2.1305307999718934,700.7155380998738,702.9511930500157,2024-02-01 12:36:05.846338,2024-02-01 12:36:08.073083,FF024.jpg,0,10858,70-89+,2024-02-01_12h27.52.262,Recall,2021.2.3,59.87547103691211,
,SD034.jpg,0,MF034.jpg,0,,,,,0,84,84,83,imgFunc,0,NA,2.3275485998019576,702.9505668000784,705.369488150347,2024-02-01 12:36:08.081085,2024-02-01 12:36:10.492068,MF034.jpg,0,10858,70-89+,2024-02-01_12h27.52.262,Recall,2021.2.3,59.87547103691211,
,L_DD501.jpg,1,L_FF501.jpg,1,,,,,0,85,85,40,imgFunc,0,NA,1.6953840998467058,705.3746736000758,707.1769822502974,2024-02-01 12:36:10.499051,2024-02-01 12:36:12.292933,L_FF501.jpg,1,10858,70-89+,2024-02-01_12h27.52.262,Recall,2021.2.3,59.87547103691211,
,SD021.jpg,0,MF021.jpg,0,,,,,0,86,86,70,imgFunc,9,NA,2.158795800060034,707.1752720999066,709.4444823500235,2024-02-01 12:36:12.300913,2024-02-01 12:36:14.561226,MF021.jpg,0,10858,70-89+,2024-02-01_12h27.52.262,Recall,2021.2.3,59.87547103691211,
,SD018.jpg,0,MF018.jpg,0,,,,,0,87,87,67,imgFunc,1,NA,2.920286900131032,709.4615887999535,712.4819295499474,2024-02-01 12:36:14.577185,2024-02-01 12:36:17.596686,MF018.jpg,0,10858,70-89+,2024-02-01_12h27.52.262,Recall,2021.2.3,59.87547103691211,
,DD027.jpg,0,FF027.jpg,0,,,,,0,88,88,26,imgFunc,0,NA,1.3262570998631418,712.4717373999301,713.8914991498459,2024-02-01 12:36:17.603669,2024-02-01 12:36:19.014702,FF027.jpg,0,10858,70-89+,2024-02-01_12h27.52.262,Recall,2021.2.3,59.87547103691211,
,L_DD510.jpg,1,L_FF510.jpg,1,,,,,0,89,89,49,imgFunc,1,NA,2.1658185000997037,713.8962505999953,716.1656449500006,2024-02-01 12:36:19.021685,2024-02-01 12:36:21.282592,L_FF510.jpg,1,10858,70-89+,2024-02-01_12h27.52.262,Recall,2021.2.3,59.87547103691211,
,DD028.jpg,0,FF028.jpg,0,,,,,0,90,90,27,imgFunc,9,NA,2.0420189001597464,716.1639081998728,718.3163192498032,2024-02-01 12:36:21.290572,2024-02-01 12:36:23.434228,FF028.jpg,0,10858,70-89+,2024-02-01_12h27.52.262,Recall,2021.2.3,59.87547103691211,
,SD014.jpg,0,MF014.jpg,0,,,,,0,91,91,63,imgFunc,0,NA,1.9178106000181288,718.3282999999356,720.3645933498628,2024-02-01 12:36:23.441211,2024-02-01 12:36:25.469000,MF014.jpg,0,10858,70-89+,2024-02-01_12h27.52.262,Recall,2021.2.3,59.87547103691211,
,SD002.jpg,0,MF002.jpg,0,,,,,0,92,92,51,imgFunc,0,NA,0.8387147998437285,720.3513909000903,721.3021373501979,2024-02-01 12:36:25.476981,2024-02-01 12:36:26.419177,MF002.jpg,0,10858,70-89+,2024-02-01_12h27.52.262,Recall,2021.2.3,59.87547103691211,
,DD005.jpg,0,FF005.jpg,0,,,,,0,93,93,4,imgFunc,9,NA,2.1204727001022547,721.3017082000151,723.5220052502118,2024-02-01 12:36:26.427155,2024-02-01 12:36:28.638320,FF005.jpg,0,10858,70-89+,2024-02-01_12h27.52.262,Recall,2021.2.3,59.87547103691211,
,DD010.jpg,0,FF010.jpg,0,,,,,0,94,94,9,imgFunc,0,NA,1.4104331000708044,723.5237100999802,725.042763850186,2024-02-01 12:36:28.645304,2024-02-01 12:36:30.155854,FF010.jpg,0,10858,70-89+,2024-02-01_12h27.52.262,Recall,2021.2.3,59.87547103691211,
,DD013.jpg,0,FF013.jpg,0,,,,,0,95,95,12,imgFunc,9,NA,1.1187970999162644,725.0390822000336,726.2580801502336,2024-02-01 12:36:30.162837,2024-02-01 12:36:31.373550,FF013.jpg,0,10858,70-89+,2024-02-01_12h27.52.262,Recall,2021.2.3,59.87547103691211,
,DD036.jpg,0,FF036.jpg,0,,,,,0,96,96,35,imgFunc,9,NA,1.5266723001841456,726.2632848999929,727.8867578499485,2024-02-01 12:36:31.386517,2024-02-01 12:36:33.007930,FF036.jpg,0,10858,70-89+,2024-02-01_12h27.52.262,Recall,2021.2.3,59.87547103691211,
,SD040.jpg,0,MF040.jpg,0,,,,,0,97,97,89,imgFunc,2,NA,2.2403279999271035,727.8935338999145,730.2445284500718,2024-02-01 12:36:33.015908,2024-02-01 12:36:35.359208,MF040.jpg,0,10858,70-89+,2024-02-01_12h27.52.262,Recall,2021.2.3,59.87547103691211,
,DD016.jpg,0,FF016.jpg,0,,,,,0,98,98,15,imgFunc,1,NA,2.8847209999803454,730.2492184999865,733.2499735497404,2024-02-01 12:36:35.368185,2024-02-01 12:36:38.361124,FF016.jpg,0,10858,70-89+,2024-02-01_12h27.52.262,Recall,2021.2.3,59.87547103691211,
,SD031.jpg,0,MF031.jpg,0,,,,,0,99,99,80,imgFunc,0,NA,1.6636497001163661,733.2461544999387,735.0134745498654,2024-02-01 12:36:38.369123,2024-02-01 12:36:40.128698,MF031.jpg,0,10858,70-89+,2024-02-01_12h27.52.262,Recall,2021.2.3,59.87547103691211,
,,,,,,,,,,,,,instrFunc,space,"Great work! 

 Now you will switch to the other image type.

 Press the spacebar whenever you are ready to start.",4.638773899991065,734.9429019000381,739.6264501502737,2024-02-01 12:36:40.129665,2024-02-01 12:36:44.797771,,,10858,70-89+,2024-02-01_12h27.52.262,Recall,2021.2.3,59.87547103691211,
,SD022.jpg,0,MF022.jpg,0,,,,,0,0,0,71,imgFunc,2,NA,4.487203900003806,739.7108708999585,744.3011242498178,2024-02-01 12:36:44.838663,2024-02-01 12:36:49.419413,SD022.jpg,0,10858,70-89+,2024-02-01_12h27.52.262,Recall,2021.2.3,59.87547103691211,
,SD037.jpg,0,MF037.jpg,0,,,,,0,1,1,86,imgFunc,2,NA,7.3117834001313895,744.2941225999966,751.6980641502887,2024-02-01 12:36:49.428268,2024-02-01 12:36:56.825109,SD037.jpg,0,10858,70-89+,2024-02-01_12h27.52.262,Recall,2021.2.3,59.87547103691211,
,SD025.jpg,0,MF025.jpg,0,,,,,0,2,2,74,imgFunc,2,NA,1.6131816999986768,751.7126466999762,753.4288261500187,2024-02-01 12:36:56.834087,2024-02-01 12:36:58.542796,SD025.jpg,0,10858,70-89+,2024-02-01_12h27.52.262,Recall,2021.2.3,59.87547103691211,
,SD026.jpg,0,MF026.jpg,0,,,,,0,3,3,75,imgFunc,2,NA,1.1800319999456406,753.4339475999586,754.7272502500564,2024-02-01 12:36:58.554766,2024-02-01 12:36:59.843441,SD026.jpg,0,10858,70-89+,2024-02-01_12h27.52.262,Recall,2021.2.3,59.87547103691211,
,SD015.jpg,0,MF015.jpg,0,,,,,0,4,4,64,imgFunc,1,NA,1.2876551998779178,754.7104247000534,756.0969890500419,2024-02-01 12:36:59.850424,2024-02-01 12:37:01.228115,SD015.jpg,0,10858,70-89+,2024-02-01_12h27.52.262,Recall,2021.2.3,59.87547103691211,
,L_SD502.jpg,1,L_MF502.jpg,1,,,,,0,5,5,91,imgFunc,2,NA,1.177024899981916,756.1011914000846,757.3707630501594,2024-02-01 12:37:01.235098,2024-02-01 12:37:02.495787,L_SD502.jpg,1,10858,70-89+,2024-02-01_12h27.52.262,Recall,2021.2.3,59.87547103691211,
,DD002.jpg,0,FF002.jpg,0,,,,,0,6,6,1,imgFunc,2,NA,1.754751699976623,757.3632225000765,759.2160659499932,2024-02-01 12:37:02.502770,2024-02-01 12:37:04.346815,DD002.jpg,0,10858,70-89+,2024-02-01_12h27.52.262,Recall,2021.2.3,59.87547103691211,
,SD003.jpg,0,MF003.jpg,0,,,,,0,7,7,52,imgFunc,2,NA,2.0913630998693407,759.2186590998899,761.4051343500614,2024-02-01 12:37:04.353798,2024-02-01 12:37:06.531768,SD003.jpg,0,10858,70-89+,2024-02-01_12h27.52.262,Recall,2021.2.3,59.87547103691211,
,L_SD507.jpg,1,L_MF507.jpg,1,,,,,0,8,8,96,imgFunc,1,NA,1.9685633999761194,761.3975591999479,763.450899249874,2024-02-01 12:37:06.538751,2024-02-01 12:37:08.583294,L_SD507.jpg,1,10858,70-89+,2024-02-01_12h27.52.262,Recall,2021.2.3,59.87547103691211,
,DD037.jpg,0,FF037.jpg,0,,,,,0,9,9,36,imgFunc,1,NA,1.5381647001486272,763.451908600051,765.0878816500772,2024-02-01 12:37:08.590298,2024-02-01 12:37:10.217798,DD037.jpg,0,10858,70-89+,2024-02-01_12h27.52.262,Recall,2021.2.3,59.87547103691211,
,SD030.jpg,0,MF030.jpg,0,,,,,0,10,10,79,imgFunc,2,NA,0.9984277999028563,765.0956047000363,766.1978839500807,2024-02-01 12:37:10.224781,2024-02-01 12:37:11.318605,SD030.jpg,0,10858,70-89+,2024-02-01_12h27.52.262,Recall,2021.2.3,59.87547103691211,
,SD010.jpg,0,MF010.jpg,0,,,,,0,11,11,59,imgFunc,9,NA,2.0537529999855906,766.1922023000661,768.3450980503112,2024-02-01 12:37:11.325588,2024-02-01 12:37:13.469849,SD010.jpg,0,10858,70-89+,2024-02-01_12h27.52.262,Recall,2021.2.3,59.87547103691211,
,SD036.jpg,0,MF036.jpg,0,,,,,0,12,12,85,imgFunc,2,NA,1.107134300051257,768.3468647000846,769.5384181500413,2024-02-01 12:37:13.482816,2024-02-01 12:37:14.671169,SD036.jpg,0,10858,70-89+,2024-02-01_12h27.52.262,Recall,2021.2.3,59.87547103691211,
,SD016.jpg,0,MF016.jpg,0,,,,,0,13,13,65,imgFunc,2,NA,0.7486777000594884,769.5452811999712,770.3968754501548,2024-02-01 12:37:14.678152,2024-02-01 12:37:15.521538,SD016.jpg,0,10858,70-89+,2024-02-01_12h27.52.262,Recall,2021.2.3,59.87547103691211,
,DD020.jpg,0,FF020.jpg,0,,,,,0,14,14,19,imgFunc,1,NA,0.9603321000467986,770.3976433998905,771.449823649833,2024-02-01 12:37:15.528521,2024-02-01 12:37:16.572180,DD020.jpg,0,10858,70-89+,2024-02-01_12h27.52.262,Recall,2021.2.3,59.87547103691211,
,DD029.jpg,0,FF029.jpg,0,,,,,0,15,15,28,imgFunc,2,NA,1.8201796999201179,771.4417562999297,773.3616164501291,2024-02-01 12:37:16.579163,2024-02-01 12:37:18.490248,DD029.jpg,0,10858,70-89+,2024-02-01_12h27.52.262,Recall,2021.2.3,59.87547103691211,
,L_SD504.jpg,1,L_MF504.jpg,1,,,,,0,16,16,93,imgFunc,1,NA,1.492173400009051,773.3696107000578,774.9730491500814,2024-02-01 12:37:18.497231,2024-02-01 12:37:20.091838,L_SD504.jpg,1,10858,70-89+,2024-02-01_12h27.52.262,Recall,2021.2.3,59.87547103691211,
,SD002.jpg,0,MF002.jpg,0,,,,,0,17,17,51,imgFunc,1,NA,0.9342513000592589,774.9676200000104,775.9870428503491,2024-02-01 12:37:20.106800,2024-02-01 12:37:21.125491,SD002.jpg,0,10858,70-89+,2024-02-01_12h27.52.262,Recall,2021.2.3,59.87547103691211,
,DD001.jpg,0,FF001.jpg,0,,,,,0,18,18,0,imgFunc,1,NA,0.09347849991172552,776.0004549999721,776.185920850141,2024-02-01 12:37:21.132474,2024-02-01 12:37:21.309176,DD001.jpg,0,10858,70-89+,2024-02-01_12h27.52.262,Recall,2021.2.3,59.87547103691211,
,DD035.jpg,0,FF035.jpg,0,,,,,0,19,19,34,imgFunc,9,NA,121.2314277999103,776.1822454999201,897.5023882498499,2024-02-01 12:37:21.316159,2024-02-01 12:39:22.629147,DD035.jpg,0,10858,70-89+,2024-02-01_12h27.52.262,Recall,2021.2.3,59.87547103691211,
,DD012.jpg,0,FF012.jpg,0,,,,,0,20,20,11,imgFunc,9,NA,1.0213586001191288,897.5204904999118,898.6482324497774,2024-02-01 12:39:22.640733,2024-02-01 12:39:23.763383,DD012.jpg,0,10858,70-89+,2024-02-01_12h27.52.262,Recall,2021.2.3,59.87547103691211,
,DD025.jpg,0,FF025.jpg,0,,,,,0,21,21,24,imgFunc,2,NA,2.39281989983283,898.636930000037,901.1234352500178,2024-02-01 12:39:23.770366,2024-02-01 12:39:26.248468,DD025.jpg,0,10858,70-89+,2024-02-01_12h27.52.262,Recall,2021.2.3,59.87547103691211,
,DD003.jpg,0,FF003.jpg,0,,,,,0,22,22,2,imgFunc,2,NA,2.626743500120938,901.130877800053,903.8528389499988,2024-02-01 12:39:26.263430,2024-02-01 12:39:28.983595,DD003.jpg,0,10858,70-89+,2024-02-01_12h27.52.262,Recall,2021.2.3,59.87547103691211,
,SD005.jpg,0,MF005.jpg,0,,,,,0,23,23,54,imgFunc,2,NA,2.2414343000855297,903.8522485999856,906.1887318501249,2024-02-01 12:39:28.990578,2024-02-01 12:39:31.318388,SD005.jpg,0,10858,70-89+,2024-02-01_12h27.52.262,Recall,2021.2.3,59.87547103691211,
,DD026.jpg,0,FF026.jpg,0,,,,,0,24,24,25,imgFunc,0,NA,2.9047795000951737,906.1890102000907,909.1924623502418,2024-02-01 12:39:31.326388,2024-02-01 12:39:34.320668,DD026.jpg,0,10858,70-89+,2024-02-01_12h27.52.262,Recall,2021.2.3,59.87547103691211,
,L_SD509.jpg,1,L_MF509.jpg,1,,,,,0,25,25,98,imgFunc,1,NA,2.6244353998918086,909.1892822999507,911.9091838498134,2024-02-01 12:39:34.327674,2024-02-01 12:39:37.039457,L_SD509.jpg,1,10858,70-89+,2024-02-01_12h27.52.262,Recall,2021.2.3,59.87547103691211,
,DD021.jpg,0,FF021.jpg,0,,,,,0,26,26,20,imgFunc,1,NA,5.01406789990142,911.9114409999456,917.016194149619,2024-02-01 12:39:37.046440,2024-02-01 12:39:42.143079,DD021.jpg,0,10858,70-89+,2024-02-01_12h27.52.262,Recall,2021.2.3,59.87547103691211,
,SD013.jpg,0,MF013.jpg,0,,,,,0,27,27,62,imgFunc,0,NA,2.4781376998871565,917.0154695000965,919.5819592499174,2024-02-01 12:39:42.152057,2024-02-01 12:39:44.711529,SD013.jpg,0,10858,70-89+,2024-02-01_12h27.52.262,Recall,2021.2.3,59.87547103691211,
,DD010.jpg,0,FF010.jpg,0,,,,,0,28,28,9,imgFunc,2,NA,3.883351400028914,919.5783096000087,923.5495583501179,2024-02-01 12:39:44.718512,2024-02-01 12:39:48.681131,DD010.jpg,0,10858,70-89+,2024-02-01_12h27.52.262,Recall,2021.2.3,59.87547103691211,
,DD031.jpg,0,FF031.jpg,0,,,,,0,29,29,30,imgFunc,2,NA,2.216713899979368,923.5570199000649,925.8767211502418,2024-02-01 12:39:48.688136,2024-02-01 12:39:50.999228,DD031.jpg,0,10858,70-89+,2024-02-01_12h27.52.262,Recall,2021.2.3,59.87547103691211,
,L_SD510.jpg,1,L_MF510.jpg,1,,,,,0,30,30,99,imgFunc,9,NA,1.8412664998322725,925.8683382000308,927.8048585499637,2024-02-01 12:39:51.006212,2024-02-01 12:39:52.934089,L_SD510.jpg,1,10858,70-89+,2024-02-01_12h27.52.262,Recall,2021.2.3,59.87547103691211,
,SD031.jpg,0,MF031.jpg,0,,,,,0,31,31,80,imgFunc,0,NA,1.8637198000214994,927.8139150000643,929.7720322501846,2024-02-01 12:39:52.947056,2024-02-01 12:39:54.902057,SD031.jpg,0,10858,70-89+,2024-02-01_12h27.52.262,Recall,2021.2.3,59.87547103691211,
,DD023.jpg,0,FF023.jpg,0,,,,,0,32,32,22,imgFunc,9,NA,1.5915836000349373,929.7660888999235,931.4525476500858,2024-02-01 12:39:54.909040,2024-02-01 12:39:56.586696,DD023.jpg,0,10858,70-89+,2024-02-01_12h27.52.262,Recall,2021.2.3,59.87547103691211,
,DD005.jpg,0,FF005.jpg,0,,,,,0,33,33,4,imgFunc,9,NA,1.1754727000370622,931.4620296999346,932.7314537498169,2024-02-01 12:39:56.593680,2024-02-01 12:39:57.854574,DD005.jpg,0,10858,70-89+,2024-02-01_12h27.52.262,Recall,2021.2.3,59.87547103691211,
,DD006.jpg,0,FF006.jpg,0,,,,,0,34,34,5,imgFunc,2,NA,4.407366199884564,932.7263163998723,937.231110349996,2024-02-01 12:39:57.861557,2024-02-01 12:40:02.357657,DD006.jpg,0,10858,70-89+,2024-02-01_12h27.52.262,Recall,2021.2.3,59.87547103691211,
,SD020.jpg,0,MF020.jpg,0,,,,,0,35,35,69,imgFunc,1,NA,1.463640500092879,937.2380776999053,938.8052692501806,2024-02-01 12:40:02.365637,2024-02-01 12:40:03.925315,SD020.jpg,0,10858,70-89+,2024-02-01_12h27.52.262,Recall,2021.2.3,59.87547103691211,
,L_SD508.jpg,1,L_MF508.jpg,1,,,,,0,36,36,97,imgFunc,2,NA,2.2641875999979675,938.8133801000658,941.1682271501049,2024-02-01 12:40:03.940277,2024-02-01 12:40:06.293727,L_SD508.jpg,1,10858,70-89+,2024-02-01_12h27.52.262,Recall,2021.2.3,59.87547103691211,
,SD029.jpg,0,MF029.jpg,0,,,,,0,37,37,78,imgFunc,2,NA,2.4770524001214653,941.1684983999003,943.7386933499947,2024-02-01 12:40:06.300710,2024-02-01 12:40:08.862259,SD029.jpg,0,10858,70-89+,2024-02-01_12h27.52.262,Recall,2021.2.3,59.87547103691211,
,SD019.jpg,0,MF019.jpg,0,,,,,0,38,38,68,imgFunc,0,NA,7.614727499894798,943.7346896000672,951.441256650025,2024-02-01 12:40:08.869275,2024-02-01 12:40:16.567655,SD019.jpg,0,10858,70-89+,2024-02-01_12h27.52.262,Recall,2021.2.3,59.87547103691211,
,SD040.jpg,0,MF040.jpg,0,,,,,0,39,39,89,imgFunc,1,NA,2.487146000145003,951.4544728000183,954.054734549718,2024-02-01 12:40:16.576633,2024-02-01 12:40:19.169648,SD040.jpg,0,10858,70-89+,2024-02-01_12h27.52.262,Recall,2021.2.3,59.87547103691211,
,DD008.jpg,0,FF008.jpg,0,,,,,0,40,40,7,imgFunc,9,NA,2.75328559987247,954.0443658998702,956.8976950496435,2024-02-01 12:40:19.176631,2024-02-01 12:40:22.021510,DD008.jpg,0,10858,70-89+,2024-02-01_12h27.52.262,Recall,2021.2.3,59.87547103691211,
,DD013.jpg,0,FF013.jpg,0,,,,,0,41,41,12,imgFunc,9,NA,0.7772502999287099,956.9082551000174,957.7778853501659,2024-02-01 12:40:22.036472,2024-02-01 12:40:22.905520,DD013.jpg,0,10858,70-89+,2024-02-01_12h27.52.262,Recall,2021.2.3,59.87547103691211,
,L_DD508.jpg,1,L_FF508.jpg,1,,,,,0,42,42,47,imgFunc,9,NA,1.0518598000053316,957.7776643000543,958.9295974499546,2024-02-01 12:40:22.913404,2024-02-01 12:40:24.056310,L_DD508.jpg,1,10858,70-89+,2024-02-01_12h27.52.262,Recall,2021.2.3,59.87547103691211,
,DD024.jpg,0,FF024.jpg,0,,,,,0,43,43,23,imgFunc,2,NA,1.4205686999484897,958.9290004000068,960.448379850015,2024-02-01 12:40:24.063293,2024-02-01 12:40:25.574096,DD024.jpg,0,10858,70-89+,2024-02-01_12h27.52.262,Recall,2021.2.3,59.87547103691211,
,SD021.jpg,0,MF021.jpg,0,,,,,0,44,44,70,imgFunc,2,NA,1.1992532999720424,960.4463702999055,961.7429076500703,2024-02-01 12:40:25.584071,2024-02-01 12:40:26.875084,SD021.jpg,0,10858,70-89+,2024-02-01_12h27.52.262,Recall,2021.2.3,59.87547103691211,
,SD006.jpg,0,MF006.jpg,0,,,,,0,45,45,55,imgFunc,9,NA,1.7637086999602616,961.7458508000709,963.5989438502584,2024-02-01 12:40:26.882067,2024-02-01 12:40:28.726545,SD006.jpg,0,10858,70-89+,2024-02-01_12h27.52.262,Recall,2021.2.3,59.87547103691211,
,L_DD505.jpg,1,L_FF505.jpg,1,,,,,0,46,46,44,imgFunc,1,NA,4.135439400095493,963.5981614999473,967.8358529501129,2024-02-01 12:40:28.733526,2024-02-01 12:40:32.962458,L_DD505.jpg,1,10858,70-89+,2024-02-01_12h27.52.262,Recall,2021.2.3,59.87547103691211,
,DD019.jpg,0,FF019.jpg,0,,,,,0,47,47,18,imgFunc,1,NA,1.1754215001128614,967.8380795998964,969.1064607498702,2024-02-01 12:40:32.970440,2024-02-01 12:40:34.230482,DD019.jpg,0,10858,70-89+,2024-02-01_12h27.52.262,Recall,2021.2.3,59.87547103691211,
,L_DD509.jpg,1,L_FF509.jpg,1,,,,,0,48,48,48,imgFunc,1,NA,0.9665494000073522,969.1190796999726,970.2040872499347,2024-02-01 12:40:34.237443,2024-02-01 12:40:35.314285,L_DD509.jpg,1,10858,70-89+,2024-02-01_12h27.52.262,Recall,2021.2.3,59.87547103691211,
,SD009.jpg,0,MF009.jpg,0,,,,,0,49,49,58,imgFunc,9,NA,2.683962899958715,970.2015205998905,973.005036349874,2024-02-01 12:40:35.321268,2024-02-01 12:40:38.116347,SD009.jpg,0,10858,70-89+,2024-02-01_12h27.52.262,Recall,2021.2.3,59.87547103691211,
,SD017.jpg,0,MF017.jpg,0,,,,,0,50,50,66,imgFunc,2,NA,3.333759000059217,972.9915716999676,976.4169155501295,2024-02-01 12:40:38.129314,2024-02-01 12:40:41.551737,SD017.jpg,0,10858,70-89+,2024-02-01_12h27.52.262,Recall,2021.2.3,59.87547103691211,
,DD004.jpg,0,FF004.jpg,0,,,,,0,51,51,3,imgFunc,2,NA,1.641536699840799,976.4197835000232,978.1550610500854,2024-02-01 12:40:41.559687,2024-02-01 12:40:43.286670,DD004.jpg,0,10858,70-89+,2024-02-01_12h27.52.262,Recall,2021.2.3,59.87547103691211,
,SD007.jpg,0,MF007.jpg,0,,,,,0,52,52,56,imgFunc,9,NA,6.474178799893707,978.1554250998888,984.7277493497822,2024-02-01 12:40:43.293677,2024-02-01 12:40:49.858087,SD007.jpg,0,10858,70-89+,2024-02-01_12h27.52.262,Recall,2021.2.3,59.87547103691211,
,DD011.jpg,0,FF011.jpg,0,,,,,0,53,53,10,imgFunc,9,NA,1.713218699907884,984.732170100091,986.548346149968,2024-02-01 12:40:49.867065,2024-02-01 12:40:51.676218,DD011.jpg,0,10858,70-89+,2024-02-01_12h27.52.262,Recall,2021.2.3,59.87547103691211,
,SD033.jpg,0,MF033.jpg,0,,,,,0,54,54,82,imgFunc,9,NA,0.7169152998831123,986.5605413999874,987.3794255501125,2024-02-01 12:40:51.683202,2024-02-01 12:40:52.493636,SD033.jpg,0,10858,70-89+,2024-02-01_12h27.52.262,Recall,2021.2.3,59.87547103691211,
,SD034.jpg,0,MF034.jpg,0,,,,,0,55,55,83,imgFunc,9,NA,1.0231851001735777,987.3822917998768,988.5029646500479,2024-02-01 12:40:52.508598,2024-02-01 12:40:53.627421,SD034.jpg,0,10858,70-89+,2024-02-01_12h27.52.262,Recall,2021.2.3,59.87547103691211,
,DD027.jpg,0,FF027.jpg,0,,,,,0,56,56,26,imgFunc,9,NA,2.221647300058976,988.4958700998686,990.8158307499252,2024-02-01 12:40:53.634404,2024-02-01 12:40:55.945666,DD027.jpg,0,10858,70-89+,2024-02-01_12h27.52.262,Recall,2021.2.3,59.87547103691211,
,L_SD501.jpg,1,L_MF501.jpg,1,,,,,0,57,57,90,imgFunc,2,NA,2.2016183000523597,990.8118493999355,993.0989558498841,2024-02-01 12:40:55.952650,2024-02-01 12:40:58.231066,L_SD501.jpg,1,10858,70-89+,2024-02-01_12h27.52.262,Recall,2021.2.3,59.87547103691211,
,L_SD506.jpg,1,L_MF506.jpg,1,,,,,0,58,58,95,imgFunc,1,NA,4.704412400024012,993.1012269998901,997.9058929497842,2024-02-01 12:40:58.238049,2024-02-01 12:41:03.034259,L_SD506.jpg,1,10858,70-89+,2024-02-01_12h27.52.262,Recall,2021.2.3,59.87547103691211,
,SD001.jpg,0,MF001.jpg,0,,,,,0,59,59,50,imgFunc,0,NA,2.889689699979499,997.9156458999496,1000.9154669498093,2024-02-01 12:41:03.043240,2024-02-01 12:41:06.036633,SD001.jpg,0,10858,70-89+,2024-02-01_12h27.52.262,Recall,2021.2.3,59.87547103691211,
,L_DD501.jpg,1,L_FF501.jpg,1,,,,,0,60,60,40,imgFunc,9,NA,1.7510526000987738,1000.9265042000916,1002.7814896502532,2024-02-01 12:41:06.050611,2024-02-01 12:41:07.904366,L_DD501.jpg,1,10858,70-89+,2024-02-01_12h27.52.262,Recall,2021.2.3,59.87547103691211,
,SD011.jpg,0,MF011.jpg,0,,,,,0,61,61,60,imgFunc,2,NA,3.9815054000355303,1002.768071099883,1006.83926624991,2024-02-01 12:41:07.911349,2024-02-01 12:41:11.973762,SD011.jpg,0,10858,70-89+,2024-02-01_12h27.52.262,Recall,2021.2.3,59.87547103691211,
,DD034.jpg,0,FF034.jpg,0,,,,,0,62,62,33,imgFunc,9,NA,2.750683599850163,1006.846845400054,1009.7002449501306,2024-02-01 12:41:11.980745,2024-02-01 12:41:14.825918,DD034.jpg,0,10858,70-89+,2024-02-01_12h27.52.262,Recall,2021.2.3,59.87547103691211,
,DD017.jpg,0,FF017.jpg,0,,,,,0,63,63,16,imgFunc,9,NA,4.466151400003582,1009.6912630998995,1014.2458906499669,2024-02-01 12:41:14.832902,2024-02-01 12:41:19.379187,DD017.jpg,0,10858,70-89+,2024-02-01_12h27.52.262,Recall,2021.2.3,59.87547103691211,
,SD032.jpg,0,MF032.jpg,0,,,,,0,64,64,81,imgFunc,9,NA,1.314233500044793,1014.2593235000968,1015.6762838501018,2024-02-01 12:41:19.387199,2024-02-01 12:41:20.797050,SD032.jpg,0,10858,70-89+,2024-02-01_12h27.52.262,Recall,2021.2.3,59.87547103691211,
,SD014.jpg,0,MF014.jpg,0,,,,,0,65,65,63,imgFunc,2,NA,2.0502819002140313,1015.667240299983,1017.8183428500779,2024-02-01 12:41:20.805052,2024-02-01 12:41:22.948366,SD014.jpg,0,10858,70-89+,2024-02-01_12h27.52.262,Recall,2021.2.3,59.87547103691211,
,DD030.jpg,0,FF030.jpg,0,,,,,0,66,66,29,imgFunc,2,NA,0.9323253000620753,1017.817019399954,1018.8358645502012,2024-02-01 12:41:22.955349,2024-02-01 12:41:23.965806,DD030.jpg,0,10858,70-89+,2024-02-01_12h27.52.262,Recall,2021.2.3,59.87547103691211,
,DD036.jpg,0,FF036.jpg,0,,,,,0,67,67,35,imgFunc,2,NA,1.2683496000245214,1018.8411948999856,1020.2098451501224,2024-02-01 12:41:23.973787,2024-02-01 12:41:25.333433,DD036.jpg,0,10858,70-89+,2024-02-01_12h27.52.262,Recall,2021.2.3,59.87547103691211,
,SD012.jpg,0,MF012.jpg,0,,,,,0,68,68,61,imgFunc,9,NA,2.3016363999340683,1020.215719900094,1022.6192527499516,2024-02-01 12:41:25.340416,2024-02-01 12:41:27.735441,SD012.jpg,0,10858,70-89+,2024-02-01_12h27.52.262,Recall,2021.2.3,59.87547103691211,
,SD018.jpg,0,MF018.jpg,0,,,,,0,69,69,67,imgFunc,0,NA,6.962449900107458,1022.618953499943,1029.6806390497368,2024-02-01 12:41:27.748408,2024-02-01 12:41:34.807276,SD018.jpg,0,10858,70-89+,2024-02-01_12h27.52.262,Recall,2021.2.3,59.87547103691211,
,L_SD505.jpg,1,L_MF505.jpg,1,,,,,0,70,70,94,imgFunc,0,NA,1.2058345000259578,1029.6793887999374,1030.979186350014,2024-02-01 12:41:34.815287,2024-02-01 12:41:36.107546,L_SD505.jpg,1,10858,70-89+,2024-02-01_12h27.52.262,Recall,2021.2.3,59.87547103691211,
,DD039.jpg,0,FF039.jpg,0,,,,,0,71,71,38,imgFunc,1,NA,4.016610000049695,1030.9808630000334,1035.1005905503407,2024-02-01 12:41:36.115524,2024-02-01 12:41:40.227388,DD039.jpg,0,10858,70-89+,2024-02-01_12h27.52.262,Recall,2021.2.3,59.87547103691211,
,SD039.jpg,0,MF039.jpg,0,,,,,0,72,72,88,imgFunc,9,NA,7.243099000072107,1035.1063594999723,1042.4454023500439,2024-02-01 12:41:40.235391,2024-02-01 12:41:47.565941,SD039.jpg,0,10858,70-89+,2024-02-01_12h27.52.262,Recall,2021.2.3,59.87547103691211,
,SD028.jpg,0,MF028.jpg,0,,,,,0,73,73,77,imgFunc,1,NA,1.591089199995622,1042.4542994999792,1044.1539470499847,2024-02-01 12:41:47.574919,2024-02-01 12:41:49.267188,SD028.jpg,0,10858,70-89+,2024-02-01_12h27.52.262,Recall,2021.2.3,59.87547103691211,
,L_DD502.jpg,1,L_FF502.jpg,1,,,,,0,74,74,41,imgFunc,1,NA,1.14173400006257,1044.1517088999972,1045.3891529501416,2024-02-01 12:41:49.282150,2024-02-01 12:41:50.517752,L_DD502.jpg,1,10858,70-89+,2024-02-01_12h27.52.262,Recall,2021.2.3,59.87547103691211,
,DD007.jpg,0,FF007.jpg,0,,,,,0,75,75,6,imgFunc,1,NA,0.903358600102365,1045.3900957000442,1046.3910672499333,2024-02-01 12:41:50.525639,2024-02-01 12:41:51.519008,DD007.jpg,0,10858,70-89+,2024-02-01_12h27.52.262,Recall,2021.2.3,59.87547103691211,
,DD018.jpg,0,FF018.jpg,0,,,,,0,76,76,17,imgFunc,1,NA,0.10697480011731386,1046.386541499989,1046.5882783499546,2024-02-01 12:41:51.525991,2024-02-01 12:41:51.718946,DD018.jpg,0,10858,70-89+,2024-02-01_12h27.52.262,Recall,2021.2.3,59.87547103691211,
,SD038.jpg,0,MF038.jpg,0,,,,,0,77,77,87,imgFunc,1,NA,1.2437243999447674,1046.5856733000837,1047.921556449961,2024-02-01 12:41:51.725929,2024-02-01 12:41:53.053287,SD038.jpg,0,10858,70-89+,2024-02-01_12h27.52.262,Recall,2021.2.3,59.87547103691211,
,SD035.jpg,0,MF035.jpg,0,,,,,0,78,78,84,imgFunc,1,NA,0.8823983001057059,1047.9227883000858,1048.908247250365,2024-02-01 12:41:53.060270,2024-02-01 12:41:54.037534,SD035.jpg,0,10858,70-89+,2024-02-01_12h27.52.262,Recall,2021.2.3,59.87547103691211,
,DD009.jpg,0,FF009.jpg,0,,,,,0,79,79,8,imgFunc,9,NA,3.1131183998659253,1048.9241792999674,1052.1304265500512,2024-02-01 12:41:54.051499,2024-02-01 12:41:57.256448,DD009.jpg,0,10858,70-89+,2024-02-01_12h27.52.262,Recall,2021.2.3,59.87547103691211,
,DD038.jpg,0,FF038.jpg,0,,,,,0,80,80,37,imgFunc,9,NA,4.423323600087315,1052.126103800023,1056.6473072499502,2024-02-01 12:41:57.263453,2024-02-01 12:42:01.776426,DD038.jpg,0,10858,70-89+,2024-02-01_12h27.52.262,Recall,2021.2.3,59.87547103691211,
,L_DD506.jpg,1,L_FF506.jpg,1,,,,,0,81,81,45,imgFunc,0,NA,1.3405047000851482,1056.6489929999225,1058.0825606498402,2024-02-01 12:42:01.784406,2024-02-01 12:42:03.210741,L_DD506.jpg,1,10858,70-89+,2024-02-01_12h27.52.262,Recall,2021.2.3,59.87547103691211,
,L_DD507.jpg,1,L_FF507.jpg,1,,,,,0,82,82,46,imgFunc,0,NA,1.5127411000430584,1058.0846062998753,1059.7036937500816,2024-02-01 12:42:03.217724,2024-02-01 12:42:04.827938,L_DD507.jpg,1,10858,70-89+,2024-02-01_12h27.52.262,Recall,2021.2.3,59.87547103691211,
,L_DD510.jpg,1,L_FF510.jpg,1,,,,,0,83,83,49,imgFunc,0,NA,1.2224200998898596,1059.7189140000846,1061.0531684500165,2024-02-01 12:42:04.835919,2024-02-01 12:42:06.162575,L_DD510.jpg,1,10858,70-89+,2024-02-01_12h27.52.262,Recall,2021.2.3,59.87547103691211,
,SD024.jpg,0,MF024.jpg,0,,,,,0,84,84,73,imgFunc,2,NA,3.4012538997922093,1061.036076700082,1064.5403454501648,2024-02-01 12:42:06.169558,2024-02-01 12:42:09.664960,SD024.jpg,0,10858,70-89+,2024-02-01_12h27.52.262,Recall,2021.2.3,59.87547103691211,
,SD027.jpg,0,MF027.jpg,0,,,,,0,85,85,76,imgFunc,2,NA,2.2629309999756515,1064.534610300092,1066.887801650213,2024-02-01 12:42:09.671943,2024-02-01 12:42:12.016994,SD027.jpg,0,10858,70-89+,2024-02-01_12h27.52.262,Recall,2021.2.3,59.87547103691211,
,DD022.jpg,0,FF022.jpg,0,,,,,0,86,86,21,imgFunc,9,NA,5.756208300124854,1066.8970466998871,1072.7528587498236,2024-02-01 12:42:12.023978,2024-02-01 12:42:17.871005,DD022.jpg,0,10858,70-89+,2024-02-01_12h27.52.262,Recall,2021.2.3,59.87547103691211,
,SD008.jpg,0,MF008.jpg,0,,,,,0,87,87,57,imgFunc,9,NA,2.202142999973148,1072.7472796000075,1075.0465757497586,2024-02-01 12:42:17.879975,2024-02-01 12:42:20.172491,SD008.jpg,0,10858,70-89+,2024-02-01_12h27.52.262,Recall,2021.2.3,59.87547103691211,
,DD014.jpg,0,FF014.jpg,0,,,,,0,88,88,13,imgFunc,9,NA,1.2436292001511902,1075.0574280999135,1076.3985101501457,2024-02-01 12:42:20.185457,2024-02-01 12:42:21.522945,DD014.jpg,0,10858,70-89+,2024-02-01_12h27.52.262,Recall,2021.2.3,59.87547103691211,
,SD023.jpg,0,MF023.jpg,0,,,,,0,89,89,72,imgFunc,0,NA,2.641829000087455,1076.443254099926,1079.2013445999473,2024-02-01 12:42:21.552864,2024-02-01 12:42:24.308586,SD023.jpg,0,10858,70-89+,2024-02-01_12h27.52.262,Recall,2021.2.3,59.87547103691211,
,L_DD504.jpg,1,L_FF504.jpg,1,,,,,0,90,90,43,imgFunc,9,NA,2.3706569999922067,1079.2265516999178,1081.7336441499647,2024-02-01 12:42:24.322550,2024-02-01 12:42:26.827475,L_DD504.jpg,1,10858,70-89+,2024-02-01_12h27.52.262,Recall,2021.2.3,59.87547103691211,
,DD033.jpg,0,FF033.jpg,0,,,,,0,91,91,32,imgFunc,1,NA,4.847774399910122,1081.6933345000725,1086.630597050069,2024-02-01 12:42:26.835456,2024-02-01 12:42:31.764006,DD033.jpg,0,10858,70-89+,2024-02-01_12h27.52.262,Recall,2021.2.3,59.87547103691211,
,DD015.jpg,0,FF015.jpg,0,,,,,0,92,92,14,imgFunc,2,NA,2.197095099836588,1086.6399457000662,1088.9399427501485,2024-02-01 12:42:31.773003,2024-02-01 12:42:34.065816,DD015.jpg,0,10858,70-89+,2024-02-01_12h27.52.262,Recall,2021.2.3,59.87547103691211,
,DD028.jpg,0,FF028.jpg,0,,,,,0,93,93,27,imgFunc,9,NA,5.588551199994981,1088.9528486998752,1094.648516900139,2024-02-01 12:42:34.086758,2024-02-01 12:42:39.770152,DD028.jpg,0,10858,70-89+,2024-02-01_12h27.52.262,Recall,2021.2.3,59.87547103691211,
,SD004.jpg,0,MF004.jpg,0,,,,,0,94,94,53,imgFunc,2,NA,3.670599899953231,1094.6384161000606,1098.40574524994,2024-02-01 12:42:39.779130,2024-02-01 12:42:43.539256,SD004.jpg,0,10858,70-89+,2024-02-01_12h27.52.262,Recall,2021.2.3,59.87547103691211,
,L_SD503.jpg,1,L_MF503.jpg,1,,,,,0,95,95,92,imgFunc,9,NA,2.8684168998152018,1098.408949200064,1101.3751662499271,2024-02-01 12:42:43.548226,2024-02-01 12:42:46.508161,L_SD503.jpg,1,10858,70-89+,2024-02-01_12h27.52.262,Recall,2021.2.3,59.87547103691211,
,L_DD503.jpg,1,L_FF503.jpg,1,,,,,0,96,96,42,imgFunc,0,NA,3.046994599979371,1101.3823712000158,1104.5361557500437,2024-02-01 12:42:46.515144,2024-02-01 12:42:49.660171,L_DD503.jpg,1,10858,70-89+,2024-02-01_12h27.52.262,Recall,2021.2.3,59.87547103691211,
,DD016.jpg,0,FF016.jpg,0,,,,,0,97,97,15,imgFunc,9,NA,2.1801915999967605,1104.5453212999273,1106.8317715497687,2024-02-01 12:42:49.668153,2024-02-01 12:42:51.945539,DD016.jpg,0,10858,70-89+,2024-02-01_12h27.52.262,Recall,2021.2.3,59.87547103691211,
,DD040.jpg,0,FF040.jpg,0,,,,,0,98,98,39,imgFunc,2,NA,5.281489399960265,1106.8277966999449,1112.2008204499725,2024-02-01 12:42:51.960500,2024-02-01 12:42:57.332703,DD040.jpg,0,10858,70-89+,2024-02-01_12h27.52.262,Recall,2021.2.3,59.87547103691211,
,DD032.jpg,0,FF032.jpg,0,,,,,0,99,99,31,imgFunc,9,NA,2.364813799969852,1112.200503299944,1114.6506966501474,2024-02-01 12:42:57.341681,2024-02-01 12:42:59.784697,DD032.jpg,0,10858,70-89+,2024-02-01_12h27.52.262,Recall,2021.2.3,59.87547103691211,
