onset	duration	trial_type	rt	resp	gender	image_left	image_right
0.62793629989028	3.00119850016199	decision	2.533411500044167	left	F	FF017.jpg	FF018.jpg
4.17799329990521	1.00007389998063	loss	n/a	n/a	n/a	FF017.jpg	FF018.jpg
11.1280537999701	3.00183660001494	decision	2.0326386999804527	right	F	FF035.jpg	FF036.jpg
14.6779737998731	1.01653740019538	win	n/a	n/a	n/a	FF035.jpg	FF036.jpg
21.644584099995	3.00089369993657	decision	2.7833298000041395	right	F	FF021.jpg	FF022.jpg
25.1945104000624	1.00013209995814	loss	n/a	n/a	n/a	FF021.jpg	FF022.jpg
32.1445333999582	3.0023874999024	decision	2.5328856001142412	left	M	MF025.jpg	MF026.jpg
35.6944913999178	1.01676560007036	loss	n/a	n/a	n/a	MF025.jpg	MF026.jpg
38.4611944998614	3.03586320020258	decision-missed	n/a	n/a	M	MF027.jpg	MF028.jpg
42.0445077999029	1.01654079998843	loss	n/a	n/a	n/a	MF027.jpg	MF028.jpg
44.8112369000446	3.00134369987063	decision	2.2827180000022054	right	M	MF023.jpg	MF024.jpg
48.3613352000248	1.01663589989766	win	n/a	n/a	n/a	MF023.jpg	MF024.jpg
51.1278496999294	3.00111300009303	decision	2.5335864999797195	right	F	FF037.jpg	FF038.jpg
54.6777884999756	1.01669429987669	win	n/a	n/a	n/a	FF037.jpg	FF038.jpg
59.5444076999556	3.00091940001585	decision	2.7832404000218958	right	M	MF011.jpg	MF012.jpg
63.0944809999783	1.00007990002632	loss	n/a	n/a	n/a	MF011.jpg	MF012.jpg
67.9445557999425	3.00114429998212	decision	2.7825963001232594	left	F	FF009.jpg	FF010.jpg
71.4944239000324	1.0167397998739	win	n/a	n/a	n/a	FF009.jpg	FF010.jpg
74.2612375000026	3.00111839990132	decision	2.7825946998782456	right	F	FF027.jpg	FF028.jpg
77.8111876999028	1.00013980013318	win	n/a	n/a	n/a	FF027.jpg	FF028.jpg
82.6612150999717	3.00166770000942	decision	2.032643700018525	right	F	FF015.jpg	FF016.jpg
86.2112397998571	1.01651690015569	loss	n/a	n/a	n/a	FF015.jpg	FF016.jpg
93.1778076998889	3.00100699998438	decision	2.0334671000018716	left	M	MF029.jpg	MF030.jpg
96.7277651999611	1.01677069999278	loss	n/a	n/a	n/a	MF029.jpg	MF030.jpg
101.594554699957	3.00111939990893	decision	2.033312800107524	right	M	MF015.jpg	MF016.jpg
105.144345999928	1.0000726999715	win	n/a	n/a	n/a	MF015.jpg	MF016.jpg
112.094464000082	3.00121389981359	decision	1.7834334999788553	left	M	MF007.jpg	MF008.jpg
115.644421600038	1.01665239990689	win	n/a	n/a	n/a	MF007.jpg	MF008.jpg
120.511109499959	3.00169529998675	decision	2.5323902999516577	left	M	MF017.jpg	MF018.jpg
124.061041499954	1.00002099992707	win	n/a	n/a	n/a	MF017.jpg	MF018.jpg
126.811137199868	3.00170280016027	decision	2.032459600130096	left	F	FF033.jpg	FF034.jpg
130.361048900057	1.01653829985298	win	n/a	n/a	n/a	FF033.jpg	FF034.jpg
133.127656899858	3.00127850007266	decision	2.032835500082001	left	F	FF007.jpg	FF008.jpg
136.677678599954	1.01674250001088	loss	n/a	n/a	n/a	FF007.jpg	FF008.jpg
139.444418699946	3.00017499993555	decision	2.2834048001095653	right	F	FF023.jpg	FF024.jpg
142.994245599955	1.0000215000473	loss	n/a	n/a	n/a	FF023.jpg	FF024.jpg
156.244440299924	3.0007666000165	decision	2.533243899932131	left	M	MF009.jpg	MF010.jpg
159.794394599972	1.00003200001083	loss	n/a	n/a	n/a	MF009.jpg	MF010.jpg
164.64427160006	3.00103709986433	decision	2.03349669999443	right	F	FF001.jpg	FF002.jpg
168.194211999886	1.00006350013427	win	n/a	n/a	n/a	FF001.jpg	FF002.jpg
170.944258499891	3.00163980014622	decision	2.282587500056252	left	M	MF019.jpg	MF020.jpg
174.494341699872	1.01661629998125	loss	n/a	n/a	n/a	MF019.jpg	MF020.jpg
181.460974900052	3.0017980998382	decision	1.7826648999471217	right	F	FF031.jpg	FF032.jpg
185.010900499998	1.01659399992786	loss	n/a	n/a	n/a	FF031.jpg	FF032.jpg
189.877762200078	3.00110209989361	decision	1.7824305999092758	right	M	MF005.jpg	MF006.jpg
193.427450000076	1.01675259997137	win	n/a	n/a	n/a	MF005.jpg	MF006.jpg
196.194356000051	3.00140059995465	decision	1.7827765999827534	right	F	FF019.jpg	FF020.jpg
199.744105499936	1.00014010001905	win	n/a	n/a	n/a	FF019.jpg	FF020.jpg
206.694180599879	3.00037540006451	decision	2.7836172999814153	left	M	MF013.jpg	MF014.jpg
210.244094699854	1.00006840005517	loss	n/a	n/a	n/a	MF013.jpg	MF014.jpg
217.194293299923	3.00080329994671	decision	2.2823817001190037	right	M	MF031.jpg	MF032.jpg
220.744145300006	1.01666749990545	loss	n/a	n/a	n/a	MF031.jpg	MF032.jpg
225.610843400005	3.00136770005338	decision	1.533688599942252	left	F	FF039.jpg	FF040.jpg
229.160660299938	1.00002139993012	loss	n/a	n/a	n/a	FF039.jpg	FF040.jpg
231.910848199856	3.00150910019875	decision	1.7829058000352234	right	F	FF005.jpg	FF006.jpg
235.460650299909	1.00000829994678	loss	n/a	n/a	n/a	FF005.jpg	FF006.jpg
242.410737100057	3.00183339999057	decision	2.0325141998473555	left	M	MF037.jpg	MF038.jpg
245.960667199921	1.01660630013794	loss	n/a	n/a	n/a	MF037.jpg	MF038.jpg
248.727398500079	3.00182779994793	decision	1.5326614999212325	left	M	MF039.jpg	MF040.jpg
252.277342200046	1.01665689982474	win	n/a	n/a	n/a	MF039.jpg	MF040.jpg
255.044091499876	3.00124430004507	decision	2.0337181000504643	right	M	MF033.jpg	MF034.jpg
258.594022799982	1.01655120006762	loss	n/a	n/a	n/a	MF033.jpg	MF034.jpg
261.360744799953	3.00110500003211	decision	1.783005400095135	right	F	FF013.jpg	FF014.jpg
264.910579500021	1.00000380002894	win	n/a	n/a	n/a	FF013.jpg	FF014.jpg
269.760761299869	3.00196700007655	decision	1.7836472000926733	right	M	MF001.jpg	MF002.jpg
273.310581699945	1.01646360009909	win	n/a	n/a	n/a	MF001.jpg	MF002.jpg
276.07747759996	3.0011829000432	decision	2.032526599941775	right	F	FF003.jpg	FF004.jpg
279.627334200079	1.00000799982809	win	n/a	n/a	n/a	FF003.jpg	FF004.jpg
284.477348699933	3.00138020003214	decision	1.78290869994089	right	M	MF003.jpg	MF004.jpg
288.027305499883	1.01663610013202	win	n/a	n/a	n/a	MF003.jpg	MF004.jpg
294.994032399962	3.0005983998999	decision	1.5321321999654174	left	F	FF025.jpg	FF026.jpg
298.543916099938	1.01652560010552	win	n/a	n/a	n/a	FF025.jpg	FF026.jpg
305.510545099853	3.00155120017007	decision	2.0332342002075166	left	M	MF035.jpg	MF036.jpg
309.060441999929	1.01676409994252	win	n/a	n/a	n/a	MF035.jpg	MF036.jpg
311.827289399924	3.00132360006683	decision	2.282175400061533	right	F	FF011.jpg	FF012.jpg
315.377223300049	1.01663309987634	loss	n/a	n/a	n/a	FF011.jpg	FF012.jpg
318.143960400019	3.00140049983747	decision	2.532855900004506	right	M	MF021.jpg	MF022.jpg
321.693841199856	1.01664950000122	win	n/a	n/a	n/a	MF021.jpg	MF022.jpg
326.560451299883	3.00116200000048	decision	1.78310800017789	left	F	FF029.jpg	FF030.jpg
330.110432599904	1.0168153999839	loss	n/a	n/a	n/a	FF029.jpg	FF030.jpg
