instrText,stimDoor,stimDoorLure,stimFace,stimFaceLure,Instructions.thisRepN,Instructions.thisTrialN,Instructions.thisN,Instructions.thisIndex,Trials.thisRepN,Trials.thisTrialN,Trials.thisN,Trials.thisIndex,Func,Keys,Text,RespTime,Onset,Offset,SystemTime_Start,SystemTime_Stop,Stim,Lure,Participant*,Age,date,expName,psychopyVersion,frameRate,
"In the earlier Feedback Games, you chose which doors contained a prize, and which peers liked you. 

You then saw positive or negative feedback (green check mark or red X) from the door or peer you selected.

You will now see a series of doors and peers, some of which you saw during the earlier Feedback Games, and some that you have never seen before.

Please press the spacebar to continue.",,,,,0,0,0,0,,,,,instrFunc,space,"In the earlier Feedback Games, you chose which doors contained a prize, and which peers liked you. 

You then saw positive or negative feedback (green check mark or red X) from the door or peer you selected.

You will now see a series of doors and peers, some of which you saw during the earlier Feedback Games, and some that you have never seen before.

Please press the spacebar to continue.",21.30668139993213,19.53123510000296,40.91520873922855,2023-08-07 18:50:11.962379,2023-08-07 18:50:33.338092,,,10783,40-69,2023-08-07_18h50.09.016,Recall,2021.2.3,60.0544333613707,
"For doors/peers that you remember selecting and getting feedback from, your job is to RECALL what feedback you received. 

Press '1' if you recall positive feedback. 

Press '2' if you recall negative feedback

Press the spacebar to continue.",,,,,0,1,1,1,,,,,instrFunc,space,"For doors/peers that you remember selecting and getting feedback from, your job is to RECALL what feedback you received. 

Press '1' if you recall positive feedback. 

Press '2' if you recall negative feedback

Press the spacebar to continue.",11.841539500048384,40.88446209998801,52.77343522012234,2023-08-07 18:50:33.339092,2023-08-07 18:50:45.212631,,,10783,40-69,2023-08-07_18h50.09.016,Recall,2021.2.3,60.0544333613707,
"For doors/peers that you don't remember getting feedback from, your job is to PREDICT what feedback you WOULD HAVE received.

Press '9' if you predict positive feedback.

Press '0' if you predict negative feedback. 

Please press the spacebar to continue.",,,,,0,2,2,2,,,,,instrFunc,space,"For doors/peers that you don't remember getting feedback from, your job is to PREDICT what feedback you WOULD HAVE received.

Press '9' if you predict positive feedback.

Press '0' if you predict negative feedback. 

Please press the spacebar to continue.",14.76555999997072,52.76032819994725,67.58497842005454,2023-08-07 18:50:45.213271,2023-08-07 18:51:00.023022,,,10783,40-69,2023-08-07_18h50.09.016,Recall,2021.2.3,60.0544333613707,
"This task is self-paced, and the prompts will always stay on the screen so that you know which buttons to press.

On the next screen we will show you what those prompts look like, so that you know exactly what to expect. 

You will start with either doors or peers, and then switch halfway through. 

Please press the spacebar to continue.",,,,,0,3,3,3,,,,,instrFunc,space,"This task is self-paced, and the prompts will always stay on the screen so that you know which buttons to press.

On the next screen we will show you what those prompts look like, so that you know exactly what to expect. 

You will start with either doors or peers, and then switch halfway through. 

Please press the spacebar to continue.",11.471849200082943,67.5662760999985,79.08956091990694,2023-08-07 18:51:00.024018,2023-08-07 18:51:11.532099,,,10783,40-69,2023-08-07_18h50.09.016,Recall,2021.2.3,60.0544333613707,
,,,,,,,,,,,,,imgtextFunc,space,"Here is what the screen will look like while you make your ratings.
The green circles remind you to press 1 or 9 for positive feedback.
The red circles remind you to press 2 or 0 for negative feedback.









Please let the experimenter know if you have any questions.

Whenever you're ready, press the spacebar to start the task.",16.813875500112772,79.20811989996582,96.18466921988875,2023-08-07 18:51:11.542074,2023-08-07 18:51:28.511923,,,10783,40-69,2023-08-07_18h50.09.016,Recall,2021.2.3,60.0544333613707,
,DD003.jpg,0,FF003.jpg,0,,,,,0,0,0,2,imgFunc,9,NA,12.902727199951187,96.17548789991997,109.20280516007915,2023-08-07 18:51:28.552758,2023-08-07 18:51:41.570689,DD003.jpg,0,10783,40-69,2023-08-07_18h50.09.016,Recall,2021.2.3,60.0544333613707,
,DD020.jpg,0,FF020.jpg,0,,,,,0,1,1,19,imgFunc,1,NA,7.067798699950799,109.2021500999108,116.38472771993838,2023-08-07 18:51:41.581661,2023-08-07 18:51:48.759341,DD020.jpg,0,10783,40-69,2023-08-07_18h50.09.016,Recall,2021.2.3,60.0544333613707,
,SD029.jpg,0,MF029.jpg,0,,,,,0,2,2,78,imgFunc,9,NA,9.289303000085056,116.38855720008723,125.79193162010051,2023-08-07 18:51:48.769316,2023-08-07 18:51:58.165583,SD029.jpg,0,10783,40-69,2023-08-07_18h50.09.016,Recall,2021.2.3,60.0544333613707,
,L_DD504.jpg,1,L_FF504.jpg,1,,,,,0,3,3,43,imgFunc,0,NA,6.5248690999578685,125.79323709988967,132.4213772197254,2023-08-07 18:51:58.178547,2023-08-07 18:52:04.804458,L_DD504.jpg,1,10783,40-69,2023-08-07_18h50.09.016,Recall,2021.2.3,60.0544333613707,
,DD026.jpg,0,FF026.jpg,0,,,,,0,4,4,25,imgFunc,9,NA,4.8699161999393255,132.40826350008138,137.37666071997955,2023-08-07 18:52:04.813436,2023-08-07 18:52:09.774562,DD026.jpg,0,10783,40-69,2023-08-07_18h50.09.016,Recall,2021.2.3,60.0544333613707,
,L_DD503.jpg,1,L_FF503.jpg,1,,,,,0,5,5,42,imgFunc,0,NA,2.1547799999825656,137.38727830001153,139.6528145200573,2023-08-07 18:52:09.783539,2023-08-07 18:52:12.042617,L_DD503.jpg,1,10783,40-69,2023-08-07_18h50.09.016,Recall,2021.2.3,60.0544333613707,
,SD034.jpg,0,MF034.jpg,0,,,,,0,6,6,83,imgFunc,1,NA,2.479061100166291,139.66300549986772,142.24855721974745,2023-08-07 18:52:12.050597,2023-08-07 18:52:14.628042,SD034.jpg,0,10783,40-69,2023-08-07_18h50.09.016,Recall,2021.2.3,60.0544333613707,
,L_SD503.jpg,1,L_MF503.jpg,1,,,,,0,7,7,92,imgFunc,1,NA,1.536929100053385,142.24525769986212,143.8865744199138,2023-08-07 18:52:14.641009,2023-08-07 18:52:16.278989,L_SD503.jpg,1,10783,40-69,2023-08-07_18h50.09.016,Recall,2021.2.3,60.0544333613707,
,SD009.jpg,0,MF009.jpg,0,,,,,0,8,8,58,imgFunc,1,NA,1.4891613000072539,143.8849319999572,145.47055421979167,2023-08-07 18:52:16.286969,2023-08-07 18:52:17.863572,SD009.jpg,0,10783,40-69,2023-08-07_18h50.09.016,Recall,2021.2.3,60.0544333613707,
,DD002.jpg,0,FF002.jpg,0,,,,,0,9,9,1,imgFunc,0,NA,2.5706256998237222,145.46753229992464,148.13721071975306,2023-08-07 18:52:17.871401,2023-08-07 18:52:20.532047,DD002.jpg,0,10783,40-69,2023-08-07_18h50.09.016,Recall,2021.2.3,60.0544333613707,
,L_SD510.jpg,1,L_MF510.jpg,1,,,,,0,10,10,99,imgFunc,0,NA,3.560154699953273,148.1338424999267,151.78783591999672,2023-08-07 18:52:20.539851,2023-08-07 18:52:24.185024,L_SD510.jpg,1,10783,40-69,2023-08-07_18h50.09.016,Recall,2021.2.3,60.0544333613707,
,SD012.jpg,0,MF012.jpg,0,,,,,0,11,11,61,imgFunc,1,NA,4.461751299910247,151.79231250006706,156.36392032005824,2023-08-07 18:52:24.192007,2023-08-07 18:52:28.754910,SD012.jpg,0,10783,40-69,2023-08-07_18h50.09.016,Recall,2021.2.3,60.0544333613707,
,DD040.jpg,0,FF040.jpg,0,,,,,0,12,12,39,imgFunc,1,NA,0.9720439999364316,156.39417849993333,157.47913781995885,2023-08-07 18:52:28.770869,2023-08-07 18:52:29.855539,DD040.jpg,0,10783,40-69,2023-08-07_18h50.09.016,Recall,2021.2.3,60.0544333613707,
,SD003.jpg,0,MF003.jpg,0,,,,,0,13,13,52,imgFunc,1,NA,1.3122904000338167,157.4535131000448,158.85653732018545,2023-08-07 18:52:29.862522,2023-08-07 18:52:31.256599,SD003.jpg,0,10783,40-69,2023-08-07_18h50.09.016,Recall,2021.2.3,60.0544333613707,
,SD017.jpg,0,MF017.jpg,0,,,,,0,14,14,66,imgFunc,0,NA,1.4708955998066813,158.855165499961,160.42479552002624,2023-08-07 18:52:31.263582,2023-08-07 18:52:32.824519,SD017.jpg,0,10783,40-69,2023-08-07_18h50.09.016,Recall,2021.2.3,60.0544333613707,
,SD030.jpg,0,MF030.jpg,0,,,,,0,15,15,79,imgFunc,9,NA,1.828090799972415,160.42599019990303,162.3461386198178,2023-08-07 18:52:32.831502,2023-08-07 18:52:34.742531,SD030.jpg,0,10783,40-69,2023-08-07_18h50.09.016,Recall,2021.2.3,60.0544333613707,
,SD026.jpg,0,MF026.jpg,0,,,,,0,16,16,75,imgFunc,2,NA,2.239199799951166,162.34284749999642,164.67931232019328,2023-08-07 18:52:34.749514,2023-08-07 18:52:37.077354,SD026.jpg,0,10783,40-69,2023-08-07_18h50.09.016,Recall,2021.2.3,60.0544333613707,
,SD011.jpg,0,MF011.jpg,0,,,,,0,17,17,60,imgFunc,9,NA,3.00209299987182,164.69200440007262,167.79724981985055,2023-08-07 18:52:37.092316,2023-08-07 18:52:40.196268,SD011.jpg,0,10783,40-69,2023-08-07_18h50.09.016,Recall,2021.2.3,60.0544333613707,
,L_SD507.jpg,1,L_MF507.jpg,1,,,,,0,18,18,96,imgFunc,9,NA,6.068239100044593,167.79379109991714,173.94949811976403,2023-08-07 18:52:40.204249,2023-08-07 18:52:46.350993,L_SD507.jpg,1,10783,40-69,2023-08-07_18h50.09.016,Recall,2021.2.3,60.0544333613707,
,SD038.jpg,0,MF038.jpg,0,,,,,0,19,19,87,imgFunc,1,NA,2.724172499962151,173.95397239993326,176.77043871977367,2023-08-07 18:52:46.359970,2023-08-07 18:52:49.169372,SD038.jpg,0,10783,40-69,2023-08-07_18h50.09.016,Recall,2021.2.3,60.0544333613707,
,L_DD501.jpg,1,L_FF501.jpg,1,,,,,0,20,20,40,imgFunc,0,NA,5.724481399869546,176.78568949992768,182.62497222004458,2023-08-07 18:52:49.176355,2023-08-07 18:52:55.007125,L_DD501.jpg,1,10783,40-69,2023-08-07_18h50.09.016,Recall,2021.2.3,60.0544333613707,
,SD021.jpg,0,MF021.jpg,0,,,,,0,21,21,70,imgFunc,2,NA,3.820324399974197,182.6418188000098,186.59304021974094,2023-08-07 18:52:55.016102,2023-08-07 18:52:58.959956,SD021.jpg,0,10783,40-69,2023-08-07_18h50.09.016,Recall,2021.2.3,60.0544333613707,
,DD010.jpg,0,FF010.jpg,0,,,,,0,22,22,9,imgFunc,9,NA,2.761409299913794,186.55675960006192,189.4106629199814,2023-08-07 18:52:58.966939,2023-08-07 18:53:01.811885,DD010.jpg,0,10783,40-69,2023-08-07_18h50.09.016,Recall,2021.2.3,60.0544333613707,
,DD023.jpg,0,FF023.jpg,0,,,,,0,23,23,22,imgFunc,0,NA,1.7202808000147343,189.41374749992974,191.2329800198786,2023-08-07 18:53:01.818868,2023-08-07 18:53:03.629964,DD023.jpg,0,10783,40-69,2023-08-07_18h50.09.016,Recall,2021.2.3,60.0544333613707,
,SD004.jpg,0,MF004.jpg,0,,,,,0,24,24,53,imgFunc,9,NA,3.096079000039026,191.23006010008976,194.41739282011986,2023-08-07 18:53:03.636947,2023-08-07 18:53:06.815897,SD004.jpg,0,10783,40-69,2023-08-07_18h50.09.016,Recall,2021.2.3,60.0544333613707,
,DD012.jpg,0,FF012.jpg,0,,,,,0,25,25,11,imgFunc,1,NA,2.027799699921161,194.42624569986947,196.56161721982062,2023-08-07 18:53:06.823877,2023-08-07 18:53:08.950366,DD012.jpg,0,10783,40-69,2023-08-07_18h50.09.016,Recall,2021.2.3,60.0544333613707,
,DD037.jpg,0,FF037.jpg,0,,,,,0,26,26,36,imgFunc,2,NA,2.462048500077799,196.56788029987365,199.12548942002468,2023-08-07 18:53:08.964331,2023-08-07 18:53:11.518996,DD037.jpg,0,10783,40-69,2023-08-07_18h50.09.016,Recall,2021.2.3,60.0544333613707,
,SD036.jpg,0,MF036.jpg,0,,,,,0,27,27,85,imgFunc,2,NA,0.9051097000483423,199.11702780006453,200.1197469199542,2023-08-07 18:53:11.525979,2023-08-07 18:53:12.519717,SD036.jpg,0,10783,40-69,2023-08-07_18h50.09.016,Recall,2021.2.3,60.0544333613707,
,SD006.jpg,0,MF006.jpg,0,,,,,0,28,28,55,imgFunc,2,NA,0.9200003000441939,200.1257700000424,201.1442915201187,2023-08-07 18:53:12.526700,2023-08-07 18:53:13.537120,SD006.jpg,0,10783,40-69,2023-08-07_18h50.09.016,Recall,2021.2.3,60.0544333613707,
,DD011.jpg,0,FF011.jpg,0,,,,,0,29,29,10,imgFunc,1,NA,1.277656199876219,201.1443837999832,202.53043061983772,2023-08-07 18:53:13.544103,2023-08-07 18:53:14.921342,DD011.jpg,0,10783,40-69,2023-08-07_18h50.09.016,Recall,2021.2.3,60.0544333613707,
,SD039.jpg,0,MF039.jpg,0,,,,,0,30,30,88,imgFunc,2,NA,2.172085499856621,202.52202049992047,204.79197481973097,2023-08-07 18:53:14.928325,2023-08-07 18:53:17.189651,SD039.jpg,0,10783,40-69,2023-08-07_18h50.09.016,Recall,2021.2.3,60.0544333613707,
,DD008.jpg,0,FF008.jpg,0,,,,,0,31,31,7,imgFunc,1,NA,1.9439328000880778,204.79818839998916,206.8375393198803,2023-08-07 18:53:17.203615,2023-08-07 18:53:19.241371,DD008.jpg,0,10783,40-69,2023-08-07_18h50.09.016,Recall,2021.2.3,60.0544333613707,
,DD014.jpg,0,FF014.jpg,0,,,,,0,32,32,13,imgFunc,1,NA,1.8339058998972178,206.84421949996613,208.7779117198661,2023-08-07 18:53:19.250349,2023-08-07 18:53:21.176011,DD014.jpg,0,10783,40-69,2023-08-07_18h50.09.016,Recall,2021.2.3,60.0544333613707,
,SD010.jpg,0,MF010.jpg,0,,,,,0,33,33,59,imgFunc,9,NA,2.3916791998781264,208.7742474998813,211.2606376199983,2023-08-07 18:53:21.182994,2023-08-07 18:53:23.661044,SD010.jpg,0,10783,40-69,2023-08-07_18h50.09.016,Recall,2021.2.3,60.0544333613707,
,SD028.jpg,0,MF028.jpg,0,,,,,0,34,34,77,imgFunc,0,NA,5.11658599996008,211.26552510005422,216.48598452028818,2023-08-07 18:53:23.669025,2023-08-07 18:53:28.881198,SD028.jpg,0,10783,40-69,2023-08-07_18h50.09.016,Recall,2021.2.3,60.0544333613707,
,SD008.jpg,0,MF008.jpg,0,,,,,0,35,35,57,imgFunc,9,NA,2.7294000999536365,216.4927799999714,219.32650031987578,2023-08-07 18:53:28.890176,2023-08-07 18:53:31.716760,SD008.jpg,0,10783,40-69,2023-08-07_18h50.09.016,Recall,2021.2.3,60.0544333613707,
,SD025.jpg,0,MF025.jpg,0,,,,,0,36,36,74,imgFunc,9,NA,2.1976033998653293,219.3284630998969,221.61403461988084,2023-08-07 18:53:31.732719,2023-08-07 18:53:34.018552,SD025.jpg,0,10783,40-69,2023-08-07_18h50.09.016,Recall,2021.2.3,60.0544333613707,
,DD022.jpg,0,FF022.jpg,0,,,,,0,37,37,21,imgFunc,0,NA,3.1746686999686062,221.61533599998802,224.88579691993073,2023-08-07 18:53:34.025535,2023-08-07 18:53:37.287468,DD022.jpg,0,10783,40-69,2023-08-07_18h50.09.016,Recall,2021.2.3,60.0544333613707,
,SD013.jpg,0,MF013.jpg,0,,,,,0,38,38,62,imgFunc,0,NA,1.7368995998986065,224.88526530005038,226.72133412002586,2023-08-07 18:53:37.294451,2023-08-07 18:53:39.122055,SD013.jpg,0,10783,40-69,2023-08-07_18h50.09.016,Recall,2021.2.3,60.0544333613707,
,SD033.jpg,0,MF033.jpg,0,,,,,0,39,39,82,imgFunc,1,NA,6.216728299856186,226.73332899995148,233.05555922002532,2023-08-07 18:53:39.129038,2023-08-07 18:53:45.443171,SD033.jpg,0,10783,40-69,2023-08-07_18h50.09.016,Recall,2021.2.3,60.0544333613707,
,L_SD504.jpg,1,L_MF504.jpg,1,,,,,0,40,40,93,imgFunc,2,NA,3.057020300067961,233.07707259990275,236.26066831988283,2023-08-07 18:53:45.452148,2023-08-07 18:53:48.629059,L_SD504.jpg,1,10783,40-69,2023-08-07_18h50.09.016,Recall,2021.2.3,60.0544333613707,
,L_SD502.jpg,1,L_MF502.jpg,1,,,,,0,41,41,91,imgFunc,2,NA,1.9670847998932004,236.23102539987303,238.30070511996746,2023-08-07 18:53:48.636042,2023-08-07 18:53:50.697160,L_SD502.jpg,1,10783,40-69,2023-08-07_18h50.09.016,Recall,2021.2.3,60.0544333613707,
,SD014.jpg,0,MF014.jpg,0,,,,,0,42,42,63,imgFunc,1,NA,3.5531707000918686,238.29281149990857,241.93016971973702,2023-08-07 18:53:50.704143,2023-08-07 18:53:54.332888,SD014.jpg,0,10783,40-69,2023-08-07_18h50.09.016,Recall,2021.2.3,60.0544333613707,
,SD035.jpg,0,MF035.jpg,0,,,,,0,43,43,84,imgFunc,9,NA,1.6764150001108646,241.92962469998747,243.69860842009075,2023-08-07 18:53:54.340890,2023-08-07 18:53:56.101064,SD035.jpg,0,10783,40-69,2023-08-07_18h50.09.016,Recall,2021.2.3,60.0544333613707,
,SD018.jpg,0,MF018.jpg,0,,,,,0,44,44,67,imgFunc,1,NA,2.3994247000664473,243.7185965999961,246.23793401988223,2023-08-07 18:53:56.109045,2023-08-07 18:53:58.619555,SD018.jpg,0,10783,40-69,2023-08-07_18h50.09.016,Recall,2021.2.3,60.0544333613707,
,SD032.jpg,0,MF032.jpg,0,,,,,0,45,45,81,imgFunc,1,NA,3.1174775999970734,246.23232769989409,249.44176861993037,2023-08-07 18:53:58.632522,2023-08-07 18:54:01.838772,SD032.jpg,0,10783,40-69,2023-08-07_18h50.09.016,Recall,2021.2.3,60.0544333613707,
,DD001.jpg,0,FF001.jpg,0,,,,,0,46,46,0,imgFunc,2,NA,1.8986222001258284,249.44346869993024,251.4466228201054,2023-08-07 18:54:01.845755,2023-08-07 18:54:03.840098,DD001.jpg,0,10783,40-69,2023-08-07_18h50.09.016,Recall,2021.2.3,60.0544333613707,
,DD006.jpg,0,FF006.jpg,0,,,,,0,47,47,5,imgFunc,2,NA,2.157141299918294,251.44865399994887,253.71866262005642,2023-08-07 18:54:03.847081,2023-08-07 18:54:06.108443,DD006.jpg,0,10783,40-69,2023-08-07_18h50.09.016,Recall,2021.2.3,60.0544333613707,
,SD027.jpg,0,MF027.jpg,0,,,,,0,48,48,76,imgFunc,9,NA,1.6854872999247164,253.71261719986796,255.49829201982357,2023-08-07 18:54:06.115426,2023-08-07 18:54:07.892892,SD027.jpg,0,10783,40-69,2023-08-07_18h50.09.016,Recall,2021.2.3,60.0544333613707,
,DD007.jpg,0,FF007.jpg,0,,,,,0,49,49,6,imgFunc,1,NA,1.5930761001072824,255.5009923998732,257.2040660199709,2023-08-07 18:54:07.899875,2023-08-07 18:54:09.594206,DD007.jpg,0,10783,40-69,2023-08-07_18h50.09.016,Recall,2021.2.3,60.0544333613707,
,DD017.jpg,0,FF017.jpg,0,,,,,0,50,50,16,imgFunc,0,NA,2.254459099844098,257.21556539996527,259.56834951997735,2023-08-07 18:54:09.610165,2023-08-07 18:54:11.962332,DD017.jpg,0,10783,40-69,2023-08-07_18h50.09.016,Recall,2021.2.3,60.0544333613707,
,DD039.jpg,0,FF039.jpg,0,,,,,0,51,51,38,imgFunc,9,NA,1.654611400095746,259.55934159993194,261.31358902016655,2023-08-07 18:54:11.969315,2023-08-07 18:54:13.714504,DD039.jpg,0,10783,40-69,2023-08-07_18h50.09.016,Recall,2021.2.3,60.0544333613707,
,SD005.jpg,0,MF005.jpg,0,,,,,0,52,52,54,imgFunc,9,NA,1.676996799884364,261.32110020006076,263.1063405200839,2023-08-07 18:54:13.721487,2023-08-07 18:54:15.498402,SD005.jpg,0,10783,40-69,2023-08-07_18h50.09.016,Recall,2021.2.3,60.0544333613707,
,DD038.jpg,0,FF038.jpg,0,,,,,0,53,53,37,imgFunc,1,NA,1.9298734001349658,263.09996400005184,265.1367079198826,2023-08-07 18:54:15.505385,2023-08-07 18:54:17.533206,DD038.jpg,0,10783,40-69,2023-08-07_18h50.09.016,Recall,2021.2.3,60.0544333613707,
,DD016.jpg,0,FF016.jpg,0,,,,,0,54,54,15,imgFunc,1,NA,1.5702722000423819,265.14771779999137,266.834009120008,2023-08-07 18:54:17.540197,2023-08-07 18:54:19.217767,DD016.jpg,0,10783,40-69,2023-08-07_18h50.09.016,Recall,2021.2.3,60.0544333613707,
,SD020.jpg,0,MF020.jpg,0,,,,,0,55,55,69,imgFunc,2,NA,2.4723719998728484,266.8376478999853,269.40859401994385,2023-08-07 18:54:19.232729,2023-08-07 18:54:21.802699,SD020.jpg,0,10783,40-69,2023-08-07_18h50.09.016,Recall,2021.2.3,60.0544333613707,
,DD015.jpg,0,FF015.jpg,0,,,,,0,56,56,14,imgFunc,9,NA,3.707945599919185,269.40208799997345,273.2040159199387,2023-08-07 18:54:21.811677,2023-08-07 18:54:25.605765,DD015.jpg,0,10783,40-69,2023-08-07_18h50.09.016,Recall,2021.2.3,60.0544333613707,
,L_DD505.jpg,1,L_FF505.jpg,1,,,,,0,57,57,44,imgFunc,1,NA,2.2858551000244915,273.2078267999459,275.5941298198886,2023-08-07 18:54:25.612748,2023-08-07 18:54:27.990399,L_DD505.jpg,1,10783,40-69,2023-08-07_18h50.09.016,Recall,2021.2.3,60.0544333613707,
,DD028.jpg,0,FF028.jpg,0,,,,,0,58,58,27,imgFunc,1,NA,1.8116949999239296,275.5863435000647,277.48890192015097,2023-08-07 18:54:27.998377,2023-08-07 18:54:29.891986,DD028.jpg,0,10783,40-69,2023-08-07_18h50.09.016,Recall,2021.2.3,60.0544333613707,
,DD019.jpg,0,FF019.jpg,0,,,,,0,59,59,18,imgFunc,2,NA,2.2736747001763433,277.5083169999998,279.8943759200629,2023-08-07 18:54:29.899999,2023-08-07 18:54:32.277437,DD019.jpg,0,10783,40-69,2023-08-07_18h50.09.016,Recall,2021.2.3,60.0544333613707,
,SD022.jpg,0,MF022.jpg,0,,,,,0,60,60,71,imgFunc,9,NA,4.277740499936044,279.8961008999031,284.2843154196162,2023-08-07 18:54:32.284420,2023-08-07 18:54:36.663526,SD022.jpg,0,10783,40-69,2023-08-07_18h50.09.016,Recall,2021.2.3,60.0544333613707,
,DD034.jpg,0,FF034.jpg,0,,,,,0,61,61,33,imgFunc,1,NA,1.6949036000296474,284.28713999991305,286.10500042000785,2023-08-07 18:54:36.671532,2023-08-07 18:54:38.481662,DD034.jpg,0,10783,40-69,2023-08-07_18h50.09.016,Recall,2021.2.3,60.0544333613707,
,SD007.jpg,0,MF007.jpg,0,,,,,0,62,62,56,imgFunc,1,NA,1.8981361999176443,286.09197860001586,288.09464262006804,2023-08-07 18:54:38.488645,2023-08-07 18:54:40.482885,SD007.jpg,0,10783,40-69,2023-08-07_18h50.09.016,Recall,2021.2.3,60.0544333613707,
,L_SD506.jpg,1,L_MF506.jpg,1,,,,,0,63,63,95,imgFunc,2,NA,3.4673165001440793,288.0825956999324,291.65392961981706,2023-08-07 18:54:40.489868,2023-08-07 18:54:44.052592,L_SD506.jpg,1,10783,40-69,2023-08-07_18h50.09.016,Recall,2021.2.3,60.0544333613707,
,DD033.jpg,0,FF033.jpg,0,,,,,0,64,64,32,imgFunc,1,NA,2.348772899946198,291.6572640000377,294.09930672007613,2023-08-07 18:54:44.065559,2023-08-07 18:54:46.504182,DD033.jpg,0,10783,40-69,2023-08-07_18h50.09.016,Recall,2021.2.3,60.0544333613707,
,SD040.jpg,0,MF040.jpg,0,,,,,0,65,65,89,imgFunc,2,NA,1.848465799819678,294.10951999993995,296.06239601993,2023-08-07 18:54:46.511165,2023-08-07 18:54:48.455637,SD040.jpg,0,10783,40-69,2023-08-07_18h50.09.016,Recall,2021.2.3,60.0544333613707,
,DD021.jpg,0,FF021.jpg,0,,,,,0,66,66,20,imgFunc,2,NA,1.3467719999607652,296.0672009999398,297.52001781994477,2023-08-07 18:54:48.462620,2023-08-07 18:54:49.906760,DD021.jpg,0,10783,40-69,2023-08-07_18h50.09.016,Recall,2021.2.3,60.0544333613707,
,DD031.jpg,0,FF031.jpg,0,,,,,0,67,67,30,imgFunc,9,NA,2.123227800009772,297.51448519993573,299.7495514198672,2023-08-07 18:54:49.914741,2023-08-07 18:54:52.141523,DD031.jpg,0,10783,40-69,2023-08-07_18h50.09.016,Recall,2021.2.3,60.0544333613707,
,L_DD510.jpg,1,L_FF510.jpg,1,,,,,0,68,68,49,imgFunc,0,NA,3.0413609000388533,299.7485519000329,302.9008857200388,2023-08-07 18:54:52.149503,2023-08-07 18:54:55.293796,L_DD510.jpg,1,10783,40-69,2023-08-07_18h50.09.016,Recall,2021.2.3,60.0544333613707,
,L_DD508.jpg,1,L_FF508.jpg,1,,,,,0,69,69,47,imgFunc,0,NA,1.5136391001287848,302.9081826999318,304.511075619841,2023-08-07 18:54:55.308758,2023-08-07 18:54:56.911579,L_DD508.jpg,1,10783,40-69,2023-08-07_18h50.09.016,Recall,2021.2.3,60.0544333613707,
,L_DD506.jpg,1,L_FF506.jpg,1,,,,,0,70,70,45,imgFunc,1,NA,1.8214620999060571,304.5124474999029,306.43219831958413,2023-08-07 18:54:56.918562,2023-08-07 18:54:58.829742,L_DD506.jpg,1,10783,40-69,2023-08-07_18h50.09.016,Recall,2021.2.3,60.0544333613707,
,L_SD508.jpg,1,L_MF508.jpg,1,,,,,0,71,71,97,imgFunc,0,NA,2.040479199960828,306.42146870004945,308.55798212019727,2023-08-07 18:54:58.836726,2023-08-07 18:55:00.964583,L_SD508.jpg,1,10783,40-69,2023-08-07_18h50.09.016,Recall,2021.2.3,60.0544333613707,
,DD018.jpg,0,FF018.jpg,0,,,,,0,72,72,17,imgFunc,1,NA,1.8935406000819057,308.56031060009263,310.5465292199515,2023-08-07 18:55:00.971566,2023-08-07 18:55:02.949304,DD018.jpg,0,10783,40-69,2023-08-07_18h50.09.016,Recall,2021.2.3,60.0544333613707,
,SD016.jpg,0,MF016.jpg,0,,,,,0,73,73,65,imgFunc,2,NA,1.967394100036472,310.55065019987524,312.62042011972517,2023-08-07 18:55:02.956287,2023-08-07 18:55:05.017277,SD016.jpg,0,10783,40-69,2023-08-07_18h50.09.016,Recall,2021.2.3,60.0544333613707,
,DD032.jpg,0,FF032.jpg,0,,,,,0,74,74,31,imgFunc,1,NA,1.8641791001427919,312.62174819991924,314.5915545197204,2023-08-07 18:55:05.024260,2023-08-07 18:55:06.985548,DD032.jpg,0,10783,40-69,2023-08-07_18h50.09.016,Recall,2021.2.3,60.0544333613707,
,DD009.jpg,0,FF009.jpg,0,,,,,0,75,75,8,imgFunc,9,NA,2.0720595000311732,314.58196850004606,316.75157772004604,2023-08-07 18:55:06.992531,2023-08-07 18:55:09.153621,DD009.jpg,0,10783,40-69,2023-08-07_18h50.09.016,Recall,2021.2.3,60.0544333613707,
,DD005.jpg,0,FF005.jpg,0,,,,,0,76,76,4,imgFunc,9,NA,2.867005600128323,316.7550468998961,319.7252550199628,2023-08-07 18:55:09.160604,2023-08-07 18:55:12.122430,DD005.jpg,0,10783,40-69,2023-08-07_18h50.09.016,Recall,2021.2.3,60.0544333613707,
,L_SD509.jpg,1,L_MF509.jpg,1,,,,,0,77,77,98,imgFunc,2,NA,2.370785600040108,319.7310407999903,322.20139542012475,2023-08-07 18:55:12.129413,2023-08-07 18:55:14.591372,L_SD509.jpg,1,10783,40-69,2023-08-07_18h50.09.016,Recall,2021.2.3,60.0544333613707,
,SD031.jpg,0,MF031.jpg,0,,,,,0,78,78,80,imgFunc,1,NA,1.6958683000411838,322.19814489991404,323.98871011985466,2023-08-07 18:55:14.604338,2023-08-07 18:55:16.392517,SD031.jpg,0,10783,40-69,2023-08-07_18h50.09.016,Recall,2021.2.3,60.0544333613707,
,DD035.jpg,0,FF035.jpg,0,,,,,0,79,79,34,imgFunc,1,NA,1.1506169000640512,323.99137749988586,325.2441713199951,2023-08-07 18:55:16.399501,2023-08-07 18:55:17.643258,DD035.jpg,0,10783,40-69,2023-08-07_18h50.09.016,Recall,2021.2.3,60.0544333613707,
,L_DD507.jpg,1,L_FF507.jpg,1,,,,,0,80,80,46,imgFunc,9,NA,2.976125600049272,325.24581209989265,328.3165447199717,2023-08-07 18:55:17.650242,2023-08-07 18:55:20.712567,L_DD507.jpg,1,10783,40-69,2023-08-07_18h50.09.016,Recall,2021.2.3,60.0544333613707,
,DD029.jpg,0,FF029.jpg,0,,,,,0,81,81,28,imgFunc,0,NA,1.9947581000160426,328.31505599990487,330.4181145199109,2023-08-07 18:55:20.719550,2023-08-07 18:55:22.813724,DD029.jpg,0,10783,40-69,2023-08-07_18h50.09.016,Recall,2021.2.3,60.0544333613707,
,SD023.jpg,0,MF023.jpg,0,,,,,0,82,82,72,imgFunc,0,NA,2.6816912998910993,330.4121310999617,333.18117202003486,2023-08-07 18:55:22.821705,2023-08-07 18:55:25.582372,SD023.jpg,0,10783,40-69,2023-08-07_18h50.09.016,Recall,2021.2.3,60.0544333613707,
,L_SD505.jpg,1,L_MF505.jpg,1,,,,,0,83,83,94,imgFunc,9,NA,2.5418130999896675,333.19189379992895,335.83130472013727,2023-08-07 18:55:25.596336,2023-08-07 18:55:28.233837,L_SD505.jpg,1,10783,40-69,2023-08-07_18h50.09.016,Recall,2021.2.3,60.0544333613707,
,DD030.jpg,0,FF030.jpg,0,,,,,0,84,84,29,imgFunc,9,NA,2.9319557999260724,335.8260244000703,338.8461159199942,2023-08-07 18:55:28.241783,2023-08-07 18:55:31.253040,DD030.jpg,0,10783,40-69,2023-08-07_18h50.09.016,Recall,2021.2.3,60.0544333613707,
,SD002.jpg,0,MF002.jpg,0,,,,,0,85,85,51,imgFunc,9,NA,1.4451758000068367,338.8486874999944,340.38479362009093,2023-08-07 18:55:31.260023,2023-08-07 18:55:32.787311,SD002.jpg,0,10783,40-69,2023-08-07_18h50.09.016,Recall,2021.2.3,60.0544333613707,
,SD019.jpg,0,MF019.jpg,0,,,,,0,86,86,68,imgFunc,1,NA,2.7245530001819134,340.3854149999097,343.20615801983513,2023-08-07 18:55:32.794294,2023-08-07 18:55:35.606215,SD019.jpg,0,10783,40-69,2023-08-07_18h50.09.016,Recall,2021.2.3,60.0544333613707,
,SD024.jpg,0,MF024.jpg,0,,,,,0,87,87,73,imgFunc,0,NA,1.7707831000443548,343.2109806998633,345.0808097196277,2023-08-07 18:55:35.613198,2023-08-07 18:55:37.474354,SD024.jpg,0,10783,40-69,2023-08-07_18h50.09.016,Recall,2021.2.3,60.0544333613707,
,SD001.jpg,0,MF001.jpg,0,,,,,0,88,88,50,imgFunc,9,NA,1.715321599971503,345.09060349990614,346.911060819868,2023-08-07 18:55:37.489316,2023-08-07 18:55:39.309136,SD001.jpg,0,10783,40-69,2023-08-07_18h50.09.016,Recall,2021.2.3,60.0544333613707,
,L_DD509.jpg,1,L_FF509.jpg,1,,,,,0,89,89,48,imgFunc,0,NA,6.068686400074512,346.90524520003237,353.06160892010666,2023-08-07 18:55:39.316119,2023-08-07 18:55:45.463485,L_DD509.jpg,1,10783,40-69,2023-08-07_18h50.09.016,Recall,2021.2.3,60.0544333613707,
,DD024.jpg,0,FF024.jpg,0,,,,,0,90,90,23,imgFunc,0,NA,1.3773263001348823,353.068683499936,354.5512918198947,2023-08-07 18:55:45.472463,2023-08-07 18:55:46.947731,DD024.jpg,0,10783,40-69,2023-08-07_18h50.09.016,Recall,2021.2.3,60.0544333613707,
,DD027.jpg,0,FF027.jpg,0,,,,,0,91,91,26,imgFunc,1,NA,4.6881114998832345,354.5498820999637,359.33836171985604,2023-08-07 18:55:46.954714,2023-08-07 18:55:51.734571,DD027.jpg,0,10783,40-69,2023-08-07_18h50.09.016,Recall,2021.2.3,60.0544333613707,
,DD036.jpg,0,FF036.jpg,0,,,,,0,92,92,35,imgFunc,0,NA,2.0171815999783576,359.35667919996195,361.4886339197401,2023-08-07 18:55:51.743549,2023-08-07 18:55:53.869450,DD036.jpg,0,10783,40-69,2023-08-07_18h50.09.016,Recall,2021.2.3,60.0544333613707,
,L_DD502.jpg,1,L_FF502.jpg,1,,,,,0,93,93,41,imgFunc,2,NA,3.916446099989116,361.4812324999366,365.5027932198718,2023-08-07 18:55:53.876433,2023-08-07 18:55:57.888795,L_DD502.jpg,1,10783,40-69,2023-08-07_18h50.09.016,Recall,2021.2.3,60.0544333613707,
,DD025.jpg,0,FF025.jpg,0,,,,,0,94,94,24,imgFunc,1,NA,1.0819184998981655,365.48401029990055,366.65325821982697,2023-08-07 18:55:57.895807,2023-08-07 18:55:59.056812,DD025.jpg,0,10783,40-69,2023-08-07_18h50.09.016,Recall,2021.2.3,60.0544333613707,
,L_SD501.jpg,1,L_MF501.jpg,1,,,,,0,95,95,90,imgFunc,9,NA,1.6492225001566112,366.6527036000043,368.38918231986463,2023-08-07 18:55:59.063795,2023-08-07 18:56:00.791169,L_SD501.jpg,1,10783,40-69,2023-08-07_18h50.09.016,Recall,2021.2.3,60.0544333613707,
,SD015.jpg,0,MF015.jpg,0,,,,,0,96,96,64,imgFunc,1,NA,2.013954699970782,368.39191360003315,370.5109908201266,2023-08-07 18:56:00.799054,2023-08-07 18:56:02.909253,SD015.jpg,0,10783,40-69,2023-08-07_18h50.09.016,Recall,2021.2.3,60.0544333613707,
,DD004.jpg,0,FF004.jpg,0,,,,,0,97,97,3,imgFunc,1,NA,1.4114739000797272,370.5222757998854,372.02870821976103,2023-08-07 18:56:02.923218,2023-08-07 18:56:04.427096,DD004.jpg,0,10783,40-69,2023-08-07_18h50.09.016,Recall,2021.2.3,60.0544333613707,
,SD037.jpg,0,MF037.jpg,0,,,,,0,98,98,86,imgFunc,2,NA,1.9648567999247462,372.0249509999994,374.07832511980087,2023-08-07 18:56:04.434079,2023-08-07 18:56:06.478121,SD037.jpg,0,10783,40-69,2023-08-07_18h50.09.016,Recall,2021.2.3,60.0544333613707,
,DD013.jpg,0,FF013.jpg,0,,,,,0,99,99,12,imgFunc,1,NA,1.410292600048706,374.07562869996764,375.5785608198494,2023-08-07 18:56:06.486123,2023-08-07 18:56:07.979709,DD013.jpg,0,10783,40-69,2023-08-07_18h50.09.016,Recall,2021.2.3,60.0544333613707,
,,,,,,,,,,,,,instrFunc,space,"Great work! 

 Now you will switch to the other image type.

 Press the spacebar whenever you are ready to start.",1.8482361000496894,375.5097447000444,377.40783782000653,2023-08-07 18:56:07.980709,2023-08-07 18:56:09.862978,,,10783,40-69,2023-08-07_18h50.09.016,Recall,2021.2.3,60.0544333613707,
,L_DD501.jpg,1,L_FF501.jpg,1,,,,,0,0,0,40,imgFunc,2,NA,5.36946180020459,377.49239849997684,382.9561690397095,2023-08-07 18:56:09.891902,2023-08-07 18:56:15.351775,L_FF501.jpg,1,10783,40-69,2023-08-07_18h50.09.016,Recall,2021.2.3,60.0544333613707,
,DD016.jpg,0,FF016.jpg,0,,,,,0,1,1,15,imgFunc,1,NA,2.1285367000382394,382.9653431000188,385.1979973197449,2023-08-07 18:56:15.360763,2023-08-07 18:56:17.586719,FF016.jpg,0,10783,40-69,2023-08-07_18h50.09.016,Recall,2021.2.3,60.0544333613707,
,DD021.jpg,0,FF021.jpg,0,,,,,0,2,2,20,imgFunc,2,NA,2.9770914998371154,385.19693639990874,388.28365371981636,2023-08-07 18:56:17.593702,2023-08-07 18:56:20.672091,FF021.jpg,0,10783,40-69,2023-08-07_18h50.09.016,Recall,2021.2.3,60.0544333613707,
,SD030.jpg,0,MF030.jpg,0,,,,,0,3,3,79,imgFunc,2,NA,5.614413400180638,388.27950809989125,393.99281841982156,2023-08-07 18:56:20.684061,2023-08-07 18:56:26.392946,MF030.jpg,0,10783,40-69,2023-08-07_18h50.09.016,Recall,2021.2.3,60.0544333613707,
,L_SD501.jpg,1,L_MF501.jpg,1,,,,,0,4,4,90,imgFunc,9,NA,3.505473400000483,394.0125346998684,397.6301026197616,2023-08-07 18:56:26.401924,2023-08-07 18:56:30.012116,L_MF501.jpg,1,10783,40-69,2023-08-07_18h50.09.016,Recall,2021.2.3,60.0544333613707,
,DD019.jpg,0,FF019.jpg,0,,,,,0,5,5,18,imgFunc,2,NA,2.092339599970728,397.6096832000185,399.7963222202379,2023-08-07 18:56:30.019099,2023-08-07 18:56:32.197113,FF019.jpg,0,10783,40-69,2023-08-07_18h50.09.016,Recall,2021.2.3,60.0544333613707,
,DD014.jpg,0,FF014.jpg,0,,,,,0,6,6,13,imgFunc,1,NA,4.289460100000724,399.79652530001476,404.1845797197893,2023-08-07 18:56:32.204096,2023-08-07 18:56:36.583551,FF014.jpg,0,10783,40-69,2023-08-07_18h50.09.016,Recall,2021.2.3,60.0544333613707,
,SD027.jpg,0,MF027.jpg,0,,,,,0,7,7,76,imgFunc,2,NA,1.9709044999908656,404.2188456999138,406.3208040196914,2023-08-07 18:56:36.591531,2023-08-07 18:56:38.685012,MF027.jpg,0,10783,40-69,2023-08-07_18h50.09.016,Recall,2021.2.3,60.0544333613707,
,DD013.jpg,0,FF013.jpg,0,,,,,0,8,8,12,imgFunc,2,NA,2.7664238999132067,406.2954766000621,409.16489272005856,2023-08-07 18:56:38.692993,2023-08-07 18:56:41.553935,FF013.jpg,0,10783,40-69,2023-08-07_18h50.09.016,Recall,2021.2.3,60.0544333613707,
,SD009.jpg,0,MF009.jpg,0,,,,,0,9,9,58,imgFunc,1,NA,3.1633408998604864,409.16263010003604,412.4327756201383,2023-08-07 18:56:41.560918,2023-08-07 18:56:44.822750,MF009.jpg,0,10783,40-69,2023-08-07_18h50.09.016,Recall,2021.2.3,60.0544333613707,
,SD002.jpg,0,MF002.jpg,0,,,,,0,10,10,51,imgFunc,1,NA,1.2902561998926103,412.4195815999992,413.80551342014223,2023-08-07 18:56:44.829755,2023-08-07 18:56:46.207163,MF002.jpg,0,10783,40-69,2023-08-07_18h50.09.016,Recall,2021.2.3,60.0544333613707,
,SD025.jpg,0,MF025.jpg,0,,,,,0,11,11,74,imgFunc,1,NA,3.238876299932599,413.8068180999253,417.14411381981336,2023-08-07 18:56:46.214146,2023-08-07 18:56:49.542954,MF025.jpg,0,10783,40-69,2023-08-07_18h50.09.016,Recall,2021.2.3,60.0544333613707,
,DD024.jpg,0,FF024.jpg,0,,,,,0,12,12,23,imgFunc,9,NA,2.7864184000063688,417.1551971998997,420.0470916200429,2023-08-07 18:56:49.555921,2023-08-07 18:56:52.444558,FF024.jpg,0,10783,40-69,2023-08-07_18h50.09.016,Recall,2021.2.3,60.0544333613707,
,SD040.jpg,0,MF040.jpg,0,,,,,0,13,13,89,imgFunc,2,NA,5.927946799900383,420.0619041000027,426.10105201997794,2023-08-07 18:56:52.452535,2023-08-07 18:56:58.482874,MF040.jpg,0,10783,40-69,2023-08-07_18h50.09.016,Recall,2021.2.3,60.0544333613707,
,SD034.jpg,0,MF034.jpg,0,,,,,0,14,14,83,imgFunc,2,NA,1.1418727999553084,426.08003790001385,427.31163471983746,2023-08-07 18:56:58.491858,2023-08-07 18:56:59.716722,MF034.jpg,0,10783,40-69,2023-08-07_18h50.09.016,Recall,2021.2.3,60.0544333613707,
,DD034.jpg,0,FF034.jpg,0,,,,,0,15,15,33,imgFunc,0,NA,2.5476682998705655,427.31414770008996,429.95185442012735,2023-08-07 18:56:59.723705,2023-08-07 18:57:02.352571,FF034.jpg,0,10783,40-69,2023-08-07_18h50.09.016,Recall,2021.2.3,60.0544333613707,
,L_DD507.jpg,1,L_FF507.jpg,1,,,,,0,16,16,46,imgFunc,9,NA,2.3286108998581767,429.95730430004187,432.3930835200008,2023-08-07 18:57:02.360551,2023-08-07 18:57:04.787387,L_FF507.jpg,1,10783,40-69,2023-08-07_18h50.09.016,Recall,2021.2.3,60.0544333613707,
,L_DD510.jpg,1,L_FF510.jpg,1,,,,,0,17,17,49,imgFunc,0,NA,3.2680728998966515,432.4098233000841,435.7825696200598,2023-08-07 18:57:04.801352,2023-08-07 18:57:08.172837,L_FF510.jpg,1,10783,40-69,2023-08-07_18h50.09.016,Recall,2021.2.3,60.0544333613707,
,L_DD506.jpg,1,L_FF506.jpg,1,,,,,0,18,18,45,imgFunc,9,NA,3.470921700121835,435.77498660003766,439.3458807200659,2023-08-07 18:57:08.179722,2023-08-07 18:57:11.742400,L_FF506.jpg,1,10783,40-69,2023-08-07_18h50.09.016,Recall,2021.2.3,60.0544333613707,
,SD036.jpg,0,MF036.jpg,0,,,,,0,19,19,85,imgFunc,1,NA,1.4558166998904198,439.3499386999756,440.91365051991306,2023-08-07 18:57:11.752374,2023-08-07 18:57:13.310058,MF036.jpg,0,10783,40-69,2023-08-07_18h50.09.016,Recall,2021.2.3,60.0544333613707,
,DD029.jpg,0,FF029.jpg,0,,,,,0,20,20,28,imgFunc,9,NA,3.0292759998701513,440.91258609993383,444.0499457200058,2023-08-07 18:57:13.317041,2023-08-07 18:57:16.445821,FF029.jpg,0,10783,40-69,2023-08-07_18h50.09.016,Recall,2021.2.3,60.0544333613707,
,SD011.jpg,0,MF011.jpg,0,,,,,0,21,21,60,imgFunc,9,NA,1.5788962999358773,444.05094749992713,445.7365895197727,2023-08-07 18:57:16.452804,2023-08-07 18:57:18.130084,MF011.jpg,0,10783,40-69,2023-08-07_18h50.09.016,Recall,2021.2.3,60.0544333613707,
,DD015.jpg,0,FF015.jpg,0,,,,,0,22,22,14,imgFunc,2,NA,5.414643900003284,445.75088339997455,451.27454731985927,2023-08-07 18:57:18.145069,2023-08-07 18:57:23.667527,FF015.jpg,0,10783,40-69,2023-08-07_18h50.09.016,Recall,2021.2.3,60.0544333613707,
,SD014.jpg,0,MF014.jpg,0,,,,,0,23,23,63,imgFunc,1,NA,2.9968207001220435,451.27273209998384,454.3724004197866,2023-08-07 18:57:23.676527,2023-08-07 18:57:26.769774,MF014.jpg,0,10783,40-69,2023-08-07_18h50.09.016,Recall,2021.2.3,60.0544333613707,
,DD039.jpg,0,FF039.jpg,0,,,,,0,24,24,38,imgFunc,1,NA,1.1582931999582797,454.3672857999336,455.61957081989385,2023-08-07 18:57:26.776757,2023-08-07 18:57:28.020576,FF039.jpg,0,10783,40-69,2023-08-07_18h50.09.016,Recall,2021.2.3,60.0544333613707,
,SD038.jpg,0,MF038.jpg,0,,,,,0,25,25,87,imgFunc,1,NA,2.6831879999954253,455.61862870003097,458.40579182002693,2023-08-07 18:57:28.027544,2023-08-07 18:57:30.806193,MF038.jpg,0,10783,40-69,2023-08-07_18h50.09.016,Recall,2021.2.3,60.0544333613707,
,SD010.jpg,0,MF010.jpg,0,,,,,0,26,26,59,imgFunc,2,NA,2.155934300040826,458.417975399876,460.68777731992304,2023-08-07 18:57:30.813177,2023-08-07 18:57:33.074292,MF010.jpg,0,10783,40-69,2023-08-07_18h50.09.016,Recall,2021.2.3,60.0544333613707,
,SD008.jpg,0,MF008.jpg,0,,,,,0,27,27,57,imgFunc,2,NA,1.2717701999936253,460.68621920002624,462.072526820004,2023-08-07 18:57:33.081275,2023-08-07 18:57:34.458587,MF008.jpg,0,10783,40-69,2023-08-07_18h50.09.016,Recall,2021.2.3,60.0544333613707,
,DD038.jpg,0,FF038.jpg,0,,,,,0,28,28,37,imgFunc,2,NA,7.606565799796954,462.06301290006377,469.7700167200528,2023-08-07 18:57:34.466446,2023-08-07 18:57:42.164291,FF038.jpg,0,10783,40-69,2023-08-07_18h50.09.016,Recall,2021.2.3,60.0544333613707,
,DD023.jpg,0,FF023.jpg,0,,,,,0,29,29,22,imgFunc,9,NA,2.427364500006661,469.7786063000094,472.3114944200497,2023-08-07 18:57:42.173277,2023-08-07 18:57:44.699395,FF023.jpg,0,10783,40-69,2023-08-07_18h50.09.016,Recall,2021.2.3,60.0544333613707,
,SD022.jpg,0,MF022.jpg,0,,,,,0,30,30,71,imgFunc,0,NA,1.7801667000167072,472.32170980004594,474.2237730200868,2023-08-07 18:57:44.707376,2023-08-07 18:57:46.600796,MF022.jpg,0,10783,40-69,2023-08-07_18h50.09.016,Recall,2021.2.3,60.0544333613707,
,DD030.jpg,0,FF030.jpg,0,,,,,0,31,31,29,imgFunc,0,NA,0.9430476000998169,474.21468649990857,475.2529695199337,2023-08-07 18:57:46.614761,2023-08-07 18:57:47.651937,FF030.jpg,0,10783,40-69,2023-08-07_18h50.09.016,Recall,2021.2.3,60.0544333613707,
,DD018.jpg,0,FF018.jpg,0,,,,,0,32,32,17,imgFunc,1,NA,3.9019152999389917,475.25603440008126,479.2603517200332,2023-08-07 18:57:47.658921,2023-08-07 18:57:51.654392,FF018.jpg,0,10783,40-69,2023-08-07_18h50.09.016,Recall,2021.2.3,60.0544333613707,
,DD001.jpg,0,FF001.jpg,0,,,,,0,33,33,0,imgFunc,9,NA,1.2615640999283642,479.248389699962,480.60014981986023,2023-08-07 18:57:51.662373,2023-08-07 18:57:53.005208,FF001.jpg,0,10783,40-69,2023-08-07_18h50.09.016,Recall,2021.2.3,60.0544333613707,
,SD005.jpg,0,MF005.jpg,0,,,,,0,34,34,54,imgFunc,9,NA,1.516923899995163,480.6089687999338,482.2286145198159,2023-08-07 18:57:53.012191,2023-08-07 18:57:54.623385,MF005.jpg,0,10783,40-69,2023-08-07_18h50.09.016,Recall,2021.2.3,60.0544333613707,
,SD015.jpg,0,MF015.jpg,0,,,,,0,35,35,64,imgFunc,2,NA,2.6588506000116467,482.23465660004877,485.004692920018,2023-08-07 18:57:54.630369,2023-08-07 18:57:57.391162,MF015.jpg,0,10783,40-69,2023-08-07_18h50.09.016,Recall,2021.2.3,60.0544333613707,
,L_SD508.jpg,1,L_MF508.jpg,1,,,,,0,36,36,97,imgFunc,0,NA,3.355655299965292,485.0102130000014,488.4659687199164,2023-08-07 18:57:57.406097,2023-08-07 18:58:00.861225,L_MF508.jpg,1,10783,40-69,2023-08-07_18h50.09.016,Recall,2021.2.3,60.0544333613707,
,SD029.jpg,0,MF029.jpg,0,,,,,0,37,37,78,imgFunc,1,NA,2.390286900103092,488.46340740006417,490.95041982014664,2023-08-07 18:58:00.868208,2023-08-07 18:58:03.346295,MF029.jpg,0,10783,40-69,2023-08-07_18h50.09.016,Recall,2021.2.3,60.0544333613707,
,DD002.jpg,0,FF002.jpg,0,,,,,0,38,38,1,imgFunc,1,NA,1.320855800062418,490.9489482999779,492.36855711997487,2023-08-07 18:58:03.353278,2023-08-07 18:58:04.764149,FF002.jpg,0,10783,40-69,2023-08-07_18h50.09.016,Recall,2021.2.3,60.0544333613707,
,L_DD509.jpg,1,L_FF509.jpg,1,,,,,0,39,39,48,imgFunc,1,NA,2.1388380001299083,492.3708178999368,494.6238391199149,2023-08-07 18:58:04.771133,2023-08-07 18:58:07.015662,L_FF509.jpg,1,10783,40-69,2023-08-07_18h50.09.016,Recall,2021.2.3,60.0544333613707,
,L_DD503.jpg,1,L_FF503.jpg,1,,,,,0,40,40,42,imgFunc,2,NA,2.6946091998834163,494.63103910000063,497.4327593201306,2023-08-07 18:58:07.023643,2023-08-07 18:58:09.817630,L_FF503.jpg,1,10783,40-69,2023-08-07_18h50.09.016,Recall,2021.2.3,60.0544333613707,
,SD013.jpg,0,MF013.jpg,0,,,,,0,41,41,62,imgFunc,1,NA,1.516126099973917,497.4176938999444,499.0371136199683,2023-08-07 18:58:09.824614,2023-08-07 18:58:11.435251,MF013.jpg,0,10783,40-69,2023-08-07_18h50.09.016,Recall,2021.2.3,60.0544333613707,
,SD033.jpg,0,MF033.jpg,0,,,,,0,42,42,82,imgFunc,2,NA,4.3573857001028955,499.0403557000682,503.49506012001075,2023-08-07 18:58:11.443119,2023-08-07 18:58:15.888764,MF033.jpg,0,10783,40-69,2023-08-07_18h50.09.016,Recall,2021.2.3,60.0544333613707,
,DD031.jpg,0,FF031.jpg,0,,,,,0,43,43,30,imgFunc,2,NA,2.5756974001415074,503.50219119992107,506.18583302013576,2023-08-07 18:58:15.897764,2023-08-07 18:58:18.573580,FF031.jpg,0,10783,40-69,2023-08-07_18h50.09.016,Recall,2021.2.3,60.0544333613707,
,SD012.jpg,0,MF012.jpg,0,,,,,0,44,44,61,imgFunc,9,NA,3.746997700072825,506.1867746999487,510.04126221966,2023-08-07 18:58:18.580563,2023-08-07 18:58:22.426737,MF012.jpg,0,10783,40-69,2023-08-07_18h50.09.016,Recall,2021.2.3,60.0544333613707,
,DD036.jpg,0,FF036.jpg,0,,,,,0,45,45,35,imgFunc,1,NA,1.9633324001915753,510.05048069986515,512.1225065197796,2023-08-07 18:58:22.440702,2023-08-07 18:58:24.511569,FF036.jpg,0,10783,40-69,2023-08-07_18h50.09.016,Recall,2021.2.3,60.0544333613707,
,DD007.jpg,0,FF007.jpg,0,,,,,0,46,46,6,imgFunc,1,NA,1.3401081000920385,512.1136499999557,513.5497848198283,2023-08-07 18:58:24.518552,2023-08-07 18:58:25.946058,FF007.jpg,0,10783,40-69,2023-08-07_18h50.09.016,Recall,2021.2.3,60.0544333613707,
,SD020.jpg,0,MF020.jpg,0,,,,,0,47,47,69,imgFunc,0,NA,1.8670748001895845,513.5544525000732,515.5214960202575,2023-08-07 18:58:25.954039,2023-08-07 18:58:27.913298,MF020.jpg,0,10783,40-69,2023-08-07_18h50.09.016,Recall,2021.2.3,60.0544333613707,
,SD035.jpg,0,MF035.jpg,0,,,,,0,48,48,84,imgFunc,0,NA,4.393540199846029,515.5082785000559,519.9954475199338,2023-08-07 18:58:27.921252,2023-08-07 18:58:32.400461,MF035.jpg,0,10783,40-69,2023-08-07_18h50.09.016,Recall,2021.2.3,60.0544333613707,
,DD037.jpg,0,FF037.jpg,0,,,,,0,49,49,36,imgFunc,9,NA,2.220283899921924,520.0172327999026,522.3514791200869,2023-08-07 18:58:32.408441,2023-08-07 18:58:34.735487,FF037.jpg,0,10783,40-69,2023-08-07_18h50.09.016,Recall,2021.2.3,60.0544333613707,
,DD020.jpg,0,FF020.jpg,0,,,,,0,50,50,19,imgFunc,2,NA,6.446771099930629,522.3509160000831,528.8926001200452,2023-08-07 18:58:34.750449,2023-08-07 18:58:41.290069,FF020.jpg,0,10783,40-69,2023-08-07_18h50.09.016,Recall,2021.2.3,60.0544333613707,
,L_SD502.jpg,1,L_MF502.jpg,1,,,,,0,51,51,91,imgFunc,9,NA,2.8459932999685407,528.903617599979,531.8527424200438,2023-08-07 18:58:41.299950,2023-08-07 18:58:44.242486,L_MF502.jpg,1,10783,40-69,2023-08-07_18h50.09.016,Recall,2021.2.3,60.0544333613707,
,DD033.jpg,0,FF033.jpg,0,,,,,0,52,52,32,imgFunc,1,NA,1.856785299954936,531.844829000067,533.7975859199651,2023-08-07 18:58:44.249480,2023-08-07 18:58:46.193971,FF033.jpg,0,10783,40-69,2023-08-07_18h50.09.016,Recall,2021.2.3,60.0544333613707,
,DD022.jpg,0,FF022.jpg,0,,,,,0,53,53,21,imgFunc,1,NA,1.4198457999154925,533.7939549998846,535.3132011201233,2023-08-07 18:58:46.200954,2023-08-07 18:58:47.711438,FF022.jpg,0,10783,40-69,2023-08-07_18h50.09.016,Recall,2021.2.3,60.0544333613707,
,SD026.jpg,0,MF026.jpg,0,,,,,0,54,54,75,imgFunc,1,NA,2.583032399881631,535.3347739998717,538.0376477201935,2023-08-07 18:58:47.719420,2023-08-07 18:58:50.413597,MF026.jpg,0,10783,40-69,2023-08-07_18h50.09.016,Recall,2021.2.3,60.0544333613707,
,SD019.jpg,0,MF019.jpg,0,,,,,0,55,55,68,imgFunc,9,NA,2.6636143000796437,538.0222964999266,540.7922324198298,2023-08-07 18:58:50.420580,2023-08-07 18:58:53.181934,MF019.jpg,0,10783,40-69,2023-08-07_18h50.09.016,Recall,2021.2.3,60.0544333613707,
,DD035.jpg,0,FF035.jpg,0,,,,,0,56,56,34,imgFunc,9,NA,1.640955900074914,540.7888050000183,542.5415729200467,2023-08-07 18:58:53.188917,2023-08-07 18:58:54.933395,FF035.jpg,0,10783,40-69,2023-08-07_18h50.09.016,Recall,2021.2.3,60.0544333613707,
,DD028.jpg,0,FF028.jpg,0,,,,,0,57,57,27,imgFunc,0,NA,1.255121200112626,542.5427748998627,543.9118656199425,2023-08-07 18:58:54.940379,2023-08-07 18:58:56.301133,FF028.jpg,0,10783,40-69,2023-08-07_18h50.09.016,Recall,2021.2.3,60.0544333613707,
,DD025.jpg,0,FF025.jpg,0,,,,,0,58,58,24,imgFunc,0,NA,1.6944432999007404,543.9110155000817,545.7125933200587,2023-08-07 18:58:56.309113,2023-08-07 18:58:58.102291,FF025.jpg,0,10783,40-69,2023-08-07_18h50.09.016,Recall,2021.2.3,60.0544333613707,
,SD028.jpg,0,MF028.jpg,0,,,,,0,59,59,77,imgFunc,1,NA,1.5390146002173424,545.714755800087,547.3559436202049,2023-08-07 18:58:58.115256,2023-08-07 18:58:59.753759,MF028.jpg,0,10783,40-69,2023-08-07_18h50.09.016,Recall,2021.2.3,60.0544333613707,
,SD039.jpg,0,MF039.jpg,0,,,,,0,60,60,88,imgFunc,1,NA,3.8000401000026613,547.3575223998632,551.2610792198684,2023-08-07 18:58:59.761740,2023-08-07 18:59:03.656382,MF039.jpg,0,10783,40-69,2023-08-07_18h50.09.016,Recall,2021.2.3,60.0544333613707,
,DD027.jpg,0,FF027.jpg,0,,,,,0,61,61,26,imgFunc,2,NA,2.4394975998438895,551.2543611999135,553.790955019882,2023-08-07 18:59:03.663371,2023-08-07 18:59:06.191417,FF027.jpg,0,10783,40-69,2023-08-07_18h50.09.016,Recall,2021.2.3,60.0544333613707,
,DD026.jpg,0,FF026.jpg,0,,,,,0,62,62,25,imgFunc,2,NA,1.4477279998827726,553.7900368000846,555.3423021200579,2023-08-07 18:59:06.199260,2023-08-07 18:59:07.742511,FF026.jpg,0,10783,40-69,2023-08-07_18h50.09.016,Recall,2021.2.3,60.0544333613707,
,SD004.jpg,0,MF004.jpg,0,,,,,0,63,63,53,imgFunc,2,NA,2.6139573000837117,555.3515417000744,558.0714381202124,2023-08-07 18:59:07.749517,2023-08-07 18:59:10.461251,MF004.jpg,0,10783,40-69,2023-08-07_18h50.09.016,Recall,2021.2.3,60.0544333613707,
,L_DD505.jpg,1,L_FF505.jpg,1,,,,,0,64,64,44,imgFunc,1,NA,2.812678499845788,558.0733648000751,560.979593219934,2023-08-07 18:59:10.475216,2023-08-07 18:59:13.380287,L_FF505.jpg,1,10783,40-69,2023-08-07_18h50.09.016,Recall,2021.2.3,60.0544333613707,
,L_DD508.jpg,1,L_FF508.jpg,1,,,,,0,65,65,47,imgFunc,1,NA,1.8428133998531848,560.978910200065,562.9150488201994,2023-08-07 18:59:13.388268,2023-08-07 18:59:15.315426,L_FF508.jpg,1,10783,40-69,2023-08-07_18h50.09.016,Recall,2021.2.3,60.0544333613707,
,SD023.jpg,0,MF023.jpg,0,,,,,0,66,66,72,imgFunc,9,NA,2.276453800033778,562.9132558999117,565.2828950197436,2023-08-07 18:59:15.322409,2023-08-07 18:59:17.683273,MF023.jpg,0,10783,40-69,2023-08-07_18h50.09.016,Recall,2021.2.3,60.0544333613707,
,L_DD502.jpg,1,L_FF502.jpg,1,,,,,0,67,67,41,imgFunc,0,NA,2.618850599974394,565.2907483999152,568.0098417198751,2023-08-07 18:59:17.691254,2023-08-07 18:59:20.402007,L_FF502.jpg,1,10783,40-69,2023-08-07_18h50.09.016,Recall,2021.2.3,60.0544333613707,
,L_SD509.jpg,1,L_MF509.jpg,1,,,,,0,68,68,98,imgFunc,1,NA,1.6262021001894027,568.0035287998617,569.7393958196044,2023-08-07 18:59:20.408990,2023-08-07 18:59:22.136427,L_MF509.jpg,1,10783,40-69,2023-08-07_18h50.09.016,Recall,2021.2.3,60.0544333613707,
,DD011.jpg,0,FF011.jpg,0,,,,,0,69,69,10,imgFunc,2,NA,2.6903147001285106,569.7474825999234,572.5368717198726,2023-08-07 18:59:22.150391,2023-08-07 18:59:24.938627,FF011.jpg,0,10783,40-69,2023-08-07_18h50.09.016,Recall,2021.2.3,60.0544333613707,
,DD004.jpg,0,FF004.jpg,0,,,,,0,70,70,3,imgFunc,1,NA,1.6460146000608802,572.5355915999971,574.2721139199566,2023-08-07 18:59:24.945610,2023-08-07 18:59:26.673177,FF004.jpg,0,10783,40-69,2023-08-07_18h50.09.016,Recall,2021.2.3,60.0544333613707,
,L_SD505.jpg,1,L_MF505.jpg,1,,,,,0,71,71,94,imgFunc,9,NA,3.8030560000333935,574.2745725999121,578.1782952200156,2023-08-07 18:59:26.680160,2023-08-07 18:59:30.575762,L_MF505.jpg,1,10783,40-69,2023-08-07_18h50.09.016,Recall,2021.2.3,60.0544333613707,
,SD024.jpg,0,MF024.jpg,0,,,,,0,72,72,73,imgFunc,1,NA,2.124832500005141,578.1768445998896,580.3967394200154,2023-08-07 18:59:30.582745,2023-08-07 18:59:32.794136,MF024.jpg,0,10783,40-69,2023-08-07_18h50.09.016,Recall,2021.2.3,60.0544333613707,
,DD005.jpg,0,FF005.jpg,0,,,,,0,73,73,4,imgFunc,1,NA,4.080751699861139,580.4128161999397,584.6172886199784,2023-08-07 18:59:32.801119,2023-08-07 18:59:36.997073,FF005.jpg,0,10783,40-69,2023-08-07_18h50.09.016,Recall,2021.2.3,60.0544333613707,
,SD007.jpg,0,MF007.jpg,0,,,,,0,74,74,56,imgFunc,9,NA,3.086452699964866,584.6074139999691,587.8104480199981,2023-08-07 18:59:37.005053,2023-08-07 18:59:40.199605,MF007.jpg,0,10783,40-69,2023-08-07_18h50.09.016,Recall,2021.2.3,60.0544333613707,
,SD018.jpg,0,MF018.jpg,0,,,,,0,75,75,67,imgFunc,2,NA,2.8803440001793206,587.7972987999674,590.7837464199401,2023-08-07 18:59:40.206611,2023-08-07 18:59:43.184902,MF018.jpg,0,10783,40-69,2023-08-07_18h50.09.016,Recall,2021.2.3,60.0544333613707,
,DD003.jpg,0,FF003.jpg,0,,,,,0,76,76,2,imgFunc,9,NA,2.147467300062999,590.794398299884,593.0479281197768,2023-08-07 18:59:43.191885,2023-08-07 18:59:45.436643,FF003.jpg,0,10783,40-69,2023-08-07_18h50.09.016,Recall,2021.2.3,60.0544333613707,
,SD006.jpg,0,MF006.jpg,0,,,,,0,77,77,55,imgFunc,2,NA,2.1836790000088513,593.0541058999952,595.3564013198484,2023-08-07 18:59:45.444624,2023-08-07 18:59:47.738145,MF006.jpg,0,10783,40-69,2023-08-07_18h50.09.016,Recall,2021.2.3,60.0544333613707,
,SD017.jpg,0,MF017.jpg,0,,,,,0,78,78,66,imgFunc,2,NA,2.5432174999732524,595.3584588000085,598.0143559200224,2023-08-07 18:59:47.752109,2023-08-07 18:59:50.406762,MF017.jpg,0,10783,40-69,2023-08-07_18h50.09.016,Recall,2021.2.3,60.0544333613707,
,DD012.jpg,0,FF012.jpg,0,,,,,0,79,79,11,imgFunc,9,NA,3.1484946999698877,598.0093030999415,601.2620018199086,2023-08-07 18:59:50.414743,2023-08-07 18:59:53.658993,FF012.jpg,0,10783,40-69,2023-08-07_18h50.09.016,Recall,2021.2.3,60.0544333613707,
,DD010.jpg,0,FF010.jpg,0,,,,,0,80,80,9,imgFunc,1,NA,2.171739000128582,601.2579218000174,603.528034519637,2023-08-07 18:59:53.665976,2023-08-07 18:59:55.927399,FF010.jpg,0,10783,40-69,2023-08-07_18h50.09.016,Recall,2021.2.3,60.0544333613707,
,DD032.jpg,0,FF032.jpg,0,,,,,0,81,81,31,imgFunc,1,NA,3.553537600208074,603.5320881998632,607.1862682199571,2023-08-07 18:59:55.934382,2023-08-07 18:59:59.580232,FF032.jpg,0,10783,40-69,2023-08-07_18h50.09.016,Recall,2021.2.3,60.0544333613707,
,L_SD503.jpg,1,L_MF503.jpg,1,,,,,0,82,82,92,imgFunc,0,NA,1.8604768000077456,607.1931038999464,609.1628348198719,2023-08-07 18:59:59.587215,2023-08-07 19:00:01.548183,L_MF503.jpg,1,10783,40-69,2023-08-07_18h50.09.016,Recall,2021.2.3,60.0544333613707,
,DD006.jpg,0,FF006.jpg,0,,,,,0,83,83,5,imgFunc,0,NA,2.6990046999417245,609.1624539999757,611.9674440200906,2023-08-07 19:00:01.563145,2023-08-07 19:00:04.366965,FF006.jpg,0,10783,40-69,2023-08-07_18h50.09.016,Recall,2021.2.3,60.0544333613707,
,L_SD507.jpg,1,L_MF507.jpg,1,,,,,0,84,84,96,imgFunc,9,NA,1.4151553001720458,611.966700399993,613.4850896201096,2023-08-07 19:00:04.374946,2023-08-07 19:00:05.884616,L_MF507.jpg,1,10783,40-69,2023-08-07_18h50.09.016,Recall,2021.2.3,60.0544333613707,
,SD016.jpg,0,MF016.jpg,0,,,,,0,85,85,65,imgFunc,9,NA,3.5018672000151128,613.4879139999393,617.0908340199385,2023-08-07 19:00:05.892627,2023-08-07 19:00:09.487154,MF016.jpg,0,10783,40-69,2023-08-07_18h50.09.016,Recall,2021.2.3,60.0544333613707,
,DD008.jpg,0,FF008.jpg,0,,,,,0,86,86,7,imgFunc,0,NA,2.372488700086251,617.0971864000894,619.5839048197959,2023-08-07 19:00:09.494137,2023-08-07 19:00:11.972614,FF008.jpg,0,10783,40-69,2023-08-07_18h50.09.016,Recall,2021.2.3,60.0544333613707,
,SD003.jpg,0,MF003.jpg,0,,,,,0,87,87,52,imgFunc,9,NA,2.5512301998678595,619.5905450999271,622.2607734198682,2023-08-07 19:00:11.979597,2023-08-07 19:00:14.641034,MF003.jpg,0,10783,40-69,2023-08-07_18h50.09.016,Recall,2021.2.3,60.0544333613707,
,L_SD506.jpg,1,L_MF506.jpg,1,,,,,0,88,88,95,imgFunc,0,NA,1.6946644000709057,622.2388589999173,624.024950619787,2023-08-07 19:00:14.648017,2023-08-07 19:00:16.425662,L_MF506.jpg,1,10783,40-69,2023-08-07_18h50.09.016,Recall,2021.2.3,60.0544333613707,
,L_SD504.jpg,1,L_MF504.jpg,1,,,,,0,89,89,93,imgFunc,0,NA,1.9462992001790553,624.0275496998802,626.0807342196349,2023-08-07 19:00:16.432646,2023-08-07 19:00:18.477152,L_MF504.jpg,1,10783,40-69,2023-08-07_18h50.09.016,Recall,2021.2.3,60.0544333613707,
,L_SD510.jpg,1,L_MF510.jpg,1,,,,,0,90,90,99,imgFunc,9,NA,2.559499700088054,626.0862789000385,628.7565949200653,2023-08-07 19:00:18.484135,2023-08-07 19:00:21.145786,L_MF510.jpg,1,10783,40-69,2023-08-07_18h50.09.016,Recall,2021.2.3,60.0544333613707,
,L_DD504.jpg,1,L_FF504.jpg,1,,,,,0,91,91,43,imgFunc,0,NA,1.2126392999198288,628.7530378000811,630.0721219200641,2023-08-07 19:00:21.152769,2023-08-07 19:00:22.463068,L_FF504.jpg,1,10783,40-69,2023-08-07_18h50.09.016,Recall,2021.2.3,60.0544333613707,
,SD031.jpg,0,MF031.jpg,0,,,,,0,92,92,80,imgFunc,9,NA,1.7352068999316543,630.086297800066,631.9251150202472,2023-08-07 19:00:22.478030,2023-08-07 19:00:24.315071,MF031.jpg,0,10783,40-69,2023-08-07_18h50.09.016,Recall,2021.2.3,60.0544333613707,
,DD009.jpg,0,FF009.jpg,0,,,,,0,93,93,8,imgFunc,9,NA,2.055096099851653,631.9106421000324,634.0618970200885,2023-08-07 19:00:24.323052,2023-08-07 19:00:26.466091,FF009.jpg,0,10783,40-69,2023-08-07_18h50.09.016,Recall,2021.2.3,60.0544333613707,
,SD032.jpg,0,MF032.jpg,0,,,,,0,94,94,81,imgFunc,1,NA,2.710608300054446,634.0628835000098,636.8662436199374,2023-08-07 19:00:26.473074,2023-08-07 19:00:29.267806,MF032.jpg,0,10783,40-69,2023-08-07_18h50.09.016,Recall,2021.2.3,60.0544333613707,
,SD001.jpg,0,MF001.jpg,0,,,,,0,95,95,50,imgFunc,1,NA,1.3054974998813123,636.8763043000363,638.2945872200653,2023-08-07 19:00:29.275786,2023-08-07 19:00:30.686021,MF001.jpg,0,10783,40-69,2023-08-07_18h50.09.016,Recall,2021.2.3,60.0544333613707,
,SD037.jpg,0,MF037.jpg,0,,,,,0,96,96,86,imgFunc,0,NA,2.9129667000379413,638.2924401999917,641.3116408200003,2023-08-07 19:00:30.693667,2023-08-07 19:00:33.704540,MF037.jpg,0,10783,40-69,2023-08-07_18h50.09.016,Recall,2021.2.3,60.0544333613707,
,DD040.jpg,0,FF040.jpg,0,,,,,0,97,97,39,imgFunc,9,NA,1.7331075000111014,641.3205917999148,643.1576995197684,2023-08-07 19:00:33.719516,2023-08-07 19:00:35.556013,FF040.jpg,0,10783,40-69,2023-08-07_18h50.09.016,Recall,2021.2.3,60.0544333613707,
,DD017.jpg,0,FF017.jpg,0,,,,,0,98,98,16,imgFunc,9,NA,3.0975660998374224,643.1562890000641,646.3589680199511,2023-08-07 19:00:35.563994,2023-08-07 19:00:38.758321,FF017.jpg,0,10783,40-69,2023-08-07_18h50.09.016,Recall,2021.2.3,60.0544333613707,
,SD021.jpg,0,MF021.jpg,0,,,,,0,99,99,70,imgFunc,9,NA,1.367312700022012,646.3583481998648,647.8277682196349,2023-08-07 19:00:38.765304,2023-08-07 19:00:40.226069,MF021.jpg,0,10783,40-69,2023-08-07_18h50.09.016,Recall,2021.2.3,60.0544333613707,
