onset	duration	trial_type	response_time	Endowment	Endowment_pmod	Decision	Decision_pmod	Offer_pmod
4.506824	2	cue_nonsocial	n/a	32	5	n/a	n/a	n/a
4.506824	2	cue_nonsocial_high	n/a	32	8	n/a	n/a	n/a
15.389943	2	cue_nonsocial	n/a	32	5	n/a	n/a	n/a
15.389943	2	cue_nonsocial_high	n/a	32	8	n/a	n/a	n/a
22.223340	2	cue_nonsocial	n/a	32	5	n/a	n/a	n/a
22.223340	2	cue_nonsocial_high	n/a	32	8	n/a	n/a	n/a
31.551030	2	cue_social	n/a	16	-8	n/a	n/a	n/a
31.551030	2	cue_social_low	n/a	16	-11	n/a	n/a	n/a
38.380688	2	cue_social	n/a	16	-8	n/a	n/a	n/a
38.380688	2	cue_social_low	n/a	16	-11	n/a	n/a	n/a
45.140038	2	cue_nonsocial	n/a	32	5	n/a	n/a	n/a
45.140038	2	cue_nonsocial_high	n/a	32	8	n/a	n/a	n/a
56.006645	2	cue_nonsocial	n/a	16	-11	n/a	n/a	n/a
56.006645	2	cue_nonsocial_low	n/a	16	-8	n/a	n/a	n/a
65.256800	2	cue_nonsocial	n/a	16	-11	n/a	n/a	n/a
65.256800	2	cue_nonsocial_low	n/a	16	-8	n/a	n/a	n/a
72.959900	2	cue_social	n/a	32	8	n/a	n/a	n/a
72.959900	2	cue_social_high	n/a	32	5	n/a	n/a	n/a
79.823990	2	cue_social	n/a	16	-8	n/a	n/a	n/a
79.823990	2	cue_social_low	n/a	16	-11	n/a	n/a	n/a
86.671910	2	cue_social	n/a	32	8	n/a	n/a	n/a
86.671910	2	cue_social_high	n/a	32	5	n/a	n/a	n/a
94.275010	2	cue_social	n/a	16	-8	n/a	n/a	n/a
94.275010	2	cue_social_low	n/a	16	-11	n/a	n/a	n/a
101.110040	2	cue_social	n/a	16	-8	n/a	n/a	n/a
101.110040	2	cue_social_low	n/a	16	-11	n/a	n/a	n/a
110.323460	2	cue_nonsocial	n/a	16	-11	n/a	n/a	n/a
110.323460	2	cue_nonsocial_low	n/a	16	-8	n/a	n/a	n/a
117.156624	2	cue_nonsocial	n/a	32	5	n/a	n/a	n/a
117.156624	2	cue_nonsocial_high	n/a	32	8	n/a	n/a	n/a
124.037350	2	cue_social	n/a	32	8	n/a	n/a	n/a
124.037350	2	cue_social_high	n/a	32	5	n/a	n/a	n/a
130.823300	2	cue_nonsocial	n/a	32	5	n/a	n/a	n/a
130.823300	2	cue_nonsocial_high	n/a	32	8	n/a	n/a	n/a
138.473180	2	cue_nonsocial	n/a	32	5	n/a	n/a	n/a
138.473180	2	cue_nonsocial_high	n/a	32	8	n/a	n/a	n/a
145.362600	2	cue_social	n/a	32	8	n/a	n/a	n/a
145.362600	2	cue_social_high	n/a	32	5	n/a	n/a	n/a
157.789920	2	cue_nonsocial	n/a	16	-11	n/a	n/a	n/a
157.789920	2	cue_nonsocial_low	n/a	16	-8	n/a	n/a	n/a
165.471560	2	cue_social	n/a	32	8	n/a	n/a	n/a
165.471560	2	cue_social_high	n/a	32	5	n/a	n/a	n/a
172.340800	2	cue_social	n/a	32	8	n/a	n/a	n/a
172.340800	2	cue_social_high	n/a	32	5	n/a	n/a	n/a
179.960110	2	cue_social	n/a	16	-8	n/a	n/a	n/a
179.960110	2	cue_social_low	n/a	16	-11	n/a	n/a	n/a
190.842160	2	cue_social	n/a	32	8	n/a	n/a	n/a
190.842160	2	cue_social_high	n/a	32	5	n/a	n/a	n/a
200.104060	2	cue_social	n/a	32	8	n/a	n/a	n/a
200.104060	2	cue_social_high	n/a	32	5	n/a	n/a	n/a
207.706330	2	cue_nonsocial	n/a	32	5	n/a	n/a	n/a
207.706330	2	cue_nonsocial_high	n/a	32	8	n/a	n/a	n/a
215.429860	2	cue_social	n/a	16	-8	n/a	n/a	n/a
215.429860	2	cue_social_low	n/a	16	-11	n/a	n/a	n/a
223.071730	2	cue_social	n/a	32	8	n/a	n/a	n/a
223.071730	2	cue_social_high	n/a	32	5	n/a	n/a	n/a
230.701840	2	cue_social	n/a	16	-8	n/a	n/a	n/a
230.701840	2	cue_social_low	n/a	16	-11	n/a	n/a	n/a
239.958880	2	cue_social	n/a	16	-8	n/a	n/a	n/a
239.958880	2	cue_social_low	n/a	16	-11	n/a	n/a	n/a
246.801090	2	cue_social	n/a	32	8	n/a	n/a	n/a
246.801090	2	cue_social_high	n/a	32	5	n/a	n/a	n/a
254.389860	2	cue_nonsocial	n/a	16	-11	n/a	n/a	n/a
254.389860	2	cue_nonsocial_low	n/a	16	-8	n/a	n/a	n/a
261.222700	2	cue_nonsocial	n/a	32	5	n/a	n/a	n/a
261.222700	2	cue_nonsocial_high	n/a	32	8	n/a	n/a	n/a
268.056000	2	cue_nonsocial	n/a	32	5	n/a	n/a	n/a
268.056000	2	cue_nonsocial_high	n/a	32	8	n/a	n/a	n/a
274.982450	2	cue_social	n/a	32	8	n/a	n/a	n/a
274.982450	2	cue_social_high	n/a	32	5	n/a	n/a	n/a
281.722560	2	cue_nonsocial	n/a	32	5	n/a	n/a	n/a
281.722560	2	cue_nonsocial_high	n/a	32	8	n/a	n/a	n/a
290.989350	2	cue_nonsocial	n/a	32	5	n/a	n/a	n/a
290.989350	2	cue_nonsocial_high	n/a	32	8	n/a	n/a	n/a
297.879400	2	cue_social	n/a	16	-8	n/a	n/a	n/a
297.879400	2	cue_social_low	n/a	16	-11	n/a	n/a	n/a
305.521700	2	cue_social	n/a	16	-8	n/a	n/a	n/a
305.521700	2	cue_social_low	n/a	16	-11	n/a	n/a	n/a
312.289370	2	cue_nonsocial	n/a	16	-11	n/a	n/a	n/a
312.289370	2	cue_nonsocial_low	n/a	16	-8	n/a	n/a	n/a
319.173770	2	cue_social	n/a	32	8	n/a	n/a	n/a
319.173770	2	cue_social_high	n/a	32	5	n/a	n/a	n/a
326.775100	2	cue_nonsocial	n/a	32	5	n/a	n/a	n/a
326.775100	2	cue_nonsocial_high	n/a	32	8	n/a	n/a	n/a
334.422820	2	cue_nonsocial	n/a	16	-11	n/a	n/a	n/a
334.422820	2	cue_nonsocial_low	n/a	16	-8	n/a	n/a	n/a
341.283970	2	cue_social	n/a	16	-8	n/a	n/a	n/a
341.283970	2	cue_social_low	n/a	16	-11	n/a	n/a	n/a
348.089630	2	cue_nonsocial	n/a	32	5	n/a	n/a	n/a
348.089630	2	cue_nonsocial_high	n/a	32	8	n/a	n/a	n/a
354.922880	2	cue_nonsocial	n/a	32	5	n/a	n/a	n/a
354.922880	2	cue_nonsocial_high	n/a	32	8	n/a	n/a	n/a
361.756470	2	cue_nonsocial	n/a	32	5	n/a	n/a	n/a
361.756470	2	cue_nonsocial_high	n/a	32	8	n/a	n/a	n/a
371.022770	2	cue_nonsocial	n/a	16	-11	n/a	n/a	n/a
371.022770	2	cue_nonsocial_low	n/a	16	-8	n/a	n/a	n/a
6.514048	1.415741	dec_nonsocial_choice	1.415741	32.000000	n/a	0	0	-2.285156e-01
6.514048	1.415741	dec_choice	1.415741	32.000000	n/a	0	0	-2.278646e-01
6.514048	1.415741	dec_nonsocial_reject	1.415741	32.000000	n/a	0	0	-1.201923e-03
6.514048	1.415741	dec_reject	1.415741	32.000000	n/a	0	0	-1.116071e-02
6.514048	1.415741	dec_nonsocial_low	1.415741	32.000000	n/a	0	-2.278646e-01	-2.278646e-01
6.514048	1.415741	dec_nonsocial_reject_low	1.415741	32.000000	n/a	3	-1.116071e-02	-1.049107e-01
17.397093	1.766068	dec_nonsocial_choice	1.766068	32.000000	n/a	0	0	-2.285156e-01
17.397093	1.766068	dec_choice	1.766068	32.000000	n/a	0	0	-2.278646e-01
17.397093	1.766068	dec_nonsocial_reject	1.766068	32.000000	n/a	0	0	-3.245192e-02
17.397093	1.766068	dec_reject	1.766068	32.000000	n/a	0	0	-4.241071e-02
17.397093	1.766068	dec_nonsocial_low	1.766068	32.000000	n/a	0	-2.278646e-01	-2.278646e-01
17.397093	1.766068	dec_nonsocial_reject_low	1.766068	32.000000	n/a	2	-4.241071e-02	-1.049107e-01
24.230026	1.366069	dec_nonsocial_choice	1.366069	32.000000	n/a	16	2.714844e-01	2.714844e-01
24.230026	1.366069	dec_choice	1.366069	32.000000	n/a	16	2.721354e-01	2.721354e-01
24.230026	1.366069	dec_nonsocial_accept	1.366069	32.000000	n/a	16	1.136364e-01	1.136364e-01
24.230026	1.366069	dec_accept	1.366069	32.000000	n/a	16	1.000000e-01	1.000000e-01
24.230026	1.366069	dec_nonsocial_high	1.366069	32.000000	n/a	16	2.721354e-01	2.721354e-01
24.230026	1.366069	dec_nonsocial_accept_high	1.366069	32.000000	n/a	16	1.000000e-01	1.000000e-01
33.480045	1.583099	dec_social_choice	1.583099	16.000000	n/a	0	0	-2.285156e-01
33.480045	1.583099	dec_choice	1.583099	16.000000	n/a	0	0	-2.291667e-01
33.480045	1.583099	dec_social_reject	1.583099	16.000000	n/a	0	0	-3.245192e-02
33.480045	1.583099	dec_reject	1.583099	16.000000	n/a	0	0	-2.083333e-02
33.480045	1.583099	dec_social_reject_low	1.583099	16.000000	n/a	1	-1.666667e-01	-2.291667e-01
40.312470	1.617703	dec_social_choice	1.617703	16.000000	n/a	8	2.714844e-01	2.714844e-01
40.312470	1.617703	dec_choice	1.617703	16.000000	n/a	8	2.708333e-01	2.708333e-01
40.312470	1.617703	dec_social_accept	1.617703	16.000000	n/a	8	1.136364e-01	1.136364e-01
40.312470	1.617703	dec_accept	1.617703	16.000000	n/a	8	1.250000e-01	1.250000e-01
40.312470	1.617703	dec_social_accept_high	1.617703	16.000000	n/a	8	2.708333e-01	2.708333e-01
47.146860	1.433442	dec_nonsocial_choice	1.433442	32.000000	n/a	0	0	-2.285156e-01
47.146860	1.433442	dec_choice	1.433442	32.000000	n/a	0	0	-2.278646e-01
47.146860	1.433442	dec_nonsocial_reject	1.433442	32.000000	n/a	0	0	-3.245192e-02
47.146860	1.433442	dec_reject	1.433442	32.000000	n/a	0	0	-4.241071e-02
47.146860	1.433442	dec_nonsocial_low	1.433442	32.000000	n/a	0	-2.278646e-01	-2.278646e-01
47.146860	1.433442	dec_nonsocial_reject_low	1.433442	32.000000	n/a	2	-4.241071e-02	-1.049107e-01
58.012287	1.267467	dec_nonsocial_choice	1.267467	16.000000	n/a	8	2.714844e-01	2.714844e-01
58.012287	1.267467	dec_choice	1.267467	16.000000	n/a	8	2.721354e-01	2.721354e-01
58.012287	1.267467	dec_nonsocial_accept	1.267467	16.000000	n/a	8	1.136364e-01	1.136364e-01
58.012287	1.267467	dec_accept	1.267467	16.000000	n/a	8	1.000000e-01	1.000000e-01
58.012287	1.267467	dec_nonsocial_high	1.267467	16.000000	n/a	8	2.721354e-01	2.721354e-01
58.012287	1.267467	dec_nonsocial_accept_high	1.267467	16.000000	n/a	8	1.000000e-01	1.000000e-01
67.264220	1.432742	dec_nonsocial_choice	1.432742	16.000000	n/a	0	0	-2.285156e-01
67.264220	1.432742	dec_choice	1.432742	16.000000	n/a	0	0	-2.278646e-01
67.264220	1.432742	dec_nonsocial_reject	1.432742	16.000000	n/a	0	0	1.550481e-01
67.264220	1.432742	dec_reject	1.432742	16.000000	n/a	0	0	1.450893e-01
67.264220	1.432742	dec_nonsocial_low	1.432742	16.000000	n/a	0	-2.278646e-01	-2.278646e-01
67.264220	1.432742	dec_nonsocial_reject_low	1.432742	16.000000	n/a	4	1.450893e-01	-1.049107e-01
74.912190	1.301137	dec_social_choice	1.301137	32.000000	n/a	8	2.148438e-02	2.148438e-02
74.912190	1.301137	dec_choice	1.301137	32.000000	n/a	8	2.083333e-02	2.083333e-02
74.912190	1.301137	dec_social_accept	1.301137	32.000000	n/a	8	-1.363636e-01	-1.363636e-01
74.912190	1.301137	dec_accept	1.301137	32.000000	n/a	8	-1.250000e-01	-1.250000e-01
74.912190	1.301137	dec_social_high	1.301137	32.000000	n/a	8	2.083333e-02	2.083333e-02
74.912190	1.301137	dec_social_accept_high	1.301137	32.000000	n/a	8	2.083333e-02	2.083333e-02
81.745735	1.551019	dec_social_choice	1.551019	16.000000	n/a	0	0	-2.285156e-01
81.745735	1.551019	dec_choice	1.551019	16.000000	n/a	0	0	-2.291667e-01
81.745735	1.551019	dec_social_reject	1.551019	16.000000	n/a	0	0	-3.245192e-02
81.745735	1.551019	dec_reject	1.551019	16.000000	n/a	0	0	-2.083333e-02
81.745735	1.551019	dec_social_low	1.551019	16.000000	n/a	0	-2.291667e-01	-2.291667e-01
81.745735	1.551019	dec_social_reject_low	1.551019	16.000000	n/a	1	-1.666667e-01	-2.291667e-01
88.580080	1.583222	dec_social_choice	1.583222	32.000000	n/a	0	0	-2.285156e-01
88.580080	1.583222	dec_choice	1.583222	32.000000	n/a	0	0	-2.291667e-01
88.580080	1.583222	dec_social_reject	1.583222	32.000000	n/a	0	0	-1.201923e-03
88.580080	1.583222	dec_reject	1.583222	32.000000	n/a	0	0	1.041667e-02
88.580080	1.583222	dec_social_reject_low	1.583222	32.000000	n/a	3	-1.354167e-01	-2.291667e-01
96.230450	1.615732	dec_social_choice	1.615732	16.000000	n/a	4	2.148438e-02	2.148438e-02
96.230450	1.615732	dec_choice	1.615732	16.000000	n/a	4	2.083333e-02	2.083333e-02
96.230450	1.615732	dec_social_accept	1.615732	16.000000	n/a	4	-1.363636e-01	-1.363636e-01
96.230450	1.615732	dec_accept	1.615732	16.000000	n/a	4	-1.250000e-01	-1.250000e-01
96.230450	1.615732	dec_social_high	1.615732	16.000000	n/a	4	2.083333e-02	2.083333e-02
96.230450	1.615732	dec_social_accept_high	1.615732	16.000000	n/a	4	2.083333e-02	2.083333e-02
103.063650	2.582529	dec_social_choice	2.582529	16.000000	n/a	4	2.148438e-02	2.148438e-02
103.063650	2.582529	dec_choice	2.582529	16.000000	n/a	4	2.083333e-02	2.083333e-02
103.063650	2.582529	dec_social_accept	2.582529	16.000000	n/a	4	-1.363636e-01	-1.363636e-01
103.063650	2.582529	dec_accept	2.582529	16.000000	n/a	4	-1.250000e-01	-1.250000e-01
103.063650	2.582529	dec_social_accept_high	2.582529	16.000000	n/a	4	2.083333e-02	2.083333e-02
112.331130	1.165296	dec_nonsocial_choice	1.165296	16.000000	n/a	8	2.714844e-01	2.714844e-01
112.331130	1.165296	dec_choice	1.165296	16.000000	n/a	8	2.721354e-01	2.721354e-01
112.331130	1.165296	dec_nonsocial_accept	1.165296	16.000000	n/a	8	1.136364e-01	1.136364e-01
112.331130	1.165296	dec_accept	1.165296	16.000000	n/a	8	1.000000e-01	1.000000e-01
112.331130	1.165296	dec_nonsocial_high	1.165296	16.000000	n/a	8	2.721354e-01	2.721354e-01
112.331130	1.165296	dec_nonsocial_accept_high	1.165296	16.000000	n/a	8	1.000000e-01	1.000000e-01
119.163140	2.666246	dec_nonsocial_choice	2.666246	32.000000	n/a	8	2.148438e-02	2.148438e-02
119.163140	2.666246	dec_choice	2.666246	32.000000	n/a	8	2.213542e-02	2.213542e-02
119.163140	2.666246	dec_nonsocial_accept	2.666246	32.000000	n/a	8	-1.363636e-01	-1.363636e-01
119.163140	2.666246	dec_accept	2.666246	32.000000	n/a	8	-1.500000e-01	-1.500000e-01
119.163140	2.666246	dec_nonsocial_accept_high	2.666246	32.000000	n/a	8	-1.250000e-01	-1.250000e-01
125.996086	2.500814	dec_social_choice	2.500814	32.000000	n/a	8	2.148438e-02	2.148438e-02
125.996086	2.500814	dec_choice	2.500814	32.000000	n/a	8	2.083333e-02	2.083333e-02
125.996086	2.500814	dec_social_accept	2.500814	32.000000	n/a	8	-1.363636e-01	-1.363636e-01
125.996086	2.500814	dec_accept	2.500814	32.000000	n/a	8	-1.250000e-01	-1.250000e-01
125.996086	2.500814	dec_social_high	2.500814	32.000000	n/a	8	2.083333e-02	2.083333e-02
125.996086	2.500814	dec_social_accept_high	2.500814	32.000000	n/a	8	2.083333e-02	2.083333e-02
132.829440	2.933495	dec_nonsocial_choice	2.933495	32.000000	n/a	0	0	-2.285156e-01
132.829440	2.933495	dec_choice	2.933495	32.000000	n/a	0	0	-2.278646e-01
132.829440	2.933495	dec_nonsocial_reject	2.933495	32.000000	n/a	0	0	-1.201923e-03
132.829440	2.933495	dec_reject	2.933495	32.000000	n/a	0	0	-1.116071e-02
132.829440	2.933495	dec_nonsocial_low	2.933495	32.000000	n/a	0	-2.278646e-01	-2.278646e-01
132.829440	2.933495	dec_nonsocial_reject_low	2.933495	32.000000	n/a	3	-1.116071e-02	-1.049107e-01
140.480150	2.433018	dec_nonsocial_choice	2.433018	32.000000	n/a	8	2.148438e-02	2.148438e-02
140.480150	2.433018	dec_choice	2.433018	32.000000	n/a	8	2.213542e-02	2.213542e-02
140.480150	2.433018	dec_nonsocial_accept	2.433018	32.000000	n/a	8	-1.363636e-01	-1.363636e-01
140.480150	2.433018	dec_accept	2.433018	32.000000	n/a	8	-1.500000e-01	-1.500000e-01
140.480150	2.433018	dec_nonsocial_accept_high	2.433018	32.000000	n/a	8	-1.250000e-01	-1.250000e-01
147.313170	2.433729	dec_social_choice	2.433729	32.000000	n/a	8	2.148438e-02	2.148438e-02
147.313170	2.433729	dec_choice	2.433729	32.000000	n/a	8	2.083333e-02	2.083333e-02
147.313170	2.433729	dec_social_accept	2.433729	32.000000	n/a	8	-1.363636e-01	-1.363636e-01
147.313170	2.433729	dec_accept	2.433729	32.000000	n/a	8	-1.250000e-01	-1.250000e-01
147.313170	2.433729	dec_social_accept_high	2.433729	32.000000	n/a	8	2.083333e-02	2.083333e-02
159.797100	1.333080	dec_nonsocial_choice	1.333080	16.000000	n/a	0	0	-2.285156e-01
159.797100	1.333080	dec_choice	1.333080	16.000000	n/a	0	0	-2.278646e-01
159.797100	1.333080	dec_nonsocial_reject	1.333080	16.000000	n/a	0	0	-3.245192e-02
159.797100	1.333080	dec_reject	1.333080	16.000000	n/a	0	0	-4.241071e-02
159.797100	1.333080	dec_nonsocial_low	1.333080	16.000000	n/a	0	-2.278646e-01	-2.278646e-01
159.797100	1.333080	dec_nonsocial_reject_low	1.333080	16.000000	n/a	1	-4.241071e-02	-1.049107e-01
167.445600	1.667763	dec_social_choice	1.667763	32.000000	n/a	0	0	-2.285156e-01
167.445600	1.667763	dec_choice	1.667763	32.000000	n/a	0	0	-2.291667e-01
167.445600	1.667763	dec_social_reject	1.667763	32.000000	n/a	0	0	-1.201923e-03
167.445600	1.667763	dec_reject	1.667763	32.000000	n/a	0	0	1.041667e-02
167.445600	1.667763	dec_social_low	1.667763	32.000000	n/a	0	-2.291667e-01	-2.291667e-01
167.445600	1.667763	dec_social_reject_low	1.667763	32.000000	n/a	3	-1.354167e-01	-2.291667e-01
174.280230	2.432929	dec_social_choice	2.432929	32.000000	n/a	0	0	-2.285156e-01
174.280230	2.432929	dec_choice	2.432929	32.000000	n/a	0	0	-2.291667e-01
174.280230	2.432929	dec_social_reject	2.432929	32.000000	n/a	0	0	-3.245192e-02
174.280230	2.432929	dec_reject	2.432929	32.000000	n/a	0	0	-2.083333e-02
174.280230	2.432929	dec_social_low	2.432929	32.000000	n/a	0	-2.291667e-01	-2.291667e-01
174.280230	2.432929	dec_social_reject_low	2.432929	32.000000	n/a	2	-1.666667e-01	-2.291667e-01
181.930100	1.866078	dec_social_choice	1.866078	16.000000	n/a	0	0	-2.285156e-01
181.930100	1.866078	dec_choice	1.866078	16.000000	n/a	0	0	-2.291667e-01
181.930100	1.866078	dec_social_reject	1.866078	16.000000	n/a	0	0	-3.245192e-02
181.930100	1.866078	dec_reject	1.866078	16.000000	n/a	0	0	-2.083333e-02
181.930100	1.866078	dec_social_reject_low	1.866078	16.000000	n/a	1	-1.666667e-01	-2.291667e-01
192.797150	1.682806	dec_social_choice	1.682806	32.000000	n/a	8	2.148438e-02	2.148438e-02
192.797150	1.682806	dec_choice	1.682806	32.000000	n/a	8	2.083333e-02	2.083333e-02
192.797150	1.682806	dec_social_accept	1.682806	32.000000	n/a	8	-1.363636e-01	-1.363636e-01
192.797150	1.682806	dec_accept	1.682806	32.000000	n/a	8	-1.250000e-01	-1.250000e-01
192.797150	1.682806	dec_social_high	1.682806	32.000000	n/a	8	2.083333e-02	2.083333e-02
192.797150	1.682806	dec_social_accept_high	1.682806	32.000000	n/a	8	2.083333e-02	2.083333e-02
202.062940	2.033189	dec_social_choice	2.033189	32.000000	n/a	0	0	-2.285156e-01
202.062940	2.033189	dec_choice	2.033189	32.000000	n/a	0	0	-2.291667e-01
202.062940	2.033189	dec_social_reject	2.033189	32.000000	n/a	0	0	-1.201923e-03
202.062940	2.033189	dec_reject	2.033189	32.000000	n/a	0	0	1.041667e-02
202.062940	2.033189	dec_social_reject_low	2.033189	32.000000	n/a	3	-1.354167e-01	-2.291667e-01
209.713150	1.633341	dec_nonsocial_choice	1.633341	32.000000	n/a	0	0	-2.285156e-01
209.713150	1.633341	dec_choice	1.633341	32.000000	n/a	0	0	-2.278646e-01
209.713150	1.633341	dec_nonsocial_reject	1.633341	32.000000	n/a	0	0	-3.245192e-02
209.713150	1.633341	dec_reject	1.633341	32.000000	n/a	0	0	-4.241071e-02
209.713150	1.633341	dec_nonsocial_reject_low	1.633341	32.000000	n/a	2	-2.083333e-02	-8.333333e-02
217.363140	1.699637	dec_social_choice	1.699637	16.000000	n/a	8	2.714844e-01	2.714844e-01
217.363140	1.699637	dec_choice	1.699637	16.000000	n/a	8	2.708333e-01	2.708333e-01
217.363140	1.699637	dec_social_accept	1.699637	16.000000	n/a	8	1.136364e-01	1.136364e-01
217.363140	1.699637	dec_accept	1.699637	16.000000	n/a	8	1.250000e-01	1.250000e-01
217.363140	1.699637	dec_social_accept_high	1.699637	16.000000	n/a	8	2.708333e-01	2.708333e-01
225.012190	1.434220	dec_social_choice	1.434220	32.000000	n/a	0	0	-2.285156e-01
225.012190	1.434220	dec_choice	1.434220	32.000000	n/a	0	0	-2.291667e-01
225.012190	1.434220	dec_social_reject	1.434220	32.000000	n/a	0	0	-3.245192e-02
225.012190	1.434220	dec_reject	1.434220	32.000000	n/a	0	0	-2.083333e-02
225.012190	1.434220	dec_social_low	1.434220	32.000000	n/a	0	-2.291667e-01	-2.291667e-01
225.012190	1.434220	dec_social_reject_low	1.434220	32.000000	n/a	2	-1.666667e-01	-2.291667e-01
232.663150	1.266325	dec_social_choice	1.266325	16.000000	n/a	0	0	-2.285156e-01
232.663150	1.266325	dec_choice	1.266325	16.000000	n/a	0	0	-2.291667e-01
232.663150	1.266325	dec_social_reject	1.266325	16.000000	n/a	0	0	3.004808e-02
232.663150	1.266325	dec_reject	1.266325	16.000000	n/a	0	0	4.166667e-02
232.663150	1.266325	dec_social_low	1.266325	16.000000	n/a	0	-2.291667e-01	-2.291667e-01
232.663150	1.266325	dec_social_reject_low	1.266325	16.000000	n/a	2	-1.041667e-01	-2.291667e-01
241.912730	1.650103	dec_social_choice	1.650103	16.000000	n/a	8	2.714844e-01	2.714844e-01
241.912730	1.650103	dec_choice	1.650103	16.000000	n/a	8	2.708333e-01	2.708333e-01
241.912730	1.650103	dec_social_accept	1.650103	16.000000	n/a	8	1.136364e-01	1.136364e-01
241.912730	1.650103	dec_accept	1.650103	16.000000	n/a	8	1.250000e-01	1.250000e-01
241.912730	1.650103	dec_social_accept_high	1.650103	16.000000	n/a	8	2.708333e-01	2.708333e-01
248.747250	1.332718	dec_social_choice	1.332718	32.000000	n/a	16	2.714844e-01	2.714844e-01
248.747250	1.332718	dec_choice	1.332718	32.000000	n/a	16	2.708333e-01	2.708333e-01
248.747250	1.332718	dec_social_accept	1.332718	32.000000	n/a	16	1.136364e-01	1.136364e-01
248.747250	1.332718	dec_accept	1.332718	32.000000	n/a	16	1.250000e-01	1.250000e-01
248.747250	1.332718	dec_social_accept_high	1.332718	32.000000	n/a	16	2.708333e-01	2.708333e-01
256.396200	1.566170	dec_nonsocial_choice	1.566170	16.000000	n/a	0	0	-2.285156e-01
256.396200	1.566170	dec_choice	1.566170	16.000000	n/a	0	0	-2.278646e-01
256.396200	1.566170	dec_nonsocial_reject	1.566170	16.000000	n/a	0	0	3.004808e-02
256.396200	1.566170	dec_reject	1.566170	16.000000	n/a	0	0	2.008929e-02
256.396200	1.566170	dec_nonsocial_low	1.566170	16.000000	n/a	0	-2.278646e-01	-2.278646e-01
256.396200	1.566170	dec_nonsocial_reject_low	1.566170	16.000000	n/a	2	2.008929e-02	-1.049107e-01
263.230500	1.965422	dec_nonsocial_choice	1.965422	32.000000	n/a	16	2.714844e-01	2.714844e-01
263.230500	1.965422	dec_choice	1.965422	32.000000	n/a	16	2.721354e-01	2.721354e-01
263.230500	1.965422	dec_nonsocial_accept	1.965422	32.000000	n/a	16	1.136364e-01	1.136364e-01
263.230500	1.965422	dec_accept	1.965422	32.000000	n/a	16	1.000000e-01	1.000000e-01
263.230500	1.965422	dec_nonsocial_high	1.965422	32.000000	n/a	16	2.721354e-01	2.721354e-01
263.230500	1.965422	dec_nonsocial_accept_high	1.965422	32.000000	n/a	16	1.000000e-01	1.000000e-01
270.063840	1.665546	dec_nonsocial_choice	1.665546	32.000000	n/a	0	0	-2.285156e-01
270.063840	1.665546	dec_choice	1.665546	32.000000	n/a	0	0	-2.278646e-01
270.063840	1.665546	dec_nonsocial_reject	1.665546	32.000000	n/a	0	0	-1.201923e-03
270.063840	1.665546	dec_reject	1.665546	32.000000	n/a	0	0	-1.116071e-02
270.063840	1.665546	dec_nonsocial_reject_low	1.665546	32.000000	n/a	3	1.041667e-02	-8.333333e-02
276.896270	1.316633	dec_social_choice	1.316633	32.000000	n/a	0	0	-2.285156e-01
276.896270	1.316633	dec_choice	1.316633	32.000000	n/a	0	0	-2.291667e-01
276.896270	1.316633	dec_social_reject	1.316633	32.000000	n/a	0	0	-1.201923e-03
276.896270	1.316633	dec_reject	1.316633	32.000000	n/a	0	0	1.041667e-02
276.896270	1.316633	dec_social_reject_low	1.316633	32.000000	n/a	3	-1.354167e-01	-2.291667e-01
283.730220	1.065703	dec_nonsocial_choice	1.065703	32.000000	n/a	0	0	-2.285156e-01
283.730220	1.065703	dec_choice	1.065703	32.000000	n/a	0	0	-2.278646e-01
283.730220	1.065703	dec_nonsocial_reject	1.065703	32.000000	n/a	0	0	-1.201923e-03
283.730220	1.065703	dec_reject	1.065703	32.000000	n/a	0	0	-1.116071e-02
283.730220	1.065703	dec_nonsocial_reject_low	1.065703	32.000000	n/a	3	1.041667e-02	-8.333333e-02
292.996340	2.649898	dec_nonsocial_choice	2.649898	32.000000	n/a	8	2.148438e-02	2.148438e-02
292.996340	2.649898	dec_choice	2.649898	32.000000	n/a	8	2.213542e-02	2.213542e-02
292.996340	2.649898	dec_nonsocial_accept	2.649898	32.000000	n/a	8	-1.363636e-01	-1.363636e-01
292.996340	2.649898	dec_accept	2.649898	32.000000	n/a	8	-1.500000e-01	-1.500000e-01
292.996340	2.649898	dec_nonsocial_accept_high	2.649898	32.000000	n/a	8	-1.250000e-01	-1.250000e-01
299.829220	1.350411	dec_social_choice	1.350411	16.000000	n/a	8	2.714844e-01	2.714844e-01
299.829220	1.350411	dec_choice	1.350411	16.000000	n/a	8	2.708333e-01	2.708333e-01
299.829220	1.350411	dec_social_accept	1.350411	16.000000	n/a	8	1.136364e-01	1.136364e-01
299.829220	1.350411	dec_accept	1.350411	16.000000	n/a	8	1.250000e-01	1.250000e-01
299.829220	1.350411	dec_social_high	1.350411	16.000000	n/a	8	2.708333e-01	2.708333e-01
299.829220	1.350411	dec_social_accept_high	1.350411	16.000000	n/a	8	2.708333e-01	2.708333e-01
307.463230	1.666201	dec_social_choice	1.666201	16.000000	n/a	0	0	-2.285156e-01
307.463230	1.666201	dec_choice	1.666201	16.000000	n/a	0	0	-2.291667e-01
307.463230	1.666201	dec_social_reject	1.666201	16.000000	n/a	0	0	3.004808e-02
307.463230	1.666201	dec_reject	1.666201	16.000000	n/a	0	0	4.166667e-02
307.463230	1.666201	dec_social_reject_low	1.666201	16.000000	n/a	2	-1.041667e-01	-2.291667e-01
314.296200	2.466492	dec_nonsocial_choice	2.466492	16.000000	n/a	4	2.148438e-02	2.148438e-02
314.296200	2.466492	dec_choice	2.466492	16.000000	n/a	4	2.213542e-02	2.213542e-02
314.296200	2.466492	dec_nonsocial_accept	2.466492	16.000000	n/a	4	-1.363636e-01	-1.363636e-01
314.296200	2.466492	dec_accept	2.466492	16.000000	n/a	4	-1.500000e-01	-1.500000e-01
314.296200	2.466492	dec_nonsocial_accept_high	2.466492	16.000000	n/a	4	-1.250000e-01	-1.250000e-01
321.129640	1.383312	dec_social_choice	1.383312	32.000000	n/a	16	2.714844e-01	2.714844e-01
321.129640	1.383312	dec_choice	1.383312	32.000000	n/a	16	2.708333e-01	2.708333e-01
321.129640	1.383312	dec_social_accept	1.383312	32.000000	n/a	16	1.136364e-01	1.136364e-01
321.129640	1.383312	dec_accept	1.383312	32.000000	n/a	16	1.250000e-01	1.250000e-01
321.129640	1.383312	dec_social_high	1.383312	32.000000	n/a	16	2.708333e-01	2.708333e-01
321.129640	1.383312	dec_social_accept_high	1.383312	32.000000	n/a	16	2.708333e-01	2.708333e-01
328.779570	1.433644	dec_nonsocial_choice	1.433644	32.000000	n/a	0	0	-2.285156e-01
328.779570	1.433644	dec_choice	1.433644	32.000000	n/a	0	0	-2.278646e-01
328.779570	1.433644	dec_nonsocial_reject	1.433644	32.000000	n/a	0	0	-3.245192e-02
328.779570	1.433644	dec_reject	1.433644	32.000000	n/a	0	0	-4.241071e-02
328.779570	1.433644	dec_nonsocial_reject_low	1.433644	32.000000	n/a	2	-2.083333e-02	-8.333333e-02
336.429320	1.316599	dec_nonsocial_choice	1.316599	16.000000	n/a	0	0	-2.285156e-01
336.429320	1.316599	dec_choice	1.316599	16.000000	n/a	0	0	-2.278646e-01
336.429320	1.316599	dec_nonsocial_reject	1.316599	16.000000	n/a	0	0	-3.245192e-02
336.429320	1.316599	dec_reject	1.316599	16.000000	n/a	0	0	-4.241071e-02
336.429320	1.316599	dec_nonsocial_low	1.316599	16.000000	n/a	0	-2.278646e-01	-2.278646e-01
336.429320	1.316599	dec_nonsocial_reject_low	1.316599	16.000000	n/a	1	-4.241071e-02	-1.049107e-01
343.262480	1.700515	dec_social_choice	1.700515	16.000000	n/a	0	0	-2.285156e-01
343.262480	1.700515	dec_choice	1.700515	16.000000	n/a	0	0	-2.291667e-01
343.262480	1.700515	dec_social_reject	1.700515	16.000000	n/a	0	0	-3.245192e-02
343.262480	1.700515	dec_reject	1.700515	16.000000	n/a	0	0	-2.083333e-02
343.262480	1.700515	dec_social_reject_low	1.700515	16.000000	n/a	1	-1.666667e-01	-2.291667e-01
350.096220	2.166323	dec_nonsocial_choice	2.166323	32.000000	n/a	0	0	-2.285156e-01
350.096220	2.166323	dec_choice	2.166323	32.000000	n/a	0	0	-2.278646e-01
350.096220	2.166323	dec_nonsocial_reject	2.166323	32.000000	n/a	0	0	-1.201923e-03
350.096220	2.166323	dec_reject	2.166323	32.000000	n/a	0	0	-1.116071e-02
350.096220	2.166323	dec_nonsocial_low	2.166323	32.000000	n/a	0	-2.278646e-01	-2.278646e-01
350.096220	2.166323	dec_nonsocial_reject_low	2.166323	32.000000	n/a	3	-1.116071e-02	-1.049107e-01
356.930330	1.865562	dec_nonsocial_choice	1.865562	32.000000	n/a	16	2.714844e-01	2.714844e-01
356.930330	1.865562	dec_choice	1.865562	32.000000	n/a	16	2.721354e-01	2.721354e-01
356.930330	1.865562	dec_nonsocial_accept	1.865562	32.000000	n/a	16	1.136364e-01	1.136364e-01
356.930330	1.865562	dec_accept	1.865562	32.000000	n/a	16	1.000000e-01	1.000000e-01
356.930330	1.865562	dec_nonsocial_accept_high	1.865562	32.000000	n/a	16	1.250000e-01	1.250000e-01
363.762270	1.283929	dec_nonsocial_choice	1.283929	32.000000	n/a	16	2.714844e-01	2.714844e-01
363.762270	1.283929	dec_choice	1.283929	32.000000	n/a	16	2.721354e-01	2.721354e-01
363.762270	1.283929	dec_nonsocial_accept	1.283929	32.000000	n/a	16	1.136364e-01	1.136364e-01
363.762270	1.283929	dec_accept	1.283929	32.000000	n/a	16	1.000000e-01	1.000000e-01
363.762270	1.283929	dec_nonsocial_accept_high	1.283929	32.000000	n/a	16	1.250000e-01	1.250000e-01
373.030060	2.482978	dec_nonsocial_choice	2.482978	16.000000	n/a	0	0	-2.285156e-01
373.030060	2.482978	dec_choice	2.482978	16.000000	n/a	0	0	-2.278646e-01
373.030060	2.482978	dec_nonsocial_reject	2.482978	16.000000	n/a	0	0	1.550481e-01
373.030060	2.482978	dec_reject	2.482978	16.000000	n/a	0	0	1.450893e-01
373.030060	2.482978	dec_nonsocial_low	2.482978	16.000000	n/a	0	-2.278646e-01	-2.278646e-01
373.030060	2.482978	dec_nonsocial_reject_low	2.482978	16.000000	n/a	4	1.450893e-01	-1.049107e-01
