onset	duration	trial_type	response_time	Endowment	Endowment_pmod	Decision	Decision_pmod	Offer_pmod
4.518319	2	cue_nonsocial	n/a	16	-8	n/a	n/a	n/a
4.518319	2	cue_nonsocial_low	n/a	16	-11	n/a	n/a	n/a
17.090820	2	cue_social	n/a	32	5	n/a	n/a	n/a
17.090820	2	cue_social_high	n/a	32	8	n/a	n/a	n/a
23.835382	2	cue_nonsocial	n/a	32	8	n/a	n/a	n/a
23.835382	2	cue_nonsocial_high	n/a	32	5	n/a	n/a	n/a
31.485373	2	cue_nonsocial	n/a	16	-8	n/a	n/a	n/a
31.485373	2	cue_nonsocial_low	n/a	16	-11	n/a	n/a	n/a
39.191628	2	cue_social	n/a	32	5	n/a	n/a	n/a
39.191628	2	cue_social_high	n/a	32	8	n/a	n/a	n/a
46.752174	2	cue_nonsocial	n/a	32	8	n/a	n/a	n/a
46.752174	2	cue_nonsocial_high	n/a	32	5	n/a	n/a	n/a
54.385006	2	cue_nonsocial	n/a	16	-8	n/a	n/a	n/a
54.385006	2	cue_nonsocial_low	n/a	16	-11	n/a	n/a	n/a
61.294422	2	cue_social	n/a	32	5	n/a	n/a	n/a
61.294422	2	cue_social_high	n/a	32	8	n/a	n/a	n/a
68.868790	2	cue_nonsocial	n/a	16	-8	n/a	n/a	n/a
68.868790	2	cue_nonsocial_low	n/a	16	-11	n/a	n/a	n/a
75.772310	2	cue_social	n/a	32	5	n/a	n/a	n/a
75.772310	2	cue_social_high	n/a	32	8	n/a	n/a	n/a
82.642130	2	cue_social	n/a	16	-11	n/a	n/a	n/a
82.642130	2	cue_social_low	n/a	16	-8	n/a	n/a	n/a
89.449780	2	cue_social	n/a	32	5	n/a	n/a	n/a
89.449780	2	cue_social_high	n/a	32	8	n/a	n/a	n/a
96.307110	2	cue_social	n/a	16	-11	n/a	n/a	n/a
96.307110	2	cue_social_low	n/a	16	-8	n/a	n/a	n/a
103.035440	2	cue_nonsocial	n/a	16	-8	n/a	n/a	n/a
103.035440	2	cue_nonsocial_low	n/a	16	-11	n/a	n/a	n/a
110.685740	2	cue_nonsocial	n/a	32	8	n/a	n/a	n/a
110.685740	2	cue_nonsocial_high	n/a	32	5	n/a	n/a	n/a
118.392250	2	cue_social	n/a	16	-11	n/a	n/a	n/a
118.392250	2	cue_social_low	n/a	16	-8	n/a	n/a	n/a
127.684975	2	cue_social	n/a	16	-11	n/a	n/a	n/a
127.684975	2	cue_social_low	n/a	16	-8	n/a	n/a	n/a
135.235240	2	cue_nonsocial	n/a	16	-8	n/a	n/a	n/a
135.235240	2	cue_nonsocial_low	n/a	16	-11	n/a	n/a	n/a
142.130460	2	cue_social	n/a	16	-11	n/a	n/a	n/a
142.130460	2	cue_social_low	n/a	16	-8	n/a	n/a	n/a
151.318440	2	cue_nonsocial	n/a	16	-8	n/a	n/a	n/a
151.318440	2	cue_nonsocial_low	n/a	16	-11	n/a	n/a	n/a
158.152010	2	cue_nonsocial	n/a	32	8	n/a	n/a	n/a
158.152010	2	cue_nonsocial_high	n/a	32	5	n/a	n/a	n/a
164.985570	2	cue_nonsocial	n/a	16	-8	n/a	n/a	n/a
164.985570	2	cue_nonsocial_low	n/a	16	-11	n/a	n/a	n/a
174.235120	2	cue_nonsocial	n/a	32	8	n/a	n/a	n/a
174.235120	2	cue_nonsocial_high	n/a	32	5	n/a	n/a	n/a
181.121600	2	cue_social	n/a	32	5	n/a	n/a	n/a
181.121600	2	cue_social_high	n/a	32	8	n/a	n/a	n/a
190.318500	2	cue_nonsocial	n/a	32	8	n/a	n/a	n/a
190.318500	2	cue_nonsocial_high	n/a	32	5	n/a	n/a	n/a
197.152100	2	cue_nonsocial	n/a	32	8	n/a	n/a	n/a
197.152100	2	cue_nonsocial_high	n/a	32	5	n/a	n/a	n/a
204.041600	2	cue_social	n/a	32	5	n/a	n/a	n/a
204.041600	2	cue_social_high	n/a	32	8	n/a	n/a	n/a
210.887830	2	cue_social	n/a	32	5	n/a	n/a	n/a
210.887830	2	cue_social_high	n/a	32	8	n/a	n/a	n/a
220.168550	2	cue_social	n/a	32	5	n/a	n/a	n/a
220.168550	2	cue_social_high	n/a	32	8	n/a	n/a	n/a
227.794110	2	cue_social	n/a	32	5	n/a	n/a	n/a
227.794110	2	cue_social_high	n/a	32	8	n/a	n/a	n/a
235.436000	2	cue_social	n/a	16	-11	n/a	n/a	n/a
235.436000	2	cue_social_low	n/a	16	-8	n/a	n/a	n/a
246.328550	2	cue_social	n/a	32	5	n/a	n/a	n/a
246.328550	2	cue_social_high	n/a	32	8	n/a	n/a	n/a
257.159760	2	cue_social	n/a	16	-11	n/a	n/a	n/a
257.159760	2	cue_social_low	n/a	16	-8	n/a	n/a	n/a
263.918430	2	cue_nonsocial	n/a	32	8	n/a	n/a	n/a
263.918430	2	cue_nonsocial_high	n/a	32	5	n/a	n/a	n/a
270.751830	2	cue_nonsocial	n/a	16	-8	n/a	n/a	n/a
270.751830	2	cue_nonsocial_low	n/a	16	-11	n/a	n/a	n/a
277.585270	2	cue_nonsocial	n/a	32	8	n/a	n/a	n/a
277.585270	2	cue_nonsocial_high	n/a	32	5	n/a	n/a	n/a
285.287260	2	cue_social	n/a	32	5	n/a	n/a	n/a
285.287260	2	cue_social_high	n/a	32	8	n/a	n/a	n/a
294.501740	2	cue_nonsocial	n/a	32	8	n/a	n/a	n/a
294.501740	2	cue_nonsocial_high	n/a	32	5	n/a	n/a	n/a
302.151640	2	cue_nonsocial	n/a	32	8	n/a	n/a	n/a
302.151640	2	cue_nonsocial_high	n/a	32	5	n/a	n/a	n/a
309.055700	2	cue_social	n/a	32	5	n/a	n/a	n/a
309.055700	2	cue_social_high	n/a	32	8	n/a	n/a	n/a
319.925300	2	cue_social	n/a	32	5	n/a	n/a	n/a
319.925300	2	cue_social_high	n/a	32	8	n/a	n/a	n/a
329.168880	2	cue_social	n/a	16	-11	n/a	n/a	n/a
329.168880	2	cue_social_low	n/a	16	-8	n/a	n/a	n/a
335.951570	2	cue_nonsocial	n/a	16	-8	n/a	n/a	n/a
335.951570	2	cue_nonsocial_low	n/a	16	-11	n/a	n/a	n/a
342.833440	2	cue_social	n/a	32	5	n/a	n/a	n/a
342.833440	2	cue_social_high	n/a	32	8	n/a	n/a	n/a
349.618230	2	cue_nonsocial	n/a	32	8	n/a	n/a	n/a
349.618230	2	cue_nonsocial_high	n/a	32	5	n/a	n/a	n/a
356.451480	2	cue_nonsocial	n/a	16	-8	n/a	n/a	n/a
356.451480	2	cue_nonsocial_low	n/a	16	-11	n/a	n/a	n/a
363.321600	2	cue_social	n/a	32	5	n/a	n/a	n/a
363.321600	2	cue_social_high	n/a	32	8	n/a	n/a	n/a
370.934800	2	cue_nonsocial	n/a	16	-8	n/a	n/a	n/a
370.934800	2	cue_nonsocial_low	n/a	16	-11	n/a	n/a	n/a
6.526097	1.632550	dec_nonsocial_choice	1.632550	16.000000	n/a	2	-1.067708e-01	-1.067708e-01
6.526097	1.632550	dec_choice	1.632550	16.000000	n/a	2	-1.080729e-01	-1.080729e-01
6.526097	1.632550	dec_nonsocial_accept	1.632550	16.000000	n/a	2	-2.262500e-01	-2.262500e-01
6.526097	1.632550	dec_accept	1.632550	16.000000	n/a	2	-2.500000e-01	-2.500000e-01
6.526097	1.632550	dec_nonsocial_accept_low	1.632550	16.000000	n/a	2	-2.075893e-01	-2.075893e-01
19.009872	1.999278	dec_social_choice	1.999278	32.000000	n/a	8	1.822917e-02	1.822917e-02
19.009872	1.999278	dec_choice	1.999278	32.000000	n/a	8	1.953125e-02	1.953125e-02
19.009872	1.999278	dec_social_accept	1.999278	32.000000	n/a	8	-1.012500e-01	-1.012500e-01
19.009872	1.999278	dec_accept	1.999278	32.000000	n/a	8	-8.258929e-02	-8.258929e-02
19.009872	1.999278	dec_social_high	1.999278	32.000000	n/a	8	1.953125e-02	1.953125e-02
19.009872	1.999278	dec_social_accept_high	1.999278	32.000000	n/a	8	1.953125e-02	1.953125e-02
25.842075	2.533197	dec_nonsocial_choice	2.533197	32.000000	n/a	0	0	-2.317708e-01
25.842075	2.533197	dec_choice	2.533197	32.000000	n/a	0	0	-2.330729e-01
25.842075	2.533197	dec_nonsocial_reject	2.533197	32.000000	n/a	0	0	-8.152174e-03
25.842075	2.533197	dec_reject	2.533197	32.000000	n/a	0	0	-1.923077e-02
25.842075	2.533197	dec_nonsocial_low	2.533197	32.000000	n/a	0	-2.330729e-01	-2.330729e-01
25.842075	2.533197	dec_nonsocial_reject_low	2.533197	32.000000	n/a	3	-1.923077e-02	-1.129808e-01
33.492080	1.850031	dec_nonsocial_choice	1.850031	16.000000	n/a	0	0	-2.317708e-01
33.492080	1.850031	dec_choice	1.850031	16.000000	n/a	0	0	-2.330729e-01
33.492080	1.850031	dec_nonsocial_reject	1.850031	16.000000	n/a	0	0	2.309783e-02
33.492080	1.850031	dec_reject	1.850031	16.000000	n/a	0	0	1.201923e-02
33.492080	1.850031	dec_nonsocial_low	1.850031	16.000000	n/a	0	-2.330729e-01	-2.330729e-01
33.492080	1.850031	dec_nonsocial_reject_low	1.850031	16.000000	n/a	2	1.201923e-02	-1.129808e-01
41.125023	1.967157	dec_social_choice	1.967157	32.000000	n/a	2	-1.692708e-01	-1.692708e-01
41.125023	1.967157	dec_choice	1.967157	32.000000	n/a	2	-1.679688e-01	-1.679688e-01
41.125023	1.967157	dec_social_accept	1.967157	32.000000	n/a	2	-2.887500e-01	-2.887500e-01
41.125023	1.967157	dec_accept	1.967157	32.000000	n/a	2	-2.700893e-01	-2.700893e-01
41.125023	1.967157	dec_social_accept_low	1.967157	32.000000	n/a	2	-1.679688e-01	-1.679688e-01
48.759033	2.000311	dec_nonsocial_choice	2.000311	32.000000	n/a	0	0	-2.317708e-01
48.759033	2.000311	dec_choice	2.000311	32.000000	n/a	0	0	-2.330729e-01
48.759033	2.000311	dec_nonsocial_reject	2.000311	32.000000	n/a	0	0	-3.940217e-02
48.759033	2.000311	dec_reject	2.000311	32.000000	n/a	0	0	-5.048077e-02
48.759033	2.000311	dec_nonsocial_low	2.000311	32.000000	n/a	0	-2.330729e-01	-2.330729e-01
48.759033	2.000311	dec_nonsocial_reject_low	2.000311	32.000000	n/a	2	-5.048077e-02	-1.129808e-01
56.393078	1.665410	dec_nonsocial_choice	1.665410	16.000000	n/a	8	2.682292e-01	2.682292e-01
56.393078	1.665410	dec_choice	1.665410	16.000000	n/a	8	2.669271e-01	2.669271e-01
56.393078	1.665410	dec_nonsocial_accept	1.665410	16.000000	n/a	8	1.487500e-01	1.487500e-01
56.393078	1.665410	dec_accept	1.665410	16.000000	n/a	8	1.250000e-01	1.250000e-01
56.393078	1.665410	dec_nonsocial_high	1.665410	16.000000	n/a	8	2.669271e-01	2.669271e-01
56.393078	1.665410	dec_nonsocial_accept_high	1.665410	16.000000	n/a	8	1.250000e-01	1.250000e-01
63.225060	1.683169	dec_social_choice	1.683169	32.000000	n/a	3	-1.380208e-01	-1.380208e-01
63.225060	1.683169	dec_choice	1.683169	32.000000	n/a	3	-1.367188e-01	-1.367188e-01
63.225060	1.683169	dec_social_accept	1.683169	32.000000	n/a	3	-2.575000e-01	-2.575000e-01
63.225060	1.683169	dec_accept	1.683169	32.000000	n/a	3	-2.388393e-01	-2.388393e-01
63.225060	1.683169	dec_social_accept_low	1.683169	32.000000	n/a	3	-1.367188e-01	-1.367188e-01
70.876080	1.915671	dec_nonsocial_choice	1.915671	16.000000	n/a	0	0	-2.317708e-01
70.876080	1.915671	dec_choice	1.915671	16.000000	n/a	0	0	-2.330729e-01
70.876080	1.915671	dec_nonsocial_reject	1.915671	16.000000	n/a	0	0	-3.940217e-02
70.876080	1.915671	dec_reject	1.915671	16.000000	n/a	0	0	-5.048077e-02
70.876080	1.915671	dec_nonsocial_reject_low	1.915671	16.000000	n/a	1	-2.500000e-02	-8.750000e-02
77.708680	2.550320	dec_social_choice	2.550320	32.000000	n/a	8	1.822917e-02	1.822917e-02
77.708680	2.550320	dec_choice	2.550320	32.000000	n/a	8	1.953125e-02	1.953125e-02
77.708680	2.550320	dec_social_accept	2.550320	32.000000	n/a	8	-1.012500e-01	-1.012500e-01
77.708680	2.550320	dec_accept	2.550320	32.000000	n/a	8	-8.258929e-02	-8.258929e-02
77.708680	2.550320	dec_social_high	2.550320	32.000000	n/a	8	1.953125e-02	1.953125e-02
77.708680	2.550320	dec_social_accept_high	2.550320	32.000000	n/a	8	1.953125e-02	1.953125e-02
84.542090	2.399927	dec_social_choice	2.399927	16.000000	n/a	0	0	-2.317708e-01
84.542090	2.399927	dec_choice	2.399927	16.000000	n/a	0	0	-2.304688e-01
84.542090	2.399927	dec_social_reject	2.399927	16.000000	n/a	0	0	2.309783e-02
84.542090	2.399927	dec_reject	2.399927	16.000000	n/a	0	0	3.750000e-02
84.542090	2.399927	dec_social_low	2.399927	16.000000	n/a	0	-2.304688e-01	-2.304688e-01
84.542090	2.399927	dec_social_reject_low	2.399927	16.000000	n/a	2	-1.054688e-01	-2.304688e-01
91.375080	1.416896	dec_social_choice	1.416896	32.000000	n/a	8	1.822917e-02	1.822917e-02
91.375080	1.416896	dec_choice	1.416896	32.000000	n/a	8	1.953125e-02	1.953125e-02
91.375080	1.416896	dec_social_accept	1.416896	32.000000	n/a	8	-1.012500e-01	-1.012500e-01
91.375080	1.416896	dec_accept	1.416896	32.000000	n/a	8	-8.258929e-02	-8.258929e-02
91.375080	1.416896	dec_social_accept_high	1.416896	32.000000	n/a	8	1.953125e-02	1.953125e-02
98.208046	1.283996	dec_social_choice	1.283996	16.000000	n/a	8	2.682292e-01	2.682292e-01
98.208046	1.283996	dec_choice	1.283996	16.000000	n/a	8	2.695312e-01	2.695312e-01
98.208046	1.283996	dec_social_accept	1.283996	16.000000	n/a	8	1.487500e-01	1.487500e-01
98.208046	1.283996	dec_accept	1.283996	16.000000	n/a	8	1.674107e-01	1.674107e-01
98.208046	1.283996	dec_social_high	1.283996	16.000000	n/a	8	2.695312e-01	2.695312e-01
98.208046	1.283996	dec_social_accept_high	1.283996	16.000000	n/a	8	2.695312e-01	2.695312e-01
105.042130	1.483122	dec_nonsocial_choice	1.483122	16.000000	n/a	0	0	-2.317708e-01
105.042130	1.483122	dec_choice	1.483122	16.000000	n/a	0	0	-2.330729e-01
105.042130	1.483122	dec_nonsocial_reject	1.483122	16.000000	n/a	0	0	-3.940217e-02
105.042130	1.483122	dec_reject	1.483122	16.000000	n/a	0	0	-5.048077e-02
105.042130	1.483122	dec_nonsocial_reject_low	1.483122	16.000000	n/a	1	-2.500000e-02	-8.750000e-02
112.692024	1.950271	dec_nonsocial_choice	1.950271	32.000000	n/a	8	1.822917e-02	1.822917e-02
112.692024	1.950271	dec_choice	1.950271	32.000000	n/a	8	1.692708e-02	1.692708e-02
112.692024	1.950271	dec_nonsocial_accept	1.950271	32.000000	n/a	8	-1.012500e-01	-1.012500e-01
112.692024	1.950271	dec_accept	1.950271	32.000000	n/a	8	-1.250000e-01	-1.250000e-01
112.692024	1.950271	dec_nonsocial_high	1.950271	32.000000	n/a	8	1.692708e-02	1.692708e-02
112.692024	1.950271	dec_nonsocial_accept_high	1.950271	32.000000	n/a	8	-1.250000e-01	-1.250000e-01
120.325080	1.983282	dec_social_choice	1.983282	16.000000	n/a	0	0	-2.317708e-01
120.325080	1.983282	dec_choice	1.983282	16.000000	n/a	0	0	-2.304688e-01
120.325080	1.983282	dec_social_reject	1.983282	16.000000	n/a	0	0	2.309783e-02
120.325080	1.983282	dec_reject	1.983282	16.000000	n/a	0	0	3.750000e-02
120.325080	1.983282	dec_social_low	1.983282	16.000000	n/a	0	-2.304688e-01	-2.304688e-01
120.325080	1.983282	dec_social_reject_low	1.983282	16.000000	n/a	2	-1.054688e-01	-2.304688e-01
129.592100	1.182855	dec_social_choice	1.182855	16.000000	n/a	8	2.682292e-01	2.682292e-01
129.592100	1.182855	dec_choice	1.182855	16.000000	n/a	8	2.695312e-01	2.695312e-01
129.592100	1.182855	dec_social_accept	1.182855	16.000000	n/a	8	1.487500e-01	1.487500e-01
129.592100	1.182855	dec_accept	1.182855	16.000000	n/a	8	1.674107e-01	1.674107e-01
129.592100	1.182855	dec_social_high	1.182855	16.000000	n/a	8	2.695312e-01	2.695312e-01
129.592100	1.182855	dec_social_accept_high	1.182855	16.000000	n/a	8	2.695312e-01	2.695312e-01
137.241780	1.633075	dec_nonsocial_choice	1.633075	16.000000	n/a	0	0	-2.317708e-01
137.241780	1.633075	dec_choice	1.633075	16.000000	n/a	0	0	-2.330729e-01
137.241780	1.633075	dec_nonsocial_reject	1.633075	16.000000	n/a	0	0	2.309783e-02
137.241780	1.633075	dec_reject	1.633075	16.000000	n/a	0	0	1.201923e-02
137.241780	1.633075	dec_nonsocial_low	1.633075	16.000000	n/a	0	-2.330729e-01	-2.330729e-01
137.241780	1.633075	dec_nonsocial_reject_low	1.633075	16.000000	n/a	2	1.201923e-02	-1.129808e-01
144.076110	1.999157	dec_social_choice	1.999157	16.000000	n/a	0	0	-2.317708e-01
144.076110	1.999157	dec_choice	1.999157	16.000000	n/a	0	0	-2.304688e-01
144.076110	1.999157	dec_social_reject	1.999157	16.000000	n/a	0	0	2.309783e-02
144.076110	1.999157	dec_reject	1.999157	16.000000	n/a	0	0	3.750000e-02
144.076110	1.999157	dec_social_low	1.999157	16.000000	n/a	0	-2.304688e-01	-2.304688e-01
144.076110	1.999157	dec_social_reject_low	1.999157	16.000000	n/a	2	-1.054688e-01	-2.304688e-01
153.325120	2.433878	dec_nonsocial_choice	2.433878	16.000000	n/a	0	0	-2.317708e-01
153.325120	2.433878	dec_choice	2.433878	16.000000	n/a	0	0	-2.330729e-01
153.325120	2.433878	dec_nonsocial_reject	2.433878	16.000000	n/a	0	0	1.480978e-01
153.325120	2.433878	dec_reject	2.433878	16.000000	n/a	0	0	1.370192e-01
153.325120	2.433878	dec_nonsocial_low	2.433878	16.000000	n/a	0	-2.330729e-01	-2.330729e-01
153.325120	2.433878	dec_nonsocial_reject_low	2.433878	16.000000	n/a	4	1.370192e-01	-1.129808e-01
160.158520	1.349915	dec_nonsocial_choice	1.349915	32.000000	n/a	16	2.682292e-01	2.682292e-01
160.158520	1.349915	dec_choice	1.349915	32.000000	n/a	16	2.669271e-01	2.669271e-01
160.158520	1.349915	dec_nonsocial_accept	1.349915	32.000000	n/a	16	1.487500e-01	1.487500e-01
160.158520	1.349915	dec_accept	1.349915	32.000000	n/a	16	1.250000e-01	1.250000e-01
160.158520	1.349915	dec_nonsocial_accept_high	1.349915	32.000000	n/a	16	1.674107e-01	1.674107e-01
166.992700	2.349315	dec_nonsocial_choice	2.349315	16.000000	n/a	0	0	-2.317708e-01
166.992700	2.349315	dec_choice	2.349315	16.000000	n/a	0	0	-2.330729e-01
166.992700	2.349315	dec_nonsocial_reject	2.349315	16.000000	n/a	0	0	2.309783e-02
166.992700	2.349315	dec_reject	2.349315	16.000000	n/a	0	0	1.201923e-02
166.992700	2.349315	dec_nonsocial_low	2.349315	16.000000	n/a	0	-2.330729e-01	-2.330729e-01
166.992700	2.349315	dec_nonsocial_reject_low	2.349315	16.000000	n/a	2	1.201923e-02	-1.129808e-01
176.242190	1.632977	dec_nonsocial_choice	1.632977	32.000000	n/a	16	2.682292e-01	2.682292e-01
176.242190	1.632977	dec_choice	1.632977	32.000000	n/a	16	2.669271e-01	2.669271e-01
176.242190	1.632977	dec_nonsocial_accept	1.632977	32.000000	n/a	16	1.487500e-01	1.487500e-01
176.242190	1.632977	dec_accept	1.632977	32.000000	n/a	16	1.250000e-01	1.250000e-01
176.242190	1.632977	dec_nonsocial_accept_high	1.632977	32.000000	n/a	16	1.674107e-01	1.674107e-01
183.074230	1.400824	dec_social_choice	1.400824	32.000000	n/a	8	1.822917e-02	1.822917e-02
183.074230	1.400824	dec_choice	1.400824	32.000000	n/a	8	1.953125e-02	1.953125e-02
183.074230	1.400824	dec_social_accept	1.400824	32.000000	n/a	8	-1.012500e-01	-1.012500e-01
183.074230	1.400824	dec_accept	1.400824	32.000000	n/a	8	-8.258929e-02	-8.258929e-02
183.074230	1.400824	dec_social_accept_high	1.400824	32.000000	n/a	8	1.953125e-02	1.953125e-02
192.326140	2.115114	dec_nonsocial_choice	2.115114	32.000000	n/a	8	1.822917e-02	1.822917e-02
192.326140	2.115114	dec_choice	2.115114	32.000000	n/a	8	1.692708e-02	1.692708e-02
192.326140	2.115114	dec_nonsocial_accept	2.115114	32.000000	n/a	8	-1.012500e-01	-1.012500e-01
192.326140	2.115114	dec_accept	2.115114	32.000000	n/a	8	-1.250000e-01	-1.250000e-01
192.326140	2.115114	dec_nonsocial_high	2.115114	32.000000	n/a	8	1.692708e-02	1.692708e-02
192.326140	2.115114	dec_nonsocial_accept_high	2.115114	32.000000	n/a	8	-1.250000e-01	-1.250000e-01
199.158570	1.450058	dec_nonsocial_choice	1.450058	32.000000	n/a	16	2.682292e-01	2.682292e-01
199.158570	1.450058	dec_choice	1.450058	32.000000	n/a	16	2.669271e-01	2.669271e-01
199.158570	1.450058	dec_nonsocial_accept	1.450058	32.000000	n/a	16	1.487500e-01	1.487500e-01
199.158570	1.450058	dec_accept	1.450058	32.000000	n/a	16	1.250000e-01	1.250000e-01
199.158570	1.450058	dec_nonsocial_accept_high	1.450058	32.000000	n/a	16	1.674107e-01	1.674107e-01
205.992130	1.349578	dec_social_choice	1.349578	32.000000	n/a	16	2.682292e-01	2.682292e-01
205.992130	1.349578	dec_choice	1.349578	32.000000	n/a	16	2.695312e-01	2.695312e-01
205.992130	1.349578	dec_social_accept	1.349578	32.000000	n/a	16	1.487500e-01	1.487500e-01
205.992130	1.349578	dec_accept	1.349578	32.000000	n/a	16	1.674107e-01	1.674107e-01
205.992130	1.349578	dec_social_accept_high	1.349578	32.000000	n/a	16	2.695312e-01	2.695312e-01
212.825040	1.550222	dec_social_choice	1.550222	32.000000	n/a	8	1.822917e-02	1.822917e-02
212.825040	1.550222	dec_choice	1.550222	32.000000	n/a	8	1.953125e-02	1.953125e-02
212.825040	1.550222	dec_social_accept	1.550222	32.000000	n/a	8	-1.012500e-01	-1.012500e-01
212.825040	1.550222	dec_accept	1.550222	32.000000	n/a	8	-8.258929e-02	-8.258929e-02
212.825040	1.550222	dec_social_high	1.550222	32.000000	n/a	8	1.953125e-02	1.953125e-02
212.825040	1.550222	dec_social_accept_high	1.550222	32.000000	n/a	8	1.953125e-02	1.953125e-02
222.076000	1.632254	dec_social_choice	1.632254	32.000000	n/a	0	0	-2.317708e-01
222.076000	1.632254	dec_choice	1.632254	32.000000	n/a	0	0	-2.304688e-01
222.076000	1.632254	dec_social_reject	1.632254	32.000000	n/a	0	0	-8.152174e-03
222.076000	1.632254	dec_reject	1.632254	32.000000	n/a	0	0	6.250000e-03
222.076000	1.632254	dec_social_low	1.632254	32.000000	n/a	0	-2.304688e-01	-2.304688e-01
222.076000	1.632254	dec_social_reject_low	1.632254	32.000000	n/a	3	-1.367188e-01	-2.304688e-01
229.724170	2.017950	dec_social_choice	2.017950	32.000000	n/a	0	0	-2.317708e-01
229.724170	2.017950	dec_choice	2.017950	32.000000	n/a	0	0	-2.304688e-01
229.724170	2.017950	dec_social_reject	2.017950	32.000000	n/a	0	0	-8.152174e-03
229.724170	2.017950	dec_reject	2.017950	32.000000	n/a	0	0	6.250000e-03
229.724170	2.017950	dec_social_low	2.017950	32.000000	n/a	0	-2.304688e-01	-2.304688e-01
229.724170	2.017950	dec_social_reject_low	2.017950	32.000000	n/a	3	-1.367188e-01	-2.304688e-01
237.357180	1.451049	dec_social_choice	1.451049	16.000000	n/a	4	1.822917e-02	1.822917e-02
237.357180	1.451049	dec_choice	1.451049	16.000000	n/a	4	1.953125e-02	1.953125e-02
237.357180	1.451049	dec_social_accept	1.451049	16.000000	n/a	4	-1.012500e-01	-1.012500e-01
237.357180	1.451049	dec_accept	1.451049	16.000000	n/a	4	-8.258929e-02	-8.258929e-02
237.357180	1.451049	dec_social_accept_high	1.451049	16.000000	n/a	4	1.953125e-02	1.953125e-02
248.225280	1.916030	dec_social_choice	1.916030	32.000000	n/a	16	2.682292e-01	2.682292e-01
248.225280	1.916030	dec_choice	1.916030	32.000000	n/a	16	2.695312e-01	2.695312e-01
248.225280	1.916030	dec_social_accept	1.916030	32.000000	n/a	16	1.487500e-01	1.487500e-01
248.225280	1.916030	dec_accept	1.916030	32.000000	n/a	16	1.674107e-01	1.674107e-01
248.225280	1.916030	dec_social_accept_high	1.916030	32.000000	n/a	16	2.695312e-01	2.695312e-01
259.091950	1.232949	dec_social_choice	1.232949	16.000000	n/a	8	2.682292e-01	2.682292e-01
259.091950	1.232949	dec_choice	1.232949	16.000000	n/a	8	2.695312e-01	2.695312e-01
259.091950	1.232949	dec_social_accept	1.232949	16.000000	n/a	8	1.487500e-01	1.487500e-01
259.091950	1.232949	dec_accept	1.232949	16.000000	n/a	8	1.674107e-01	1.674107e-01
259.091950	1.232949	dec_social_accept_high	1.232949	16.000000	n/a	8	2.695312e-01	2.695312e-01
265.926120	1.282206	dec_nonsocial_choice	1.282206	32.000000	n/a	16	2.682292e-01	2.682292e-01
265.926120	1.282206	dec_choice	1.282206	32.000000	n/a	16	2.669271e-01	2.669271e-01
265.926120	1.282206	dec_nonsocial_accept	1.282206	32.000000	n/a	16	1.487500e-01	1.487500e-01
265.926120	1.282206	dec_accept	1.282206	32.000000	n/a	16	1.250000e-01	1.250000e-01
265.926120	1.282206	dec_nonsocial_accept_high	1.282206	32.000000	n/a	16	1.674107e-01	1.674107e-01
272.758180	1.266357	dec_nonsocial_choice	1.266357	16.000000	n/a	0	0	-2.317708e-01
272.758180	1.266357	dec_choice	1.266357	16.000000	n/a	0	0	-2.330729e-01
272.758180	1.266357	dec_nonsocial_reject	1.266357	16.000000	n/a	0	0	-3.940217e-02
272.758180	1.266357	dec_reject	1.266357	16.000000	n/a	0	0	-5.048077e-02
272.758180	1.266357	dec_nonsocial_low	1.266357	16.000000	n/a	0	-2.330729e-01	-2.330729e-01
272.758180	1.266357	dec_nonsocial_reject_low	1.266357	16.000000	n/a	1	-5.048077e-02	-1.129808e-01
279.592220	1.299226	dec_nonsocial_choice	1.299226	32.000000	n/a	0	0	-2.317708e-01
279.592220	1.299226	dec_choice	1.299226	32.000000	n/a	0	0	-2.330729e-01
279.592220	1.299226	dec_nonsocial_reject	1.299226	32.000000	n/a	0	0	-3.940217e-02
279.592220	1.299226	dec_reject	1.299226	32.000000	n/a	0	0	-5.048077e-02
279.592220	1.299226	dec_nonsocial_reject_low	1.299226	32.000000	n/a	2	-2.500000e-02	-8.750000e-02
287.241850	1.165957	dec_social_choice	1.165957	32.000000	n/a	0	0	-2.317708e-01
287.241850	1.165957	dec_choice	1.165957	32.000000	n/a	0	0	-2.304688e-01
287.241850	1.165957	dec_social_reject	1.165957	32.000000	n/a	0	0	-3.940217e-02
287.241850	1.165957	dec_reject	1.165957	32.000000	n/a	0	0	-2.500000e-02
287.241850	1.165957	dec_social_reject_low	1.165957	32.000000	n/a	2	-1.679688e-01	-2.304688e-01
296.508240	1.533976	dec_nonsocial_choice	1.533976	32.000000	n/a	16	2.682292e-01	2.682292e-01
296.508240	1.533976	dec_choice	1.533976	32.000000	n/a	16	2.669271e-01	2.669271e-01
296.508240	1.533976	dec_nonsocial_accept	1.533976	32.000000	n/a	16	1.487500e-01	1.487500e-01
296.508240	1.533976	dec_accept	1.533976	32.000000	n/a	16	1.250000e-01	1.250000e-01
296.508240	1.533976	dec_nonsocial_accept_high	1.533976	32.000000	n/a	16	1.674107e-01	1.674107e-01
304.159060	1.515550	dec_nonsocial_choice	1.515550	32.000000	n/a	8	1.822917e-02	1.822917e-02
304.159060	1.515550	dec_choice	1.515550	32.000000	n/a	8	1.692708e-02	1.692708e-02
304.159060	1.515550	dec_nonsocial_accept	1.515550	32.000000	n/a	8	-1.012500e-01	-1.012500e-01
304.159060	1.515550	dec_accept	1.515550	32.000000	n/a	8	-1.250000e-01	-1.250000e-01
304.159060	1.515550	dec_nonsocial_accept_high	1.515550	32.000000	n/a	8	-8.258929e-02	-8.258929e-02
310.992160	1.732948	dec_social_choice	1.732948	32.000000	n/a	0	0	-2.317708e-01
310.992160	1.732948	dec_choice	1.732948	32.000000	n/a	0	0	-2.304688e-01
310.992160	1.732948	dec_social_reject	1.732948	32.000000	n/a	0	0	-3.940217e-02
310.992160	1.732948	dec_reject	1.732948	32.000000	n/a	0	0	-2.500000e-02
310.992160	1.732948	dec_social_reject_low	1.732948	32.000000	n/a	2	-1.679688e-01	-2.304688e-01
321.858220	1.332921	dec_social_choice	1.332921	32.000000	n/a	0	0	-2.317708e-01
321.858220	1.332921	dec_choice	1.332921	32.000000	n/a	0	0	-2.304688e-01
321.858220	1.332921	dec_social_reject	1.332921	32.000000	n/a	0	0	-3.940217e-02
321.858220	1.332921	dec_reject	1.332921	32.000000	n/a	0	0	-2.500000e-02
321.858220	1.332921	dec_social_low	1.332921	32.000000	n/a	0	-2.304688e-01	-2.304688e-01
321.858220	1.332921	dec_social_reject_low	1.332921	32.000000	n/a	2	-1.679688e-01	-2.304688e-01
331.125500	1.499664	dec_social_choice	1.499664	16.000000	n/a	0	0	-2.317708e-01
331.125500	1.499664	dec_choice	1.499664	16.000000	n/a	0	0	-2.304688e-01
331.125500	1.499664	dec_social_reject	1.499664	16.000000	n/a	0	0	-3.940217e-02
331.125500	1.499664	dec_reject	1.499664	16.000000	n/a	0	0	-2.500000e-02
331.125500	1.499664	dec_social_reject_low	1.499664	16.000000	n/a	1	-1.679688e-01	-2.304688e-01
337.958200	1.566471	dec_nonsocial_choice	1.566471	16.000000	n/a	0	0	-2.317708e-01
337.958200	1.566471	dec_choice	1.566471	16.000000	n/a	0	0	-2.330729e-01
337.958200	1.566471	dec_nonsocial_reject	1.566471	16.000000	n/a	0	0	2.309783e-02
337.958200	1.566471	dec_reject	1.566471	16.000000	n/a	0	0	1.201923e-02
337.958200	1.566471	dec_nonsocial_reject_low	1.566471	16.000000	n/a	2	3.750000e-02	-8.750000e-02
344.790650	1.334858	dec_social_choice	1.334858	32.000000	n/a	16	2.682292e-01	2.682292e-01
344.790650	1.334858	dec_choice	1.334858	32.000000	n/a	16	2.695312e-01	2.695312e-01
344.790650	1.334858	dec_social_accept	1.334858	32.000000	n/a	16	1.487500e-01	1.487500e-01
344.790650	1.334858	dec_accept	1.334858	32.000000	n/a	16	1.674107e-01	1.674107e-01
344.790650	1.334858	dec_social_high	1.334858	32.000000	n/a	16	2.695312e-01	2.695312e-01
344.790650	1.334858	dec_social_accept_high	1.334858	32.000000	n/a	16	2.695312e-01	2.695312e-01
351.625100	2.516006	dec_nonsocial_choice	2.516006	32.000000	n/a	8	1.822917e-02	1.822917e-02
351.625100	2.516006	dec_choice	2.516006	32.000000	n/a	8	1.692708e-02	1.692708e-02
351.625100	2.516006	dec_nonsocial_accept	2.516006	32.000000	n/a	8	-1.012500e-01	-1.012500e-01
351.625100	2.516006	dec_accept	2.516006	32.000000	n/a	8	-1.250000e-01	-1.250000e-01
351.625100	2.516006	dec_nonsocial_high	2.516006	32.000000	n/a	8	1.692708e-02	1.692708e-02
351.625100	2.516006	dec_nonsocial_accept_high	2.516006	32.000000	n/a	8	-1.250000e-01	-1.250000e-01
358.457340	1.467142	dec_nonsocial_choice	1.467142	16.000000	n/a	0	0	-2.317708e-01
358.457340	1.467142	dec_choice	1.467142	16.000000	n/a	0	0	-2.330729e-01
358.457340	1.467142	dec_nonsocial_reject	1.467142	16.000000	n/a	0	0	-3.940217e-02
358.457340	1.467142	dec_reject	1.467142	16.000000	n/a	0	0	-5.048077e-02
358.457340	1.467142	dec_nonsocial_low	1.467142	16.000000	n/a	0	-2.330729e-01	-2.330729e-01
358.457340	1.467142	dec_nonsocial_reject_low	1.467142	16.000000	n/a	1	-5.048077e-02	-1.129808e-01
365.291320	2.650146	dec_social_choice	2.650146	32.000000	n/a	0	0	-2.317708e-01
365.291320	2.650146	dec_choice	2.650146	32.000000	n/a	0	0	-2.304688e-01
365.291320	2.650146	dec_social_reject	2.650146	32.000000	n/a	0	0	-3.940217e-02
365.291320	2.650146	dec_reject	2.650146	32.000000	n/a	0	0	-2.500000e-02
365.291320	2.650146	dec_social_reject_low	2.650146	32.000000	n/a	2	-1.679688e-01	-2.304688e-01
372.942230	1.932986	dec_nonsocial_choice	1.932986	16.000000	n/a	0	0	-2.317708e-01
372.942230	1.932986	dec_choice	1.932986	16.000000	n/a	0	0	-2.330729e-01
372.942230	1.932986	dec_nonsocial_reject	1.932986	16.000000	n/a	0	0	1.480978e-01
372.942230	1.932986	dec_reject	1.932986	16.000000	n/a	0	0	1.370192e-01
372.942230	1.932986	dec_nonsocial_low	1.932986	16.000000	n/a	0	-2.330729e-01	-2.330729e-01
372.942230	1.932986	dec_nonsocial_reject_low	1.932986	16.000000	n/a	4	1.370192e-01	-1.129808e-01
