instrText,stimDoor,stimDoorLure,stimFace,stimFaceLure,Instructions.thisRepN,Instructions.thisTrialN,Instructions.thisN,Instructions.thisIndex,Trials.thisRepN,Trials.thisTrialN,Trials.thisN,Trials.thisIndex,Func,Keys,Text,RespTime,Onset,Offset,SystemTime_Start,SystemTime_Stop,Stim,Lure,Participant*,Age,date,expName,psychopyVersion,frameRate,
"In the earlier Feedback Games, you chose which doors contained a prize, and which peers liked you. 

You then saw positive or negative feedback (green check mark or red X) from the door or peer you selected.

You will now see a series of doors and peers, some of which you saw during the earlier Feedback Games, and some that you have never seen before.

Please press the spacebar to continue.",,,,,0,0,0,0,,,,,instrFunc,space,"In the earlier Feedback Games, you chose which doors contained a prize, and which peers liked you. 

You then saw positive or negative feedback (green check mark or red X) from the door or peer you selected.

You will now see a series of doors and peers, some of which you saw during the earlier Feedback Games, and some that you have never seen before.

Please press the spacebar to continue.",36.61799730000001,23.3913431,60.13231773999999,2023-08-15 15:15:27.656760,2023-08-15 15:16:04.386569,,,10685,30-49,2023_Aug_15_1515,Recall,2021.2.3,60.07174969783756,
"For doors/peers that you remember selecting and getting feedback from, your job is to RECALL what feedback you received. 

Press '1' if you recall positive feedback. 

Press '2' if you recall negative feedback

Press the spacebar to continue.",,,,,0,1,1,1,,,,,instrFunc,space,"For doors/peers that you remember selecting and getting feedback from, your job is to RECALL what feedback you received. 

Press '1' if you recall positive feedback. 

Press '2' if you recall negative feedback

Press the spacebar to continue.",11.967842899999994,60.0575178,72.09611778000001,2023-08-15 15:16:04.388563,2023-08-15 15:16:16.417405,,,10685,30-49,2023_Aug_15_1515,Recall,2021.2.3,60.07174969783756,
"For doors/peers that you don't remember getting feedback from, your job is to PREDICT what feedback you WOULD HAVE received.

Press '9' if you predict positive feedback.

Press '0' if you predict negative feedback. 

Please press the spacebar to continue.",,,,,0,2,2,2,,,,,instrFunc,space,"For doors/peers that you don't remember getting feedback from, your job is to PREDICT what feedback you WOULD HAVE received.

Press '9' if you predict positive feedback.

Press '0' if you predict negative feedback. 

Please press the spacebar to continue.",9.791553899999997,72.08985229999999,81.94814427999998,2023-08-15 15:16:16.419401,2023-08-15 15:16:26.267073,,,10685,30-49,2023_Aug_15_1515,Recall,2021.2.3,60.07174969783756,
"This task is self-paced, and the prompts will always stay on the screen so that you know which buttons to press.

On the next screen we will show you what those prompts look like, so that you know exactly what to expect. 

You will start with either doors or peers, and then switch halfway through. 

Please press the spacebar to continue.",,,,,0,3,3,3,,,,,instrFunc,space,"This task is self-paced, and the prompts will always stay on the screen so that you know which buttons to press.

On the next screen we will show you what those prompts look like, so that you know exactly what to expect. 

You will start with either doors or peers, and then switch halfway through. 

Please press the spacebar to continue.",13.05975380000001,81.92579049999998,95.03200458,2023-08-15 15:16:26.269072,2023-08-15 15:16:39.365058,,,10685,30-49,2023_Aug_15_1515,Recall,2021.2.3,60.07174969783756,
,,,,,,,,,,,,,imgtextFunc,space,"Here is what the screen will look like while you make your ratings.
The green circles remind you to press 1 or 9 for positive feedback.
The red circles remind you to press 2 or 0 for negative feedback.









Please let the experimenter know if you have any questions.

Whenever you're ready, press the spacebar to start the task.",41.832342100000005,95.20103679999997,137.24305056,2023-08-15 15:16:39.381015,2023-08-15 15:17:21.289791,,,10685,30-49,2023_Aug_15_1515,Recall,2021.2.3,60.07174969783756,
,SD019.jpg,0,MF019.jpg,0,,,,,0,0,0,68,imgFunc,0,NA,7.033836500000007,137.23157619999998,144.41400120000006,2023-08-15 15:17:21.353366,2023-08-15 15:17:28.493348,SD019.jpg,0,10685,30-49,2023_Aug_15_1515,Recall,2021.2.3,60.07174969783756,
,L_SD510.jpg,1,L_MF510.jpg,1,,,,,0,1,1,99,imgFunc,9,NA,13.40975850000001,144.39171079999997,157.93484126,2023-08-15 15:17:28.509241,2023-08-15 15:17:41.986607,L_SD510.jpg,1,10685,30-49,2023_Aug_15_1515,Recall,2021.2.3,60.07174969783756,
,DD013.jpg,0,FF013.jpg,0,,,,,0,2,2,12,imgFunc,0,NA,1.8462274999999977,157.9554289,159.94883026,2023-08-15 15:17:42.003494,2023-08-15 15:17:43.978214,DD013.jpg,0,10685,30-49,2023_Aug_15_1515,Recall,2021.2.3,60.07174969783756,
,SD004.jpg,0,MF004.jpg,0,,,,,0,3,3,53,imgFunc,9,NA,1.8912013000000343,159.9262135,161.92979778000003,2023-08-15 15:17:43.990135,2023-08-15 15:17:45.986708,SD004.jpg,0,10685,30-49,2023_Aug_15_1515,Recall,2021.2.3,60.07174969783756,
,DD010.jpg,0,FF010.jpg,0,,,,,0,4,4,9,imgFunc,9,NA,2.492583400000001,161.94891090000002,164.56616526000008,2023-08-15 15:17:45.999621,2023-08-15 15:17:48.592186,DD010.jpg,0,10685,30-49,2023_Aug_15_1515,Recall,2021.2.3,60.07174969783756,
,SD034.jpg,0,MF034.jpg,0,,,,,0,5,5,83,imgFunc,0,NA,1.4990105999999628,164.55841560000002,166.16324358000006,2023-08-15 15:17:48.603114,2023-08-15 15:17:50.202359,SD034.jpg,0,10685,30-49,2023_Aug_15_1515,Recall,2021.2.3,60.07174969783756,
,DD011.jpg,0,FF011.jpg,0,,,,,0,6,6,10,imgFunc,9,NA,2.9618624000000295,166.18357539999997,169.25138058000002,2023-08-15 15:17:50.215271,2023-08-15 15:17:53.272711,DD011.jpg,0,10685,30-49,2023_Aug_15_1515,Recall,2021.2.3,60.07174969783756,
,SD024.jpg,0,MF024.jpg,0,,,,,0,7,7,73,imgFunc,0,NA,3.115445500000021,169.26214609999997,172.49663506,2023-08-15 15:17:53.285624,2023-08-15 15:17:56.493055,SD024.jpg,0,10685,30-49,2023_Aug_15_1515,Recall,2021.2.3,60.07174969783756,
,SD012.jpg,0,MF012.jpg,0,,,,,0,8,8,61,imgFunc,0,NA,1.9927748000000065,172.49671579999998,174.59983898,2023-08-15 15:17:56.504974,2023-08-15 15:17:58.600879,SD012.jpg,0,10685,30-49,2023_Aug_15_1515,Recall,2021.2.3,60.07174969783756,
,DD028.jpg,0,FF028.jpg,0,,,,,0,9,9,27,imgFunc,9,NA,1.241357999999991,174.60831119999997,175.96136248000002,2023-08-15 15:17:58.612799,2023-08-15 15:17:59.961727,DD028.jpg,0,10685,30-49,2023_Aug_15_1515,Recall,2021.2.3,60.07174969783756,
,DD026.jpg,0,FF026.jpg,0,,,,,0,10,10,25,imgFunc,0,NA,1.0273899000000029,175.9741691,177.11178088,2023-08-15 15:17:59.972656,2023-08-15 15:18:01.107025,DD026.jpg,0,10685,30-49,2023_Aug_15_1515,Recall,2021.2.3,60.07174969783756,
,L_DD510.jpg,1,L_FF510.jpg,1,,,,,0,11,11,49,imgFunc,0,NA,1.2865675000000465,177.122919,178.51155038,2023-08-15 15:18:01.117955,2023-08-15 15:18:02.501648,L_DD510.jpg,1,10685,30-49,2023_Aug_15_1515,Recall,2021.2.3,60.07174969783756,
,SD007.jpg,0,MF007.jpg,0,,,,,0,12,12,56,imgFunc,0,NA,1.9628216999999495,178.52687189999997,180.61109846000002,2023-08-15 15:18:02.514560,2023-08-15 15:18:04.576647,SD007.jpg,0,10685,30-49,2023_Aug_15_1515,Recall,2021.2.3,60.07174969783756,
,L_SD508.jpg,1,L_MF508.jpg,1,,,,,0,13,13,97,imgFunc,0,NA,3.228400000000022,180.6050885,183.94161088,2023-08-15 15:18:04.587585,2023-08-15 15:18:07.912102,L_SD508.jpg,1,10685,30-49,2023_Aug_15_1515,Recall,2021.2.3,60.07174969783756,
,SD035.jpg,0,MF035.jpg,0,,,,,0,14,14,84,imgFunc,0,NA,1.9325897999999597,183.9649011,186.02980225999997,2023-08-15 15:18:07.927002,2023-08-15 15:18:09.970422,SD035.jpg,0,10685,30-49,2023_Aug_15_1515,Recall,2021.2.3,60.07174969783756,
,SD015.jpg,0,MF015.jpg,0,,,,,0,15,15,64,imgFunc,0,NA,1.845063400000015,186.02069170000001,187.97550627999996,2023-08-15 15:18:09.981380,2023-08-15 15:18:11.928939,SD015.jpg,0,10685,30-49,2023_Aug_15_1515,Recall,2021.2.3,60.07174969783756,
,L_SD505.jpg,1,L_MF505.jpg,1,,,,,0,16,16,94,imgFunc,9,NA,2.0988629999999944,187.9906915,190.19639848,2023-08-15 15:18:11.939865,2023-08-15 15:18:14.136363,L_SD505.jpg,1,10685,30-49,2023_Aug_15_1515,Recall,2021.2.3,60.07174969783756,
,DD023.jpg,0,FF023.jpg,0,,,,,0,17,17,22,imgFunc,9,NA,1.5393962999999644,190.19826709999998,191.83877997999994,2023-08-15 15:18:14.146297,2023-08-15 15:18:15.779419,DD023.jpg,0,10685,30-49,2023_Aug_15_1515,Recall,2021.2.3,60.07174969783756,
,L_DD503.jpg,1,L_FF503.jpg,1,,,,,0,18,18,42,imgFunc,0,NA,2.1567077999999924,191.8528853,194.10950118000002,2023-08-15 15:18:15.789322,2023-08-15 15:18:18.036888,L_DD503.jpg,1,10685,30-49,2023_Aug_15_1515,Recall,2021.2.3,60.07174969783756,
,DD037.jpg,0,FF037.jpg,0,,,,,0,19,19,36,imgFunc,0,NA,1.4180763999999613,194.12746560000002,195.67565596000006,2023-08-15 15:18:18.050795,2023-08-15 15:18:19.580910,DD037.jpg,0,10685,30-49,2023_Aug_15_1515,Recall,2021.2.3,60.07174969783756,
,SD036.jpg,0,MF036.jpg,0,,,,,0,20,20,85,imgFunc,9,NA,1.6009220999999911,195.6729061,197.37756468,2023-08-15 15:18:19.591813,2023-08-15 15:18:21.289898,SD036.jpg,0,10685,30-49,2023_Aug_15_1515,Recall,2021.2.3,60.07174969783756,
,DD031.jpg,0,FF031.jpg,0,,,,,0,21,21,30,imgFunc,0,NA,1.353302000000042,197.3924876,198.86489978,2023-08-15 15:18:21.300824,2023-08-15 15:18:22.767895,DD031.jpg,0,10685,30-49,2023_Aug_15_1515,Recall,2021.2.3,60.07174969783756,
,DD034.jpg,0,FF034.jpg,0,,,,,0,22,22,33,imgFunc,0,NA,1.5207882000000268,198.8730285,200.51006507999998,2023-08-15 15:18:22.778854,2023-08-15 15:18:24.410408,DD034.jpg,0,10685,30-49,2023_Aug_15_1515,Recall,2021.2.3,60.07174969783756,
,SD022.jpg,0,MF022.jpg,0,,,,,0,23,23,71,imgFunc,0,NA,1.9555962999999679,200.517913,202.57218548000006,2023-08-15 15:18:24.421355,2023-08-15 15:18:26.468786,SD022.jpg,0,10685,30-49,2023_Aug_15_1515,Recall,2021.2.3,60.07174969783756,
,DD020.jpg,0,FF020.jpg,0,,,,,0,24,24,19,imgFunc,9,NA,2.2594945000000166,202.5982746,204.98189586000004,2023-08-15 15:18:26.481699,2023-08-15 15:18:28.842117,DD020.jpg,0,10685,30-49,2023_Aug_15_1515,Recall,2021.2.3,60.07174969783756,
,SD023.jpg,0,MF023.jpg,0,,,,,0,25,25,72,imgFunc,0,NA,1.2342816999999968,204.9673976,206.30345827999994,2023-08-15 15:18:28.854041,2023-08-15 15:18:30.186685,SD023.jpg,0,10685,30-49,2023_Aug_15_1515,Recall,2021.2.3,60.07174969783756,
,DD014.jpg,0,FF014.jpg,0,,,,,0,26,26,13,imgFunc,0,NA,1.5584769000000165,206.32323970000002,207.99376257999998,2023-08-15 15:18:30.197593,2023-08-15 15:18:31.863018,DD014.jpg,0,10685,30-49,2023_Aug_15_1515,Recall,2021.2.3,60.07174969783756,
,SD021.jpg,0,MF021.jpg,0,,,,,0,27,27,70,imgFunc,0,NA,1.3028778999999986,208.00284509999997,209.40629188,2023-08-15 15:18:31.874908,2023-08-15 15:18:33.273763,SD021.jpg,0,10685,30-49,2023_Aug_15_1515,Recall,2021.2.3,60.07174969783756,
,L_SD506.jpg,1,L_MF506.jpg,1,,,,,0,28,28,95,imgFunc,0,NA,0.9900116000000025,209.4196891,210.52437138000002,2023-08-15 15:18:33.284673,2023-08-15 15:18:34.385305,L_SD506.jpg,1,10685,30-49,2023_Aug_15_1515,Recall,2021.2.3,60.07174969783756,
,L_SD509.jpg,1,L_MF509.jpg,1,,,,,0,29,29,98,imgFunc,9,NA,0.839196099999981,210.5302976,211.47024638000008,2023-08-15 15:18:34.396204,2023-08-15 15:18:35.331789,L_SD509.jpg,1,10685,30-49,2023_Aug_15_1515,Recall,2021.2.3,60.07174969783756,
,SD033.jpg,0,MF033.jpg,0,,,,,0,30,30,82,imgFunc,1,NA,4.348315599999978,211.4855689,215.93969528,2023-08-15 15:18:35.342691,2023-08-15 15:18:39.780194,SD033.jpg,0,10685,30-49,2023_Aug_15_1515,Recall,2021.2.3,60.07174969783756,
,DD015.jpg,0,FF015.jpg,0,,,,,0,31,31,14,imgFunc,0,NA,3.5242086000000086,215.95762249999999,219.60785035999996,2023-08-15 15:18:39.793108,2023-08-15 15:18:43.414982,DD015.jpg,0,10685,30-49,2023_Aug_15_1515,Recall,2021.2.3,60.07174969783756,
,SD038.jpg,0,MF038.jpg,0,,,,,0,32,32,87,imgFunc,0,NA,0.9693450999999982,219.60011189999997,220.67070168,2023-08-15 15:18:43.425915,2023-08-15 15:18:44.493222,SD038.jpg,0,10685,30-49,2023_Aug_15_1515,Recall,2021.2.3,60.07174969783756,
,DD025.jpg,0,FF025.jpg,0,,,,,0,33,33,24,imgFunc,0,NA,1.052603299999987,220.6850616,221.83788288000002,2023-08-15 15:18:44.505145,2023-08-15 15:18:45.655407,DD025.jpg,0,10685,30-49,2023_Aug_15_1515,Recall,2021.2.3,60.07174969783756,
,SD010.jpg,0,MF010.jpg,0,,,,,0,34,34,59,imgFunc,1,NA,2.406115800000009,221.8594343,224.39328646000004,2023-08-15 15:18:45.668348,2023-08-15 15:18:48.178654,SD010.jpg,0,10685,30-49,2023_Aug_15_1515,Recall,2021.2.3,60.07174969783756,
,SD011.jpg,0,MF011.jpg,0,,,,,0,35,35,60,imgFunc,0,NA,3.5285961000000157,224.38510219999998,228.0239711799999,2023-08-15 15:18:48.189562,2023-08-15 15:18:51.815173,SD011.jpg,0,10685,30-49,2023_Aug_15_1515,Recall,2021.2.3,60.07174969783756,
,DD016.jpg,0,FF016.jpg,0,,,,,0,36,36,15,imgFunc,9,NA,6.879491400000006,228.04261649999998,235.02825098000002,2023-08-15 15:18:51.827087,2023-08-15 15:18:58.786195,DD016.jpg,0,10685,30-49,2023_Aug_15_1515,Recall,2021.2.3,60.07174969783756,
,DD038.jpg,0,FF038.jpg,0,,,,,0,37,37,37,imgFunc,9,NA,2.631822100000022,235.0416895,237.78819626000003,2023-08-15 15:18:58.801101,2023-08-15 15:19:01.524693,DD038.jpg,0,10685,30-49,2023_Aug_15_1515,Recall,2021.2.3,60.07174969783756,
,L_SD507.jpg,1,L_MF507.jpg,1,,,,,0,38,38,96,imgFunc,0,NA,2.36559120000004,237.7879665,240.27033176,2023-08-15 15:19:01.538623,2023-08-15 15:19:03.998423,L_SD507.jpg,1,10685,30-49,2023_Aug_15_1515,Recall,2021.2.3,60.07174969783756,
,DD027.jpg,0,FF027.jpg,0,,,,,0,39,39,26,imgFunc,0,NA,2.5044532000000004,240.2731209,242.90338826,2023-08-15 15:19:04.012316,2023-08-15 15:19:06.618777,DD027.jpg,0,10685,30-49,2023_Aug_15_1515,Recall,2021.2.3,60.07174969783756,
,DD006.jpg,0,FF006.jpg,0,,,,,0,40,40,5,imgFunc,9,NA,1.9437138999999775,242.91426679999998,244.99765055999998,2023-08-15 15:19:06.632683,2023-08-15 15:19:08.694218,DD006.jpg,0,10685,30-49,2023_Aug_15_1515,Recall,2021.2.3,60.07174969783756,
,SD028.jpg,0,MF028.jpg,0,,,,,0,41,41,77,imgFunc,0,NA,1.33672949999999,244.97707699999998,246.41585578,2023-08-15 15:19:08.704053,2023-08-15 15:19:10.137875,SD028.jpg,0,10685,30-49,2023_Aug_15_1515,Recall,2021.2.3,60.07174969783756,
,SD009.jpg,0,MF009.jpg,0,,,,,0,42,42,58,imgFunc,1,NA,4.876917300000002,246.429222,251.41678968,2023-08-15 15:19:10.148634,2023-08-15 15:19:15.117149,SD009.jpg,0,10685,30-49,2023_Aug_15_1515,Recall,2021.2.3,60.07174969783756,
,SD032.jpg,0,MF032.jpg,0,,,,,0,43,43,81,imgFunc,0,NA,2.988224800000012,251.4379249,254.55123275999998,2023-08-15 15:19:15.132853,2023-08-15 15:19:18.220368,SD032.jpg,0,10685,30-49,2023_Aug_15_1515,Recall,2021.2.3,60.07174969783756,
,DD036.jpg,0,FF036.jpg,0,,,,,0,44,44,35,imgFunc,0,NA,1.8464849000000072,254.54766750000002,256.50585148000005,2023-08-15 15:19:18.230097,2023-08-15 15:19:20.179678,DD036.jpg,0,10685,30-49,2023_Aug_15_1515,Recall,2021.2.3,60.07174969783756,
,SD003.jpg,0,MF003.jpg,0,,,,,0,45,45,52,imgFunc,0,NA,1.083549199999993,256.51056429999994,257.69972468,2023-08-15 15:19:20.190654,2023-08-15 15:19:21.375170,SD003.jpg,0,10685,30-49,2023_Aug_15_1515,Recall,2021.2.3,60.07174969783756,
,DD040.jpg,0,FF040.jpg,0,,,,,0,46,46,39,imgFunc,0,NA,1.115380899999991,257.71068249999996,258.93073448,2023-08-15 15:19:21.386126,2023-08-15 15:19:22.602273,DD040.jpg,0,10685,30-49,2023_Aug_15_1515,Recall,2021.2.3,60.07174969783756,
,L_DD508.jpg,1,L_FF508.jpg,1,,,,,0,47,47,47,imgFunc,0,NA,1.7193457000000194,258.9462949,260.76999428,2023-08-15 15:19:22.612210,2023-08-15 15:19:24.428871,L_DD508.jpg,1,10685,30-49,2023_Aug_15_1515,Recall,2021.2.3,60.07174969783756,
,L_SD504.jpg,1,L_MF504.jpg,1,,,,,0,48,48,93,imgFunc,0,NA,1.249262500000043,260.7768697,262.13113017999996,2023-08-15 15:19:24.439797,2023-08-15 15:19:25.789666,L_SD504.jpg,1,10685,30-49,2023_Aug_15_1515,Recall,2021.2.3,60.07174969783756,
,SD002.jpg,0,MF002.jpg,0,,,,,0,49,49,51,imgFunc,0,NA,2.287181999999973,262.1390593,264.5271948799999,2023-08-15 15:19:25.800624,2023-08-15 15:19:28.179598,SD002.jpg,0,10685,30-49,2023_Aug_15_1515,Recall,2021.2.3,60.07174969783756,
,SD040.jpg,0,MF040.jpg,0,,,,,0,50,50,89,imgFunc,0,NA,1.7349737000000118,264.5466175,266.38423428000016,2023-08-15 15:19:28.190561,2023-08-15 15:19:30.021202,SD040.jpg,0,10685,30-49,2023_Aug_15_1515,Recall,2021.2.3,60.07174969783756,
,SD026.jpg,0,MF026.jpg,0,,,,,0,51,51,75,imgFunc,1,NA,4.062029300000006,266.39591329999996,270.56703868,2023-08-15 15:19:30.033101,2023-08-15 15:19:34.188070,SD026.jpg,0,10685,30-49,2023_Aug_15_1515,Recall,2021.2.3,60.07174969783756,
,DD039.jpg,0,FF039.jpg,0,,,,,0,52,52,38,imgFunc,0,NA,1.5302672999999913,270.575333,272.21098037999997,2023-08-15 15:19:34.199959,2023-08-15 15:19:35.830947,DD039.jpg,0,10685,30-49,2023_Aug_15_1515,Recall,2021.2.3,60.07174969783756,
,SD008.jpg,0,MF008.jpg,0,,,,,0,53,53,57,imgFunc,0,NA,1.1389125000000035,272.23085289999995,273.49882935999995,2023-08-15 15:19:35.842867,2023-08-15 15:19:37.091956,SD008.jpg,0,10685,30-49,2023_Aug_15_1515,Recall,2021.2.3,60.07174969783756,
,L_DD502.jpg,1,L_FF502.jpg,1,,,,,0,54,54,41,imgFunc,0,NA,1.717780600000026,273.49186869999994,275.31280418,2023-08-15 15:19:37.102879,2023-08-15 15:19:38.917683,L_DD502.jpg,1,10685,30-49,2023_Aug_15_1515,Recall,2021.2.3,60.07174969783756,
,DD001.jpg,0,FF001.jpg,0,,,,,0,55,55,0,imgFunc,2,NA,3.5006046999999967,275.3251705,278.9286685800001,2023-08-15 15:19:38.928590,2023-08-15 15:19:42.519024,DD001.jpg,0,10685,30-49,2023_Aug_15_1515,Recall,2021.2.3,60.07174969783756,
,DD022.jpg,0,FF022.jpg,0,,,,,0,56,56,21,imgFunc,0,NA,1.5990287000000762,278.9387745,280.6464255799999,2023-08-15 15:19:42.528957,2023-08-15 15:19:44.229550,DD022.jpg,0,10685,30-49,2023_Aug_15_1515,Recall,2021.2.3,60.07174969783756,
,SD025.jpg,0,MF025.jpg,0,,,,,0,57,57,74,imgFunc,0,NA,1.8928225999999313,280.6607758,282.6653684800001,2023-08-15 15:19:44.240482,2023-08-15 15:19:46.238037,SD025.jpg,0,10685,30-49,2023_Aug_15_1515,Recall,2021.2.3,60.07174969783756,
,DD008.jpg,0,FF008.jpg,0,,,,,0,58,58,7,imgFunc,0,NA,1.2795660000000453,282.68212300000005,284.08133266000004,2023-08-15 15:19:46.250928,2023-08-15 15:19:47.631645,DD008.jpg,0,10685,30-49,2023_Aug_15_1515,Recall,2021.2.3,60.07174969783756,
,SD039.jpg,0,MF039.jpg,0,,,,,0,59,59,88,imgFunc,1,NA,5.230963400000064,284.0752691,289.41137977999995,2023-08-15 15:19:47.643566,2023-08-15 15:19:52.959615,SD039.jpg,0,10685,30-49,2023_Aug_15_1515,Recall,2021.2.3,60.07174969783756,
,DD033.jpg,0,FF033.jpg,0,,,,,0,60,60,32,imgFunc,0,NA,1.8263091999999688,289.4316249,291.37734966000005,2023-08-15 15:19:52.975342,2023-08-15 15:19:54.901841,DD033.jpg,0,10685,30-49,2023_Aug_15_1515,Recall,2021.2.3,60.07174969783756,
,SD017.jpg,0,MF017.jpg,0,,,,,0,61,61,66,imgFunc,0,NA,1.1655992999999398,291.3725786,292.6444753799999,2023-08-15 15:19:54.912773,2023-08-15 15:19:56.180273,SD017.jpg,0,10685,30-49,2023_Aug_15_1515,Recall,2021.2.3,60.07174969783756,
,DD003.jpg,0,FF003.jpg,0,,,,,0,62,62,2,imgFunc,0,NA,0.9837986999999657,292.6579425,293.7428259799999,2023-08-15 15:19:56.192036,2023-08-15 15:19:57.274030,DD003.jpg,0,10685,30-49,2023_Aug_15_1515,Recall,2021.2.3,60.07174969783756,
,SD001.jpg,0,MF001.jpg,0,,,,,0,63,63,50,imgFunc,0,NA,2.690254100000061,293.751494,296.5431395799999,2023-08-15 15:19:57.283986,2023-08-15 15:20:00.063310,SD001.jpg,0,10685,30-49,2023_Aug_15_1515,Recall,2021.2.3,60.07174969783756,
,DD032.jpg,0,FF032.jpg,0,,,,,0,64,64,31,imgFunc,0,NA,2.4934145999999373,296.55614460000004,299.15951928000015,2023-08-15 15:20:00.074211,2023-08-15 15:20:02.669159,DD032.jpg,0,10685,30-49,2023_Aug_15_1515,Recall,2021.2.3,60.07174969783756,
,L_SD502.jpg,1,L_MF502.jpg,1,,,,,0,65,65,91,imgFunc,0,NA,2.307268600000043,299.1742223,301.59383988000013,2023-08-15 15:20:02.681080,2023-08-15 15:20:05.092082,L_SD502.jpg,1,10685,30-49,2023_Aug_15_1515,Recall,2021.2.3,60.07174969783756,
,SD020.jpg,0,MF020.jpg,0,,,,,0,66,66,69,imgFunc,0,NA,1.3969199000000572,301.6207825,303.14077058,2023-08-15 15:20:05.103971,2023-08-15 15:20:06.619250,SD020.jpg,0,10685,30-49,2023_Aug_15_1515,Recall,2021.2.3,60.07174969783756,
,SD037.jpg,0,MF037.jpg,0,,,,,0,67,67,86,imgFunc,2,NA,5.50285759999997,303.14673490000007,308.76796578000005,2023-08-15 15:20:06.630147,2023-08-15 15:20:12.229553,SD037.jpg,0,10685,30-49,2023_Aug_15_1515,Recall,2021.2.3,60.07174969783756,
,SD006.jpg,0,MF006.jpg,0,,,,,0,68,68,55,imgFunc,0,NA,0.9717336999999588,308.7822813,309.8771908599999,2023-08-15 15:20:12.245447,2023-08-15 15:20:13.325185,SD006.jpg,0,10685,30-49,2023_Aug_15_1515,Recall,2021.2.3,60.07174969783756,
,DD035.jpg,0,FF035.jpg,0,,,,,0,69,69,34,imgFunc,9,NA,2.8211578000000372,309.8767103,312.81324758000005,2023-08-15 15:20:13.336121,2023-08-15 15:20:16.262444,DD035.jpg,0,10685,30-49,2023_Aug_15_1515,Recall,2021.2.3,60.07174969783756,
,DD019.jpg,0,FF019.jpg,0,,,,,0,70,70,18,imgFunc,0,NA,1.5070200000000114,312.82268210000007,314.4273871800001,2023-08-15 15:20:16.273343,2023-08-15 15:20:17.872606,DD019.jpg,0,10685,30-49,2023_Aug_15_1515,Recall,2021.2.3,60.07174969783756,
,DD004.jpg,0,FF004.jpg,0,,,,,0,71,71,3,imgFunc,1,NA,6.424785100000008,314.433483,320.9524955799999,2023-08-15 15:20:17.884503,2023-08-15 15:20:24.379481,DD004.jpg,0,10685,30-49,2023_Aug_15_1515,Recall,2021.2.3,60.07174969783756,
,SD031.jpg,0,MF031.jpg,0,,,,,0,72,72,80,imgFunc,0,NA,1.2787716000000273,320.97119140000007,322.37004026,2023-08-15 15:20:24.393387,2023-08-15 15:20:25.772913,SD031.jpg,0,10685,30-49,2023_Aug_15_1515,Recall,2021.2.3,60.07174969783756,
,DD005.jpg,0,FF005.jpg,0,,,,,0,73,73,4,imgFunc,9,NA,2.233768800000007,322.36851950000005,324.70964977999995,2023-08-15 15:20:25.782654,2023-08-15 15:20:28.114169,DD005.jpg,0,10685,30-49,2023_Aug_15_1515,Recall,2021.2.3,60.07174969783756,
,DD009.jpg,0,FF009.jpg,0,,,,,0,74,74,8,imgFunc,0,NA,1.395147100000031,324.71114650000004,326.20047537999994,2023-08-15 15:20:28.124121,2023-08-15 15:20:29.607736,DD009.jpg,0,10685,30-49,2023_Aug_15_1515,Recall,2021.2.3,60.07174969783756,
,DD007.jpg,0,FF007.jpg,0,,,,,0,75,75,6,imgFunc,0,NA,1.178441399999997,326.2237468000001,327.5114568800001,2023-08-15 15:20:29.618673,2023-08-15 15:20:30.902055,DD007.jpg,0,10685,30-49,2023_Aug_15_1515,Recall,2021.2.3,60.07174969783756,
,L_DD501.jpg,1,L_FF501.jpg,1,,,,,0,76,76,40,imgFunc,0,NA,1.4407675999999583,327.513563,329.0529750800001,2023-08-15 15:20:30.911992,2023-08-15 15:20:32.445036,L_DD501.jpg,1,10685,30-49,2023_Aug_15_1515,Recall,2021.2.3,60.07174969783756,
,L_DD506.jpg,1,L_FF506.jpg,1,,,,,0,77,77,45,imgFunc,0,NA,2.530326000000059,329.06371590000003,331.68966658,2023-08-15 15:20:32.453978,2023-08-15 15:20:35.068889,L_DD506.jpg,1,10685,30-49,2023_Aug_15_1515,Recall,2021.2.3,60.07174969783756,
,DD002.jpg,0,FF002.jpg,0,,,,,0,78,78,1,imgFunc,0,NA,1.0923416000000543,331.7019778,332.88898398000003,2023-08-15 15:20:35.079819,2023-08-15 15:20:36.263861,DD002.jpg,0,10685,30-49,2023_Aug_15_1515,Recall,2021.2.3,60.07174969783756,
,DD017.jpg,0,FF017.jpg,0,,,,,0,79,79,16,imgFunc,9,NA,1.7157793000000083,332.9025313000001,334.7222267799999,2023-08-15 15:20:36.274788,2023-08-15 15:20:38.089267,DD017.jpg,0,10685,30-49,2023_Aug_15_1515,Recall,2021.2.3,60.07174969783756,
,SD013.jpg,0,MF013.jpg,0,,,,,0,80,80,62,imgFunc,0,NA,1.6201138999999785,334.72593000000006,336.45015108000007,2023-08-15 15:20:38.099205,2023-08-15 15:20:39.816259,SD013.jpg,0,10685,30-49,2023_Aug_15_1515,Recall,2021.2.3,60.07174969783756,
,SD005.jpg,0,MF005.jpg,0,,,,,0,81,81,54,imgFunc,0,NA,0.9013310999999931,336.46884080000007,337.46992648000014,2023-08-15 15:20:39.828200,2023-08-15 15:20:40.827176,SD005.jpg,0,10685,30-49,2023_Aug_15_1515,Recall,2021.2.3,60.07174969783756,
,L_SD501.jpg,1,L_MF501.jpg,1,,,,,0,82,82,90,imgFunc,0,NA,1.442757800000095,337.47948370000006,339.0190094799999,2023-08-15 15:20:40.837113,2023-08-15 15:20:42.370812,L_SD501.jpg,1,10685,30-49,2023_Aug_15_1515,Recall,2021.2.3,60.07174969783756,
,DD029.jpg,0,FF029.jpg,0,,,,,0,83,83,28,imgFunc,0,NA,2.023646400000075,339.0264403,341.15110447999996,2023-08-15 15:20:42.380746,2023-08-15 15:20:44.496714,DD029.jpg,0,10685,30-49,2023_Aug_15_1515,Recall,2021.2.3,60.07174969783756,
,DD012.jpg,0,FF012.jpg,0,,,,,0,84,84,11,imgFunc,9,NA,2.833239899999967,341.1607908,344.0989136799999,2023-08-15 15:20:44.507475,2023-08-15 15:20:47.433422,DD012.jpg,0,10685,30-49,2023_Aug_15_1515,Recall,2021.2.3,60.07174969783756,
,DD018.jpg,0,FF018.jpg,0,,,,,0,85,85,17,imgFunc,0,NA,1.145582099999956,344.1125181,345.35326888,2023-08-15 15:20:47.443165,2023-08-15 15:20:48.678871,DD018.jpg,0,10685,30-49,2023_Aug_15_1515,Recall,2021.2.3,60.07174969783756,
,L_DD504.jpg,1,L_FF504.jpg,1,,,,,0,86,86,43,imgFunc,0,NA,0.8862103000000161,345.36407429999997,346.3507894799999,2023-08-15 15:20:48.689780,2023-08-15 15:20:49.674322,L_DD504.jpg,1,10685,30-49,2023_Aug_15_1515,Recall,2021.2.3,60.07174969783756,
,SD016.jpg,0,MF016.jpg,0,,,,,0,87,87,65,imgFunc,0,NA,1.3897375999999895,346.3644859,347.85347138,2023-08-15 15:20:49.684223,2023-08-15 15:20:51.167904,SD016.jpg,0,10685,30-49,2023_Aug_15_1515,Recall,2021.2.3,60.07174969783756,
,L_DD509.jpg,1,L_FF509.jpg,1,,,,,0,88,88,48,imgFunc,0,NA,1.3939645000000382,347.86403210000003,349.35317797999994,2023-08-15 15:20:51.178809,2023-08-15 15:20:52.661935,L_DD509.jpg,1,10685,30-49,2023_Aug_15_1515,Recall,2021.2.3,60.07174969783756,
,SD030.jpg,0,MF030.jpg,0,,,,,0,89,89,79,imgFunc,0,NA,1.3218841000000339,349.36035760000004,350.78077128000007,2023-08-15 15:20:52.672844,2023-08-15 15:20:54.089022,SD030.jpg,0,10685,30-49,2023_Aug_15_1515,Recall,2021.2.3,60.07174969783756,
,DD021.jpg,0,FF021.jpg,0,,,,,0,90,90,20,imgFunc,0,NA,1.4181699000000663,350.7999738,352.3234160799999,2023-08-15 15:20:54.098767,2023-08-15 15:20:55.616076,DD021.jpg,0,10685,30-49,2023_Aug_15_1515,Recall,2021.2.3,60.07174969783756,
,L_DD507.jpg,1,L_FF507.jpg,1,,,,,0,91,91,46,imgFunc,0,NA,2.910047899999995,352.33199709999997,355.33731118000003,2023-08-15 15:20:55.627035,2023-08-15 15:20:58.620345,L_DD507.jpg,1,10685,30-49,2023_Aug_15_1515,Recall,2021.2.3,60.07174969783756,
,SD027.jpg,0,MF027.jpg,0,,,,,0,92,92,76,imgFunc,0,NA,1.0761555999999928,355.34981960000005,356.52066577999994,2023-08-15 15:20:58.631281,2023-08-15 15:20:59.798926,SD027.jpg,0,10685,30-49,2023_Aug_15_1515,Recall,2021.2.3,60.07174969783756,
,SD018.jpg,0,MF018.jpg,0,,,,,0,93,93,67,imgFunc,9,NA,2.5048196999999846,356.5294266000001,359.13311727999996,2023-08-15 15:20:59.809869,2023-08-15 15:21:02.404992,SD018.jpg,0,10685,30-49,2023_Aug_15_1515,Recall,2021.2.3,60.07174969783756,
,L_SD503.jpg,1,L_MF503.jpg,1,,,,,0,94,94,92,imgFunc,0,NA,0.5929045000000315,359.14471620000006,359.8336410800001,2023-08-15 15:21:02.414929,2023-08-15 15:21:03.102527,L_SD503.jpg,1,10685,30-49,2023_Aug_15_1515,Recall,2021.2.3,60.07174969783756,
,SD014.jpg,0,MF014.jpg,0,,,,,0,95,95,63,imgFunc,0,NA,0.8843107999999802,359.8460491000001,360.8318032799999,2023-08-15 15:21:03.114440,2023-08-15 15:21:04.097148,SD014.jpg,0,10685,30-49,2023_Aug_15_1515,Recall,2021.2.3,60.07174969783756,
,L_DD505.jpg,1,L_FF505.jpg,1,,,,,0,96,96,44,imgFunc,0,NA,1.098424399999999,360.84768010000005,362.05666878,2023-08-15 15:21:04.106902,2023-08-15 15:21:05.308795,L_DD505.jpg,1,10685,30-49,2023_Aug_15_1515,Recall,2021.2.3,60.07174969783756,
,DD024.jpg,0,FF024.jpg,0,,,,,0,97,97,23,imgFunc,0,NA,0.9268590000000358,362.05929030000004,363.08533878000003,2023-08-15 15:21:05.318541,2023-08-15 15:21:06.339337,DD024.jpg,0,10685,30-49,2023_Aug_15_1515,Recall,2021.2.3,60.07174969783756,
,SD029.jpg,0,MF029.jpg,0,,,,,0,98,98,78,imgFunc,0,NA,1.2678317999999535,363.09428220000007,364.46569318000013,2023-08-15 15:21:06.350241,2023-08-15 15:21:07.717019,SD029.jpg,0,10685,30-49,2023_Aug_15_1515,Recall,2021.2.3,60.07174969783756,
,DD030.jpg,0,FF030.jpg,0,,,,,0,99,99,29,imgFunc,0,NA,0.7259341000000177,364.4841564000001,365.32252128000016,2023-08-15 15:21:07.727780,2023-08-15 15:21:08.563119,DD030.jpg,0,10685,30-49,2023_Aug_15_1515,Recall,2021.2.3,60.07174969783756,
,,,,,,,,,,,,,instrFunc,space,"Great work! 

 Now you will switch to the other image type.

 Press the spacebar whenever you are ready to start.",2.662532400000032,365.25158369999997,367.9584256800001,2023-08-15 15:21:08.565108,2023-08-15 15:21:11.250375,,,10685,30-49,2023_Aug_15_1515,Recall,2021.2.3,60.07174969783756,
,L_SD507.jpg,1,L_MF507.jpg,1,,,,,0,0,0,96,imgFunc,1,NA,7.1824633999999605,368.0756851,375.39377622000006,2023-08-15 15:21:11.297039,2023-08-15 15:21:18.570793,L_MF507.jpg,1,10685,30-49,2023_Aug_15_1515,Recall,2021.2.3,60.07174969783756,
,SD008.jpg,0,MF008.jpg,0,,,,,0,1,1,57,imgFunc,1,NA,2.5043863999999303,375.40990899999997,378.05601656,2023-08-15 15:21:18.585501,2023-08-15 15:21:21.209146,MF008.jpg,0,10685,30-49,2023_Aug_15_1515,Recall,2021.2.3,60.07174969783756,
,DD019.jpg,0,FF019.jpg,0,,,,,0,2,2,18,imgFunc,2,NA,3.222080599999913,378.03596000000005,381.37795818000006,2023-08-15 15:21:21.219083,2023-08-15 15:21:24.547005,FF019.jpg,0,10685,30-49,2023_Aug_15_1515,Recall,2021.2.3,60.07174969783756,
,SD004.jpg,0,MF004.jpg,0,,,,,0,3,3,53,imgFunc,2,NA,1.3602720999999747,381.38589079999997,382.85700927999994,2023-08-15 15:21:24.556946,2023-08-15 15:21:26.023169,MF004.jpg,0,10685,30-49,2023_Aug_15_1515,Recall,2021.2.3,60.07174969783756,
,SD003.jpg,0,MF003.jpg,0,,,,,0,4,4,52,imgFunc,2,NA,0.9666772000000492,382.8672172,383.94041378,2023-08-15 15:21:26.033106,2023-08-15 15:21:27.102318,MF003.jpg,0,10685,30-49,2023_Aug_15_1515,Recall,2021.2.3,60.07174969783756,
,DD038.jpg,0,FF038.jpg,0,,,,,0,5,5,37,imgFunc,2,NA,2.3305350000000544,383.9518329,386.38950978000014,2023-08-15 15:21:27.113280,2023-08-15 15:21:29.541982,FF038.jpg,0,10685,30-49,2023_Aug_15_1515,Recall,2021.2.3,60.07174969783756,
,L_SD504.jpg,1,L_MF504.jpg,1,,,,,0,6,6,93,imgFunc,2,NA,1.167919799999936,386.3942343,387.66725478,2023-08-15 15:21:29.551916,2023-08-15 15:21:30.820605,L_MF504.jpg,1,10685,30-49,2023_Aug_15_1515,Recall,2021.2.3,60.07174969783756,
,DD015.jpg,0,FF015.jpg,0,,,,,0,7,7,14,imgFunc,2,NA,1.1078348999999434,387.68629250000004,388.90751607999994,2023-08-15 15:21:30.831568,2023-08-15 15:21:32.047422,FF015.jpg,0,10685,30-49,2023_Aug_15_1515,Recall,2021.2.3,60.07174969783756,
,L_DD501.jpg,1,L_FF501.jpg,1,,,,,0,8,8,40,imgFunc,2,NA,1.0773785999999745,388.91676800000005,390.10819377999997,2023-08-15 15:21:32.058162,2023-08-15 15:21:33.243320,L_FF501.jpg,1,10685,30-49,2023_Aug_15_1515,Recall,2021.2.3,60.07174969783756,
,L_DD503.jpg,1,L_FF503.jpg,1,,,,,0,9,9,42,imgFunc,2,NA,1.0433091999999533,390.11885270000005,391.27391607999994,2023-08-15 15:21:33.254076,2023-08-15 15:21:34.404891,L_FF503.jpg,1,10685,30-49,2023_Aug_15_1515,Recall,2021.2.3,60.07174969783756,
,DD023.jpg,0,FF023.jpg,0,,,,,0,10,10,22,imgFunc,2,NA,1.7692626000000473,391.2803630000001,393.15170037999997,2023-08-15 15:21:34.414843,2023-08-15 15:21:36.279350,FF023.jpg,0,10685,30-49,2023_Aug_15_1515,Recall,2021.2.3,60.07174969783756,
,DD025.jpg,0,FF025.jpg,0,,,,,0,11,11,24,imgFunc,2,NA,1.4244908000000578,393.1618277,394.6860873799999,2023-08-15 15:21:36.289311,2023-08-15 15:21:37.807716,FF025.jpg,0,10685,30-49,2023_Aug_15_1515,Recall,2021.2.3,60.07174969783756,
,DD024.jpg,0,FF024.jpg,0,,,,,0,12,12,23,imgFunc,2,NA,2.8332917999999836,394.6968461,397.63278918000003,2023-08-15 15:21:37.819615,2023-08-15 15:21:40.744728,FF024.jpg,0,10685,30-49,2023_Aug_15_1515,Recall,2021.2.3,60.07174969783756,
,SD027.jpg,0,MF027.jpg,0,,,,,0,13,13,76,imgFunc,2,NA,4.684099800000013,397.64625420000004,402.4364133800001,2023-08-15 15:21:40.754637,2023-08-15 15:21:45.525078,MF027.jpg,0,10685,30-49,2023_Aug_15_1515,Recall,2021.2.3,60.07174969783756,
,DD012.jpg,0,FF012.jpg,0,,,,,0,14,14,11,imgFunc,1,NA,1.553745499999991,402.4724894,404.17361905999996,2023-08-15 15:21:45.538982,2023-08-15 15:21:47.218727,FF012.jpg,0,10685,30-49,2023_Aug_15_1515,Recall,2021.2.3,60.07174969783756,
,SD024.jpg,0,MF024.jpg,0,,,,,0,15,15,73,imgFunc,2,NA,1.079774499999985,404.1463772000001,405.33691737999993,2023-08-15 15:21:47.228458,2023-08-15 15:21:48.414173,MF024.jpg,0,10685,30-49,2023_Aug_15_1515,Recall,2021.2.3,60.07174969783756,
,SD021.jpg,0,MF021.jpg,0,,,,,0,16,16,70,imgFunc,2,NA,2.6965990999999576,405.34573020000005,408.15087717999995,2023-08-15 15:21:48.425127,2023-08-15 15:21:51.223668,MF021.jpg,0,10685,30-49,2023_Aug_15_1515,Recall,2021.2.3,60.07174969783756,
,L_DD507.jpg,1,L_FF507.jpg,1,,,,,0,17,17,46,imgFunc,0,NA,5.046275299999934,408.16384460000006,413.31758348000005,2023-08-15 15:21:51.233691,2023-08-15 15:21:56.388914,L_FF507.jpg,1,10685,30-49,2023_Aug_15_1515,Recall,2021.2.3,60.07174969783756,
,DD021.jpg,0,FF021.jpg,0,,,,,0,18,18,20,imgFunc,1,NA,4.227722500000027,413.33463240000003,417.6845017600001,2023-08-15 15:21:56.401904,2023-08-15 15:22:00.738604,FF021.jpg,0,10685,30-49,2023_Aug_15_1515,Recall,2021.2.3,60.07174969783756,
,SD005.jpg,0,MF005.jpg,0,,,,,0,19,19,54,imgFunc,2,NA,1.304396200000042,417.6818098,419.1031731800001,2023-08-15 15:22:00.749606,2023-08-15 15:22:02.171246,MF005.jpg,0,10685,30-49,2023_Aug_15_1515,Recall,2021.2.3,60.07174969783756,
,L_SD503.jpg,1,L_MF503.jpg,1,,,,,0,20,20,92,imgFunc,2,NA,1.2686747999999852,419.1094929000001,420.4832370800002,2023-08-15 15:22:02.181030,2023-08-15 15:22:03.554415,L_MF503.jpg,1,10685,30-49,2023_Aug_15_1515,Recall,2021.2.3,60.07174969783756,
,SD015.jpg,0,MF015.jpg,0,,,,,0,21,21,64,imgFunc,2,NA,3.7904093999999304,420.4913944,424.3809915799999,2023-08-15 15:22:03.564393,2023-08-15 15:22:07.454115,MF015.jpg,0,10685,30-49,2023_Aug_15_1515,Recall,2021.2.3,60.07174969783756,
,L_SD510.jpg,1,L_MF510.jpg,1,,,,,0,22,22,99,imgFunc,9,NA,3.4076721000000134,424.39397270000006,427.91397058000007,2023-08-15 15:22:07.465139,2023-08-15 15:22:10.986684,L_MF510.jpg,1,10685,30-49,2023_Aug_15_1515,Recall,2021.2.3,60.07174969783756,
,DD014.jpg,0,FF014.jpg,0,,,,,0,23,23,13,imgFunc,9,NA,1.3569226999999273,427.93283570000006,429.4024361799999,2023-08-15 15:22:10.998653,2023-08-15 15:22:12.470358,FF014.jpg,0,10685,30-49,2023_Aug_15_1515,Recall,2021.2.3,60.07174969783756,
,SD034.jpg,0,MF034.jpg,0,,,,,0,24,24,83,imgFunc,2,NA,1.1038156000000754,429.4180433,430.6392697800002,2023-08-15 15:22:12.481328,2023-08-15 15:22:13.703016,MF034.jpg,0,10685,30-49,2023_Aug_15_1515,Recall,2021.2.3,60.07174969783756,
,SD020.jpg,0,MF020.jpg,0,,,,,0,25,25,69,imgFunc,2,NA,0.8762366000000839,430.65352400000006,431.63790098000015,2023-08-15 15:22:13.715983,2023-08-15 15:22:14.702400,MF020.jpg,0,10685,30-49,2023_Aug_15_1515,Recall,2021.2.3,60.07174969783756,
,DD002.jpg,0,FF002.jpg,0,,,,,0,26,26,1,imgFunc,1,NA,1.8216571000000386,431.64389700000004,433.56579597999996,2023-08-15 15:22:14.713372,2023-08-15 15:22:16.635180,FF002.jpg,0,10685,30-49,2023_Aug_15_1515,Recall,2021.2.3,60.07174969783756,
,SD006.jpg,0,MF006.jpg,0,,,,,0,27,27,55,imgFunc,9,NA,3.40389069999992,433.5818134,437.10198758,2023-08-15 15:22:16.647151,2023-08-15 15:22:20.168876,MF006.jpg,0,10685,30-49,2023_Aug_15_1515,Recall,2021.2.3,60.07174969783756,
,SD023.jpg,0,MF023.jpg,0,,,,,0,28,28,72,imgFunc,0,NA,1.7620861000000332,437.11165230000006,438.9826089800001,2023-08-15 15:22:20.179887,2023-08-15 15:22:22.052281,MF023.jpg,0,10685,30-49,2023_Aug_15_1515,Recall,2021.2.3,60.07174969783756,
,SD022.jpg,0,MF022.jpg,0,,,,,0,29,29,71,imgFunc,0,NA,0.9333496000000423,438.9965317,440.0354144799999,2023-08-15 15:22:22.062222,2023-08-15 15:22:23.101491,MF022.jpg,0,10685,30-49,2023_Aug_15_1515,Recall,2021.2.3,60.07174969783756,
,DD037.jpg,0,FF037.jpg,0,,,,,0,30,30,36,imgFunc,1,NA,1.470280700000103,440.0438603,441.61653398,2023-08-15 15:22:23.112466,2023-08-15 15:22:24.685729,FF037.jpg,0,10685,30-49,2023_Aug_15_1515,Recall,2021.2.3,60.07174969783756,
,DD040.jpg,0,FF040.jpg,0,,,,,0,31,31,39,imgFunc,1,NA,1.3229197000000568,441.63131880000003,443.0698320800001,2023-08-15 15:22:24.696680,2023-08-15 15:22:26.136301,FF040.jpg,0,10685,30-49,2023_Aug_15_1515,Recall,2021.2.3,60.07174969783756,
,L_SD506.jpg,1,L_MF506.jpg,1,,,,,0,32,32,95,imgFunc,0,NA,1.8505984999999328,443.07133080000006,445.0258730799999,2023-08-15 15:22:26.146124,2023-08-15 15:22:28.101651,L_MF506.jpg,1,10685,30-49,2023_Aug_15_1515,Recall,2021.2.3,60.07174969783756,
,DD027.jpg,0,FF027.jpg,0,,,,,0,33,33,26,imgFunc,0,NA,2.9840577999999596,445.04213200000004,448.1426058600001,2023-08-15 15:22:28.114617,2023-08-15 15:22:31.200878,FF027.jpg,0,10685,30-49,2023_Aug_15_1515,Recall,2021.2.3,60.07174969783756,
,SD038.jpg,0,MF038.jpg,0,,,,,0,34,34,87,imgFunc,0,NA,0.7694621000000552,448.13672640000004,449.01047617999996,2023-08-15 15:22:31.210851,2023-08-15 15:22:32.084034,MF038.jpg,0,10685,30-49,2023_Aug_15_1515,Recall,2021.2.3,60.07174969783756,
,SD009.jpg,0,MF009.jpg,0,,,,,0,35,35,58,imgFunc,0,NA,1.5145479999999907,449.0232013,450.64797267999984,2023-08-15 15:22:32.093985,2023-08-15 15:22:33.718103,MF009.jpg,0,10685,30-49,2023_Aug_15_1515,Recall,2021.2.3,60.07174969783756,
,DD032.jpg,0,FF032.jpg,0,,,,,0,36,36,31,imgFunc,2,NA,1.7190144999999575,450.6588074,452.47756688000015,2023-08-15 15:22:33.730051,2023-08-15 15:22:35.550223,FF032.jpg,0,10685,30-49,2023_Aug_15_1515,Recall,2021.2.3,60.07174969783756,
,DD004.jpg,0,FF004.jpg,0,,,,,0,37,37,3,imgFunc,1,NA,2.0295717000000195,452.4921889,454.62967498,2023-08-15 15:22:35.561194,2023-08-15 15:22:37.699655,FF004.jpg,0,10685,30-49,2023_Aug_15_1515,Recall,2021.2.3,60.07174969783756,
,DD008.jpg,0,FF008.jpg,0,,,,,0,38,38,7,imgFunc,1,NA,1.0642049999999017,454.6417215,455.81526538,2023-08-15 15:22:37.709601,2023-08-15 15:22:38.883103,FF008.jpg,0,10685,30-49,2023_Aug_15_1515,Recall,2021.2.3,60.07174969783756,
,DD007.jpg,0,FF007.jpg,0,,,,,0,39,39,6,imgFunc,2,NA,0.871750200000065,455.8261188,456.81345568000006,2023-08-15 15:22:38.895058,2023-08-15 15:22:39.883398,FF007.jpg,0,10685,30-49,2023_Aug_15_1515,Recall,2021.2.3,60.07174969783756,
,SD011.jpg,0,MF011.jpg,0,,,,,0,40,40,60,imgFunc,2,NA,1.4408882000000176,456.8248366,458.37751788000014,2023-08-15 15:22:39.895350,2023-08-15 15:22:41.449401,MF011.jpg,0,10685,30-49,2023_Aug_15_1515,Recall,2021.2.3,60.07174969783756,
,SD010.jpg,0,MF010.jpg,0,,,,,0,41,41,59,imgFunc,2,NA,0.8057580999999345,458.3880484,459.2958786799999,2023-08-15 15:22:41.459353,2023-08-15 15:22:42.366408,MF010.jpg,0,10685,30-49,2023_Aug_15_1515,Recall,2021.2.3,60.07174969783756,
,L_DD502.jpg,1,L_FF502.jpg,1,,,,,0,42,42,41,imgFunc,2,NA,1.2334902000000056,459.30441800000006,460.6437280800001,2023-08-15 15:22:42.377359,2023-08-15 15:22:43.716894,L_FF502.jpg,1,10685,30-49,2023_Aug_15_1515,Recall,2021.2.3,60.07174969783756,
,L_SD508.jpg,1,L_MF508.jpg,1,,,,,0,43,43,97,imgFunc,1,NA,2.553793300000052,460.6560538,463.3108050799999,2023-08-15 15:22:43.727869,2023-08-15 15:22:46.382698,L_MF508.jpg,1,10685,30-49,2023_Aug_15_1515,Recall,2021.2.3,60.07174969783756,
,SD026.jpg,0,MF026.jpg,0,,,,,0,44,44,75,imgFunc,2,NA,1.1484967000000097,463.32545360000006,464.57944097999996,2023-08-15 15:22:46.393674,2023-08-15 15:22:47.649359,MF026.jpg,0,10685,30-49,2023_Aug_15_1515,Recall,2021.2.3,60.07174969783756,
,DD036.jpg,0,FF036.jpg,0,,,,,0,45,45,35,imgFunc,1,NA,1.5016203999999789,464.5880460000001,466.19214188,2023-08-15 15:22:47.660310,2023-08-15 15:22:49.265041,FF036.jpg,0,10685,30-49,2023_Aug_15_1515,Recall,2021.2.3,60.07174969783756,
,L_DD506.jpg,1,L_FF506.jpg,1,,,,,0,46,46,45,imgFunc,1,NA,1.2272427000000334,466.20670600000005,467.54436508000003,2023-08-15 15:22:49.276990,2023-08-15 15:22:50.615431,L_FF506.jpg,1,10685,30-49,2023_Aug_15_1515,Recall,2021.2.3,60.07174969783756,
,SD019.jpg,0,MF019.jpg,0,,,,,0,47,47,68,imgFunc,0,NA,1.4771157999999787,467.5570368,469.1481654800001,2023-08-15 15:22:50.625383,2023-08-15 15:22:52.215697,MF019.jpg,0,10685,30-49,2023_Aug_15_1515,Recall,2021.2.3,60.07174969783756,
,SD007.jpg,0,MF007.jpg,0,,,,,0,48,48,56,imgFunc,9,NA,1.818757000000005,469.15150330000006,471.0747565800001,2023-08-15 15:22:52.225510,2023-08-15 15:22:54.148788,MF007.jpg,0,10685,30-49,2023_Aug_15_1515,Recall,2021.2.3,60.07174969783756,
,SD039.jpg,0,MF039.jpg,0,,,,,0,49,49,88,imgFunc,0,NA,2.6988761999999724,471.08749940000007,473.8938163800001,2023-08-15 15:22:54.158741,2023-08-15 15:22:56.965220,MF039.jpg,0,10685,30-49,2023_Aug_15_1515,Recall,2021.2.3,60.07174969783756,
,SD029.jpg,0,MF029.jpg,0,,,,,0,50,50,78,imgFunc,1,NA,1.8036893999999393,473.9025001,475.80904388,2023-08-15 15:22:56.975172,2023-08-15 15:22:58.881875,MF029.jpg,0,10685,30-49,2023_Aug_15_1515,Recall,2021.2.3,60.07174969783756,
,SD012.jpg,0,MF012.jpg,0,,,,,0,51,51,61,imgFunc,1,NA,2.042617899999982,475.8234052,477.9798153800002,2023-08-15 15:22:58.891786,2023-08-15 15:23:01.047360,MF012.jpg,0,10685,30-49,2023_Aug_15_1515,Recall,2021.2.3,60.07174969783756,
,L_DD504.jpg,1,L_FF504.jpg,1,,,,,0,52,52,43,imgFunc,0,NA,1.2414592000000084,477.984781,479.32814708,2023-08-15 15:23:01.057150,2023-08-15 15:23:02.399099,L_FF504.jpg,1,10685,30-49,2023_Aug_15_1515,Recall,2021.2.3,60.07174969783756,
,DD034.jpg,0,FF034.jpg,0,,,,,0,53,53,33,imgFunc,9,NA,3.584304800000041,479.33810860000006,483.02393728000015,2023-08-15 15:23:02.410069,2023-08-15 15:23:06.097604,FF034.jpg,0,10685,30-49,2023_Aug_15_1515,Recall,2021.2.3,60.07174969783756,
,SD028.jpg,0,MF028.jpg,0,,,,,0,54,54,77,imgFunc,0,NA,2.6233899000000065,483.0349234,485.75814937999996,2023-08-15 15:23:06.107578,2023-08-15 15:23:08.831481,MF028.jpg,0,10685,30-49,2023_Aug_15_1515,Recall,2021.2.3,60.07174969783756,
,DD039.jpg,0,FF039.jpg,0,,,,,0,55,55,38,imgFunc,0,NA,1.1677841999999146,485.77039990000003,487.04078807999997,2023-08-15 15:23:08.842458,2023-08-15 15:23:10.113752,FF039.jpg,0,10685,30-49,2023_Aug_15_1515,Recall,2021.2.3,60.07174969783756,
,SD016.jpg,0,MF016.jpg,0,,,,,0,56,56,65,imgFunc,1,NA,4.320052800000099,487.0502984,491.4717370799999,2023-08-15 15:23:10.123728,2023-08-15 15:23:14.545792,MF016.jpg,0,10685,30-49,2023_Aug_15_1515,Recall,2021.2.3,60.07174969783756,
,DD017.jpg,0,FF017.jpg,0,,,,,0,57,57,16,imgFunc,2,NA,2.0806877999999642,491.4973327,493.70403237999994,2023-08-15 15:23:14.556764,2023-08-15 15:23:16.763221,FF017.jpg,0,10685,30-49,2023_Aug_15_1515,Recall,2021.2.3,60.07174969783756,
,DD013.jpg,0,FF013.jpg,0,,,,,0,58,58,12,imgFunc,2,NA,0.8396019000000479,493.698754,494.63956548,2023-08-15 15:23:16.773019,2023-08-15 15:23:17.713660,FF013.jpg,0,10685,30-49,2023_Aug_15_1515,Recall,2021.2.3,60.07174969783756,
,L_SD509.jpg,1,L_MF509.jpg,1,,,,,0,59,59,98,imgFunc,2,NA,1.4055369000000155,494.6526219,496.15749868,2023-08-15 15:23:17.724608,2023-08-15 15:23:19.229746,L_MF509.jpg,1,10685,30-49,2023_Aug_15_1515,Recall,2021.2.3,60.07174969783756,
,DD016.jpg,0,FF016.jpg,0,,,,,0,60,60,15,imgFunc,1,NA,2.40244789999997,496.1671784,498.66948598,2023-08-15 15:23:19.240759,2023-08-15 15:23:21.744579,FF016.jpg,0,10685,30-49,2023_Aug_15_1515,Recall,2021.2.3,60.07174969783756,
,SD002.jpg,0,MF002.jpg,0,,,,,0,61,61,51,imgFunc,0,NA,2.30191990000003,498.68448710000007,501.0937270800001,2023-08-15 15:23:21.754524,2023-08-15 15:23:24.162357,MF002.jpg,0,10685,30-49,2023_Aug_15_1515,Recall,2021.2.3,60.07174969783756,
,DD020.jpg,0,FF020.jpg,0,,,,,0,62,62,19,imgFunc,0,NA,2.34897890000002,501.10130660000004,503.5558087800001,2023-08-15 15:23:24.173342,2023-08-15 15:23:26.628262,FF020.jpg,0,10685,30-49,2023_Aug_15_1515,Recall,2021.2.3,60.07174969783756,
,SD036.jpg,0,MF036.jpg,0,,,,,0,63,63,85,imgFunc,0,NA,1.0179842999999664,503.56831780000005,504.69049638,2023-08-15 15:23:26.639273,2023-08-15 15:23:27.762274,MF036.jpg,0,10685,30-49,2023_Aug_15_1515,Recall,2021.2.3,60.07174969783756,
,DD033.jpg,0,FF033.jpg,0,,,,,0,64,64,32,imgFunc,9,NA,1.423582099999976,504.6982828,506.21945647999996,2023-08-15 15:23:27.773252,2023-08-15 15:23:29.294749,FF033.jpg,0,10685,30-49,2023_Aug_15_1515,Recall,2021.2.3,60.07174969783756,
,L_SD502.jpg,1,L_MF502.jpg,1,,,,,0,65,65,91,imgFunc,0,NA,1.1509263000000374,506.2353368,507.48920978,2023-08-15 15:23:29.305724,2023-08-15 15:23:30.560656,L_MF502.jpg,1,10685,30-49,2023_Aug_15_1515,Recall,2021.2.3,60.07174969783756,
,SD040.jpg,0,MF040.jpg,0,,,,,0,66,66,89,imgFunc,0,NA,3.3119378000000097,507.4979978,510.9229734799999,2023-08-15 15:23:30.570629,2023-08-15 15:23:33.994183,MF040.jpg,0,10685,30-49,2023_Aug_15_1515,Recall,2021.2.3,60.07174969783756,
,DD001.jpg,0,FF001.jpg,0,,,,,0,67,67,0,imgFunc,9,NA,1.7175727000000052,510.93275900000003,512.7564121800001,2023-08-15 15:23:34.003946,2023-08-15 15:23:35.827042,FF001.jpg,0,10685,30-49,2023_Aug_15_1515,Recall,2021.2.3,60.07174969783756,
,DD006.jpg,0,FF006.jpg,0,,,,,0,68,68,5,imgFunc,0,NA,1.246217999999999,512.7638831,514.12061498,2023-08-15 15:23:35.837020,2023-08-15 15:23:37.193319,FF006.jpg,0,10685,30-49,2023_Aug_15_1515,Recall,2021.2.3,60.07174969783756,
,SD035.jpg,0,MF035.jpg,0,,,,,0,69,69,84,imgFunc,2,NA,1.6211445999999796,514.1331345,515.85982568,2023-08-15 15:23:37.203077,2023-08-15 15:23:38.928523,MF035.jpg,0,10685,30-49,2023_Aug_15_1515,Recall,2021.2.3,60.07174969783756,
,SD018.jpg,0,MF018.jpg,0,,,,,0,70,70,67,imgFunc,2,NA,0.9115545000000793,515.8667221000001,516.8864964800001,2023-08-15 15:23:38.939523,2023-08-15 15:23:39.960208,MF018.jpg,0,10685,30-49,2023_Aug_15_1515,Recall,2021.2.3,60.07174969783756,
,DD029.jpg,0,FF029.jpg,0,,,,,0,71,71,28,imgFunc,0,NA,2.1355180000000473,516.8988493,519.13969348,2023-08-15 15:23:39.969990,2023-08-15 15:23:42.209992,FF029.jpg,0,10685,30-49,2023_Aug_15_1515,Recall,2021.2.3,60.07174969783756,
,DD031.jpg,0,FF031.jpg,0,,,,,0,72,72,30,imgFunc,0,NA,1.630452200000036,519.1476286000001,520.88808908,2023-08-15 15:23:42.219941,2023-08-15 15:23:43.960892,FF031.jpg,0,10685,30-49,2023_Aug_15_1515,Recall,2021.2.3,60.07174969783756,
,DD009.jpg,0,FF009.jpg,0,,,,,0,73,73,8,imgFunc,9,NA,1.717431900000065,520.9004325000001,522.72000508,2023-08-15 15:23:43.971676,2023-08-15 15:23:45.791888,FF009.jpg,0,10685,30-49,2023_Aug_15_1515,Recall,2021.2.3,60.07174969783756,
,SD033.jpg,0,MF033.jpg,0,,,,,0,74,74,82,imgFunc,0,NA,1.351944900000035,522.7378294,524.20825448,2023-08-15 15:23:45.803858,2023-08-15 15:23:47.275952,MF033.jpg,0,10685,30-49,2023_Aug_15_1515,Recall,2021.2.3,60.07174969783756,
,DD010.jpg,0,FF010.jpg,0,,,,,0,75,75,9,imgFunc,9,NA,1.0214889999999741,524.2205725,525.3577358799998,2023-08-15 15:23:47.287921,2023-08-15 15:23:48.425973,FF010.jpg,0,10685,30-49,2023_Aug_15_1515,Recall,2021.2.3,60.07174969783756,
,SD014.jpg,0,MF014.jpg,0,,,,,0,76,76,63,imgFunc,1,NA,2.179250799999977,525.3671904,527.65911378,2023-08-15 15:23:48.435757,2023-08-15 15:23:50.726547,MF014.jpg,0,10685,30-49,2023_Aug_15_1515,Recall,2021.2.3,60.07174969783756,
,DD035.jpg,0,FF035.jpg,0,,,,,0,77,77,34,imgFunc,9,NA,1.9468166999999994,527.6633316,529.7163446799999,2023-08-15 15:23:50.738351,2023-08-15 15:23:52.791579,FF035.jpg,0,10685,30-49,2023_Aug_15_1515,Recall,2021.2.3,60.07174969783756,
,SD017.jpg,0,MF017.jpg,0,,,,,0,78,78,66,imgFunc,0,NA,0.7726258000000144,529.7334453,530.6089976799999,2023-08-15 15:23:52.801361,2023-08-15 15:23:53.675450,MF017.jpg,0,10685,30-49,2023_Aug_15_1515,Recall,2021.2.3,60.07174969783756,
,DD026.jpg,0,FF026.jpg,0,,,,,0,79,79,25,imgFunc,9,NA,0.8191830000000664,530.6150752,531.53641368,2023-08-15 15:23:53.686431,2023-08-15 15:23:54.609204,FF026.jpg,0,10685,30-49,2023_Aug_15_1515,Recall,2021.2.3,60.07174969783756,
,SD037.jpg,0,MF037.jpg,0,,,,,0,80,80,86,imgFunc,0,NA,0.9076907999999548,531.5502948000001,532.5718490800001,2023-08-15 15:23:54.620175,2023-08-15 15:23:55.641967,MF037.jpg,0,10685,30-49,2023_Aug_15_1515,Recall,2021.2.3,60.07174969783756,
,L_DD509.jpg,1,L_FF509.jpg,1,,,,,0,81,81,48,imgFunc,0,NA,1.033320500000059,532.5771045,533.7176734799999,2023-08-15 15:23:55.651759,2023-08-15 15:23:56.792110,L_FF509.jpg,1,10685,30-49,2023_Aug_15_1515,Recall,2021.2.3,60.07174969783756,
,DD022.jpg,0,FF022.jpg,0,,,,,0,82,82,21,imgFunc,9,NA,1.3297317999999905,533.7366548,535.1745182799999,2023-08-15 15:23:56.801962,2023-08-15 15:23:58.240960,FF022.jpg,0,10685,30-49,2023_Aug_15_1515,Recall,2021.2.3,60.07174969783756,
,DD028.jpg,0,FF028.jpg,0,,,,,0,83,83,27,imgFunc,9,NA,1.3924220999999761,535.1777441,536.6691132799999,2023-08-15 15:23:58.250934,2023-08-15 15:23:59.741794,FF028.jpg,0,10685,30-49,2023_Aug_15_1515,Recall,2021.2.3,60.07174969783756,
,SD030.jpg,0,MF030.jpg,0,,,,,0,84,84,79,imgFunc,9,NA,1.1817475999999942,536.6845303,537.97143718,2023-08-15 15:23:59.752744,2023-08-15 15:24:01.041811,MF030.jpg,0,10685,30-49,2023_Aug_15_1515,Recall,2021.2.3,60.07174969783756,
,L_DD508.jpg,1,L_FF508.jpg,1,,,,,0,85,85,47,imgFunc,0,NA,2.573570000000018,537.9806431000001,540.65153808,2023-08-15 15:24:01.052783,2023-08-15 15:24:03.724387,L_FF508.jpg,1,10685,30-49,2023_Aug_15_1515,Recall,2021.2.3,60.07174969783756,
,SD013.jpg,0,MF013.jpg,0,,,,,0,86,86,62,imgFunc,2,NA,2.031377799999973,540.6671137000001,542.80391998,2023-08-15 15:24:03.736367,2023-08-15 15:24:05.874316,MF013.jpg,0,10685,30-49,2023_Aug_15_1515,Recall,2021.2.3,60.07174969783756,
,SD032.jpg,0,MF032.jpg,0,,,,,0,87,87,81,imgFunc,9,NA,2.015546200000017,542.8110867,544.93339308,2023-08-15 15:24:05.885150,2023-08-15 15:24:08.007928,MF032.jpg,0,10685,30-49,2023_Aug_15_1515,Recall,2021.2.3,60.07174969783756,
,L_DD505.jpg,1,L_FF505.jpg,1,,,,,0,88,88,44,imgFunc,0,NA,1.5927186999999776,544.9456817,546.65069378,2023-08-15 15:24:08.018734,2023-08-15 15:24:09.723555,L_FF505.jpg,1,10685,30-49,2023_Aug_15_1515,Recall,2021.2.3,60.07174969783756,
,DD011.jpg,0,FF011.jpg,0,,,,,0,89,89,10,imgFunc,0,NA,1.287444100000016,546.6589525,548.0487121799999,2023-08-15 15:24:09.733338,2023-08-15 15:24:11.122645,FF011.jpg,0,10685,30-49,2023_Aug_15_1515,Recall,2021.2.3,60.07174969783756,
,DD030.jpg,0,FF030.jpg,0,,,,,0,90,90,29,imgFunc,9,NA,1.9345727999999554,548.0598265,550.10060458,2023-08-15 15:24:11.132597,2023-08-15 15:24:13.172409,FF030.jpg,0,10685,30-49,2023_Aug_15_1515,Recall,2021.2.3,60.07174969783756,
,DD018.jpg,0,FF018.jpg,0,,,,,0,91,91,17,imgFunc,1,NA,3.0524451999999656,550.1099702,553.26707088,2023-08-15 15:24:13.182383,2023-08-15 15:24:16.339175,FF018.jpg,0,10685,30-49,2023_Aug_15_1515,Recall,2021.2.3,60.07174969783756,
,SD001.jpg,0,MF001.jpg,0,,,,,0,92,92,50,imgFunc,0,NA,1.629332599999998,553.2766417,555.01804768,2023-08-15 15:24:16.349000,2023-08-15 15:24:18.089215,MF001.jpg,0,10685,30-49,2023_Aug_15_1515,Recall,2021.2.3,60.07174969783756,
,L_SD501.jpg,1,L_MF501.jpg,1,,,,,0,93,93,90,imgFunc,9,NA,1.7837690999999722,555.0264469,556.9175759799999,2023-08-15 15:24:18.098996,2023-08-15 15:24:19.989624,L_MF501.jpg,1,10685,30-49,2023_Aug_15_1515,Recall,2021.2.3,60.07174969783756,
,DD003.jpg,0,FF003.jpg,0,,,,,0,94,94,2,imgFunc,0,NA,1.6588034999999763,556.9275865000001,558.7001996800001,2023-08-15 15:24:19.999409,2023-08-15 15:24:21.772121,FF003.jpg,0,10685,30-49,2023_Aug_15_1515,Recall,2021.2.3,60.07174969783756,
,SD031.jpg,0,MF031.jpg,0,,,,,0,95,95,80,imgFunc,0,NA,1.3319761999999855,558.710467,560.15074218,2023-08-15 15:24:21.781905,2023-08-15 15:24:23.222159,MF031.jpg,0,10685,30-49,2023_Aug_15_1515,Recall,2021.2.3,60.07174969783756,
,L_DD510.jpg,1,L_FF510.jpg,1,,,,,0,96,96,49,imgFunc,0,NA,1.0332329999999956,560.1609212000001,561.30049508,2023-08-15 15:24:23.231943,2023-08-15 15:24:24.372017,L_FF510.jpg,1,10685,30-49,2023_Aug_15_1515,Recall,2021.2.3,60.07174969783756,
,L_SD505.jpg,1,L_MF505.jpg,1,,,,,0,97,97,94,imgFunc,9,NA,0.9744232000000466,561.3083452000001,562.38180788,2023-08-15 15:24:24.381996,2023-08-15 15:24:25.456645,L_MF505.jpg,1,10685,30-49,2023_Aug_15_1515,Recall,2021.2.3,60.07174969783756,
,SD025.jpg,0,MF025.jpg,0,,,,,0,98,98,74,imgFunc,9,NA,2.1403629999999794,562.397466,564.6515244799999,2023-08-15 15:24:25.467639,2023-08-15 15:24:27.721084,MF025.jpg,0,10685,30-49,2023_Aug_15_1515,Recall,2021.2.3,60.07174969783756,
,DD005.jpg,0,FF005.jpg,0,,,,,0,99,99,4,imgFunc,0,NA,1.7683955999999625,564.6578955,566.5316297799999,2023-08-15 15:24:27.730869,2023-08-15 15:24:29.604564,FF005.jpg,0,10685,30-49,2023_Aug_15_1515,Recall,2021.2.3,60.07174969783756,
