onset	duration	trial_type	response_time	Endowment	Endowment_pmod	Decision	Decision_pmod	Offer_pmod
4.518008	2	cue_nonsocial	n/a	32	6	n/a	n/a	n/a
4.518008	2	cue_nonsocial_high	n/a	32	8	n/a	n/a	n/a
11.379819	2	cue_social	n/a	16	-8	n/a	n/a	n/a
11.379819	2	cue_social_low	n/a	16	-10	n/a	n/a	n/a
18.184930	2	cue_nonsocial	n/a	32	6	n/a	n/a	n/a
18.184930	2	cue_nonsocial_high	n/a	32	8	n/a	n/a	n/a
25.017900	2	cue_nonsocial	n/a	16	-10	n/a	n/a	n/a
25.017900	2	cue_nonsocial_low	n/a	16	-8	n/a	n/a	n/a
31.852152	2	cue_nonsocial	n/a	32	6	n/a	n/a	n/a
31.852152	2	cue_nonsocial_high	n/a	32	8	n/a	n/a	n/a
42.773224	2	cue_social	n/a	32	8	n/a	n/a	n/a
42.773224	2	cue_social_high	n/a	32	6	n/a	n/a	n/a
51.967945	2	cue_nonsocial	n/a	32	6	n/a	n/a	n/a
51.967945	2	cue_nonsocial_high	n/a	32	8	n/a	n/a	n/a
58.817852	2	cue_nonsocial	n/a	32	6	n/a	n/a	n/a
58.817852	2	cue_nonsocial_high	n/a	32	8	n/a	n/a	n/a
65.678795	2	cue_social	n/a	32	8	n/a	n/a	n/a
65.678795	2	cue_social_high	n/a	32	6	n/a	n/a	n/a
74.901320	2	cue_nonsocial	n/a	16	-10	n/a	n/a	n/a
74.901320	2	cue_nonsocial_low	n/a	16	-8	n/a	n/a	n/a
82.567300	2	cue_social	n/a	32	8	n/a	n/a	n/a
82.567300	2	cue_social_high	n/a	32	6	n/a	n/a	n/a
89.384430	2	cue_nonsocial	n/a	16	-10	n/a	n/a	n/a
89.384430	2	cue_nonsocial_low	n/a	16	-8	n/a	n/a	n/a
97.045030	2	cue_social	n/a	32	8	n/a	n/a	n/a
97.045030	2	cue_social_high	n/a	32	6	n/a	n/a	n/a
103.867580	2	cue_nonsocial	n/a	16	-10	n/a	n/a	n/a
103.867580	2	cue_nonsocial_low	n/a	16	-8	n/a	n/a	n/a
111.510690	2	cue_social	n/a	32	8	n/a	n/a	n/a
111.510690	2	cue_social_high	n/a	32	6	n/a	n/a	n/a
119.214270	2	cue_social	n/a	16	-8	n/a	n/a	n/a
119.214270	2	cue_social_low	n/a	16	-10	n/a	n/a	n/a
126.001160	2	cue_nonsocial	n/a	32	6	n/a	n/a	n/a
126.001160	2	cue_nonsocial_high	n/a	32	8	n/a	n/a	n/a
133.634690	2	cue_nonsocial	n/a	16	-10	n/a	n/a	n/a
133.634690	2	cue_nonsocial_low	n/a	16	-8	n/a	n/a	n/a
141.317690	2	cue_social	n/a	16	-8	n/a	n/a	n/a
141.317690	2	cue_social_low	n/a	16	-10	n/a	n/a	n/a
148.117830	2	cue_nonsocial	n/a	16	-10	n/a	n/a	n/a
148.117830	2	cue_nonsocial_low	n/a	16	-8	n/a	n/a	n/a
154.951200	2	cue_nonsocial	n/a	32	6	n/a	n/a	n/a
154.951200	2	cue_nonsocial_high	n/a	32	8	n/a	n/a	n/a
161.817660	2	cue_social	n/a	32	8	n/a	n/a	n/a
161.817660	2	cue_social_high	n/a	32	6	n/a	n/a	n/a
171.034360	2	cue_nonsocial	n/a	16	-10	n/a	n/a	n/a
171.034360	2	cue_nonsocial_low	n/a	16	-8	n/a	n/a	n/a
180.333280	2	cue_social	n/a	16	-8	n/a	n/a	n/a
180.333280	2	cue_social_low	n/a	16	-10	n/a	n/a	n/a
187.998550	2	cue_social	n/a	32	8	n/a	n/a	n/a
187.998550	2	cue_social_high	n/a	32	6	n/a	n/a	n/a
194.797060	2	cue_social	n/a	32	8	n/a	n/a	n/a
194.797060	2	cue_social_high	n/a	32	6	n/a	n/a	n/a
201.652100	2	cue_social	n/a	32	8	n/a	n/a	n/a
201.652100	2	cue_social_high	n/a	32	6	n/a	n/a	n/a
208.486660	2	cue_social	n/a	16	-8	n/a	n/a	n/a
208.486660	2	cue_social_low	n/a	16	-10	n/a	n/a	n/a
215.336700	2	cue_social	n/a	16	-8	n/a	n/a	n/a
215.336700	2	cue_social_low	n/a	16	-10	n/a	n/a	n/a
224.579070	2	cue_social	n/a	16	-8	n/a	n/a	n/a
224.579070	2	cue_social_low	n/a	16	-10	n/a	n/a	n/a
231.368360	2	cue_nonsocial	n/a	16	-10	n/a	n/a	n/a
231.368360	2	cue_nonsocial_low	n/a	16	-8	n/a	n/a	n/a
238.240460	2	cue_social	n/a	16	-8	n/a	n/a	n/a
238.240460	2	cue_social_low	n/a	16	-10	n/a	n/a	n/a
245.034620	2	cue_nonsocial	n/a	32	6	n/a	n/a	n/a
245.034620	2	cue_nonsocial_high	n/a	32	8	n/a	n/a	n/a
251.904830	2	cue_social	n/a	32	8	n/a	n/a	n/a
251.904830	2	cue_social_high	n/a	32	6	n/a	n/a	n/a
259.517240	2	cue_nonsocial	n/a	32	6	n/a	n/a	n/a
259.517240	2	cue_nonsocial_high	n/a	32	8	n/a	n/a	n/a
267.167400	2	cue_nonsocial	n/a	16	-10	n/a	n/a	n/a
267.167400	2	cue_nonsocial_low	n/a	16	-8	n/a	n/a	n/a
274.866880	2	cue_social	n/a	16	-8	n/a	n/a	n/a
274.866880	2	cue_social_low	n/a	16	-10	n/a	n/a	n/a
281.650800	2	cue_nonsocial	n/a	32	6	n/a	n/a	n/a
281.650800	2	cue_nonsocial_high	n/a	32	8	n/a	n/a	n/a
289.323330	2	cue_social	n/a	32	8	n/a	n/a	n/a
289.323330	2	cue_social_high	n/a	32	6	n/a	n/a	n/a
296.165130	2	cue_social	n/a	16	-8	n/a	n/a	n/a
296.165130	2	cue_social_low	n/a	16	-10	n/a	n/a	n/a
305.441900	2	cue_social	n/a	16	-8	n/a	n/a	n/a
305.441900	2	cue_social_low	n/a	16	-10	n/a	n/a	n/a
316.323150	2	cue_social	n/a	16	-8	n/a	n/a	n/a
316.323150	2	cue_social_low	n/a	16	-10	n/a	n/a	n/a
325.516940	2	cue_nonsocial	n/a	32	6	n/a	n/a	n/a
325.516940	2	cue_nonsocial_high	n/a	32	8	n/a	n/a	n/a
332.376200	2	cue_social	n/a	32	8	n/a	n/a	n/a
332.376200	2	cue_social_high	n/a	32	6	n/a	n/a	n/a
340.000580	2	cue_nonsocial	n/a	32	6	n/a	n/a	n/a
340.000580	2	cue_nonsocial_high	n/a	32	8	n/a	n/a	n/a
350.868200	2	cue_nonsocial	n/a	32	6	n/a	n/a	n/a
350.868200	2	cue_nonsocial_high	n/a	32	8	n/a	n/a	n/a
357.700320	2	cue_nonsocial	n/a	32	6	n/a	n/a	n/a
357.700320	2	cue_nonsocial_high	n/a	32	8	n/a	n/a	n/a
365.350460	2	cue_nonsocial	n/a	32	6	n/a	n/a	n/a
365.350460	2	cue_nonsocial_high	n/a	32	8	n/a	n/a	n/a
6.525094	1.600081	dec_nonsocial_choice	1.600081	32.000000	n/a	8	2.430556e-02	2.430556e-02
6.525094	1.600081	dec_choice	1.600081	32.000000	n/a	8	3.409091e-02	3.409091e-02
6.525094	1.600081	dec_nonsocial_accept	1.600081	32.000000	n/a	8	-1.125000e-01	-1.125000e-01
6.525094	1.600081	dec_accept	1.600081	32.000000	n/a	8	-9.375000e-02	-9.375000e-02
6.525094	1.600081	dec_nonsocial_accept_high	1.600081	32.000000	n/a	8	-1.250000e-01	-1.250000e-01
13.357649	0.933995	dec_social_choice	0.933995	16.000000	n/a	8	2.743056e-01	2.743056e-01
13.357649	0.933995	dec_choice	0.933995	16.000000	n/a	8	2.649457e-01	2.649457e-01
13.357649	0.933995	dec_social_accept	0.933995	16.000000	n/a	8	1.375000e-01	1.375000e-01
13.357649	0.933995	dec_accept	0.933995	16.000000	n/a	8	1.250000e-01	1.250000e-01
13.357649	0.933995	dec_social_high	0.933995	16.000000	n/a	8	2.649457e-01	2.649457e-01
13.357649	0.933995	dec_social_accept_high	0.933995	16.000000	n/a	8	2.649457e-01	2.649457e-01
20.192026	0.966161	dec_nonsocial_choice	0.966161	32.000000	n/a	0	0	-2.256944e-01
20.192026	0.966161	dec_choice	0.966161	32.000000	n/a	0	0	-2.159091e-01
20.192026	0.966161	dec_nonsocial_reject	0.966161	32.000000	n/a	0	0	-2.250000e-02
20.192026	0.966161	dec_reject	0.966161	32.000000	n/a	0	0	-4.910714e-02
20.192026	0.966161	dec_nonsocial_reject_low	0.966161	32.000000	n/a	3	1.136364e-02	-8.238636e-02
27.024150	1.134519	dec_nonsocial_choice	1.134519	16.000000	n/a	4	2.430556e-02	2.430556e-02
27.024150	1.134519	dec_choice	1.134519	16.000000	n/a	4	3.409091e-02	3.409091e-02
27.024150	1.134519	dec_nonsocial_accept	1.134519	16.000000	n/a	4	-1.125000e-01	-1.125000e-01
27.024150	1.134519	dec_accept	1.134519	16.000000	n/a	4	-9.375000e-02	-9.375000e-02
27.024150	1.134519	dec_nonsocial_high	1.134519	16.000000	n/a	4	3.409091e-02	3.409091e-02
27.024150	1.134519	dec_nonsocial_accept_high	1.134519	16.000000	n/a	4	-9.375000e-02	-9.375000e-02
33.859170	1.065135	dec_nonsocial_choice	1.065135	32.000000	n/a	0	0	-2.256944e-01
33.859170	1.065135	dec_choice	1.065135	32.000000	n/a	0	0	-2.159091e-01
33.859170	1.065135	dec_nonsocial_reject	1.065135	32.000000	n/a	0	0	-2.250000e-02
33.859170	1.065135	dec_reject	1.065135	32.000000	n/a	0	0	-4.910714e-02
33.859170	1.065135	dec_nonsocial_reject_low	1.065135	32.000000	n/a	3	1.136364e-02	-8.238636e-02
44.724800	1.333720	dec_social_choice	1.333720	32.000000	n/a	8	2.430556e-02	2.430556e-02
44.724800	1.333720	dec_choice	1.333720	32.000000	n/a	8	1.494565e-02	1.494565e-02
44.724800	1.333720	dec_social_accept	1.333720	32.000000	n/a	8	-1.125000e-01	-1.125000e-01
44.724800	1.333720	dec_accept	1.333720	32.000000	n/a	8	-1.250000e-01	-1.250000e-01
44.724800	1.333720	dec_social_accept_high	1.333720	32.000000	n/a	8	1.494565e-02	1.494565e-02
53.975124	3.766946	missed_trial	3.766946	32.000000	n/a	n/a	n/a	n/a
60.825920	1.549180	dec_nonsocial_choice	1.549180	32.000000	n/a	0	0	-2.256944e-01
60.825920	1.549180	dec_choice	1.549180	32.000000	n/a	0	0	-2.159091e-01
60.825920	1.549180	dec_nonsocial_reject	1.549180	32.000000	n/a	0	0	-2.250000e-02
60.825920	1.549180	dec_reject	1.549180	32.000000	n/a	0	0	-4.910714e-02
60.825920	1.549180	dec_nonsocial_low	1.549180	32.000000	n/a	0	-2.159091e-01	-2.159091e-01
60.825920	1.549180	dec_nonsocial_reject_low	1.549180	32.000000	n/a	3	-4.910714e-02	-1.428571e-01
67.657940	1.017209	dec_social_choice	1.017209	32.000000	n/a	0	0	-2.256944e-01
67.657940	1.017209	dec_choice	1.017209	32.000000	n/a	0	0	-2.350543e-01
67.657940	1.017209	dec_social_reject	1.017209	32.000000	n/a	0	0	-5.375000e-02
67.657940	1.017209	dec_reject	1.017209	32.000000	n/a	0	0	-1.988636e-02
67.657940	1.017209	dec_social_reject_low	1.017209	32.000000	n/a	2	-1.725543e-01	-2.350543e-01
76.908970	0.932952	dec_nonsocial_choice	0.932952	16.000000	n/a	0	0	-2.256944e-01
76.908970	0.932952	dec_choice	0.932952	16.000000	n/a	0	0	-2.159091e-01
76.908970	0.932952	dec_nonsocial_reject	0.932952	16.000000	n/a	0	0	3.837500e-01
76.908970	0.932952	dec_reject	0.932952	16.000000	n/a	0	0	3.571429e-01
76.908970	0.932952	dec_nonsocial_low	0.932952	16.000000	n/a	0	-2.159091e-01	-2.159091e-01
76.908970	0.932952	dec_nonsocial_reject_low	0.932952	16.000000	n/a	8	3.571429e-01	-1.428571e-01
84.558975	1.565289	dec_social_choice	1.565289	32.000000	n/a	0	0	-2.256944e-01
84.558975	1.565289	dec_choice	1.565289	32.000000	n/a	0	0	-2.350543e-01
84.558975	1.565289	dec_social_reject	1.565289	32.000000	n/a	0	0	-5.375000e-02
84.558975	1.565289	dec_reject	1.565289	32.000000	n/a	0	0	-1.988636e-02
84.558975	1.565289	dec_social_low	1.565289	32.000000	n/a	0	-2.350543e-01	-2.350543e-01
84.558975	1.565289	dec_social_reject_low	1.565289	32.000000	n/a	2	-1.725543e-01	-2.350543e-01
91.391190	0.934099	dec_nonsocial_choice	0.934099	16.000000	n/a	0	0	-2.256944e-01
91.391190	0.934099	dec_choice	0.934099	16.000000	n/a	0	0	-2.159091e-01
91.391190	0.934099	dec_nonsocial_reject	0.934099	16.000000	n/a	0	0	8.750000e-03
91.391190	0.934099	dec_reject	0.934099	16.000000	n/a	0	0	-1.785714e-02
91.391190	0.934099	dec_nonsocial_low	0.934099	16.000000	n/a	0	-2.159091e-01	-2.159091e-01
91.391190	0.934099	dec_nonsocial_reject_low	0.934099	16.000000	n/a	2	-1.785714e-02	-1.428571e-01
99.041176	0.983883	dec_social_choice	0.983883	32.000000	n/a	16	2.743056e-01	2.743056e-01
99.041176	0.983883	dec_choice	0.983883	32.000000	n/a	16	2.649457e-01	2.649457e-01
99.041176	0.983883	dec_social_accept	0.983883	32.000000	n/a	16	1.375000e-01	1.375000e-01
99.041176	0.983883	dec_accept	0.983883	32.000000	n/a	16	1.250000e-01	1.250000e-01
99.041176	0.983883	dec_social_accept_high	0.983883	32.000000	n/a	16	2.649457e-01	2.649457e-01
105.874980	1.600017	dec_nonsocial_choice	1.600017	16.000000	n/a	0	0	-2.256944e-01
105.874980	1.600017	dec_choice	1.600017	16.000000	n/a	0	0	-2.159091e-01
105.874980	1.600017	dec_nonsocial_reject	1.600017	16.000000	n/a	0	0	-5.375000e-02
105.874980	1.600017	dec_reject	1.600017	16.000000	n/a	0	0	-8.035714e-02
105.874980	1.600017	dec_nonsocial_low	1.600017	16.000000	n/a	0	-2.159091e-01	-2.159091e-01
105.874980	1.600017	dec_nonsocial_reject_low	1.600017	16.000000	n/a	1	-8.035714e-02	-1.428571e-01
113.524970	1.516374	dec_social_choice	1.516374	32.000000	n/a	8	2.430556e-02	2.430556e-02
113.524970	1.516374	dec_choice	1.516374	32.000000	n/a	8	1.494565e-02	1.494565e-02
113.524970	1.516374	dec_social_accept	1.516374	32.000000	n/a	8	-1.125000e-01	-1.125000e-01
113.524970	1.516374	dec_accept	1.516374	32.000000	n/a	8	-1.250000e-01	-1.250000e-01
113.524970	1.516374	dec_social_accept_high	1.516374	32.000000	n/a	8	1.494565e-02	1.494565e-02
121.175950	1.449069	dec_social_choice	1.449069	16.000000	n/a	0	0	-2.256944e-01
121.175950	1.449069	dec_choice	1.449069	16.000000	n/a	0	0	-2.350543e-01
121.175950	1.449069	dec_social_reject	1.449069	16.000000	n/a	0	0	-5.375000e-02
121.175950	1.449069	dec_reject	1.449069	16.000000	n/a	0	0	-1.988636e-02
121.175950	1.449069	dec_social_low	1.449069	16.000000	n/a	0	-2.350543e-01	-2.350543e-01
121.175950	1.449069	dec_social_reject_low	1.449069	16.000000	n/a	1	-1.725543e-01	-2.350543e-01
128.007690	1.100631	dec_nonsocial_choice	1.100631	32.000000	n/a	16	2.743056e-01	2.743056e-01
128.007690	1.100631	dec_choice	1.100631	32.000000	n/a	16	2.840909e-01	2.840909e-01
128.007690	1.100631	dec_nonsocial_accept	1.100631	32.000000	n/a	16	1.375000e-01	1.375000e-01
128.007690	1.100631	dec_accept	1.100631	32.000000	n/a	16	1.562500e-01	1.562500e-01
128.007690	1.100631	dec_nonsocial_high	1.100631	32.000000	n/a	16	2.840909e-01	2.840909e-01
128.007690	1.100631	dec_nonsocial_accept_high	1.100631	32.000000	n/a	16	1.562500e-01	1.562500e-01
135.641920	0.933446	dec_nonsocial_choice	0.933446	16.000000	n/a	0	0	-2.256944e-01
135.641920	0.933446	dec_choice	0.933446	16.000000	n/a	0	0	-2.159091e-01
135.641920	0.933446	dec_nonsocial_reject	0.933446	16.000000	n/a	0	0	-5.375000e-02
135.641920	0.933446	dec_reject	0.933446	16.000000	n/a	0	0	-8.035714e-02
135.641920	0.933446	dec_nonsocial_reject_low	0.933446	16.000000	n/a	1	-1.988636e-02	-8.238636e-02
143.291320	2.583257	dec_social_choice	2.583257	16.000000	n/a	8	2.743056e-01	2.743056e-01
143.291320	2.583257	dec_choice	2.583257	16.000000	n/a	8	2.649457e-01	2.649457e-01
143.291320	2.583257	dec_social_accept	2.583257	16.000000	n/a	8	1.375000e-01	1.375000e-01
143.291320	2.583257	dec_accept	2.583257	16.000000	n/a	8	1.250000e-01	1.250000e-01
143.291320	2.583257	dec_social_accept_high	2.583257	16.000000	n/a	8	2.649457e-01	2.649457e-01
150.124950	0.949997	dec_nonsocial_choice	0.949997	16.000000	n/a	0	0	-2.256944e-01
150.124950	0.949997	dec_choice	0.949997	16.000000	n/a	0	0	-2.159091e-01
150.124950	0.949997	dec_nonsocial_reject	0.949997	16.000000	n/a	0	0	8.750000e-03
150.124950	0.949997	dec_reject	0.949997	16.000000	n/a	0	0	-1.785714e-02
150.124950	0.949997	dec_nonsocial_reject_low	0.949997	16.000000	n/a	2	4.261364e-02	-8.238636e-02
156.957900	0.900148	dec_nonsocial_choice	0.900148	32.000000	n/a	16	2.743056e-01	2.743056e-01
156.957900	0.900148	dec_choice	0.900148	32.000000	n/a	16	2.840909e-01	2.840909e-01
156.957900	0.900148	dec_nonsocial_accept	0.900148	32.000000	n/a	16	1.375000e-01	1.375000e-01
156.957900	0.900148	dec_accept	0.900148	32.000000	n/a	16	1.562500e-01	1.562500e-01
156.957900	0.900148	dec_nonsocial_accept_high	0.900148	32.000000	n/a	16	1.250000e-01	1.250000e-01
163.790510	1.001040	dec_social_choice	1.001040	32.000000	n/a	0	0	-2.256944e-01
163.790510	1.001040	dec_choice	1.001040	32.000000	n/a	0	0	-2.350543e-01
163.790510	1.001040	dec_social_reject	1.001040	32.000000	n/a	0	0	-2.250000e-02
163.790510	1.001040	dec_reject	1.001040	32.000000	n/a	0	0	1.136364e-02
163.790510	1.001040	dec_social_low	1.001040	32.000000	n/a	0	-2.350543e-01	-2.350543e-01
163.790510	1.001040	dec_social_reject_low	1.001040	32.000000	n/a	3	-1.413043e-01	-2.350543e-01
173.040900	1.166765	dec_nonsocial_choice	1.166765	16.000000	n/a	4	2.430556e-02	2.430556e-02
173.040900	1.166765	dec_choice	1.166765	16.000000	n/a	4	3.409091e-02	3.409091e-02
173.040900	1.166765	dec_nonsocial_accept	1.166765	16.000000	n/a	4	-1.125000e-01	-1.125000e-01
173.040900	1.166765	dec_accept	1.166765	16.000000	n/a	4	-9.375000e-02	-9.375000e-02
173.040900	1.166765	dec_nonsocial_high	1.166765	16.000000	n/a	4	3.409091e-02	3.409091e-02
173.040900	1.166765	dec_nonsocial_accept_high	1.166765	16.000000	n/a	4	-9.375000e-02	-9.375000e-02
182.291760	0.915816	dec_social_choice	0.915816	16.000000	n/a	8	2.743056e-01	2.743056e-01
182.291760	0.915816	dec_choice	0.915816	16.000000	n/a	8	2.649457e-01	2.649457e-01
182.291760	0.915816	dec_social_accept	0.915816	16.000000	n/a	8	1.375000e-01	1.375000e-01
182.291760	0.915816	dec_accept	0.915816	16.000000	n/a	8	1.250000e-01	1.250000e-01
182.291760	0.915816	dec_social_accept_high	0.915816	16.000000	n/a	8	2.649457e-01	2.649457e-01
189.940750	0.951112	dec_social_choice	0.951112	32.000000	n/a	0	0	-2.256944e-01
189.940750	0.951112	dec_choice	0.951112	32.000000	n/a	0	0	-2.350543e-01
189.940750	0.951112	dec_social_reject	0.951112	32.000000	n/a	0	0	-5.375000e-02
189.940750	0.951112	dec_reject	0.951112	32.000000	n/a	0	0	-1.988636e-02
189.940750	0.951112	dec_social_reject_low	0.951112	32.000000	n/a	2	-1.725543e-01	-2.350543e-01
196.775100	3.766946	missed_trial	3.766946	32.000000	n/a	n/a	n/a	n/a
203.623690	0.917695	dec_social_choice	0.917695	32.000000	n/a	0	0	-2.256944e-01
203.623690	0.917695	dec_choice	0.917695	32.000000	n/a	0	0	-2.350543e-01
203.623690	0.917695	dec_social_reject	0.917695	32.000000	n/a	0	0	-2.250000e-02
203.623690	0.917695	dec_reject	0.917695	32.000000	n/a	0	0	1.136364e-02
203.623690	0.917695	dec_social_reject_low	0.917695	32.000000	n/a	3	-1.413043e-01	-2.350543e-01
210.457840	0.982946	dec_social_choice	0.982946	16.000000	n/a	4	2.430556e-02	2.430556e-02
210.457840	0.982946	dec_choice	0.982946	16.000000	n/a	4	1.494565e-02	1.494565e-02
210.457840	0.982946	dec_social_accept	0.982946	16.000000	n/a	4	-1.125000e-01	-1.125000e-01
210.457840	0.982946	dec_accept	0.982946	16.000000	n/a	4	-1.250000e-01	-1.250000e-01
210.457840	0.982946	dec_social_accept_high	0.982946	16.000000	n/a	4	1.494565e-02	1.494565e-02
217.291840	1.799566	dec_social_choice	1.799566	16.000000	n/a	4	2.430556e-02	2.430556e-02
217.291840	1.799566	dec_choice	1.799566	16.000000	n/a	4	1.494565e-02	1.494565e-02
217.291840	1.799566	dec_social_accept	1.799566	16.000000	n/a	4	-1.125000e-01	-1.125000e-01
217.291840	1.799566	dec_accept	1.799566	16.000000	n/a	4	-1.250000e-01	-1.250000e-01
217.291840	1.799566	dec_social_high	1.799566	16.000000	n/a	4	1.494565e-02	1.494565e-02
217.291840	1.799566	dec_social_accept_high	1.799566	16.000000	n/a	4	1.494565e-02	1.494565e-02
226.540850	1.034033	dec_social_choice	1.034033	16.000000	n/a	0	0	-2.256944e-01
226.540850	1.034033	dec_choice	1.034033	16.000000	n/a	0	0	-2.350543e-01
226.540850	1.034033	dec_social_reject	1.034033	16.000000	n/a	0	0	-5.375000e-02
226.540850	1.034033	dec_reject	1.034033	16.000000	n/a	0	0	-1.988636e-02
226.540850	1.034033	dec_social_low	1.034033	16.000000	n/a	0	-2.350543e-01	-2.350543e-01
226.540850	1.034033	dec_social_reject_low	1.034033	16.000000	n/a	1	-1.725543e-01	-2.350543e-01
233.374110	1.034048	dec_nonsocial_choice	1.034048	16.000000	n/a	0	0	-2.256944e-01
233.374110	1.034048	dec_choice	1.034048	16.000000	n/a	0	0	-2.159091e-01
233.374110	1.034048	dec_nonsocial_reject	1.034048	16.000000	n/a	0	0	-5.375000e-02
233.374110	1.034048	dec_reject	1.034048	16.000000	n/a	0	0	-8.035714e-02
233.374110	1.034048	dec_nonsocial_reject_low	1.034048	16.000000	n/a	1	-1.988636e-02	-8.238636e-02
240.207820	0.966410	dec_social_choice	0.966410	16.000000	n/a	4	2.430556e-02	2.430556e-02
240.207820	0.966410	dec_choice	0.966410	16.000000	n/a	4	1.494565e-02	1.494565e-02
240.207820	0.966410	dec_social_accept	0.966410	16.000000	n/a	4	-1.125000e-01	-1.125000e-01
240.207820	0.966410	dec_accept	0.966410	16.000000	n/a	4	-1.250000e-01	-1.250000e-01
240.207820	0.966410	dec_social_accept_high	0.966410	16.000000	n/a	4	1.494565e-02	1.494565e-02
247.041810	1.749589	dec_nonsocial_choice	1.749589	32.000000	n/a	8	2.430556e-02	2.430556e-02
247.041810	1.749589	dec_choice	1.749589	32.000000	n/a	8	3.409091e-02	3.409091e-02
247.041810	1.749589	dec_nonsocial_accept	1.749589	32.000000	n/a	8	-1.125000e-01	-1.125000e-01
247.041810	1.749589	dec_accept	1.749589	32.000000	n/a	8	-9.375000e-02	-9.375000e-02
247.041810	1.749589	dec_nonsocial_high	1.749589	32.000000	n/a	8	3.409091e-02	3.409091e-02
247.041810	1.749589	dec_nonsocial_accept_high	1.749589	32.000000	n/a	8	-9.375000e-02	-9.375000e-02
253.874150	1.600578	dec_social_choice	1.600578	32.000000	n/a	0	0	-2.256944e-01
253.874150	1.600578	dec_choice	1.600578	32.000000	n/a	0	0	-2.350543e-01
253.874150	1.600578	dec_social_reject	1.600578	32.000000	n/a	0	0	-5.375000e-02
253.874150	1.600578	dec_reject	1.600578	32.000000	n/a	0	0	-1.988636e-02
253.874150	1.600578	dec_social_reject_low	1.600578	32.000000	n/a	2	-1.725543e-01	-2.350543e-01
261.524800	1.765794	dec_nonsocial_choice	1.765794	32.000000	n/a	0	0	-2.256944e-01
261.524800	1.765794	dec_choice	1.765794	32.000000	n/a	0	0	-2.159091e-01
261.524800	1.765794	dec_nonsocial_reject	1.765794	32.000000	n/a	0	0	-5.375000e-02
261.524800	1.765794	dec_reject	1.765794	32.000000	n/a	0	0	-8.035714e-02
261.524800	1.765794	dec_nonsocial_reject_low	1.765794	32.000000	n/a	2	-1.988636e-02	-8.238636e-02
269.175800	3.766946	missed_trial	3.766946	16.000000	n/a	n/a	n/a	n/a
276.824830	0.882936	dec_social_choice	0.882936	16.000000	n/a	0	0	-2.256944e-01
276.824830	0.882936	dec_choice	0.882936	16.000000	n/a	0	0	-2.350543e-01
276.824830	0.882936	dec_social_reject	0.882936	16.000000	n/a	0	0	8.750000e-03
276.824830	0.882936	dec_reject	0.882936	16.000000	n/a	0	0	4.261364e-02
276.824830	0.882936	dec_social_reject_low	0.882936	16.000000	n/a	2	-1.100543e-01	-2.350543e-01
283.656830	1.084372	dec_nonsocial_choice	1.084372	32.000000	n/a	0	0	-2.256944e-01
283.656830	1.084372	dec_choice	1.084372	32.000000	n/a	0	0	-2.159091e-01
283.656830	1.084372	dec_nonsocial_reject	1.084372	32.000000	n/a	0	0	-2.250000e-02
283.656830	1.084372	dec_reject	1.084372	32.000000	n/a	0	0	-4.910714e-02
283.656830	1.084372	dec_nonsocial_reject_low	1.084372	32.000000	n/a	3	1.136364e-02	-8.238636e-02
291.306920	1.483329	dec_social_choice	1.483329	32.000000	n/a	0	0	-2.256944e-01
291.306920	1.483329	dec_choice	1.483329	32.000000	n/a	0	0	-2.350543e-01
291.306920	1.483329	dec_social_reject	1.483329	32.000000	n/a	0	0	-2.250000e-02
291.306920	1.483329	dec_reject	1.483329	32.000000	n/a	0	0	1.136364e-02
291.306920	1.483329	dec_social_low	1.483329	32.000000	n/a	0	-2.350543e-01	-2.350543e-01
291.306920	1.483329	dec_social_reject_low	1.483329	32.000000	n/a	3	-1.413043e-01	-2.350543e-01
298.140780	1.100224	dec_social_choice	1.100224	16.000000	n/a	8	2.743056e-01	2.743056e-01
298.140780	1.100224	dec_choice	1.100224	16.000000	n/a	8	2.649457e-01	2.649457e-01
298.140780	1.100224	dec_social_accept	1.100224	16.000000	n/a	8	1.375000e-01	1.375000e-01
298.140780	1.100224	dec_accept	1.100224	16.000000	n/a	8	1.250000e-01	1.250000e-01
298.140780	1.100224	dec_social_accept_high	1.100224	16.000000	n/a	8	2.649457e-01	2.649457e-01
307.407650	1.800296	dec_social_choice	1.800296	16.000000	n/a	0	0	-2.256944e-01
307.407650	1.800296	dec_choice	1.800296	16.000000	n/a	0	0	-2.350543e-01
307.407650	1.800296	dec_social_reject	1.800296	16.000000	n/a	0	0	8.750000e-03
307.407650	1.800296	dec_reject	1.800296	16.000000	n/a	0	0	4.261364e-02
307.407650	1.800296	dec_social_reject_low	1.800296	16.000000	n/a	2	-1.100543e-01	-2.350543e-01
318.273300	1.451045	dec_social_choice	1.451045	16.000000	n/a	4	2.430556e-02	2.430556e-02
318.273300	1.451045	dec_choice	1.451045	16.000000	n/a	4	1.494565e-02	1.494565e-02
318.273300	1.451045	dec_social_accept	1.451045	16.000000	n/a	4	-1.125000e-01	-1.125000e-01
318.273300	1.451045	dec_accept	1.451045	16.000000	n/a	4	-1.250000e-01	-1.250000e-01
318.273300	1.451045	dec_social_high	1.451045	16.000000	n/a	4	1.494565e-02	1.494565e-02
318.273300	1.451045	dec_social_accept_high	1.451045	16.000000	n/a	4	1.494565e-02	1.494565e-02
327.523740	1.583961	dec_nonsocial_choice	1.583961	32.000000	n/a	0	0	-2.256944e-01
327.523740	1.583961	dec_choice	1.583961	32.000000	n/a	0	0	-2.159091e-01
327.523740	1.583961	dec_nonsocial_reject	1.583961	32.000000	n/a	0	0	3.837500e-01
327.523740	1.583961	dec_reject	1.583961	32.000000	n/a	0	0	3.571429e-01
327.523740	1.583961	dec_nonsocial_low	1.583961	32.000000	n/a	0	-2.159091e-01	-2.159091e-01
327.523740	1.583961	dec_nonsocial_reject_low	1.583961	32.000000	n/a	16	3.571429e-01	-1.428571e-01
334.357730	1.616425	dec_social_choice	1.616425	32.000000	n/a	16	2.743056e-01	2.743056e-01
334.357730	1.616425	dec_choice	1.616425	32.000000	n/a	16	2.649457e-01	2.649457e-01
334.357730	1.616425	dec_social_accept	1.616425	32.000000	n/a	16	1.375000e-01	1.375000e-01
334.357730	1.616425	dec_accept	1.616425	32.000000	n/a	16	1.250000e-01	1.250000e-01
334.357730	1.616425	dec_social_accept_high	1.616425	32.000000	n/a	16	2.649457e-01	2.649457e-01
342.006700	1.034320	dec_nonsocial_choice	1.034320	32.000000	n/a	0	0	-2.256944e-01
342.006700	1.034320	dec_choice	1.034320	32.000000	n/a	0	0	-2.159091e-01
342.006700	1.034320	dec_nonsocial_reject	1.034320	32.000000	n/a	0	0	-5.375000e-02
342.006700	1.034320	dec_reject	1.034320	32.000000	n/a	0	0	-8.035714e-02
342.006700	1.034320	dec_nonsocial_reject_low	1.034320	32.000000	n/a	2	-1.988636e-02	-8.238636e-02
352.873720	1.016466	dec_nonsocial_choice	1.016466	32.000000	n/a	8	2.430556e-02	2.430556e-02
352.873720	1.016466	dec_choice	1.016466	32.000000	n/a	8	3.409091e-02	3.409091e-02
352.873720	1.016466	dec_nonsocial_accept	1.016466	32.000000	n/a	8	-1.125000e-01	-1.125000e-01
352.873720	1.016466	dec_accept	1.016466	32.000000	n/a	8	-9.375000e-02	-9.375000e-02
352.873720	1.016466	dec_nonsocial_high	1.016466	32.000000	n/a	8	3.409091e-02	3.409091e-02
352.873720	1.016466	dec_nonsocial_accept_high	1.016466	32.000000	n/a	8	-9.375000e-02	-9.375000e-02
359.707600	1.149997	dec_nonsocial_choice	1.149997	32.000000	n/a	0	0	-2.256944e-01
359.707600	1.149997	dec_choice	1.149997	32.000000	n/a	0	0	-2.159091e-01
359.707600	1.149997	dec_nonsocial_reject	1.149997	32.000000	n/a	0	0	-5.375000e-02
359.707600	1.149997	dec_reject	1.149997	32.000000	n/a	0	0	-8.035714e-02
359.707600	1.149997	dec_nonsocial_reject_low	1.149997	32.000000	n/a	2	-1.988636e-02	-8.238636e-02
367.357180	1.216370	dec_nonsocial_choice	1.216370	32.000000	n/a	16	2.743056e-01	2.743056e-01
367.357180	1.216370	dec_choice	1.216370	32.000000	n/a	16	2.840909e-01	2.840909e-01
367.357180	1.216370	dec_nonsocial_accept	1.216370	32.000000	n/a	16	1.375000e-01	1.375000e-01
367.357180	1.216370	dec_accept	1.216370	32.000000	n/a	16	1.562500e-01	1.562500e-01
367.357180	1.216370	dec_nonsocial_high	1.216370	32.000000	n/a	16	2.840909e-01	2.840909e-01
367.357180	1.216370	dec_nonsocial_accept_high	1.216370	32.000000	n/a	16	1.562500e-01	1.562500e-01
