onset	duration	trial_type	rt	resp	gender	image_left	image_right
0.5984873999841511	3.0013417000882328	decision	2.533523299964145	left	S	SD001.jpg	SD002.jpg
4.148510599974543	1.0166778001002967	win	n/a	n/a	n/a	SD001.jpg	SD002.jpg
11.098747000098228	3.0008728997781873	decision	2.0332783998455852	right	S	SD003.jpg	SD004.jpg
14.648461800068617	1.0166469998657703	loss	n/a	n/a	n/a	SD003.jpg	SD004.jpg
17.381908799987286	3.00078219990246	decision	2.0332963000983	right	S	SD005.jpg	SD006.jpg
20.93182999989949	1.0165709001012146	win	n/a	n/a	n/a	SD005.jpg	SD006.jpg
23.665207599988207	3.0013848999515176	decision	1.28290109988302	left	D	DD001.jpg	DD002.jpg
27.215063200099394	1.0165636998135597	win	n/a	n/a	n/a	DD001.jpg	DD002.jpg
32.04859260004014	3.0012294999323785	decision	1.283403899986297	left	D	DD003.jpg	DD004.jpg
35.598585499916226	1.0166808001231402	loss	n/a	n/a	n/a	DD003.jpg	DD004.jpg
42.53165080002509	3.0011149998754263	decision	1.7836549000348896	left	S	SD007.jpg	SD008.jpg
46.08153200009838	1.0001569997984916	loss	n/a	n/a	n/a	SD007.jpg	SD008.jpg
50.91512220003642	3.0017649000510573	decision	2.0324891000054777	right	S	SD009.jpg	SD010.jpg
54.46503009996377	1.016632900107652	win	n/a	n/a	n/a	SD009.jpg	SD010.jpg
59.315130200004205	3.001770199974999	decision	2.5499457998666912	left	D	DD005.jpg	DD006.jpg
62.86500209989026	1.0000023001339287	loss	n/a	n/a	n/a	DD005.jpg	DD006.jpg
65.59838959993795	3.001391400117427	decision	2.033135100034997	right	D	DD007.jpg	DD008.jpg
69.14831080008298	1.016724199987948	win	n/a	n/a	n/a	DD007.jpg	DD008.jpg
71.88171739992686	3.0008962000720203	decision	1.2831645000260323	right	D	DD009.jpg	DD010.jpg
75.43164830002934	1.0167135000228882	win	n/a	n/a	n/a	DD009.jpg	DD010.jpg
78.16519979992881	3.0008537999819964	decision	1.7831647000275552	left	D	DD011.jpg	DD012.jpg
81.71496289991774	1.0166383001487702	loss	n/a	n/a	n/a	DD011.jpg	DD012.jpg
86.56498360005207	3.001776299905032	decision	2.5326346999499947	left	S	SD011.jpg	SD012.jpg
90.11493909987621	0.9999999001156539	loss	n/a	n/a	n/a	SD011.jpg	SD012.jpg
92.83168080006726	3.001264999853447	decision	1.7830516998656094	left	S	SD013.jpg	SD014.jpg
96.3816458999645	1.0166500001214445	win	n/a	n/a	n/a	SD013.jpg	SD014.jpg
103.31500980001874	3.0016677000094205	decision	1.7825080999173224	left	S	SD015.jpg	SD016.jpg
106.86491309991106	1.0000595999881625	win	n/a	n/a	n/a	SD015.jpg	SD016.jpg
109.58170580002479	3.0013057000469416	decision	2.0337801000569016	left	D	DD013.jpg	DD014.jpg
113.13161629997194	1.016580899944529	win	n/a	n/a	n/a	DD013.jpg	DD014.jpg
120.06494290009141	3.0006550999823958	decision	1.2835956998169422	right	S	SD017.jpg	SD018.jpg
123.61497829994187	1.0165035999380052	win	n/a	n/a	n/a	SD017.jpg	SD018.jpg
128.46491939993575	3.0012068999931216	decision	1.2826894000172615	right	D	DD015.jpg	DD016.jpg
132.014887599973	1.0166414000559598	win	n/a	n/a	n/a	DD015.jpg	DD016.jpg
136.88152069994248	2.999959700042382	decision	1.2831981999333948	right	S	SD019.jpg	SD020.jpg
140.43143890006468	1.0167755000293255	win	n/a	n/a	n/a	SD019.jpg	SD020.jpg
145.2649469000753	3.0015795999206603	decision	1.282749299891293	left	D	DD017.jpg	DD018.jpg
148.814811399905	1.0166260001715273	win	n/a	n/a	n/a	DD017.jpg	DD018.jpg
162.04830479994416	3.0018367001321167	decision	1.2827314001042396	left	S	SD021.jpg	SD022.jpg
165.5980139998719	1.0000843000598252	loss	n/a	n/a	n/a	SD021.jpg	SD022.jpg
172.51484280009754	3.001262699952349	decision	1.0325724999420345	left	S	SD023.jpg	SD024.jpg
176.06476909993216	1.0166228001471609	win	n/a	n/a	n/a	SD023.jpg	SD024.jpg
182.99811429996043	3.0013846000656486	decision	1.2830286999233067	right	S	SD025.jpg	SD026.jpg
186.54802410001867	1.0166450999677181	loss	n/a	n/a	n/a	SD025.jpg	SD026.jpg
191.38134699990042	3.0009661000221968	decision	1.5334254000335932	right	S	SD027.jpg	SD028.jpg
194.9314149999991	1.0166044998914003	loss	n/a	n/a	n/a	SD027.jpg	SD028.jpg
197.69816219992936	3.001911100000143	decision	2.032675600145012	left	D	DD019.jpg	DD020.jpg
201.24790369998664	1.0000752999912947	loss	n/a	n/a	n/a	DD019.jpg	DD020.jpg
203.9647228999529	3.0012153999414295	decision	1.2830362999811769	left	D	DD021.jpg	DD022.jpg
207.5147078000009	1.016610600054264	win	n/a	n/a	n/a	DD021.jpg	DD022.jpg
214.44804859999567	3.0014782999642193	decision	1.2825633001048118	left	S	SD029.jpg	SD030.jpg
217.9979636000935	1.0000093998387456	loss	n/a	n/a	n/a	SD029.jpg	SD030.jpg
224.91469469992444	3.0013468000106514	decision	1.2835043000523	left	S	SD031.jpg	SD032.jpg
228.46447629993781	1.0001244000159204	win	n/a	n/a	n/a	SD031.jpg	SD032.jpg
233.28131969994865	3.0012998001184314	decision	1.2833794001489878	right	D	DD023.jpg	DD024.jpg
236.83125420007855	1.016639799810946	loss	n/a	n/a	n/a	DD023.jpg	DD024.jpg
239.56468690000474	3.0019523000810295	decision	2.032955399947241	right	D	DD025.jpg	DD026.jpg
243.11461669998243	1.0163577999919653	win	n/a	n/a	n/a	DD025.jpg	DD026.jpg
247.94801299995743	3.0019282000139356	decision	1.7834616000764072	left	D	DD027.jpg	DD028.jpg
251.49788530007936	1.0001803999766707	loss	n/a	n/a	n/a	DD027.jpg	DD028.jpg
254.2147407999728	3.000987899955362	decision	1.282510600052774	left	S	SD033.jpg	SD034.jpg
257.76454779994674	1.0166647001169622	loss	n/a	n/a	n/a	SD033.jpg	SD034.jpg
260.51439999998547	3.0020880999509245	decision	2.28264439990744	left	S	SD035.jpg	SD036.jpg
264.0644660999533	1.016950299963355	loss	n/a	n/a	n/a	SD035.jpg	SD036.jpg
266.79797669989057	3.0008041001856327	decision	1.5330980999860913	left	S	SD037.jpg	SD038.jpg
270.34790239995345	1.000004299916327	win	n/a	n/a	n/a	SD037.jpg	SD038.jpg
277.26460079988465	3.0010579000227153	decision	1.5325740000698715	left	D	DD029.jpg	DD030.jpg
280.81464760005474	1.0166623999830335	loss	n/a	n/a	n/a	DD029.jpg	DD030.jpg
283.56460039992817	3.0011156001128256	decision	1.2831121999770403	left	D	DD031.jpg	DD032.jpg
287.11442340002395	1.0000134999863803	loss	n/a	n/a	n/a	DD031.jpg	DD032.jpg
291.94793300004676	3.000988299958408	decision	2.033143199980259	right	D	DD033.jpg	DD034.jpg
295.49783880007453	1.0166807998903096	win	n/a	n/a	n/a	DD033.jpg	DD034.jpg
302.4312080000527	3.002250700024888	decision	1.5329068000428379	right	S	SD039.jpg	SD040.jpg
305.9810983000789	1.0166834997944534	loss	n/a	n/a	n/a	SD039.jpg	SD040.jpg
312.9312100999523	3.0015491999220103	decision	1.533244299935177	right	D	DD035.jpg	DD036.jpg
316.4811370000243	1.0166261999402195	win	n/a	n/a	n/a	DD035.jpg	DD036.jpg
319.2310550000984	3.0007187998853624	decision	2.8002568997908384	right	D	DD037.jpg	DD038.jpg
322.7810933000874	1.0166149998549372	loss	n/a	n/a	n/a	DD037.jpg	DD038.jpg
325.51447999989614	3.0008043001871556	decision	2.5350047000683844	left	D	DD039.jpg	DD040.jpg
329.0644008999225	1.0166567000560462	loss	n/a	n/a	n/a	DD039.jpg	DD040.jpg
