onset	duration	trial_type	response_time	Endowment	Endowment_pmod	Decision	Decision_pmod	Offer_pmod
4.598922	2	cue_social	n/a	16	-9	n/a	n/a	n/a
4.598922	2	cue_social_low	n/a	16	-8	n/a	n/a	n/a
12.244788	2	cue_social	n/a	16	-9	n/a	n/a	n/a
12.244788	2	cue_social_low	n/a	16	-8	n/a	n/a	n/a
18.999190	2	cue_social	n/a	32	7	n/a	n/a	n/a
18.999190	2	cue_social_high	n/a	32	8	n/a	n/a	n/a
25.923609	2	cue_social	n/a	16	-9	n/a	n/a	n/a
25.923609	2	cue_social_low	n/a	16	-8	n/a	n/a	n/a
32.742676	2	cue_social	n/a	32	7	n/a	n/a	n/a
32.742676	2	cue_social_high	n/a	32	8	n/a	n/a	n/a
40.385048	2	cue_social	n/a	32	7	n/a	n/a	n/a
40.385048	2	cue_social_high	n/a	32	8	n/a	n/a	n/a
49.652100	2	cue_social	n/a	32	7	n/a	n/a	n/a
49.652100	2	cue_social_high	n/a	32	8	n/a	n/a	n/a
56.399902	2	cue_nonsocial	n/a	32	8	n/a	n/a	n/a
56.399902	2	cue_nonsocial_high	n/a	32	7	n/a	n/a	n/a
63.310390	2	cue_social	n/a	32	7	n/a	n/a	n/a
63.310390	2	cue_social_high	n/a	32	8	n/a	n/a	n/a
72.585020	2	cue_social	n/a	32	7	n/a	n/a	n/a
72.585020	2	cue_social_high	n/a	32	8	n/a	n/a	n/a
80.133835	2	cue_nonsocial	n/a	32	8	n/a	n/a	n/a
80.133835	2	cue_nonsocial_high	n/a	32	7	n/a	n/a	n/a
86.966610	2	cue_nonsocial	n/a	32	8	n/a	n/a	n/a
86.966610	2	cue_nonsocial_high	n/a	32	7	n/a	n/a	n/a
93.799805	2	cue_nonsocial	n/a	16	-8	n/a	n/a	n/a
93.799805	2	cue_nonsocial_low	n/a	16	-9	n/a	n/a	n/a
101.449615	2	cue_nonsocial	n/a	32	8	n/a	n/a	n/a
101.449615	2	cue_nonsocial_high	n/a	32	7	n/a	n/a	n/a
108.283165	2	cue_nonsocial	n/a	32	8	n/a	n/a	n/a
108.283165	2	cue_nonsocial_high	n/a	32	7	n/a	n/a	n/a
115.933520	2	cue_nonsocial	n/a	16	-8	n/a	n/a	n/a
115.933520	2	cue_nonsocial_low	n/a	16	-9	n/a	n/a	n/a
125.199715	2	cue_nonsocial	n/a	32	8	n/a	n/a	n/a
125.199715	2	cue_nonsocial_high	n/a	32	7	n/a	n/a	n/a
136.066530	2	cue_nonsocial	n/a	32	8	n/a	n/a	n/a
136.066530	2	cue_nonsocial_high	n/a	32	7	n/a	n/a	n/a
142.899890	2	cue_nonsocial	n/a	16	-8	n/a	n/a	n/a
142.899890	2	cue_nonsocial_low	n/a	16	-9	n/a	n/a	n/a
150.549710	2	cue_nonsocial	n/a	32	8	n/a	n/a	n/a
150.549710	2	cue_nonsocial_high	n/a	32	7	n/a	n/a	n/a
157.382800	2	cue_nonsocial	n/a	16	-8	n/a	n/a	n/a
157.382800	2	cue_nonsocial_low	n/a	16	-9	n/a	n/a	n/a
168.250170	2	cue_nonsocial	n/a	16	-8	n/a	n/a	n/a
168.250170	2	cue_nonsocial_low	n/a	16	-9	n/a	n/a	n/a
175.968640	2	cue_social	n/a	16	-9	n/a	n/a	n/a
175.968640	2	cue_social_low	n/a	16	-8	n/a	n/a	n/a
183.549760	2	cue_nonsocial	n/a	32	8	n/a	n/a	n/a
183.549760	2	cue_nonsocial_high	n/a	32	7	n/a	n/a	n/a
190.424160	2	cue_social	n/a	32	7	n/a	n/a	n/a
190.424160	2	cue_social_high	n/a	32	8	n/a	n/a	n/a
197.280040	2	cue_social	n/a	16	-9	n/a	n/a	n/a
197.280040	2	cue_social_low	n/a	16	-8	n/a	n/a	n/a
204.049420	2	cue_nonsocial	n/a	16	-8	n/a	n/a	n/a
204.049420	2	cue_nonsocial_low	n/a	16	-9	n/a	n/a	n/a
210.955540	2	cue_social	n/a	32	7	n/a	n/a	n/a
210.955540	2	cue_social_high	n/a	32	8	n/a	n/a	n/a
217.822660	2	cue_social	n/a	32	7	n/a	n/a	n/a
217.822660	2	cue_social_high	n/a	32	8	n/a	n/a	n/a
226.966340	2	cue_nonsocial	n/a	32	8	n/a	n/a	n/a
226.966340	2	cue_nonsocial_high	n/a	32	7	n/a	n/a	n/a
236.237810	2	cue_social	n/a	16	-9	n/a	n/a	n/a
236.237810	2	cue_social_low	n/a	16	-8	n/a	n/a	n/a
243.102650	2	cue_social	n/a	16	-9	n/a	n/a	n/a
243.102650	2	cue_social_low	n/a	16	-8	n/a	n/a	n/a
253.974660	2	cue_social	n/a	32	7	n/a	n/a	n/a
253.974660	2	cue_social_high	n/a	32	8	n/a	n/a	n/a
260.749540	2	cue_nonsocial	n/a	32	8	n/a	n/a	n/a
260.749540	2	cue_nonsocial_high	n/a	32	7	n/a	n/a	n/a
267.632230	2	cue_social	n/a	32	7	n/a	n/a	n/a
267.632230	2	cue_social_high	n/a	32	8	n/a	n/a	n/a
274.498300	2	cue_social	n/a	16	-9	n/a	n/a	n/a
274.498300	2	cue_social_low	n/a	16	-8	n/a	n/a	n/a
281.351900	2	cue_social	n/a	32	7	n/a	n/a	n/a
281.351900	2	cue_social_high	n/a	32	8	n/a	n/a	n/a
288.899540	2	cue_nonsocial	n/a	16	-8	n/a	n/a	n/a
288.899540	2	cue_nonsocial_low	n/a	16	-9	n/a	n/a	n/a
295.817230	2	cue_social	n/a	16	-9	n/a	n/a	n/a
295.817230	2	cue_social_low	n/a	16	-8	n/a	n/a	n/a
303.382700	2	cue_nonsocial	n/a	16	-8	n/a	n/a	n/a
303.382700	2	cue_nonsocial_low	n/a	16	-9	n/a	n/a	n/a
311.032800	2	cue_nonsocial	n/a	16	-8	n/a	n/a	n/a
311.032800	2	cue_nonsocial_low	n/a	16	-9	n/a	n/a	n/a
323.595830	2	cue_social	n/a	16	-9	n/a	n/a	n/a
323.595830	2	cue_social_low	n/a	16	-8	n/a	n/a	n/a
330.349500	2	cue_nonsocial	n/a	32	8	n/a	n/a	n/a
330.349500	2	cue_nonsocial_high	n/a	32	7	n/a	n/a	n/a
338.055180	2	cue_social	n/a	32	7	n/a	n/a	n/a
338.055180	2	cue_social_high	n/a	32	8	n/a	n/a	n/a
344.816740	2	cue_nonsocial	n/a	16	-8	n/a	n/a	n/a
344.816740	2	cue_nonsocial_low	n/a	16	-9	n/a	n/a	n/a
354.152530	2	cue_social	n/a	32	7	n/a	n/a	n/a
354.152530	2	cue_social_high	n/a	32	8	n/a	n/a	n/a
361.732820	2	cue_nonsocial	n/a	16	-8	n/a	n/a	n/a
361.732820	2	cue_nonsocial_low	n/a	16	-9	n/a	n/a	n/a
368.565770	2	cue_nonsocial	n/a	16	-8	n/a	n/a	n/a
368.565770	2	cue_nonsocial_low	n/a	16	-9	n/a	n/a	n/a
6.523540	1.732471	dec_social_choice	1.732471	16.000000	n/a	2	-1.061198e-01	-1.061198e-01
6.523540	1.732471	dec_choice	1.732471	16.000000	n/a	2	-1.054688e-01	-1.054688e-01
6.523540	1.732471	dec_social_accept	1.732471	16.000000	n/a	2	-1.061198e-01	-1.061198e-01
6.523540	1.732471	dec_accept	1.732471	16.000000	n/a	2	-1.054688e-01	-1.054688e-01
6.523540	1.732471	dec_social_low	1.732471	16.000000	n/a	2	-1.054688e-01	-1.054688e-01
6.523540	1.732471	dec_social_accept_low	1.732471	16.000000	n/a	2	-1.054688e-01	-1.054688e-01
14.173168	1.416752	dec_social_choice	1.416752	16.000000	n/a	8	2.688802e-01	2.688802e-01
14.173168	1.416752	dec_choice	1.416752	16.000000	n/a	8	2.695312e-01	2.695312e-01
14.173168	1.416752	dec_social_accept	1.416752	16.000000	n/a	8	2.688802e-01	2.688802e-01
14.173168	1.416752	dec_accept	1.416752	16.000000	n/a	8	2.695312e-01	2.695312e-01
14.173168	1.416752	dec_social_high	1.416752	16.000000	n/a	8	2.695312e-01	2.695312e-01
14.173168	1.416752	dec_social_accept_high	1.416752	16.000000	n/a	8	2.695312e-01	2.695312e-01
21.006950	1.465898	dec_social_choice	1.465898	32.000000	n/a	8	1.888021e-02	1.888021e-02
21.006950	1.465898	dec_choice	1.465898	32.000000	n/a	8	1.953125e-02	1.953125e-02
21.006950	1.465898	dec_social_accept	1.465898	32.000000	n/a	8	1.888021e-02	1.888021e-02
21.006950	1.465898	dec_accept	1.465898	32.000000	n/a	8	1.953125e-02	1.953125e-02
21.006950	1.465898	dec_social_accept_high	1.465898	32.000000	n/a	8	1.953125e-02	1.953125e-02
27.839123	1.084013	dec_social_choice	1.084013	16.000000	n/a	1	-1.686198e-01	-1.686198e-01
27.839123	1.084013	dec_choice	1.084013	16.000000	n/a	1	-1.679688e-01	-1.679688e-01
27.839123	1.084013	dec_social_accept	1.084013	16.000000	n/a	1	-1.686198e-01	-1.686198e-01
27.839123	1.084013	dec_accept	1.084013	16.000000	n/a	1	-1.679688e-01	-1.679688e-01
27.839123	1.084013	dec_social_accept_low	1.084013	16.000000	n/a	1	-1.679688e-01	-1.679688e-01
34.672500	1.283376	dec_social_choice	1.283376	32.000000	n/a	8	1.888021e-02	1.888021e-02
34.672500	1.283376	dec_choice	1.283376	32.000000	n/a	8	1.953125e-02	1.953125e-02
34.672500	1.283376	dec_social_accept	1.283376	32.000000	n/a	8	1.888021e-02	1.888021e-02
34.672500	1.283376	dec_accept	1.283376	32.000000	n/a	8	1.953125e-02	1.953125e-02
34.672500	1.283376	dec_social_high	1.283376	32.000000	n/a	8	1.953125e-02	1.953125e-02
34.672500	1.283376	dec_social_accept_high	1.283376	32.000000	n/a	8	1.953125e-02	1.953125e-02
42.322517	0.984031	dec_social_choice	0.984031	32.000000	n/a	8	1.888021e-02	1.888021e-02
42.322517	0.984031	dec_choice	0.984031	32.000000	n/a	8	1.953125e-02	1.953125e-02
42.322517	0.984031	dec_social_accept	0.984031	32.000000	n/a	8	1.888021e-02	1.888021e-02
42.322517	0.984031	dec_accept	0.984031	32.000000	n/a	8	1.953125e-02	1.953125e-02
42.322517	0.984031	dec_social_high	0.984031	32.000000	n/a	8	1.953125e-02	1.953125e-02
42.322517	0.984031	dec_social_accept_high	0.984031	32.000000	n/a	8	1.953125e-02	1.953125e-02
51.573300	1.050091	dec_social_choice	1.050091	32.000000	n/a	2	-1.686198e-01	-1.686198e-01
51.573300	1.050091	dec_choice	1.050091	32.000000	n/a	2	-1.679688e-01	-1.679688e-01
51.573300	1.050091	dec_social_accept	1.050091	32.000000	n/a	2	-1.686198e-01	-1.686198e-01
51.573300	1.050091	dec_accept	1.050091	32.000000	n/a	2	-1.679688e-01	-1.679688e-01
51.573300	1.050091	dec_social_low	1.050091	32.000000	n/a	2	-1.679688e-01	-1.679688e-01
51.573300	1.050091	dec_social_accept_low	1.050091	32.000000	n/a	2	-1.679688e-01	-1.679688e-01
58.406677	1.249972	dec_nonsocial_choice	1.249972	32.000000	n/a	16	2.688802e-01	2.688802e-01
58.406677	1.249972	dec_choice	1.249972	32.000000	n/a	16	2.682292e-01	2.682292e-01
58.406677	1.249972	dec_nonsocial_accept	1.249972	32.000000	n/a	16	2.688802e-01	2.688802e-01
58.406677	1.249972	dec_accept	1.249972	32.000000	n/a	16	2.682292e-01	2.682292e-01
58.406677	1.249972	dec_nonsocial_high	1.249972	32.000000	n/a	16	2.682292e-01	2.682292e-01
58.406677	1.249972	dec_nonsocial_accept_high	1.249972	32.000000	n/a	16	2.682292e-01	2.682292e-01
65.238930	1.450877	dec_social_choice	1.450877	32.000000	n/a	2	-1.686198e-01	-1.686198e-01
65.238930	1.450877	dec_choice	1.450877	32.000000	n/a	2	-1.679688e-01	-1.679688e-01
65.238930	1.450877	dec_social_accept	1.450877	32.000000	n/a	2	-1.686198e-01	-1.686198e-01
65.238930	1.450877	dec_accept	1.450877	32.000000	n/a	2	-1.679688e-01	-1.679688e-01
65.238930	1.450877	dec_social_low	1.450877	32.000000	n/a	2	-1.679688e-01	-1.679688e-01
65.238930	1.450877	dec_social_accept_low	1.450877	32.000000	n/a	2	-1.679688e-01	-1.679688e-01
74.490840	1.082477	dec_social_choice	1.082477	32.000000	n/a	3	-1.373698e-01	-1.373698e-01
74.490840	1.082477	dec_choice	1.082477	32.000000	n/a	3	-1.367188e-01	-1.367188e-01
74.490840	1.082477	dec_social_accept	1.082477	32.000000	n/a	3	-1.373698e-01	-1.373698e-01
74.490840	1.082477	dec_accept	1.082477	32.000000	n/a	3	-1.367188e-01	-1.367188e-01
74.490840	1.082477	dec_social_accept_low	1.082477	32.000000	n/a	3	-1.367188e-01	-1.367188e-01
82.140366	1.199444	dec_nonsocial_choice	1.199444	32.000000	n/a	2	-1.686198e-01	-1.686198e-01
82.140366	1.199444	dec_choice	1.199444	32.000000	n/a	2	-1.692708e-01	-1.692708e-01
82.140366	1.199444	dec_nonsocial_accept	1.199444	32.000000	n/a	2	-1.686198e-01	-1.686198e-01
82.140366	1.199444	dec_accept	1.199444	32.000000	n/a	2	-1.692708e-01	-1.692708e-01
82.140366	1.199444	dec_nonsocial_accept_low	1.199444	32.000000	n/a	2	-1.679688e-01	-1.679688e-01
88.973320	1.066126	dec_nonsocial_choice	1.066126	32.000000	n/a	16	2.688802e-01	2.688802e-01
88.973320	1.066126	dec_choice	1.066126	32.000000	n/a	16	2.682292e-01	2.682292e-01
88.973320	1.066126	dec_nonsocial_accept	1.066126	32.000000	n/a	16	2.688802e-01	2.688802e-01
88.973320	1.066126	dec_accept	1.066126	32.000000	n/a	16	2.682292e-01	2.682292e-01
88.973320	1.066126	dec_nonsocial_accept_high	1.066126	32.000000	n/a	16	2.695312e-01	2.695312e-01
95.806850	1.033100	dec_nonsocial_choice	1.033100	16.000000	n/a	2	-1.061198e-01	-1.061198e-01
95.806850	1.033100	dec_choice	1.033100	16.000000	n/a	2	-1.067708e-01	-1.067708e-01
95.806850	1.033100	dec_nonsocial_accept	1.033100	16.000000	n/a	2	-1.061198e-01	-1.061198e-01
95.806850	1.033100	dec_accept	1.033100	16.000000	n/a	2	-1.067708e-01	-1.067708e-01
95.806850	1.033100	dec_nonsocial_low	1.033100	16.000000	n/a	2	-1.067708e-01	-1.067708e-01
95.806850	1.033100	dec_nonsocial_accept_low	1.033100	16.000000	n/a	2	-1.067708e-01	-1.067708e-01
103.456760	1.099560	dec_nonsocial_choice	1.099560	32.000000	n/a	3	-1.373698e-01	-1.373698e-01
103.456760	1.099560	dec_choice	1.099560	32.000000	n/a	3	-1.380208e-01	-1.380208e-01
103.456760	1.099560	dec_nonsocial_accept	1.099560	32.000000	n/a	3	-1.373698e-01	-1.373698e-01
103.456760	1.099560	dec_accept	1.099560	32.000000	n/a	3	-1.380208e-01	-1.380208e-01
103.456760	1.099560	dec_nonsocial_accept_low	1.099560	32.000000	n/a	3	-1.367188e-01	-1.367188e-01
110.289795	1.099868	dec_nonsocial_choice	1.099868	32.000000	n/a	8	1.888021e-02	1.888021e-02
110.289795	1.099868	dec_choice	1.099868	32.000000	n/a	8	1.822917e-02	1.822917e-02
110.289795	1.099868	dec_nonsocial_accept	1.099868	32.000000	n/a	8	1.888021e-02	1.888021e-02
110.289795	1.099868	dec_accept	1.099868	32.000000	n/a	8	1.822917e-02	1.822917e-02
110.289795	1.099868	dec_nonsocial_accept_high	1.099868	32.000000	n/a	8	1.953125e-02	1.953125e-02
117.939900	1.215945	dec_nonsocial_choice	1.215945	16.000000	n/a	8	2.688802e-01	2.688802e-01
117.939900	1.215945	dec_choice	1.215945	16.000000	n/a	8	2.682292e-01	2.682292e-01
117.939900	1.215945	dec_nonsocial_accept	1.215945	16.000000	n/a	8	2.688802e-01	2.688802e-01
117.939900	1.215945	dec_accept	1.215945	16.000000	n/a	8	2.682292e-01	2.682292e-01
117.939900	1.215945	dec_nonsocial_accept_high	1.215945	16.000000	n/a	8	2.695312e-01	2.695312e-01
127.205925	1.266833	dec_nonsocial_choice	1.266833	32.000000	n/a	8	1.888021e-02	1.888021e-02
127.205925	1.266833	dec_choice	1.266833	32.000000	n/a	8	1.822917e-02	1.822917e-02
127.205925	1.266833	dec_nonsocial_accept	1.266833	32.000000	n/a	8	1.888021e-02	1.888021e-02
127.205925	1.266833	dec_accept	1.266833	32.000000	n/a	8	1.822917e-02	1.822917e-02
127.205925	1.266833	dec_nonsocial_high	1.266833	32.000000	n/a	8	1.822917e-02	1.822917e-02
127.205925	1.266833	dec_nonsocial_accept_high	1.266833	32.000000	n/a	8	1.822917e-02	1.822917e-02
138.072850	0.933543	dec_nonsocial_choice	0.933543	32.000000	n/a	16	2.688802e-01	2.688802e-01
138.072850	0.933543	dec_choice	0.933543	32.000000	n/a	16	2.682292e-01	2.682292e-01
138.072850	0.933543	dec_nonsocial_accept	0.933543	32.000000	n/a	16	2.688802e-01	2.688802e-01
138.072850	0.933543	dec_accept	0.933543	32.000000	n/a	16	2.682292e-01	2.682292e-01
138.072850	0.933543	dec_nonsocial_high	0.933543	32.000000	n/a	16	2.682292e-01	2.682292e-01
138.072850	0.933543	dec_nonsocial_accept_high	0.933543	32.000000	n/a	16	2.682292e-01	2.682292e-01
144.906900	1.099318	dec_nonsocial_choice	1.099318	16.000000	n/a	2	-1.061198e-01	-1.061198e-01
144.906900	1.099318	dec_choice	1.099318	16.000000	n/a	2	-1.067708e-01	-1.067708e-01
144.906900	1.099318	dec_nonsocial_accept	1.099318	16.000000	n/a	2	-1.061198e-01	-1.061198e-01
144.906900	1.099318	dec_accept	1.099318	16.000000	n/a	2	-1.067708e-01	-1.067708e-01
144.906900	1.099318	dec_nonsocial_accept_low	1.099318	16.000000	n/a	2	-1.054688e-01	-1.054688e-01
152.556920	1.033078	dec_nonsocial_choice	1.033078	32.000000	n/a	8	1.888021e-02	1.888021e-02
152.556920	1.033078	dec_choice	1.033078	32.000000	n/a	8	1.822917e-02	1.822917e-02
152.556920	1.033078	dec_nonsocial_accept	1.033078	32.000000	n/a	8	1.888021e-02	1.888021e-02
152.556920	1.033078	dec_accept	1.033078	32.000000	n/a	8	1.822917e-02	1.822917e-02
152.556920	1.033078	dec_nonsocial_accept_high	1.033078	32.000000	n/a	8	1.953125e-02	1.953125e-02
159.390000	1.082990	dec_nonsocial_choice	1.082990	16.000000	n/a	4	1.888021e-02	1.888021e-02
159.390000	1.082990	dec_choice	1.082990	16.000000	n/a	4	1.822917e-02	1.822917e-02
159.390000	1.082990	dec_nonsocial_accept	1.082990	16.000000	n/a	4	1.888021e-02	1.888021e-02
159.390000	1.082990	dec_accept	1.082990	16.000000	n/a	4	1.822917e-02	1.822917e-02
159.390000	1.082990	dec_nonsocial_high	1.082990	16.000000	n/a	4	1.822917e-02	1.822917e-02
159.390000	1.082990	dec_nonsocial_accept_high	1.082990	16.000000	n/a	4	1.822917e-02	1.822917e-02
170.256160	0.999924	dec_nonsocial_choice	0.999924	16.000000	n/a	2	-1.061198e-01	-1.061198e-01
170.256160	0.999924	dec_choice	0.999924	16.000000	n/a	2	-1.067708e-01	-1.067708e-01
170.256160	0.999924	dec_nonsocial_accept	0.999924	16.000000	n/a	2	-1.061198e-01	-1.061198e-01
170.256160	0.999924	dec_accept	0.999924	16.000000	n/a	2	-1.067708e-01	-1.067708e-01
170.256160	0.999924	dec_nonsocial_accept_low	0.999924	16.000000	n/a	2	-1.054688e-01	-1.054688e-01
177.907180	1.199156	dec_social_choice	1.199156	16.000000	n/a	4	1.888021e-02	1.888021e-02
177.907180	1.199156	dec_choice	1.199156	16.000000	n/a	4	1.953125e-02	1.953125e-02
177.907180	1.199156	dec_social_accept	1.199156	16.000000	n/a	4	1.888021e-02	1.888021e-02
177.907180	1.199156	dec_accept	1.199156	16.000000	n/a	4	1.953125e-02	1.953125e-02
177.907180	1.199156	dec_social_high	1.199156	16.000000	n/a	4	1.953125e-02	1.953125e-02
177.907180	1.199156	dec_social_accept_high	1.199156	16.000000	n/a	4	1.953125e-02	1.953125e-02
185.555980	1.050497	dec_nonsocial_choice	1.050497	32.000000	n/a	2	-1.686198e-01	-1.686198e-01
185.555980	1.050497	dec_choice	1.050497	32.000000	n/a	2	-1.692708e-01	-1.692708e-01
185.555980	1.050497	dec_nonsocial_accept	1.050497	32.000000	n/a	2	-1.686198e-01	-1.686198e-01
185.555980	1.050497	dec_accept	1.050497	32.000000	n/a	2	-1.692708e-01	-1.692708e-01
185.555980	1.050497	dec_nonsocial_accept_low	1.050497	32.000000	n/a	2	-1.679688e-01	-1.679688e-01
192.390690	1.049053	dec_social_choice	1.049053	32.000000	n/a	2	-1.686198e-01	-1.686198e-01
192.390690	1.049053	dec_choice	1.049053	32.000000	n/a	2	-1.679688e-01	-1.679688e-01
192.390690	1.049053	dec_social_accept	1.049053	32.000000	n/a	2	-1.686198e-01	-1.686198e-01
192.390690	1.049053	dec_accept	1.049053	32.000000	n/a	2	-1.679688e-01	-1.679688e-01
192.390690	1.049053	dec_social_low	1.049053	32.000000	n/a	2	-1.679688e-01	-1.679688e-01
192.390690	1.049053	dec_social_accept_low	1.049053	32.000000	n/a	2	-1.679688e-01	-1.679688e-01
199.223020	1.049960	dec_social_choice	1.049960	16.000000	n/a	4	1.888021e-02	1.888021e-02
199.223020	1.049960	dec_choice	1.049960	16.000000	n/a	4	1.953125e-02	1.953125e-02
199.223020	1.049960	dec_social_accept	1.049960	16.000000	n/a	4	1.888021e-02	1.888021e-02
199.223020	1.049960	dec_accept	1.049960	16.000000	n/a	4	1.953125e-02	1.953125e-02
199.223020	1.049960	dec_social_high	1.049960	16.000000	n/a	4	1.953125e-02	1.953125e-02
199.223020	1.049960	dec_social_accept_high	1.049960	16.000000	n/a	4	1.953125e-02	1.953125e-02
206.055450	0.700706	dec_nonsocial_choice	0.700706	16.000000	n/a	8	2.688802e-01	2.688802e-01
206.055450	0.700706	dec_choice	0.700706	16.000000	n/a	8	2.682292e-01	2.682292e-01
206.055450	0.700706	dec_nonsocial_accept	0.700706	16.000000	n/a	8	2.688802e-01	2.688802e-01
206.055450	0.700706	dec_accept	0.700706	16.000000	n/a	8	2.682292e-01	2.682292e-01
206.055450	0.700706	dec_nonsocial_high	0.700706	16.000000	n/a	8	2.682292e-01	2.682292e-01
206.055450	0.700706	dec_nonsocial_accept_high	0.700706	16.000000	n/a	8	2.682292e-01	2.682292e-01
212.889070	0.583463	dec_social_choice	0.583463	32.000000	n/a	16	2.688802e-01	2.688802e-01
212.889070	0.583463	dec_choice	0.583463	32.000000	n/a	16	2.695312e-01	2.695312e-01
212.889070	0.583463	dec_social_accept	0.583463	32.000000	n/a	16	2.688802e-01	2.688802e-01
212.889070	0.583463	dec_accept	0.583463	32.000000	n/a	16	2.695312e-01	2.695312e-01
212.889070	0.583463	dec_social_accept_high	0.583463	32.000000	n/a	16	2.695312e-01	2.695312e-01
219.722800	0.665942	dec_social_choice	0.665942	32.000000	n/a	16	2.688802e-01	2.688802e-01
219.722800	0.665942	dec_choice	0.665942	32.000000	n/a	16	2.695312e-01	2.695312e-01
219.722800	0.665942	dec_social_accept	0.665942	32.000000	n/a	16	2.688802e-01	2.688802e-01
219.722800	0.665942	dec_accept	0.665942	32.000000	n/a	16	2.695312e-01	2.695312e-01
219.722800	0.665942	dec_social_high	0.665942	32.000000	n/a	16	2.695312e-01	2.695312e-01
219.722800	0.665942	dec_social_accept_high	0.665942	32.000000	n/a	16	2.695312e-01	2.695312e-01
228.972700	0.866270	dec_nonsocial_choice	0.866270	32.000000	n/a	2	-1.686198e-01	-1.686198e-01
228.972700	0.866270	dec_choice	0.866270	32.000000	n/a	2	-1.692708e-01	-1.692708e-01
228.972700	0.866270	dec_nonsocial_accept	0.866270	32.000000	n/a	2	-1.686198e-01	-1.686198e-01
228.972700	0.866270	dec_accept	0.866270	32.000000	n/a	2	-1.692708e-01	-1.692708e-01
228.972700	0.866270	dec_nonsocial_low	0.866270	32.000000	n/a	2	-1.692708e-01	-1.692708e-01
228.972700	0.866270	dec_nonsocial_accept_low	0.866270	32.000000	n/a	2	-1.692708e-01	-1.692708e-01
238.221900	0.850808	dec_social_choice	0.850808	16.000000	n/a	2	-1.061198e-01	-1.061198e-01
238.221900	0.850808	dec_choice	0.850808	16.000000	n/a	2	-1.054688e-01	-1.054688e-01
238.221900	0.850808	dec_social_accept	0.850808	16.000000	n/a	2	-1.061198e-01	-1.061198e-01
238.221900	0.850808	dec_accept	0.850808	16.000000	n/a	2	-1.054688e-01	-1.054688e-01
238.221900	0.850808	dec_social_low	0.850808	16.000000	n/a	2	-1.054688e-01	-1.054688e-01
238.221900	0.850808	dec_social_accept_low	0.850808	16.000000	n/a	2	-1.054688e-01	-1.054688e-01
245.055590	0.866820	dec_social_choice	0.866820	16.000000	n/a	2	-1.061198e-01	-1.061198e-01
245.055590	0.866820	dec_choice	0.866820	16.000000	n/a	2	-1.054688e-01	-1.054688e-01
245.055590	0.866820	dec_social_accept	0.866820	16.000000	n/a	2	-1.061198e-01	-1.061198e-01
245.055590	0.866820	dec_accept	0.866820	16.000000	n/a	2	-1.054688e-01	-1.054688e-01
245.055590	0.866820	dec_social_low	0.866820	16.000000	n/a	2	-1.054688e-01	-1.054688e-01
245.055590	0.866820	dec_social_accept_low	0.866820	16.000000	n/a	2	-1.054688e-01	-1.054688e-01
255.923420	1.082671	dec_social_choice	1.082671	32.000000	n/a	3	-1.373698e-01	-1.373698e-01
255.923420	1.082671	dec_choice	1.082671	32.000000	n/a	3	-1.367188e-01	-1.367188e-01
255.923420	1.082671	dec_social_accept	1.082671	32.000000	n/a	3	-1.373698e-01	-1.373698e-01
255.923420	1.082671	dec_accept	1.082671	32.000000	n/a	3	-1.367188e-01	-1.367188e-01
255.923420	1.082671	dec_social_accept_low	1.082671	32.000000	n/a	3	-1.367188e-01	-1.367188e-01
262.755370	1.016880	dec_nonsocial_choice	1.016880	32.000000	n/a	16	2.688802e-01	2.688802e-01
262.755370	1.016880	dec_choice	1.016880	32.000000	n/a	16	2.682292e-01	2.682292e-01
262.755370	1.016880	dec_nonsocial_accept	1.016880	32.000000	n/a	16	2.688802e-01	2.688802e-01
262.755370	1.016880	dec_accept	1.016880	32.000000	n/a	16	2.682292e-01	2.682292e-01
262.755370	1.016880	dec_nonsocial_accept_high	1.016880	32.000000	n/a	16	2.695312e-01	2.695312e-01
269.589230	0.966319	dec_social_choice	0.966319	32.000000	n/a	2	-1.686198e-01	-1.686198e-01
269.589230	0.966319	dec_choice	0.966319	32.000000	n/a	2	-1.679688e-01	-1.679688e-01
269.589230	0.966319	dec_social_accept	0.966319	32.000000	n/a	2	-1.686198e-01	-1.686198e-01
269.589230	0.966319	dec_accept	0.966319	32.000000	n/a	2	-1.679688e-01	-1.679688e-01
269.589230	0.966319	dec_social_low	0.966319	32.000000	n/a	2	-1.679688e-01	-1.679688e-01
269.589230	0.966319	dec_social_accept_low	0.966319	32.000000	n/a	2	-1.679688e-01	-1.679688e-01
276.422030	0.850828	dec_social_choice	0.850828	16.000000	n/a	8	2.688802e-01	2.688802e-01
276.422030	0.850828	dec_choice	0.850828	16.000000	n/a	8	2.695312e-01	2.695312e-01
276.422030	0.850828	dec_social_accept	0.850828	16.000000	n/a	8	2.688802e-01	2.688802e-01
276.422030	0.850828	dec_accept	0.850828	16.000000	n/a	8	2.695312e-01	2.695312e-01
276.422030	0.850828	dec_social_accept_high	0.850828	16.000000	n/a	8	2.695312e-01	2.695312e-01
283.256130	0.765819	dec_social_choice	0.765819	32.000000	n/a	3	-1.373698e-01	-1.373698e-01
283.256130	0.765819	dec_choice	0.765819	32.000000	n/a	3	-1.367188e-01	-1.367188e-01
283.256130	0.765819	dec_social_accept	0.765819	32.000000	n/a	3	-1.373698e-01	-1.373698e-01
283.256130	0.765819	dec_accept	0.765819	32.000000	n/a	3	-1.367188e-01	-1.367188e-01
283.256130	0.765819	dec_social_low	0.765819	32.000000	n/a	3	-1.367188e-01	-1.367188e-01
283.256130	0.765819	dec_social_accept_low	0.765819	32.000000	n/a	3	-1.367188e-01	-1.367188e-01
290.905430	0.850525	dec_nonsocial_choice	0.850525	16.000000	n/a	2	-1.061198e-01	-1.061198e-01
290.905430	0.850525	dec_choice	0.850525	16.000000	n/a	2	-1.067708e-01	-1.067708e-01
290.905430	0.850525	dec_nonsocial_accept	0.850525	16.000000	n/a	2	-1.061198e-01	-1.061198e-01
290.905430	0.850525	dec_accept	0.850525	16.000000	n/a	2	-1.067708e-01	-1.067708e-01
290.905430	0.850525	dec_nonsocial_low	0.850525	16.000000	n/a	2	-1.067708e-01	-1.067708e-01
290.905430	0.850525	dec_nonsocial_accept_low	0.850525	16.000000	n/a	2	-1.067708e-01	-1.067708e-01
297.739750	1.082598	dec_social_choice	1.082598	16.000000	n/a	1	-1.686198e-01	-1.686198e-01
297.739750	1.082598	dec_choice	1.082598	16.000000	n/a	1	-1.679688e-01	-1.679688e-01
297.739750	1.082598	dec_social_accept	1.082598	16.000000	n/a	1	-1.686198e-01	-1.686198e-01
297.739750	1.082598	dec_accept	1.082598	16.000000	n/a	1	-1.679688e-01	-1.679688e-01
297.739750	1.082598	dec_social_low	1.082598	16.000000	n/a	1	-1.679688e-01	-1.679688e-01
297.739750	1.082598	dec_social_accept_low	1.082598	16.000000	n/a	1	-1.679688e-01	-1.679688e-01
305.390000	0.865520	dec_nonsocial_choice	0.865520	16.000000	n/a	1	-1.686198e-01	-1.686198e-01
305.390000	0.865520	dec_choice	0.865520	16.000000	n/a	1	-1.692708e-01	-1.692708e-01
305.390000	0.865520	dec_nonsocial_accept	0.865520	16.000000	n/a	1	-1.686198e-01	-1.686198e-01
305.390000	0.865520	dec_accept	0.865520	16.000000	n/a	1	-1.692708e-01	-1.692708e-01
305.390000	0.865520	dec_nonsocial_accept_low	0.865520	16.000000	n/a	1	-1.679688e-01	-1.679688e-01
313.039550	0.865876	dec_nonsocial_choice	0.865876	16.000000	n/a	4	1.888021e-02	1.888021e-02
313.039550	0.865876	dec_choice	0.865876	16.000000	n/a	4	1.822917e-02	1.822917e-02
313.039550	0.865876	dec_nonsocial_accept	0.865876	16.000000	n/a	4	1.888021e-02	1.888021e-02
313.039550	0.865876	dec_accept	0.865876	16.000000	n/a	4	1.822917e-02	1.822917e-02
313.039550	0.865876	dec_nonsocial_accept_high	0.865876	16.000000	n/a	4	1.953125e-02	1.953125e-02
325.522400	0.783083	dec_social_choice	0.783083	16.000000	n/a	8	2.688802e-01	2.688802e-01
325.522400	0.783083	dec_choice	0.783083	16.000000	n/a	8	2.695312e-01	2.695312e-01
325.522400	0.783083	dec_social_accept	0.783083	16.000000	n/a	8	2.688802e-01	2.688802e-01
325.522400	0.783083	dec_accept	0.783083	16.000000	n/a	8	2.695312e-01	2.695312e-01
325.522400	0.783083	dec_social_accept_high	0.783083	16.000000	n/a	8	2.695312e-01	2.695312e-01
332.355930	1.383123	dec_nonsocial_choice	1.383123	32.000000	n/a	3	-1.373698e-01	-1.373698e-01
332.355930	1.383123	dec_choice	1.383123	32.000000	n/a	3	-1.380208e-01	-1.380208e-01
332.355930	1.383123	dec_nonsocial_accept	1.383123	32.000000	n/a	3	-1.373698e-01	-1.373698e-01
332.355930	1.383123	dec_accept	1.383123	32.000000	n/a	3	-1.380208e-01	-1.380208e-01
332.355930	1.383123	dec_nonsocial_low	1.383123	32.000000	n/a	3	-1.380208e-01	-1.380208e-01
332.355930	1.383123	dec_nonsocial_accept_low	1.383123	32.000000	n/a	3	-1.380208e-01	-1.380208e-01
339.989720	1.099609	dec_social_choice	1.099609	32.000000	n/a	8	1.888021e-02	1.888021e-02
339.989720	1.099609	dec_choice	1.099609	32.000000	n/a	8	1.953125e-02	1.953125e-02
339.989720	1.099609	dec_social_accept	1.099609	32.000000	n/a	8	1.888021e-02	1.888021e-02
339.989720	1.099609	dec_accept	1.099609	32.000000	n/a	8	1.953125e-02	1.953125e-02
339.989720	1.099609	dec_social_accept_high	1.099609	32.000000	n/a	8	1.953125e-02	1.953125e-02
346.822900	1.415858	dec_nonsocial_choice	1.415858	16.000000	n/a	4	1.888021e-02	1.888021e-02
346.822900	1.415858	dec_choice	1.415858	16.000000	n/a	4	1.822917e-02	1.822917e-02
346.822900	1.415858	dec_nonsocial_accept	1.415858	16.000000	n/a	4	1.888021e-02	1.888021e-02
346.822900	1.415858	dec_accept	1.415858	16.000000	n/a	4	1.822917e-02	1.822917e-02
346.822900	1.415858	dec_nonsocial_accept_high	1.415858	16.000000	n/a	4	1.953125e-02	1.953125e-02
356.088800	1.133694	dec_social_choice	1.133694	32.000000	n/a	16	2.688802e-01	2.688802e-01
356.088800	1.133694	dec_choice	1.133694	32.000000	n/a	16	2.695312e-01	2.695312e-01
356.088800	1.133694	dec_social_accept	1.133694	32.000000	n/a	16	2.688802e-01	2.688802e-01
356.088800	1.133694	dec_accept	1.133694	32.000000	n/a	16	2.695312e-01	2.695312e-01
356.088800	1.133694	dec_social_accept_high	1.133694	32.000000	n/a	16	2.695312e-01	2.695312e-01
363.738830	0.850338	dec_nonsocial_choice	0.850338	16.000000	n/a	1	-1.686198e-01	-1.686198e-01
363.738830	0.850338	dec_choice	0.850338	16.000000	n/a	1	-1.692708e-01	-1.692708e-01
363.738830	0.850338	dec_nonsocial_accept	0.850338	16.000000	n/a	1	-1.686198e-01	-1.686198e-01
363.738830	0.850338	dec_accept	0.850338	16.000000	n/a	1	-1.692708e-01	-1.692708e-01
363.738830	0.850338	dec_nonsocial_accept_low	0.850338	16.000000	n/a	1	-1.679688e-01	-1.679688e-01
370.572750	0.899501	dec_nonsocial_choice	0.899501	16.000000	n/a	1	-1.686198e-01	-1.686198e-01
370.572750	0.899501	dec_choice	0.899501	16.000000	n/a	1	-1.692708e-01	-1.692708e-01
370.572750	0.899501	dec_nonsocial_accept	0.899501	16.000000	n/a	1	-1.686198e-01	-1.686198e-01
370.572750	0.899501	dec_accept	0.899501	16.000000	n/a	1	-1.692708e-01	-1.692708e-01
370.572750	0.899501	dec_nonsocial_low	0.899501	16.000000	n/a	1	-1.692708e-01	-1.692708e-01
370.572750	0.899501	dec_nonsocial_accept_low	0.899501	16.000000	n/a	1	-1.692708e-01	-1.692708e-01
