onset	duration	trial_type	response_time	Endowment	Endowment_pmod	Decision	Decision_pmod	Offer_pmod
4.622298	2	cue_social	n/a	16	-9	n/a	n/a	n/a
4.622298	2	cue_social_low	n/a	16	-9	n/a	n/a	n/a
12.161288	2	cue_nonsocial	n/a	32	7	n/a	n/a	n/a
12.161288	2	cue_nonsocial_high	n/a	32	7	n/a	n/a	n/a
19.051163	2	cue_social	n/a	32	7	n/a	n/a	n/a
19.051163	2	cue_social_high	n/a	32	7	n/a	n/a	n/a
25.827791	2	cue_nonsocial	n/a	16	-9	n/a	n/a	n/a
25.827791	2	cue_nonsocial_low	n/a	16	-9	n/a	n/a	n/a
32.661575	2	cue_nonsocial	n/a	16	-9	n/a	n/a	n/a
32.661575	2	cue_nonsocial_low	n/a	16	-9	n/a	n/a	n/a
40.369670	2	cue_social	n/a	16	-9	n/a	n/a	n/a
40.369670	2	cue_social_low	n/a	16	-9	n/a	n/a	n/a
47.144775	2	cue_nonsocial	n/a	32	7	n/a	n/a	n/a
47.144775	2	cue_nonsocial_high	n/a	32	7	n/a	n/a	n/a
54.842278	2	cue_social	n/a	16	-9	n/a	n/a	n/a
54.842278	2	cue_social_low	n/a	16	-9	n/a	n/a	n/a
62.498123	2	cue_social	n/a	32	7	n/a	n/a	n/a
62.498123	2	cue_social_high	n/a	32	7	n/a	n/a	n/a
73.311530	2	cue_nonsocial	n/a	32	7	n/a	n/a	n/a
73.311530	2	cue_nonsocial_high	n/a	32	7	n/a	n/a	n/a
85.860600	2	cue_social	n/a	32	7	n/a	n/a	n/a
85.860600	2	cue_social_high	n/a	32	7	n/a	n/a	n/a
92.674800	2	cue_social	n/a	32	7	n/a	n/a	n/a
92.674800	2	cue_social_high	n/a	32	7	n/a	n/a	n/a
101.929110	2	cue_social	n/a	32	7	n/a	n/a	n/a
101.929110	2	cue_social_high	n/a	32	7	n/a	n/a	n/a
108.750730	2	cue_social	n/a	16	-9	n/a	n/a	n/a
108.750730	2	cue_social_low	n/a	16	-9	n/a	n/a	n/a
115.544624	2	cue_nonsocial	n/a	16	-9	n/a	n/a	n/a
115.544624	2	cue_nonsocial_low	n/a	16	-9	n/a	n/a	n/a
122.378220	2	cue_nonsocial	n/a	32	7	n/a	n/a	n/a
122.378220	2	cue_nonsocial_high	n/a	32	7	n/a	n/a	n/a
129.289410	2	cue_social	n/a	16	-9	n/a	n/a	n/a
129.289410	2	cue_social_low	n/a	16	-9	n/a	n/a	n/a
136.044750	2	cue_nonsocial	n/a	16	-9	n/a	n/a	n/a
136.044750	2	cue_nonsocial_low	n/a	16	-9	n/a	n/a	n/a
142.939640	2	cue_social	n/a	16	-9	n/a	n/a	n/a
142.939640	2	cue_social_low	n/a	16	-9	n/a	n/a	n/a
152.199750	2	cue_social	n/a	32	7	n/a	n/a	n/a
152.199750	2	cue_social_high	n/a	32	7	n/a	n/a	n/a
161.377820	2	cue_nonsocial	n/a	32	7	n/a	n/a	n/a
161.377820	2	cue_nonsocial_high	n/a	32	7	n/a	n/a	n/a
168.267010	2	cue_social	n/a	16	-9	n/a	n/a	n/a
168.267010	2	cue_social_low	n/a	16	-9	n/a	n/a	n/a
175.044400	2	cue_nonsocial	n/a	16	-9	n/a	n/a	n/a
175.044400	2	cue_nonsocial_low	n/a	16	-9	n/a	n/a	n/a
182.694380	2	cue_nonsocial	n/a	32	7	n/a	n/a	n/a
182.694380	2	cue_nonsocial_high	n/a	32	7	n/a	n/a	n/a
190.390460	2	cue_social	n/a	32	7	n/a	n/a	n/a
190.390460	2	cue_social_high	n/a	32	7	n/a	n/a	n/a
197.276260	2	cue_social	n/a	32	7	n/a	n/a	n/a
197.276260	2	cue_social_high	n/a	32	7	n/a	n/a	n/a
206.427730	2	cue_nonsocial	n/a	32	7	n/a	n/a	n/a
206.427730	2	cue_nonsocial_high	n/a	32	7	n/a	n/a	n/a
214.133850	2	cue_social	n/a	16	-9	n/a	n/a	n/a
214.133850	2	cue_social_low	n/a	16	-9	n/a	n/a	n/a
223.327820	2	cue_nonsocial	n/a	32	7	n/a	n/a	n/a
223.327820	2	cue_nonsocial_high	n/a	32	7	n/a	n/a	n/a
230.218890	2	cue_social	n/a	16	-9	n/a	n/a	n/a
230.218890	2	cue_social_low	n/a	16	-9	n/a	n/a	n/a
237.076890	2	cue_social	n/a	32	7	n/a	n/a	n/a
237.076890	2	cue_social_high	n/a	32	7	n/a	n/a	n/a
244.644290	2	cue_nonsocial	n/a	32	7	n/a	n/a	n/a
244.644290	2	cue_nonsocial_high	n/a	32	7	n/a	n/a	n/a
252.277730	2	cue_nonsocial	n/a	16	-9	n/a	n/a	n/a
252.277730	2	cue_nonsocial_low	n/a	16	-9	n/a	n/a	n/a
259.110870	2	cue_nonsocial	n/a	16	-9	n/a	n/a	n/a
259.110870	2	cue_nonsocial_low	n/a	16	-9	n/a	n/a	n/a
266.761050	2	cue_nonsocial	n/a	16	-9	n/a	n/a	n/a
266.761050	2	cue_nonsocial_low	n/a	16	-9	n/a	n/a	n/a
273.594240	2	cue_nonsocial	n/a	16	-9	n/a	n/a	n/a
273.594240	2	cue_nonsocial_low	n/a	16	-9	n/a	n/a	n/a
280.427640	2	cue_nonsocial	n/a	32	7	n/a	n/a	n/a
280.427640	2	cue_nonsocial_high	n/a	32	7	n/a	n/a	n/a
287.261100	2	cue_nonsocial	n/a	32	7	n/a	n/a	n/a
287.261100	2	cue_nonsocial_high	n/a	32	7	n/a	n/a	n/a
296.560360	2	cue_social	n/a	32	7	n/a	n/a	n/a
296.560360	2	cue_social_high	n/a	32	7	n/a	n/a	n/a
303.403780	2	cue_social	n/a	16	-9	n/a	n/a	n/a
303.403780	2	cue_social_low	n/a	16	-9	n/a	n/a	n/a
311.076900	2	cue_social	n/a	32	7	n/a	n/a	n/a
311.076900	2	cue_social_high	n/a	32	7	n/a	n/a	n/a
318.644130	2	cue_nonsocial	n/a	32	7	n/a	n/a	n/a
318.644130	2	cue_nonsocial_high	n/a	32	7	n/a	n/a	n/a
329.510800	2	cue_nonsocial	n/a	32	7	n/a	n/a	n/a
329.510800	2	cue_nonsocial_high	n/a	32	7	n/a	n/a	n/a
336.366600	2	cue_social	n/a	32	7	n/a	n/a	n/a
336.366600	2	cue_social_high	n/a	32	7	n/a	n/a	n/a
343.177300	2	cue_nonsocial	n/a	16	-9	n/a	n/a	n/a
343.177300	2	cue_nonsocial_low	n/a	16	-9	n/a	n/a	n/a
350.827550	2	cue_nonsocial	n/a	16	-9	n/a	n/a	n/a
350.827550	2	cue_nonsocial_low	n/a	16	-9	n/a	n/a	n/a
360.158260	2	cue_social	n/a	32	7	n/a	n/a	n/a
360.158260	2	cue_social_high	n/a	32	7	n/a	n/a	n/a
366.981900	2	cue_social	n/a	16	-9	n/a	n/a	n/a
366.981900	2	cue_social_low	n/a	16	-9	n/a	n/a	n/a
6.518856	1.065292	dec_social_choice	1.065292	16.000000	n/a	1	-1.660156e-01	-1.660156e-01
6.518856	1.065292	dec_choice	1.065292	16.000000	n/a	1	-1.666667e-01	-1.666667e-01
6.518856	1.065292	dec_social_accept	1.065292	16.000000	n/a	1	-1.660156e-01	-1.660156e-01
6.518856	1.065292	dec_accept	1.065292	16.000000	n/a	1	-1.666667e-01	-1.666667e-01
6.518856	1.065292	dec_social_accept_low	1.065292	16.000000	n/a	1	-1.666667e-01	-1.666667e-01
14.168079	0.916203	dec_nonsocial_choice	0.916203	32.000000	n/a	3	-1.347656e-01	-1.347656e-01
14.168079	0.916203	dec_choice	0.916203	32.000000	n/a	3	-1.341146e-01	-1.341146e-01
14.168079	0.916203	dec_nonsocial_accept	0.916203	32.000000	n/a	3	-1.347656e-01	-1.347656e-01
14.168079	0.916203	dec_accept	0.916203	32.000000	n/a	3	-1.341146e-01	-1.341146e-01
14.168079	0.916203	dec_nonsocial_accept_low	0.916203	32.000000	n/a	3	-1.354167e-01	-1.354167e-01
21.001420	1.250021	dec_social_choice	1.250021	32.000000	n/a	8	2.148438e-02	2.148438e-02
21.001420	1.250021	dec_choice	1.250021	32.000000	n/a	8	2.083333e-02	2.083333e-02
21.001420	1.250021	dec_social_accept	1.250021	32.000000	n/a	8	2.148438e-02	2.148438e-02
21.001420	1.250021	dec_accept	1.250021	32.000000	n/a	8	2.083333e-02	2.083333e-02
21.001420	1.250021	dec_social_high	1.250021	32.000000	n/a	8	2.083333e-02	2.083333e-02
21.001420	1.250021	dec_social_accept_high	1.250021	32.000000	n/a	8	2.083333e-02	2.083333e-02
27.834688	0.999954	dec_nonsocial_choice	0.999954	16.000000	n/a	1	-1.660156e-01	-1.660156e-01
27.834688	0.999954	dec_choice	0.999954	16.000000	n/a	1	-1.653646e-01	-1.653646e-01
27.834688	0.999954	dec_nonsocial_accept	0.999954	16.000000	n/a	1	-1.660156e-01	-1.660156e-01
27.834688	0.999954	dec_accept	0.999954	16.000000	n/a	1	-1.653646e-01	-1.653646e-01
27.834688	0.999954	dec_nonsocial_low	0.999954	16.000000	n/a	1	-1.653646e-01	-1.653646e-01
27.834688	0.999954	dec_nonsocial_accept_low	0.999954	16.000000	n/a	1	-1.653646e-01	-1.653646e-01
34.668045	1.499945	dec_nonsocial_choice	1.499945	16.000000	n/a	1	-1.660156e-01	-1.660156e-01
34.668045	1.499945	dec_choice	1.499945	16.000000	n/a	1	-1.653646e-01	-1.653646e-01
34.668045	1.499945	dec_nonsocial_accept	1.499945	16.000000	n/a	1	-1.660156e-01	-1.660156e-01
34.668045	1.499945	dec_accept	1.499945	16.000000	n/a	1	-1.653646e-01	-1.653646e-01
34.668045	1.499945	dec_nonsocial_accept_low	1.499945	16.000000	n/a	1	-1.666667e-01	-1.666667e-01
42.318280	1.349679	dec_social_choice	1.349679	16.000000	n/a	2	-1.035156e-01	-1.035156e-01
42.318280	1.349679	dec_choice	1.349679	16.000000	n/a	2	-1.041667e-01	-1.041667e-01
42.318280	1.349679	dec_social_accept	1.349679	16.000000	n/a	2	-1.035156e-01	-1.035156e-01
42.318280	1.349679	dec_accept	1.349679	16.000000	n/a	2	-1.041667e-01	-1.041667e-01
42.318280	1.349679	dec_social_accept_low	1.349679	16.000000	n/a	2	-1.041667e-01	-1.041667e-01
49.152336	1.082259	dec_nonsocial_choice	1.082259	32.000000	n/a	2	-1.660156e-01	-1.660156e-01
49.152336	1.082259	dec_choice	1.082259	32.000000	n/a	2	-1.653646e-01	-1.653646e-01
49.152336	1.082259	dec_nonsocial_accept	1.082259	32.000000	n/a	2	-1.660156e-01	-1.660156e-01
49.152336	1.082259	dec_accept	1.082259	32.000000	n/a	2	-1.653646e-01	-1.653646e-01
49.152336	1.082259	dec_nonsocial_accept_low	1.082259	32.000000	n/a	2	-1.666667e-01	-1.666667e-01
56.800667	1.083900	dec_social_choice	1.083900	16.000000	n/a	8	2.714844e-01	2.714844e-01
56.800667	1.083900	dec_choice	1.083900	16.000000	n/a	8	2.708333e-01	2.708333e-01
56.800667	1.083900	dec_social_accept	1.083900	16.000000	n/a	8	2.714844e-01	2.714844e-01
56.800667	1.083900	dec_accept	1.083900	16.000000	n/a	8	2.708333e-01	2.708333e-01
56.800667	1.083900	dec_social_high	1.083900	16.000000	n/a	8	2.708333e-01	2.708333e-01
56.800667	1.083900	dec_social_accept_high	1.083900	16.000000	n/a	8	2.708333e-01	2.708333e-01
64.451490	0.799798	dec_social_choice	0.799798	32.000000	n/a	8	2.148438e-02	2.148438e-02
64.451490	0.799798	dec_choice	0.799798	32.000000	n/a	8	2.083333e-02	2.083333e-02
64.451490	0.799798	dec_social_accept	0.799798	32.000000	n/a	8	2.148438e-02	2.148438e-02
64.451490	0.799798	dec_accept	0.799798	32.000000	n/a	8	2.083333e-02	2.083333e-02
64.451490	0.799798	dec_social_accept_high	0.799798	32.000000	n/a	8	2.083333e-02	2.083333e-02
75.317830	0.916186	dec_nonsocial_choice	0.916186	32.000000	n/a	8	2.148438e-02	2.148438e-02
75.317830	0.916186	dec_choice	0.916186	32.000000	n/a	8	2.213542e-02	2.213542e-02
75.317830	0.916186	dec_nonsocial_accept	0.916186	32.000000	n/a	8	2.148438e-02	2.148438e-02
75.317830	0.916186	dec_accept	0.916186	32.000000	n/a	8	2.213542e-02	2.213542e-02
75.317830	0.916186	dec_nonsocial_high	0.916186	32.000000	n/a	8	2.213542e-02	2.213542e-02
75.317830	0.916186	dec_nonsocial_accept_high	0.916186	32.000000	n/a	8	2.213542e-02	2.213542e-02
87.801990	1.065492	dec_social_choice	1.065492	32.000000	n/a	2	-1.660156e-01	-1.660156e-01
87.801990	1.065492	dec_choice	1.065492	32.000000	n/a	2	-1.666667e-01	-1.666667e-01
87.801990	1.065492	dec_social_accept	1.065492	32.000000	n/a	2	-1.660156e-01	-1.660156e-01
87.801990	1.065492	dec_accept	1.065492	32.000000	n/a	2	-1.666667e-01	-1.666667e-01
87.801990	1.065492	dec_social_low	1.065492	32.000000	n/a	2	-1.666667e-01	-1.666667e-01
87.801990	1.065492	dec_social_accept_low	1.065492	32.000000	n/a	2	-1.666667e-01	-1.666667e-01
94.634445	0.933192	dec_social_choice	0.933192	32.000000	n/a	16	2.714844e-01	2.714844e-01
94.634445	0.933192	dec_choice	0.933192	32.000000	n/a	16	2.708333e-01	2.708333e-01
94.634445	0.933192	dec_social_accept	0.933192	32.000000	n/a	16	2.714844e-01	2.714844e-01
94.634445	0.933192	dec_accept	0.933192	32.000000	n/a	16	2.708333e-01	2.708333e-01
94.634445	0.933192	dec_social_high	0.933192	32.000000	n/a	16	2.708333e-01	2.708333e-01
94.634445	0.933192	dec_social_accept_high	0.933192	32.000000	n/a	16	2.708333e-01	2.708333e-01
103.884100	1.200576	dec_social_choice	1.200576	32.000000	n/a	2	-1.660156e-01	-1.660156e-01
103.884100	1.200576	dec_choice	1.200576	32.000000	n/a	2	-1.666667e-01	-1.666667e-01
103.884100	1.200576	dec_social_accept	1.200576	32.000000	n/a	2	-1.660156e-01	-1.660156e-01
103.884100	1.200576	dec_accept	1.200576	32.000000	n/a	2	-1.666667e-01	-1.666667e-01
103.884100	1.200576	dec_social_accept_low	1.200576	32.000000	n/a	2	-1.666667e-01	-1.666667e-01
110.716950	1.000768	dec_social_choice	1.000768	16.000000	n/a	8	2.714844e-01	2.714844e-01
110.716950	1.000768	dec_choice	1.000768	16.000000	n/a	8	2.708333e-01	2.708333e-01
110.716950	1.000768	dec_social_accept	1.000768	16.000000	n/a	8	2.714844e-01	2.714844e-01
110.716950	1.000768	dec_accept	1.000768	16.000000	n/a	8	2.708333e-01	2.708333e-01
110.716950	1.000768	dec_social_accept_high	1.000768	16.000000	n/a	8	2.708333e-01	2.708333e-01
117.550705	1.150502	dec_nonsocial_choice	1.150502	16.000000	n/a	4	2.148438e-02	2.148438e-02
117.550705	1.150502	dec_choice	1.150502	16.000000	n/a	4	2.213542e-02	2.213542e-02
117.550705	1.150502	dec_nonsocial_accept	1.150502	16.000000	n/a	4	2.148438e-02	2.148438e-02
117.550705	1.150502	dec_accept	1.150502	16.000000	n/a	4	2.213542e-02	2.213542e-02
117.550705	1.150502	dec_nonsocial_high	1.150502	16.000000	n/a	4	2.213542e-02	2.213542e-02
117.550705	1.150502	dec_nonsocial_accept_high	1.150502	16.000000	n/a	4	2.213542e-02	2.213542e-02
124.385000	0.815837	dec_nonsocial_choice	0.815837	32.000000	n/a	16	2.714844e-01	2.714844e-01
124.385000	0.815837	dec_choice	0.815837	32.000000	n/a	16	2.721354e-01	2.721354e-01
124.385000	0.815837	dec_nonsocial_accept	0.815837	32.000000	n/a	16	2.714844e-01	2.714844e-01
124.385000	0.815837	dec_accept	0.815837	32.000000	n/a	16	2.721354e-01	2.721354e-01
124.385000	0.815837	dec_nonsocial_accept_high	0.815837	32.000000	n/a	16	2.708333e-01	2.708333e-01
131.217380	0.850366	dec_social_choice	0.850366	16.000000	n/a	2	-1.035156e-01	-1.035156e-01
131.217380	0.850366	dec_choice	0.850366	16.000000	n/a	2	-1.041667e-01	-1.041667e-01
131.217380	0.850366	dec_social_accept	0.850366	16.000000	n/a	2	-1.035156e-01	-1.035156e-01
131.217380	0.850366	dec_accept	0.850366	16.000000	n/a	2	-1.041667e-01	-1.041667e-01
131.217380	0.850366	dec_social_low	0.850366	16.000000	n/a	2	-1.041667e-01	-1.041667e-01
131.217380	0.850366	dec_social_accept_low	0.850366	16.000000	n/a	2	-1.041667e-01	-1.041667e-01
138.051880	0.915270	dec_nonsocial_choice	0.915270	16.000000	n/a	8	2.714844e-01	2.714844e-01
138.051880	0.915270	dec_choice	0.915270	16.000000	n/a	8	2.721354e-01	2.721354e-01
138.051880	0.915270	dec_nonsocial_accept	0.915270	16.000000	n/a	8	2.714844e-01	2.714844e-01
138.051880	0.915270	dec_accept	0.915270	16.000000	n/a	8	2.721354e-01	2.721354e-01
138.051880	0.915270	dec_nonsocial_high	0.915270	16.000000	n/a	8	2.721354e-01	2.721354e-01
138.051880	0.915270	dec_nonsocial_accept_high	0.915270	16.000000	n/a	8	2.721354e-01	2.721354e-01
144.884250	1.016447	dec_social_choice	1.016447	16.000000	n/a	8	2.714844e-01	2.714844e-01
144.884250	1.016447	dec_choice	1.016447	16.000000	n/a	8	2.708333e-01	2.708333e-01
144.884250	1.016447	dec_social_accept	1.016447	16.000000	n/a	8	2.714844e-01	2.714844e-01
144.884250	1.016447	dec_accept	1.016447	16.000000	n/a	8	2.708333e-01	2.708333e-01
144.884250	1.016447	dec_social_high	1.016447	16.000000	n/a	8	2.708333e-01	2.708333e-01
144.884250	1.016447	dec_social_accept_high	1.016447	16.000000	n/a	8	2.708333e-01	2.708333e-01
154.133970	1.117320	dec_social_choice	1.117320	32.000000	n/a	3	-1.347656e-01	-1.347656e-01
154.133970	1.117320	dec_choice	1.117320	32.000000	n/a	3	-1.354167e-01	-1.354167e-01
154.133970	1.117320	dec_social_accept	1.117320	32.000000	n/a	3	-1.347656e-01	-1.347656e-01
154.133970	1.117320	dec_accept	1.117320	32.000000	n/a	3	-1.354167e-01	-1.354167e-01
154.133970	1.117320	dec_social_accept_low	1.117320	32.000000	n/a	3	-1.354167e-01	-1.354167e-01
163.384030	0.900387	dec_nonsocial_choice	0.900387	32.000000	n/a	3	-1.347656e-01	-1.347656e-01
163.384030	0.900387	dec_choice	0.900387	32.000000	n/a	3	-1.341146e-01	-1.341146e-01
163.384030	0.900387	dec_nonsocial_accept	0.900387	32.000000	n/a	3	-1.347656e-01	-1.347656e-01
163.384030	0.900387	dec_accept	0.900387	32.000000	n/a	3	-1.341146e-01	-1.341146e-01
163.384030	0.900387	dec_nonsocial_accept_low	0.900387	32.000000	n/a	3	-1.354167e-01	-1.354167e-01
170.217960	0.683015	dec_social_choice	0.683015	16.000000	n/a	8	2.714844e-01	2.714844e-01
170.217960	0.683015	dec_choice	0.683015	16.000000	n/a	8	2.708333e-01	2.708333e-01
170.217960	0.683015	dec_social_accept	0.683015	16.000000	n/a	8	2.714844e-01	2.714844e-01
170.217960	0.683015	dec_accept	0.683015	16.000000	n/a	8	2.708333e-01	2.708333e-01
170.217960	0.683015	dec_social_accept_high	0.683015	16.000000	n/a	8	2.708333e-01	2.708333e-01
177.050380	1.134656	dec_nonsocial_choice	1.134656	16.000000	n/a	4	2.148438e-02	2.148438e-02
177.050380	1.134656	dec_choice	1.134656	16.000000	n/a	4	2.213542e-02	2.213542e-02
177.050380	1.134656	dec_nonsocial_accept	1.134656	16.000000	n/a	4	2.148438e-02	2.148438e-02
177.050380	1.134656	dec_accept	1.134656	16.000000	n/a	4	2.213542e-02	2.213542e-02
177.050380	1.134656	dec_nonsocial_high	1.134656	16.000000	n/a	4	2.213542e-02	2.213542e-02
177.050380	1.134656	dec_nonsocial_accept_high	1.134656	16.000000	n/a	4	2.213542e-02	2.213542e-02
184.700130	1.167146	dec_nonsocial_choice	1.167146	32.000000	n/a	3	-1.347656e-01	-1.347656e-01
184.700130	1.167146	dec_choice	1.167146	32.000000	n/a	3	-1.341146e-01	-1.341146e-01
184.700130	1.167146	dec_nonsocial_accept	1.167146	32.000000	n/a	3	-1.347656e-01	-1.347656e-01
184.700130	1.167146	dec_accept	1.167146	32.000000	n/a	3	-1.341146e-01	-1.341146e-01
184.700130	1.167146	dec_nonsocial_accept_low	1.167146	32.000000	n/a	3	-1.354167e-01	-1.354167e-01
192.350130	1.134201	dec_social_choice	1.134201	32.000000	n/a	8	2.148438e-02	2.148438e-02
192.350130	1.134201	dec_choice	1.134201	32.000000	n/a	8	2.083333e-02	2.083333e-02
192.350130	1.134201	dec_social_accept	1.134201	32.000000	n/a	8	2.148438e-02	2.148438e-02
192.350130	1.134201	dec_accept	1.134201	32.000000	n/a	8	2.083333e-02	2.083333e-02
192.350130	1.134201	dec_social_high	1.134201	32.000000	n/a	8	2.083333e-02	2.083333e-02
192.350130	1.134201	dec_social_accept_high	1.134201	32.000000	n/a	8	2.083333e-02	2.083333e-02
199.184650	0.882970	dec_social_choice	0.882970	32.000000	n/a	3	-1.347656e-01	-1.347656e-01
199.184650	0.882970	dec_choice	0.882970	32.000000	n/a	3	-1.354167e-01	-1.354167e-01
199.184650	0.882970	dec_social_accept	0.882970	32.000000	n/a	3	-1.347656e-01	-1.347656e-01
199.184650	0.882970	dec_accept	0.882970	32.000000	n/a	3	-1.354167e-01	-1.354167e-01
199.184650	0.882970	dec_social_low	0.882970	32.000000	n/a	3	-1.354167e-01	-1.354167e-01
199.184650	0.882970	dec_social_accept_low	0.882970	32.000000	n/a	3	-1.354167e-01	-1.354167e-01
208.435360	1.065167	dec_nonsocial_choice	1.065167	32.000000	n/a	3	-1.347656e-01	-1.347656e-01
208.435360	1.065167	dec_choice	1.065167	32.000000	n/a	3	-1.341146e-01	-1.341146e-01
208.435360	1.065167	dec_nonsocial_accept	1.065167	32.000000	n/a	3	-1.347656e-01	-1.347656e-01
208.435360	1.065167	dec_accept	1.065167	32.000000	n/a	3	-1.341146e-01	-1.341146e-01
208.435360	1.065167	dec_nonsocial_accept_low	1.065167	32.000000	n/a	3	-1.354167e-01	-1.354167e-01
216.084030	1.100036	dec_social_choice	1.100036	16.000000	n/a	8	2.714844e-01	2.714844e-01
216.084030	1.100036	dec_choice	1.100036	16.000000	n/a	8	2.708333e-01	2.708333e-01
216.084030	1.100036	dec_social_accept	1.100036	16.000000	n/a	8	2.714844e-01	2.714844e-01
216.084030	1.100036	dec_accept	1.100036	16.000000	n/a	8	2.708333e-01	2.708333e-01
216.084030	1.100036	dec_social_high	1.100036	16.000000	n/a	8	2.708333e-01	2.708333e-01
216.084030	1.100036	dec_social_accept_high	1.100036	16.000000	n/a	8	2.708333e-01	2.708333e-01
225.334960	0.915452	dec_nonsocial_choice	0.915452	32.000000	n/a	16	2.714844e-01	2.714844e-01
225.334960	0.915452	dec_choice	0.915452	32.000000	n/a	16	2.721354e-01	2.721354e-01
225.334960	0.915452	dec_nonsocial_accept	0.915452	32.000000	n/a	16	2.714844e-01	2.714844e-01
225.334960	0.915452	dec_accept	0.915452	32.000000	n/a	16	2.721354e-01	2.721354e-01
225.334960	0.915452	dec_nonsocial_accept_high	0.915452	32.000000	n/a	16	2.708333e-01	2.708333e-01
232.168470	0.982321	dec_social_choice	0.982321	16.000000	n/a	4	2.148438e-02	2.148438e-02
232.168470	0.982321	dec_choice	0.982321	16.000000	n/a	4	2.083333e-02	2.083333e-02
232.168470	0.982321	dec_social_accept	0.982321	16.000000	n/a	4	2.148438e-02	2.148438e-02
232.168470	0.982321	dec_accept	0.982321	16.000000	n/a	4	2.083333e-02	2.083333e-02
232.168470	0.982321	dec_social_high	0.982321	16.000000	n/a	4	2.083333e-02	2.083333e-02
232.168470	0.982321	dec_social_accept_high	0.982321	16.000000	n/a	4	2.083333e-02	2.083333e-02
239.000810	0.699965	dec_social_choice	0.699965	32.000000	n/a	2	-1.660156e-01	-1.660156e-01
239.000810	0.699965	dec_choice	0.699965	32.000000	n/a	2	-1.666667e-01	-1.666667e-01
239.000810	0.699965	dec_social_accept	0.699965	32.000000	n/a	2	-1.660156e-01	-1.660156e-01
239.000810	0.699965	dec_accept	0.699965	32.000000	n/a	2	-1.666667e-01	-1.666667e-01
239.000810	0.699965	dec_social_low	0.699965	32.000000	n/a	2	-1.666667e-01	-1.666667e-01
239.000810	0.699965	dec_social_accept_low	0.699965	32.000000	n/a	2	-1.666667e-01	-1.666667e-01
246.650800	0.883439	dec_nonsocial_choice	0.883439	32.000000	n/a	8	2.148438e-02	2.148438e-02
246.650800	0.883439	dec_choice	0.883439	32.000000	n/a	8	2.213542e-02	2.213542e-02
246.650800	0.883439	dec_nonsocial_accept	0.883439	32.000000	n/a	8	2.148438e-02	2.148438e-02
246.650800	0.883439	dec_accept	0.883439	32.000000	n/a	8	2.213542e-02	2.213542e-02
246.650800	0.883439	dec_nonsocial_accept_high	0.883439	32.000000	n/a	8	2.083333e-02	2.083333e-02
254.284560	1.282702	dec_nonsocial_choice	1.282702	16.000000	n/a	1	-1.660156e-01	-1.660156e-01
254.284560	1.282702	dec_choice	1.282702	16.000000	n/a	1	-1.653646e-01	-1.653646e-01
254.284560	1.282702	dec_nonsocial_accept	1.282702	16.000000	n/a	1	-1.660156e-01	-1.660156e-01
254.284560	1.282702	dec_accept	1.282702	16.000000	n/a	1	-1.653646e-01	-1.653646e-01
254.284560	1.282702	dec_nonsocial_low	1.282702	16.000000	n/a	1	-1.653646e-01	-1.653646e-01
254.284560	1.282702	dec_nonsocial_accept_low	1.282702	16.000000	n/a	1	-1.653646e-01	-1.653646e-01
261.118000	1.032922	dec_nonsocial_choice	1.032922	16.000000	n/a	2	-1.035156e-01	-1.035156e-01
261.118000	1.032922	dec_choice	1.032922	16.000000	n/a	2	-1.028646e-01	-1.028646e-01
261.118000	1.032922	dec_nonsocial_accept	1.032922	16.000000	n/a	2	-1.035156e-01	-1.035156e-01
261.118000	1.032922	dec_accept	1.032922	16.000000	n/a	2	-1.028646e-01	-1.028646e-01
261.118000	1.032922	dec_nonsocial_accept_low	1.032922	16.000000	n/a	2	-1.041667e-01	-1.041667e-01
268.767850	1.099634	dec_nonsocial_choice	1.099634	16.000000	n/a	1	-1.660156e-01	-1.660156e-01
268.767850	1.099634	dec_choice	1.099634	16.000000	n/a	1	-1.653646e-01	-1.653646e-01
268.767850	1.099634	dec_nonsocial_accept	1.099634	16.000000	n/a	1	-1.660156e-01	-1.660156e-01
268.767850	1.099634	dec_accept	1.099634	16.000000	n/a	1	-1.653646e-01	-1.653646e-01
268.767850	1.099634	dec_nonsocial_accept_low	1.099634	16.000000	n/a	1	-1.666667e-01	-1.666667e-01
275.600520	1.066564	dec_nonsocial_choice	1.066564	16.000000	n/a	4	2.148438e-02	2.148438e-02
275.600520	1.066564	dec_choice	1.066564	16.000000	n/a	4	2.213542e-02	2.213542e-02
275.600520	1.066564	dec_nonsocial_accept	1.066564	16.000000	n/a	4	2.148438e-02	2.148438e-02
275.600520	1.066564	dec_accept	1.066564	16.000000	n/a	4	2.213542e-02	2.213542e-02
275.600520	1.066564	dec_nonsocial_high	1.066564	16.000000	n/a	4	2.213542e-02	2.213542e-02
275.600520	1.066564	dec_nonsocial_accept_high	1.066564	16.000000	n/a	4	2.213542e-02	2.213542e-02
282.435030	1.048958	dec_nonsocial_choice	1.048958	32.000000	n/a	3	-1.347656e-01	-1.347656e-01
282.435030	1.048958	dec_choice	1.048958	32.000000	n/a	3	-1.341146e-01	-1.341146e-01
282.435030	1.048958	dec_nonsocial_accept	1.048958	32.000000	n/a	3	-1.347656e-01	-1.347656e-01
282.435030	1.048958	dec_accept	1.048958	32.000000	n/a	3	-1.341146e-01	-1.341146e-01
282.435030	1.048958	dec_nonsocial_low	1.048958	32.000000	n/a	3	-1.341146e-01	-1.341146e-01
282.435030	1.048958	dec_nonsocial_accept_low	1.048958	32.000000	n/a	3	-1.341146e-01	-1.341146e-01
289.267360	0.949881	dec_nonsocial_choice	0.949881	32.000000	n/a	8	2.148438e-02	2.148438e-02
289.267360	0.949881	dec_choice	0.949881	32.000000	n/a	8	2.213542e-02	2.213542e-02
289.267360	0.949881	dec_nonsocial_accept	0.949881	32.000000	n/a	8	2.148438e-02	2.148438e-02
289.267360	0.949881	dec_accept	0.949881	32.000000	n/a	8	2.213542e-02	2.213542e-02
289.267360	0.949881	dec_nonsocial_high	0.949881	32.000000	n/a	8	2.213542e-02	2.213542e-02
289.267360	0.949881	dec_nonsocial_accept_high	0.949881	32.000000	n/a	8	2.213542e-02	2.213542e-02
298.518040	1.082643	dec_social_choice	1.082643	32.000000	n/a	2	-1.660156e-01	-1.660156e-01
298.518040	1.082643	dec_choice	1.082643	32.000000	n/a	2	-1.666667e-01	-1.666667e-01
298.518040	1.082643	dec_social_accept	1.082643	32.000000	n/a	2	-1.660156e-01	-1.660156e-01
298.518040	1.082643	dec_accept	1.082643	32.000000	n/a	2	-1.666667e-01	-1.666667e-01
298.518040	1.082643	dec_social_low	1.082643	32.000000	n/a	2	-1.666667e-01	-1.666667e-01
298.518040	1.082643	dec_social_accept_low	1.082643	32.000000	n/a	2	-1.666667e-01	-1.666667e-01
305.351380	0.882584	dec_social_choice	0.882584	16.000000	n/a	1	-1.660156e-01	-1.660156e-01
305.351380	0.882584	dec_choice	0.882584	16.000000	n/a	1	-1.666667e-01	-1.666667e-01
305.351380	0.882584	dec_social_accept	0.882584	16.000000	n/a	1	-1.660156e-01	-1.660156e-01
305.351380	0.882584	dec_accept	0.882584	16.000000	n/a	1	-1.666667e-01	-1.666667e-01
305.351380	0.882584	dec_social_low	0.882584	16.000000	n/a	1	-1.666667e-01	-1.666667e-01
305.351380	0.882584	dec_social_accept_low	0.882584	16.000000	n/a	1	-1.666667e-01	-1.666667e-01
313.000120	0.850606	dec_social_choice	0.850606	32.000000	n/a	3	-1.347656e-01	-1.347656e-01
313.000120	0.850606	dec_choice	0.850606	32.000000	n/a	3	-1.354167e-01	-1.354167e-01
313.000120	0.850606	dec_social_accept	0.850606	32.000000	n/a	3	-1.347656e-01	-1.347656e-01
313.000120	0.850606	dec_accept	0.850606	32.000000	n/a	3	-1.354167e-01	-1.354167e-01
313.000120	0.850606	dec_social_low	0.850606	32.000000	n/a	3	-1.354167e-01	-1.354167e-01
313.000120	0.850606	dec_social_accept_low	0.850606	32.000000	n/a	3	-1.354167e-01	-1.354167e-01
320.650100	0.983630	dec_nonsocial_choice	0.983630	32.000000	n/a	16	2.714844e-01	2.714844e-01
320.650100	0.983630	dec_choice	0.983630	32.000000	n/a	16	2.721354e-01	2.721354e-01
320.650100	0.983630	dec_nonsocial_accept	0.983630	32.000000	n/a	16	2.714844e-01	2.714844e-01
320.650100	0.983630	dec_accept	0.983630	32.000000	n/a	16	2.721354e-01	2.721354e-01
320.650100	0.983630	dec_nonsocial_high	0.983630	32.000000	n/a	16	2.721354e-01	2.721354e-01
320.650100	0.983630	dec_nonsocial_accept_high	0.983630	32.000000	n/a	16	2.721354e-01	2.721354e-01
331.517430	1.033177	dec_nonsocial_choice	1.033177	32.000000	n/a	2	-1.660156e-01	-1.660156e-01
331.517430	1.033177	dec_choice	1.033177	32.000000	n/a	2	-1.653646e-01	-1.653646e-01
331.517430	1.033177	dec_nonsocial_accept	1.033177	32.000000	n/a	2	-1.660156e-01	-1.660156e-01
331.517430	1.033177	dec_accept	1.033177	32.000000	n/a	2	-1.653646e-01	-1.653646e-01
331.517430	1.033177	dec_nonsocial_low	1.033177	32.000000	n/a	2	-1.653646e-01	-1.653646e-01
331.517430	1.033177	dec_nonsocial_accept_low	1.033177	32.000000	n/a	2	-1.653646e-01	-1.653646e-01
338.349700	1.617516	dec_social_choice	1.617516	32.000000	n/a	3	-1.347656e-01	-1.347656e-01
338.349700	1.617516	dec_choice	1.617516	32.000000	n/a	3	-1.354167e-01	-1.354167e-01
338.349700	1.617516	dec_social_accept	1.617516	32.000000	n/a	3	-1.347656e-01	-1.347656e-01
338.349700	1.617516	dec_accept	1.617516	32.000000	n/a	3	-1.354167e-01	-1.354167e-01
338.349700	1.617516	dec_social_accept_low	1.617516	32.000000	n/a	3	-1.354167e-01	-1.354167e-01
345.184270	0.982997	dec_nonsocial_choice	0.982997	16.000000	n/a	8	2.714844e-01	2.714844e-01
345.184270	0.982997	dec_choice	0.982997	16.000000	n/a	8	2.721354e-01	2.721354e-01
345.184270	0.982997	dec_nonsocial_accept	0.982997	16.000000	n/a	8	2.714844e-01	2.714844e-01
345.184270	0.982997	dec_accept	0.982997	16.000000	n/a	8	2.721354e-01	2.721354e-01
345.184270	0.982997	dec_nonsocial_high	0.982997	16.000000	n/a	8	2.721354e-01	2.721354e-01
345.184270	0.982997	dec_nonsocial_accept_high	0.982997	16.000000	n/a	8	2.721354e-01	2.721354e-01
352.833860	0.783864	dec_nonsocial_choice	0.783864	16.000000	n/a	8	2.714844e-01	2.714844e-01
352.833860	0.783864	dec_choice	0.783864	16.000000	n/a	8	2.721354e-01	2.721354e-01
352.833860	0.783864	dec_nonsocial_accept	0.783864	16.000000	n/a	8	2.714844e-01	2.714844e-01
352.833860	0.783864	dec_accept	0.783864	16.000000	n/a	8	2.721354e-01	2.721354e-01
352.833860	0.783864	dec_nonsocial_high	0.783864	16.000000	n/a	8	2.721354e-01	2.721354e-01
352.833860	0.783864	dec_nonsocial_accept_high	0.783864	16.000000	n/a	8	2.721354e-01	2.721354e-01
362.082900	0.883925	dec_social_choice	0.883925	32.000000	n/a	8	2.148438e-02	2.148438e-02
362.082900	0.883925	dec_choice	0.883925	32.000000	n/a	8	2.083333e-02	2.083333e-02
362.082900	0.883925	dec_social_accept	0.883925	32.000000	n/a	8	2.148438e-02	2.148438e-02
362.082900	0.883925	dec_accept	0.883925	32.000000	n/a	8	2.083333e-02	2.083333e-02
362.082900	0.883925	dec_social_accept_high	0.883925	32.000000	n/a	8	2.083333e-02	2.083333e-02
368.918300	0.982356	dec_social_choice	0.982356	16.000000	n/a	4	2.148438e-02	2.148438e-02
368.918300	0.982356	dec_choice	0.982356	16.000000	n/a	4	2.083333e-02	2.083333e-02
368.918300	0.982356	dec_social_accept	0.982356	16.000000	n/a	4	2.148438e-02	2.148438e-02
368.918300	0.982356	dec_accept	0.982356	16.000000	n/a	4	2.083333e-02	2.083333e-02
368.918300	0.982356	dec_social_high	0.982356	16.000000	n/a	4	2.083333e-02	2.083333e-02
368.918300	0.982356	dec_social_accept_high	0.982356	16.000000	n/a	4	2.083333e-02	2.083333e-02
