TrialNumber,nTrial,Block,Endowment,ITI,ISI,L_Option,R_Option,ran,order,cue_Onset,endowment_onset,endowment_offset,ISI_onset,ISI_offset,decision_onset,resp,rt,resp_onset,decision_offset,trialDuration,ITIonset,ITIoffset
1,1,3,32,4.595,1,0,16,1.0,0.0,4.568283,5.5036173,5.5202923,5.5204062,6.519961,6.5201344,2.0,0.5665313,7.0866656,10.287651,3.7681563,10.288421,14.885186
2,2,2,32,2.98,1,2,0,1.0,1.0,15.380705,16.369858,16.3871,16.387184,17.387257,17.387405,1.0,0.9156395,18.303045,21.155174,3.7683172,21.15583,24.13691
3,3,2,32,2.98,1,0,2,1.0,2.0,24.647268,25.6364,25.6536,25.653717,26.654678,26.654825,2.0,0.6324593,27.287285,30.42135,3.767091,30.422033,33.403297
4,4,2,32,2.98,1,0,3,1.0,3.0,33.914005,34.902866,34.92032,34.9204,35.91999,35.920143,2.0,0.6664797,36.586624,39.68691,3.767316,39.68757,42.668793
5,5,3,32,0.5575,1,0,3,1.0,4.0,43.223297,44.15303,44.170254,44.170334,45.170612,45.170757,2.0,0.4996686,45.67043,48.93705,3.7668443,48.937714,49.496952
6,6,2,32,2.98,1,0,8,1.0,5.0,49.99743,50.986744,51.00352,51.003605,52.0039,52.004044,2.0,0.4661453,52.47019,55.77083,3.7673383,55.77149,58.75302
7,7,2,16,0.5575,1,2,0,1.0,6.0,59.247124,60.23632,60.253487,60.253563,61.253746,61.253895,1.0,0.5159907,61.769886,65.02107,3.7677312,65.021736,65.580894
8,8,2,16,6.21,1,0,2,1.0,7.0,66.08067,67.06968,67.086754,67.08683,68.08666,68.086815,2.0,0.4999542,68.58677,71.85364,3.7673688,71.854294,78.06601
9,9,2,16,0.5575,1,0,1,1.0,8.0,78.564026,79.553055,79.57047,79.57061,80.57051,80.570656,2.0,0.6330224,81.20368,84.33772,3.767614,84.33839,84.89826
10,10,3,32,1.365,1,0,3,1.0,9.0,85.48107,86.38654,86.40303,86.40311,87.40364,87.403786,2.0,0.6000675,88.00385,91.170876,3.767638,91.17153,92.53903
11,11,2,32,0.5575,1,8,0,1.0,10.0,93.04705,94.03623,94.053505,94.05364,95.05366,95.0538,1.0,0.5331252,95.58693,98.81944,3.7661853,98.8201,99.37982
12,12,3,16,0.5575,1,4,0,1.0,11.0,99.94685,100.86947,100.88692,100.88705,101.88768,101.88783,1.0,0.5321282,102.41996,105.65501,3.767738,105.65568,106.21613
13,13,2,32,0.5575,1,0,16,1.0,12.0,106.71379,107.70296,107.72002,107.7201,108.720184,108.72033,2.0,0.5499735,109.2703,112.487,3.7672758,112.487755,113.04662
14,14,3,32,1.365,1,0,2,1.0,13.0,113.62791,114.53656,114.55286,114.55294,115.55285,115.553,2.0,0.5835458,116.13654,119.320045,3.767603,119.32071,120.68673
15,15,2,32,0.5575,1,0,3,1.0,14.0,121.196915,122.1862,122.20336,122.203445,123.202995,123.20314,2.0,0.4504394,123.65358,126.97009,3.7675054,126.97075,127.52976
16,16,3,16,1.365,1,2,0,1.0,15.0,128.09418,129.01955,129.03654,129.03664,130.0358,130.03593,1.0,0.4842092,130.52014,133.80177,3.7664158,133.80246,135.16873
17,17,2,32,1.365,1,0,16,1.0,16.0,135.66371,136.65292,136.67001,136.6701,137.66977,137.6699,2.0,0.4664337,138.13635,141.437,3.7676506,141.43767,142.8038
18,18,2,32,0.5575,1,0,2,1.0,17.0,143.31367,144.30286,144.31995,144.32007,145.3194,145.31955,2.0,0.4667857,145.78633,149.08716,3.768181,149.08784,149.64677
19,19,2,16,1.365,1,0,1,1.0,18.0,150.14713,151.13593,151.15323,151.1533,152.15373,152.15388,2.0,0.44946,152.60335,155.92,3.7666724,155.92068,157.28673
20,20,3,16,1.365,1,0,1,1.0,19.0,157.89888,158.78642,158.8032,158.8033,159.80281,159.80296,2.0,0.4337679,160.23674,163.57014,3.7677307,163.5708,164.93658
21,21,3,16,0.5575,1,0,8,1.0,20.0,165.51515,166.43608,166.45325,166.45334,167.45357,167.4537,2.0,0.449572,167.90327,171.22105,3.7678938,171.22171,171.78069
22,22,3,16,0.5575,1,0,1,1.0,21.0,172.3505,173.26947,173.28648,173.28656,174.2858,174.28595,2.0,0.4342133,174.72015,178.05223,3.766831,178.05289,178.6126
23,23,2,16,0.5575,1,0,2,1.0,22.0,179.11372,180.10278,180.1199,180.11998,181.1203,181.12045,2.0,0.4330293,181.55348,184.88675,3.7668555,184.8874,185.44698
24,24,3,32,0.5575,1,0,16,1.0,23.0,186.00977,186.93605,186.95317,186.95325,187.9529,187.95305,2.0,0.4507284,188.40378,191.71962,3.7671776,191.72037,192.27957
25,25,3,16,1.365,1,4,0,1.0,24.0,192.84305,193.76958,193.78644,193.78654,194.78674,194.7869,1.0,0.5330521,195.31995,198.55377,3.767426,198.55443,199.92174
26,26,3,16,4.595,1,0,1,1.0,25.0,200.52545,201.42001,201.43616,201.43625,202.43604,202.43617,2.0,0.5167329,202.95291,206.20372,3.7681158,206.2044,210.8009
27,27,3,32,0.5575,1,0,8,1.0,26.0,211.37465,212.28648,212.3027,212.30278,213.30249,213.30263,2.0,0.4510787,213.75371,217.06789,3.7657924,217.06854,217.62779
28,28,2,32,2.98,1,8,0,1.0,27.0,218.13013,219.11928,219.1364,219.13647,220.13666,220.13681,1.0,0.6004711,220.73727,223.90237,3.766121,223.90305,226.88495
29,29,2,32,4.595,1,0,8,1.0,28.0,227.3802,228.36935,228.38632,228.3864,229.38579,229.38594,2.0,0.5840938,229.97003,233.1518,3.7664063,233.15245,237.74858
30,30,3,32,2.98,1,2,0,1.0,29.0,238.31097,239.2363,239.25298,239.2531,240.25378,240.25392,1.0,0.4993526,240.75328,244.02058,3.7672145,244.02126,247.0028
31,31,3,32,0.5575,1,16,0,1.0,30.0,247.583,248.50249,248.5195,248.51958,249.51897,249.5191,1.0,0.5006982,250.0198,253.28653,3.7679727,253.28719,253.8467
32,32,2,32,0.5575,1,3,0,1.0,31.0,254.34657,255.3359,255.35287,255.35295,256.3532,256.35336,1.0,0.5660815,256.91946,260.12006,3.767221,260.1207,260.67953
33,33,2,16,1.365,1,8,0,1.0,32.0,261.17966,262.1691,262.1863,262.1864,263.1857,263.18582,1.0,0.5006889,263.68652,266.95273,3.76745,266.9534,268.31937
34,34,3,16,1.365,1,0,8,1.0,33.0,268.88467,269.81906,269.83627,269.83633,270.83646,270.8366,2.0,0.5330313,271.36963,274.60385,3.7678044,274.60452,275.97058
35,35,3,16,1.365,1,0,2,1.0,34.0,276.5874,277.46906,277.4863,277.48636,278.4874,278.48755,2.0,0.5150707,279.00262,282.25427,3.7672758,282.25494,283.6217
36,36,2,32,0.5575,1,0,16,1.0,35.0,284.12982,285.11905,285.1362,285.1363,286.13678,286.13693,2.0,0.4827252,286.61966,289.90375,3.7673848,289.90442,290.4634
37,37,3,32,0.5575,1,3,0,1.0,36.0,291.03543,291.9529,291.96902,291.96912,292.96872,292.96887,1.0,0.517497,293.48636,296.73575,3.7674277,296.73642,297.29575
38,38,2,16,1.365,1,4,0,1.0,37.0,297.79672,298.78586,298.80273,298.80283,299.80222,299.80234,1.0,0.5341468,300.3365,303.56833,3.7665281,303.569,304.93484
39,39,3,16,0.5575,1,0,2,1.0,38.0,305.49533,306.419,306.43616,306.43625,307.43726,307.4374,2.0,0.5489792,307.9864,311.2044,3.7675354,311.20505,311.7649
40,40,2,32,0.5575,1,0,16,1.0,39.0,312.26328,313.25235,313.2695,313.26962,314.26892,314.26904,2.0,0.4840157,314.75308,318.0366,3.7680943,318.03726,318.59766
41,41,3,32,1.365,1,0,8,1.0,40.0,319.15485,320.08566,320.10287,320.103,321.10367,321.10382,2.0,0.4653249,321.56915,324.87106,3.7677631,324.8717,326.23825
42,42,2,32,0.5575,1,0,2,1.0,41.0,326.74673,327.7357,327.75272,327.7528,328.75278,328.75293,2.0,0.7333773,329.4863,332.5203,3.7679386,332.52097,333.08063
43,43,3,16,0.5575,1,8,0,1.0,42.0,333.63342,334.56943,334.58612,334.58624,335.58627,335.58643,1.0,0.7661024,336.35254,339.3529,3.7670336,339.35358,339.91318
44,44,2,16,0.5575,1,0,8,1.0,43.0,340.41333,341.40237,341.41946,341.41956,342.42,342.42017,2.0,0.56557,342.98575,346.18723,3.767622,346.1879,346.74664
45,45,3,16,1.365,1,0,4,1.0,44.0,347.30237,348.23584,348.25278,348.25287,349.25363,349.25378,2.0,0.4989102,349.7527,353.01978,3.7665458,353.02045,354.38782
46,46,3,32,0.5575,1,2,0,1.0,45.0,354.9601,355.8857,355.90277,355.9029,356.9037,356.90384,1.0,0.4490908,357.3529,360.66977,3.7664835,360.6704,361.22934
47,47,2,32,2.98,1,8,0,1.0,46.0,361.72983,362.7188,362.73587,362.73596,363.7362,363.73636,1.0,0.5831961,364.31958,367.50235,3.7665513,367.50302,370.4842
48,48,3,16,0.5575,1,0,4,1.0,47.0,371.0476,371.96896,371.9861,371.98624,372.98544,372.9856,2.0,0.6010548,373.58667,376.75085,3.7658098,376.75153,377.3106
