onset	duration	trial_type	response_time	Endowment	Endowment_pmod	Decision	Decision_pmod	Offer_pmod
4.580178	2	cue_social	n/a	32	11	n/a	n/a	n/a
4.580178	2	cue_social_high	n/a	32	7	n/a	n/a	n/a
12.168428	2	cue_nonsocial	n/a	16	-9	n/a	n/a	n/a
12.168428	2	cue_nonsocial_low	n/a	16	-5	n/a	n/a	n/a
19.001710	2	cue_nonsocial	n/a	32	7	n/a	n/a	n/a
19.001710	2	cue_nonsocial_high	n/a	32	11	n/a	n/a	n/a
28.252018	2	cue_nonsocial	n/a	32	7	n/a	n/a	n/a
28.252018	2	cue_nonsocial_high	n/a	32	11	n/a	n/a	n/a
35.149170	2	cue_social	n/a	16	-5	n/a	n/a	n/a
35.149170	2	cue_social_low	n/a	16	-9	n/a	n/a	n/a
44.335020	2	cue_nonsocial	n/a	16	-9	n/a	n/a	n/a
44.335020	2	cue_nonsocial_low	n/a	16	-5	n/a	n/a	n/a
51.984863	2	cue_nonsocial	n/a	32	7	n/a	n/a	n/a
51.984863	2	cue_nonsocial_high	n/a	32	11	n/a	n/a	n/a
58.891630	2	cue_social	n/a	32	11	n/a	n/a	n/a
58.891630	2	cue_social_high	n/a	32	7	n/a	n/a	n/a
65.715540	2	cue_social	n/a	16	-5	n/a	n/a	n/a
65.715540	2	cue_social_low	n/a	16	-9	n/a	n/a	n/a
73.388150	2	cue_social	n/a	16	-5	n/a	n/a	n/a
73.388150	2	cue_social_low	n/a	16	-9	n/a	n/a	n/a
80.186485	2	cue_social	n/a	32	11	n/a	n/a	n/a
80.186485	2	cue_social_high	n/a	32	7	n/a	n/a	n/a
87.824260	2	cue_social	n/a	16	-5	n/a	n/a	n/a
87.824260	2	cue_social_low	n/a	16	-9	n/a	n/a	n/a
95.418290	2	cue_nonsocial	n/a	16	-9	n/a	n/a	n/a
95.418290	2	cue_nonsocial_low	n/a	16	-5	n/a	n/a	n/a
102.251335	2	cue_nonsocial	n/a	16	-9	n/a	n/a	n/a
102.251335	2	cue_nonsocial_low	n/a	16	-5	n/a	n/a	n/a
109.085045	2	cue_nonsocial	n/a	16	-9	n/a	n/a	n/a
109.085045	2	cue_nonsocial_low	n/a	16	-5	n/a	n/a	n/a
115.986560	2	cue_social	n/a	32	11	n/a	n/a	n/a
115.986560	2	cue_social_high	n/a	32	7	n/a	n/a	n/a
122.864040	2	cue_social	n/a	16	-5	n/a	n/a	n/a
122.864040	2	cue_social_low	n/a	16	-9	n/a	n/a	n/a
132.070830	2	cue_social	n/a	16	-5	n/a	n/a	n/a
132.070830	2	cue_social_low	n/a	16	-9	n/a	n/a	n/a
141.306930	2	cue_social	n/a	16	-5	n/a	n/a	n/a
141.306930	2	cue_social_low	n/a	16	-9	n/a	n/a	n/a
148.901110	2	cue_nonsocial	n/a	32	7	n/a	n/a	n/a
148.901110	2	cue_nonsocial_high	n/a	32	11	n/a	n/a	n/a
158.151670	2	cue_nonsocial	n/a	16	-9	n/a	n/a	n/a
158.151670	2	cue_nonsocial_low	n/a	16	-5	n/a	n/a	n/a
165.043600	2	cue_social	n/a	32	11	n/a	n/a	n/a
165.043600	2	cue_social_high	n/a	32	7	n/a	n/a	n/a
172.685530	2	cue_social	n/a	16	-5	n/a	n/a	n/a
172.685530	2	cue_social_low	n/a	16	-9	n/a	n/a	n/a
179.467910	2	cue_nonsocial	n/a	32	7	n/a	n/a	n/a
179.467910	2	cue_nonsocial_high	n/a	32	11	n/a	n/a	n/a
187.118180	2	cue_nonsocial	n/a	16	-9	n/a	n/a	n/a
187.118180	2	cue_nonsocial_low	n/a	16	-5	n/a	n/a	n/a
193.951350	2	cue_nonsocial	n/a	32	7	n/a	n/a	n/a
193.951350	2	cue_nonsocial_high	n/a	32	11	n/a	n/a	n/a
203.201480	2	cue_nonsocial	n/a	32	7	n/a	n/a	n/a
203.201480	2	cue_nonsocial_high	n/a	32	11	n/a	n/a	n/a
210.034770	2	cue_nonsocial	n/a	16	-9	n/a	n/a	n/a
210.034770	2	cue_nonsocial_low	n/a	16	-5	n/a	n/a	n/a
220.950230	2	cue_social	n/a	16	-5	n/a	n/a	n/a
220.950230	2	cue_social_low	n/a	16	-9	n/a	n/a	n/a
228.594560	2	cue_social	n/a	16	-5	n/a	n/a	n/a
228.594560	2	cue_social_low	n/a	16	-9	n/a	n/a	n/a
236.245220	2	cue_social	n/a	16	-5	n/a	n/a	n/a
236.245220	2	cue_social_low	n/a	16	-9	n/a	n/a	n/a
247.068180	2	cue_nonsocial	n/a	16	-9	n/a	n/a	n/a
247.068180	2	cue_nonsocial_low	n/a	16	-5	n/a	n/a	n/a
257.934750	2	cue_nonsocial	n/a	32	7	n/a	n/a	n/a
257.934750	2	cue_nonsocial_high	n/a	32	11	n/a	n/a	n/a
264.832180	2	cue_social	n/a	32	11	n/a	n/a	n/a
264.832180	2	cue_social_high	n/a	32	7	n/a	n/a	n/a
272.478030	2	cue_social	n/a	16	-5	n/a	n/a	n/a
272.478030	2	cue_social_low	n/a	16	-9	n/a	n/a	n/a
279.296170	2	cue_social	n/a	16	-5	n/a	n/a	n/a
279.296170	2	cue_social_low	n/a	16	-9	n/a	n/a	n/a
286.144840	2	cue_social	n/a	32	11	n/a	n/a	n/a
286.144840	2	cue_social_high	n/a	32	7	n/a	n/a	n/a
292.917800	2	cue_nonsocial	n/a	32	7	n/a	n/a	n/a
292.917800	2	cue_nonsocial_high	n/a	32	11	n/a	n/a	n/a
300.567840	2	cue_nonsocial	n/a	32	7	n/a	n/a	n/a
300.567840	2	cue_nonsocial_high	n/a	32	11	n/a	n/a	n/a
307.457820	2	cue_social	n/a	16	-5	n/a	n/a	n/a
307.457820	2	cue_social_low	n/a	16	-9	n/a	n/a	n/a
314.234440	2	cue_nonsocial	n/a	16	-9	n/a	n/a	n/a
314.234440	2	cue_nonsocial_low	n/a	16	-5	n/a	n/a	n/a
321.135300	2	cue_social	n/a	32	11	n/a	n/a	n/a
321.135300	2	cue_social_high	n/a	32	7	n/a	n/a	n/a
328.717830	2	cue_nonsocial	n/a	32	7	n/a	n/a	n/a
328.717830	2	cue_nonsocial_high	n/a	32	11	n/a	n/a	n/a
335.551180	2	cue_nonsocial	n/a	32	7	n/a	n/a	n/a
335.551180	2	cue_nonsocial_high	n/a	32	11	n/a	n/a	n/a
342.444400	2	cue_social	n/a	16	-5	n/a	n/a	n/a
342.444400	2	cue_social_low	n/a	16	-9	n/a	n/a	n/a
354.936920	2	cue_social	n/a	16	-5	n/a	n/a	n/a
354.936920	2	cue_social_low	n/a	16	-9	n/a	n/a	n/a
364.134430	2	cue_nonsocial	n/a	16	-9	n/a	n/a	n/a
364.134430	2	cue_nonsocial_low	n/a	16	-5	n/a	n/a	n/a
370.967530	2	cue_nonsocial	n/a	32	7	n/a	n/a	n/a
370.967530	2	cue_nonsocial_high	n/a	32	11	n/a	n/a	n/a
6.524910	2.583777	dec_social_choice	2.583777	32.000000	n/a	8	1.757812e-02	1.757812e-02
6.524910	2.583777	dec_choice	2.583777	32.000000	n/a	8	1.822917e-02	1.822917e-02
6.524910	2.583777	dec_social_accept	2.583777	32.000000	n/a	8	-1.197917e-01	-1.197917e-01
6.524910	2.583777	dec_accept	2.583777	32.000000	n/a	8	-1.145833e-01	-1.145833e-01
6.524910	2.583777	dec_social_high	2.583777	32.000000	n/a	8	1.822917e-02	1.822917e-02
6.524910	2.583777	dec_social_accept_high	2.583777	32.000000	n/a	8	1.822917e-02	1.822917e-02
14.173943	2.300997	dec_nonsocial_choice	2.300997	16.000000	n/a	0	0	-2.324219e-01
14.173943	2.300997	dec_choice	2.300997	16.000000	n/a	0	0	-2.330729e-01
14.173943	2.300997	dec_nonsocial_reject	2.300997	16.000000	n/a	0	0	2.994792e-02
14.173943	2.300997	dec_reject	2.300997	16.000000	n/a	0	0	3.385417e-02
14.173943	2.300997	dec_nonsocial_reject_low	2.300997	16.000000	n/a	2	2.604167e-02	-9.895833e-02
21.008026	2.299991	dec_nonsocial_choice	2.299991	32.000000	n/a	16	2.675781e-01	2.675781e-01
21.008026	2.299991	dec_choice	2.299991	32.000000	n/a	16	2.669271e-01	2.669271e-01
21.008026	2.299991	dec_nonsocial_accept	2.299991	32.000000	n/a	16	1.302083e-01	1.302083e-01
21.008026	2.299991	dec_accept	2.299991	32.000000	n/a	16	1.250000e-01	1.250000e-01
21.008026	2.299991	dec_nonsocial_accept_high	2.299991	32.000000	n/a	16	1.354167e-01	1.354167e-01
30.257470	2.100483	dec_nonsocial_choice	2.100483	32.000000	n/a	16	2.675781e-01	2.675781e-01
30.257470	2.100483	dec_choice	2.100483	32.000000	n/a	16	2.669271e-01	2.669271e-01
30.257470	2.100483	dec_nonsocial_accept	2.100483	32.000000	n/a	16	1.302083e-01	1.302083e-01
30.257470	2.100483	dec_accept	2.100483	32.000000	n/a	16	1.250000e-01	1.250000e-01
30.257470	2.100483	dec_nonsocial_high	2.100483	32.000000	n/a	16	2.669271e-01	2.669271e-01
30.257470	2.100483	dec_nonsocial_accept_high	2.100483	32.000000	n/a	16	1.250000e-01	1.250000e-01
37.091526	2.249911	dec_social_choice	2.249911	16.000000	n/a	0	0	-2.324219e-01
37.091526	2.249911	dec_choice	2.249911	16.000000	n/a	0	0	-2.317708e-01
37.091526	2.249911	dec_social_reject	2.249911	16.000000	n/a	0	0	1.549479e-01
37.091526	2.249911	dec_reject	2.249911	16.000000	n/a	0	0	1.510417e-01
37.091526	2.249911	dec_social_reject_low	2.249911	16.000000	n/a	4	1.822917e-02	-2.317708e-01
46.341730	1.199909	dec_nonsocial_choice	1.199909	16.000000	n/a	0	0	-2.324219e-01
46.341730	1.199909	dec_choice	1.199909	16.000000	n/a	0	0	-2.330729e-01
46.341730	1.199909	dec_nonsocial_reject	1.199909	16.000000	n/a	0	0	-3.255208e-02
46.341730	1.199909	dec_reject	1.199909	16.000000	n/a	0	0	-2.864583e-02
46.341730	1.199909	dec_nonsocial_reject_low	1.199909	16.000000	n/a	1	-3.645833e-02	-9.895833e-02
53.991257	1.483632	dec_nonsocial_choice	1.483632	32.000000	n/a	0	0	-2.324219e-01
53.991257	1.483632	dec_choice	1.483632	32.000000	n/a	0	0	-2.330729e-01
53.991257	1.483632	dec_nonsocial_reject	1.483632	32.000000	n/a	0	0	-3.255208e-02
53.991257	1.483632	dec_reject	1.483632	32.000000	n/a	0	0	-2.864583e-02
53.991257	1.483632	dec_nonsocial_reject_low	1.483632	32.000000	n/a	2	-3.645833e-02	-9.895833e-02
60.825066	1.399398	dec_social_choice	1.399398	32.000000	n/a	0	0	-2.324219e-01
60.825066	1.399398	dec_choice	1.399398	32.000000	n/a	0	0	-2.317708e-01
60.825066	1.399398	dec_social_reject	1.399398	32.000000	n/a	0	0	-3.255208e-02
60.825066	1.399398	dec_reject	1.399398	32.000000	n/a	0	0	-3.645833e-02
60.825066	1.399398	dec_social_reject_low	1.399398	32.000000	n/a	2	-1.692708e-01	-2.317708e-01
67.657840	1.651036	dec_social_choice	1.651036	16.000000	n/a	0	0	-2.324219e-01
67.657840	1.651036	dec_choice	1.651036	16.000000	n/a	0	0	-2.317708e-01
67.657840	1.651036	dec_social_reject	1.651036	16.000000	n/a	0	0	-3.255208e-02
67.657840	1.651036	dec_reject	1.651036	16.000000	n/a	0	0	-3.645833e-02
67.657840	1.651036	dec_social_reject_low	1.651036	16.000000	n/a	1	-1.692708e-01	-2.317708e-01
75.291176	1.583428	dec_social_choice	1.583428	16.000000	n/a	2	-1.074219e-01	-1.074219e-01
75.291176	1.583428	dec_choice	1.583428	16.000000	n/a	2	-1.067708e-01	-1.067708e-01
75.291176	1.583428	dec_social_accept	1.583428	16.000000	n/a	2	-2.447917e-01	-2.447917e-01
75.291176	1.583428	dec_accept	1.583428	16.000000	n/a	2	-2.395833e-01	-2.395833e-01
75.291176	1.583428	dec_social_low	1.583428	16.000000	n/a	2	-1.067708e-01	-1.067708e-01
75.291176	1.583428	dec_social_accept_low	1.583428	16.000000	n/a	2	-1.067708e-01	-1.067708e-01
82.125000	1.149551	dec_social_choice	1.149551	32.000000	n/a	0	0	-2.324219e-01
82.125000	1.149551	dec_choice	1.149551	32.000000	n/a	0	0	-2.317708e-01
82.125000	1.149551	dec_social_reject	1.149551	32.000000	n/a	0	0	-1.302083e-03
82.125000	1.149551	dec_reject	1.149551	32.000000	n/a	0	0	-5.208333e-03
82.125000	1.149551	dec_social_reject_low	1.149551	32.000000	n/a	3	-1.380208e-01	-2.317708e-01
89.774210	0.966718	dec_social_choice	0.966718	16.000000	n/a	4	1.757812e-02	1.757812e-02
89.774210	0.966718	dec_choice	0.966718	16.000000	n/a	4	1.822917e-02	1.822917e-02
89.774210	0.966718	dec_social_accept	0.966718	16.000000	n/a	4	-1.197917e-01	-1.197917e-01
89.774210	0.966718	dec_accept	0.966718	16.000000	n/a	4	-1.145833e-01	-1.145833e-01
89.774210	0.966718	dec_social_accept_high	0.966718	16.000000	n/a	4	1.822917e-02	1.822917e-02
97.424630	1.016479	dec_nonsocial_choice	1.016479	16.000000	n/a	0	0	-2.324219e-01
97.424630	1.016479	dec_choice	1.016479	16.000000	n/a	0	0	-2.330729e-01
97.424630	1.016479	dec_nonsocial_reject	1.016479	16.000000	n/a	0	0	-3.255208e-02
97.424630	1.016479	dec_reject	1.016479	16.000000	n/a	0	0	-2.864583e-02
97.424630	1.016479	dec_nonsocial_reject_low	1.016479	16.000000	n/a	1	-3.645833e-02	-9.895833e-02
104.257930	1.400226	dec_nonsocial_choice	1.400226	16.000000	n/a	0	0	-2.324219e-01
104.257930	1.400226	dec_choice	1.400226	16.000000	n/a	0	0	-2.330729e-01
104.257930	1.400226	dec_nonsocial_reject	1.400226	16.000000	n/a	0	0	2.994792e-02
104.257930	1.400226	dec_reject	1.400226	16.000000	n/a	0	0	3.385417e-02
104.257930	1.400226	dec_nonsocial_low	1.400226	16.000000	n/a	0	-2.330729e-01	-2.330729e-01
104.257930	1.400226	dec_nonsocial_reject_low	1.400226	16.000000	n/a	2	3.385417e-02	-9.114583e-02
111.091410	1.250174	dec_nonsocial_choice	1.250174	16.000000	n/a	8	2.675781e-01	2.675781e-01
111.091410	1.250174	dec_choice	1.250174	16.000000	n/a	8	2.669271e-01	2.669271e-01
111.091410	1.250174	dec_nonsocial_accept	1.250174	16.000000	n/a	8	1.302083e-01	1.302083e-01
111.091410	1.250174	dec_accept	1.250174	16.000000	n/a	8	1.250000e-01	1.250000e-01
111.091410	1.250174	dec_nonsocial_high	1.250174	16.000000	n/a	8	2.669271e-01	2.669271e-01
111.091410	1.250174	dec_nonsocial_accept_high	1.250174	16.000000	n/a	8	1.250000e-01	1.250000e-01
117.924620	0.866527	dec_social_choice	0.866527	32.000000	n/a	0	0	-2.324219e-01
117.924620	0.866527	dec_choice	0.866527	32.000000	n/a	0	0	-2.317708e-01
117.924620	0.866527	dec_social_reject	0.866527	32.000000	n/a	0	0	-3.255208e-02
117.924620	0.866527	dec_reject	0.866527	32.000000	n/a	0	0	-3.645833e-02
117.924620	0.866527	dec_social_reject_low	0.866527	32.000000	n/a	2	-1.692708e-01	-2.317708e-01
124.757950	1.633469	dec_social_choice	1.633469	16.000000	n/a	4	1.757812e-02	1.757812e-02
124.757950	1.633469	dec_choice	1.633469	16.000000	n/a	4	1.822917e-02	1.822917e-02
124.757950	1.633469	dec_social_accept	1.633469	16.000000	n/a	4	-1.197917e-01	-1.197917e-01
124.757950	1.633469	dec_accept	1.633469	16.000000	n/a	4	-1.145833e-01	-1.145833e-01
124.757950	1.633469	dec_social_accept_high	1.633469	16.000000	n/a	4	1.822917e-02	1.822917e-02
134.007690	1.516514	dec_social_choice	1.516514	16.000000	n/a	0	0	-2.324219e-01
134.007690	1.516514	dec_choice	1.516514	16.000000	n/a	0	0	-2.317708e-01
134.007690	1.516514	dec_social_reject	1.516514	16.000000	n/a	0	0	2.994792e-02
134.007690	1.516514	dec_reject	1.516514	16.000000	n/a	0	0	2.604167e-02
134.007690	1.516514	dec_social_low	1.516514	16.000000	n/a	0	-2.317708e-01	-2.317708e-01
134.007690	1.516514	dec_social_reject_low	1.516514	16.000000	n/a	2	-1.067708e-01	-2.317708e-01
143.259000	1.965119	dec_social_choice	1.965119	16.000000	n/a	8	2.675781e-01	2.675781e-01
143.259000	1.965119	dec_choice	1.965119	16.000000	n/a	8	2.682292e-01	2.682292e-01
143.259000	1.965119	dec_social_accept	1.965119	16.000000	n/a	8	1.302083e-01	1.302083e-01
143.259000	1.965119	dec_accept	1.965119	16.000000	n/a	8	1.354167e-01	1.354167e-01
143.259000	1.965119	dec_social_high	1.965119	16.000000	n/a	8	2.682292e-01	2.682292e-01
143.259000	1.965119	dec_social_accept_high	1.965119	16.000000	n/a	8	2.682292e-01	2.682292e-01
150.907680	1.500147	dec_nonsocial_choice	1.500147	32.000000	n/a	0	0	-2.324219e-01
150.907680	1.500147	dec_choice	1.500147	32.000000	n/a	0	0	-2.330729e-01
150.907680	1.500147	dec_nonsocial_reject	1.500147	32.000000	n/a	0	0	-3.255208e-02
150.907680	1.500147	dec_reject	1.500147	32.000000	n/a	0	0	-2.864583e-02
150.907680	1.500147	dec_nonsocial_low	1.500147	32.000000	n/a	0	-2.330729e-01	-2.330729e-01
150.907680	1.500147	dec_nonsocial_reject_low	1.500147	32.000000	n/a	2	-2.864583e-02	-9.114583e-02
160.157990	1.249678	dec_nonsocial_choice	1.249678	16.000000	n/a	8	2.675781e-01	2.675781e-01
160.157990	1.249678	dec_choice	1.249678	16.000000	n/a	8	2.669271e-01	2.669271e-01
160.157990	1.249678	dec_nonsocial_accept	1.249678	16.000000	n/a	8	1.302083e-01	1.302083e-01
160.157990	1.249678	dec_accept	1.249678	16.000000	n/a	8	1.250000e-01	1.250000e-01
160.157990	1.249678	dec_nonsocial_high	1.249678	16.000000	n/a	8	2.669271e-01	2.669271e-01
160.157990	1.249678	dec_nonsocial_accept_high	1.249678	16.000000	n/a	8	1.250000e-01	1.250000e-01
166.991240	1.750108	dec_social_choice	1.750108	32.000000	n/a	8	1.757812e-02	1.757812e-02
166.991240	1.750108	dec_choice	1.750108	32.000000	n/a	8	1.822917e-02	1.822917e-02
166.991240	1.750108	dec_social_accept	1.750108	32.000000	n/a	8	-1.197917e-01	-1.197917e-01
166.991240	1.750108	dec_accept	1.750108	32.000000	n/a	8	-1.145833e-01	-1.145833e-01
166.991240	1.750108	dec_social_high	1.750108	32.000000	n/a	8	1.822917e-02	1.822917e-02
166.991240	1.750108	dec_social_accept_high	1.750108	32.000000	n/a	8	1.822917e-02	1.822917e-02
174.641200	1.033386	dec_social_choice	1.033386	16.000000	n/a	8	2.675781e-01	2.675781e-01
174.641200	1.033386	dec_choice	1.033386	16.000000	n/a	8	2.682292e-01	2.682292e-01
174.641200	1.033386	dec_social_accept	1.033386	16.000000	n/a	8	1.302083e-01	1.302083e-01
174.641200	1.033386	dec_accept	1.033386	16.000000	n/a	8	1.354167e-01	1.354167e-01
174.641200	1.033386	dec_social_high	1.033386	16.000000	n/a	8	2.682292e-01	2.682292e-01
174.641200	1.033386	dec_social_accept_high	1.033386	16.000000	n/a	8	2.682292e-01	2.682292e-01
181.475600	1.332339	dec_nonsocial_choice	1.332339	32.000000	n/a	16	2.675781e-01	2.675781e-01
181.475600	1.332339	dec_choice	1.332339	32.000000	n/a	16	2.669271e-01	2.669271e-01
181.475600	1.332339	dec_nonsocial_accept	1.332339	32.000000	n/a	16	1.302083e-01	1.302083e-01
181.475600	1.332339	dec_accept	1.332339	32.000000	n/a	16	1.250000e-01	1.250000e-01
181.475600	1.332339	dec_nonsocial_high	1.332339	32.000000	n/a	16	2.669271e-01	2.669271e-01
181.475600	1.332339	dec_nonsocial_accept_high	1.332339	32.000000	n/a	16	1.250000e-01	1.250000e-01
189.125050	1.432931	dec_nonsocial_choice	1.432931	16.000000	n/a	0	0	-2.324219e-01
189.125050	1.432931	dec_choice	1.432931	16.000000	n/a	0	0	-2.330729e-01
189.125050	1.432931	dec_nonsocial_reject	1.432931	16.000000	n/a	0	0	2.994792e-02
189.125050	1.432931	dec_reject	1.432931	16.000000	n/a	0	0	3.385417e-02
189.125050	1.432931	dec_nonsocial_low	1.432931	16.000000	n/a	0	-2.330729e-01	-2.330729e-01
189.125050	1.432931	dec_nonsocial_reject_low	1.432931	16.000000	n/a	2	3.385417e-02	-9.114583e-02
195.957350	1.484007	dec_nonsocial_choice	1.484007	32.000000	n/a	8	1.757812e-02	1.757812e-02
195.957350	1.484007	dec_choice	1.484007	32.000000	n/a	8	1.692708e-02	1.692708e-02
195.957350	1.484007	dec_nonsocial_accept	1.484007	32.000000	n/a	8	-1.197917e-01	-1.197917e-01
195.957350	1.484007	dec_accept	1.484007	32.000000	n/a	8	-1.250000e-01	-1.250000e-01
195.957350	1.484007	dec_nonsocial_accept_high	1.484007	32.000000	n/a	8	-1.145833e-01	-1.145833e-01
205.207080	1.734153	dec_nonsocial_choice	1.734153	32.000000	n/a	8	1.757812e-02	1.757812e-02
205.207080	1.734153	dec_choice	1.734153	32.000000	n/a	8	1.692708e-02	1.692708e-02
205.207080	1.734153	dec_nonsocial_accept	1.734153	32.000000	n/a	8	-1.197917e-01	-1.197917e-01
205.207080	1.734153	dec_accept	1.734153	32.000000	n/a	8	-1.250000e-01	-1.250000e-01
205.207080	1.734153	dec_nonsocial_accept_high	1.734153	32.000000	n/a	8	-1.145833e-01	-1.145833e-01
212.040310	1.100699	dec_nonsocial_choice	1.100699	16.000000	n/a	0	0	-2.324219e-01
212.040310	1.100699	dec_choice	1.100699	16.000000	n/a	0	0	-2.330729e-01
212.040310	1.100699	dec_nonsocial_reject	1.100699	16.000000	n/a	0	0	2.994792e-02
212.040310	1.100699	dec_reject	1.100699	16.000000	n/a	0	0	3.385417e-02
212.040310	1.100699	dec_nonsocial_low	1.100699	16.000000	n/a	0	-2.330729e-01	-2.330729e-01
212.040310	1.100699	dec_nonsocial_reject_low	1.100699	16.000000	n/a	2	3.385417e-02	-9.114583e-02
222.908080	1.116087	dec_social_choice	1.116087	16.000000	n/a	0	0	-2.324219e-01
222.908080	1.116087	dec_choice	1.116087	16.000000	n/a	0	0	-2.317708e-01
222.908080	1.116087	dec_social_reject	1.116087	16.000000	n/a	0	0	-3.255208e-02
222.908080	1.116087	dec_reject	1.116087	16.000000	n/a	0	0	-3.645833e-02
222.908080	1.116087	dec_social_reject_low	1.116087	16.000000	n/a	1	-1.692708e-01	-2.317708e-01
230.557750	1.099986	dec_social_choice	1.099986	16.000000	n/a	8	2.675781e-01	2.675781e-01
230.557750	1.099986	dec_choice	1.099986	16.000000	n/a	8	2.682292e-01	2.682292e-01
230.557750	1.099986	dec_social_accept	1.099986	16.000000	n/a	8	1.302083e-01	1.302083e-01
230.557750	1.099986	dec_accept	1.099986	16.000000	n/a	8	1.354167e-01	1.354167e-01
230.557750	1.099986	dec_social_accept_high	1.099986	16.000000	n/a	8	2.682292e-01	2.682292e-01
238.207200	2.300801	dec_social_choice	2.300801	16.000000	n/a	4	1.757812e-02	1.757812e-02
238.207200	2.300801	dec_choice	2.300801	16.000000	n/a	4	1.822917e-02	1.822917e-02
238.207200	2.300801	dec_social_accept	2.300801	16.000000	n/a	4	-1.197917e-01	-1.197917e-01
238.207200	2.300801	dec_accept	2.300801	16.000000	n/a	4	-1.145833e-01	-1.145833e-01
238.207200	2.300801	dec_social_high	2.300801	16.000000	n/a	4	1.822917e-02	1.822917e-02
238.207200	2.300801	dec_social_accept_high	2.300801	16.000000	n/a	4	1.822917e-02	1.822917e-02
249.074800	0.832968	dec_nonsocial_choice	0.832968	16.000000	n/a	0	0	-2.324219e-01
249.074800	0.832968	dec_choice	0.832968	16.000000	n/a	0	0	-2.330729e-01
249.074800	0.832968	dec_nonsocial_reject	0.832968	16.000000	n/a	0	0	2.994792e-02
249.074800	0.832968	dec_reject	0.832968	16.000000	n/a	0	0	3.385417e-02
249.074800	0.832968	dec_nonsocial_reject_low	0.832968	16.000000	n/a	2	2.604167e-02	-9.895833e-02
259.941040	1.050049	dec_nonsocial_choice	1.050049	32.000000	n/a	8	1.757812e-02	1.757812e-02
259.941040	1.050049	dec_choice	1.050049	32.000000	n/a	8	1.692708e-02	1.692708e-02
259.941040	1.050049	dec_nonsocial_accept	1.050049	32.000000	n/a	8	-1.197917e-01	-1.197917e-01
259.941040	1.050049	dec_accept	1.050049	32.000000	n/a	8	-1.250000e-01	-1.250000e-01
259.941040	1.050049	dec_nonsocial_high	1.050049	32.000000	n/a	8	1.692708e-02	1.692708e-02
259.941040	1.050049	dec_nonsocial_accept_high	1.050049	32.000000	n/a	8	-1.250000e-01	-1.250000e-01
266.774080	1.366623	dec_social_choice	1.366623	32.000000	n/a	0	0	-2.324219e-01
266.774080	1.366623	dec_choice	1.366623	32.000000	n/a	0	0	-2.317708e-01
266.774080	1.366623	dec_social_reject	1.366623	32.000000	n/a	0	0	-1.302083e-03
266.774080	1.366623	dec_reject	1.366623	32.000000	n/a	0	0	-5.208333e-03
266.774080	1.366623	dec_social_reject_low	1.366623	32.000000	n/a	3	-1.380208e-01	-2.317708e-01
274.423520	1.367195	dec_social_choice	1.367195	16.000000	n/a	0	0	-2.324219e-01
274.423520	1.367195	dec_choice	1.367195	16.000000	n/a	0	0	-2.317708e-01
274.423520	1.367195	dec_social_reject	1.367195	16.000000	n/a	0	0	-3.255208e-02
274.423520	1.367195	dec_reject	1.367195	16.000000	n/a	0	0	-3.645833e-02
274.423520	1.367195	dec_social_low	1.367195	16.000000	n/a	0	-2.317708e-01	-2.317708e-01
274.423520	1.367195	dec_social_reject_low	1.367195	16.000000	n/a	1	-1.692708e-01	-2.317708e-01
281.258330	1.682431	dec_social_choice	1.682431	16.000000	n/a	8	2.675781e-01	2.675781e-01
281.258330	1.682431	dec_choice	1.682431	16.000000	n/a	8	2.682292e-01	2.682292e-01
281.258330	1.682431	dec_social_accept	1.682431	16.000000	n/a	8	1.302083e-01	1.302083e-01
281.258330	1.682431	dec_accept	1.682431	16.000000	n/a	8	1.354167e-01	1.354167e-01
281.258330	1.682431	dec_social_high	1.682431	16.000000	n/a	8	2.682292e-01	2.682292e-01
281.258330	1.682431	dec_social_accept_high	1.682431	16.000000	n/a	8	2.682292e-01	2.682292e-01
288.090270	1.550639	dec_social_choice	1.550639	32.000000	n/a	16	2.675781e-01	2.675781e-01
288.090270	1.550639	dec_choice	1.550639	32.000000	n/a	16	2.682292e-01	2.682292e-01
288.090270	1.550639	dec_social_accept	1.550639	32.000000	n/a	16	1.302083e-01	1.302083e-01
288.090270	1.550639	dec_accept	1.550639	32.000000	n/a	16	1.354167e-01	1.354167e-01
288.090270	1.550639	dec_social_accept_high	1.550639	32.000000	n/a	16	2.682292e-01	2.682292e-01
294.924100	0.866581	dec_nonsocial_choice	0.866581	32.000000	n/a	8	1.757812e-02	1.757812e-02
294.924100	0.866581	dec_choice	0.866581	32.000000	n/a	8	1.692708e-02	1.692708e-02
294.924100	0.866581	dec_nonsocial_accept	0.866581	32.000000	n/a	8	-1.197917e-01	-1.197917e-01
294.924100	0.866581	dec_accept	0.866581	32.000000	n/a	8	-1.250000e-01	-1.250000e-01
294.924100	0.866581	dec_nonsocial_accept_high	0.866581	32.000000	n/a	8	-1.145833e-01	-1.145833e-01
302.574250	0.966231	dec_nonsocial_choice	0.966231	32.000000	n/a	0	0	-2.324219e-01
302.574250	0.966231	dec_choice	0.966231	32.000000	n/a	0	0	-2.330729e-01
302.574250	0.966231	dec_nonsocial_reject	0.966231	32.000000	n/a	0	0	-3.255208e-02
302.574250	0.966231	dec_reject	0.966231	32.000000	n/a	0	0	-2.864583e-02
302.574250	0.966231	dec_nonsocial_reject_low	0.966231	32.000000	n/a	2	-3.645833e-02	-9.895833e-02
309.407260	1.166377	dec_social_choice	1.166377	16.000000	n/a	0	0	-2.324219e-01
309.407260	1.166377	dec_choice	1.166377	16.000000	n/a	0	0	-2.317708e-01
309.407260	1.166377	dec_social_reject	1.166377	16.000000	n/a	0	0	2.994792e-02
309.407260	1.166377	dec_reject	1.166377	16.000000	n/a	0	0	2.604167e-02
309.407260	1.166377	dec_social_reject_low	1.166377	16.000000	n/a	2	-1.067708e-01	-2.317708e-01
316.241600	1.832744	dec_nonsocial_choice	1.832744	16.000000	n/a	4	1.757812e-02	1.757812e-02
316.241600	1.832744	dec_choice	1.832744	16.000000	n/a	4	1.692708e-02	1.692708e-02
316.241600	1.832744	dec_nonsocial_accept	1.832744	16.000000	n/a	4	-1.197917e-01	-1.197917e-01
316.241600	1.832744	dec_accept	1.832744	16.000000	n/a	4	-1.250000e-01	-1.250000e-01
316.241600	1.832744	dec_nonsocial_high	1.832744	16.000000	n/a	4	1.692708e-02	1.692708e-02
316.241600	1.832744	dec_nonsocial_accept_high	1.832744	16.000000	n/a	4	-1.250000e-01	-1.250000e-01
323.074300	1.016269	dec_social_choice	1.016269	32.000000	n/a	16	2.675781e-01	2.675781e-01
323.074300	1.016269	dec_choice	1.016269	32.000000	n/a	16	2.682292e-01	2.682292e-01
323.074300	1.016269	dec_social_accept	1.016269	32.000000	n/a	16	1.302083e-01	1.302083e-01
323.074300	1.016269	dec_accept	1.016269	32.000000	n/a	16	1.354167e-01	1.354167e-01
323.074300	1.016269	dec_social_high	1.016269	32.000000	n/a	16	2.682292e-01	2.682292e-01
323.074300	1.016269	dec_social_accept_high	1.016269	32.000000	n/a	16	2.682292e-01	2.682292e-01
330.724000	1.800232	dec_nonsocial_choice	1.800232	32.000000	n/a	8	1.757812e-02	1.757812e-02
330.724000	1.800232	dec_choice	1.800232	32.000000	n/a	8	1.692708e-02	1.692708e-02
330.724000	1.800232	dec_nonsocial_accept	1.800232	32.000000	n/a	8	-1.197917e-01	-1.197917e-01
330.724000	1.800232	dec_accept	1.800232	32.000000	n/a	8	-1.250000e-01	-1.250000e-01
330.724000	1.800232	dec_nonsocial_high	1.800232	32.000000	n/a	8	1.692708e-02	1.692708e-02
330.724000	1.800232	dec_nonsocial_accept_high	1.800232	32.000000	n/a	8	-1.250000e-01	-1.250000e-01
337.558170	1.649819	dec_nonsocial_choice	1.649819	32.000000	n/a	0	0	-2.324219e-01
337.558170	1.649819	dec_choice	1.649819	32.000000	n/a	0	0	-2.330729e-01
337.558170	1.649819	dec_nonsocial_reject	1.649819	32.000000	n/a	0	0	-1.302083e-03
337.558170	1.649819	dec_reject	1.649819	32.000000	n/a	0	0	2.604167e-03
337.558170	1.649819	dec_nonsocial_low	1.649819	32.000000	n/a	0	-2.330729e-01	-2.330729e-01
337.558170	1.649819	dec_nonsocial_reject_low	1.649819	32.000000	n/a	3	2.604167e-03	-9.114583e-02
344.391100	1.299988	dec_social_choice	1.299988	16.000000	n/a	0	0	-2.324219e-01
344.391100	1.299988	dec_choice	1.299988	16.000000	n/a	0	0	-2.317708e-01
344.391100	1.299988	dec_social_reject	1.299988	16.000000	n/a	0	0	-3.255208e-02
344.391100	1.299988	dec_reject	1.299988	16.000000	n/a	0	0	-3.645833e-02
344.391100	1.299988	dec_social_low	1.299988	16.000000	n/a	0	-2.317708e-01	-2.317708e-01
344.391100	1.299988	dec_social_reject_low	1.299988	16.000000	n/a	1	-1.692708e-01	-2.317708e-01
356.874100	1.033534	dec_social_choice	1.033534	16.000000	n/a	0	0	-2.324219e-01
356.874100	1.033534	dec_choice	1.033534	16.000000	n/a	0	0	-2.317708e-01
356.874100	1.033534	dec_social_reject	1.033534	16.000000	n/a	0	0	2.994792e-02
356.874100	1.033534	dec_reject	1.033534	16.000000	n/a	0	0	2.604167e-02
356.874100	1.033534	dec_social_low	1.033534	16.000000	n/a	0	-2.317708e-01	-2.317708e-01
356.874100	1.033534	dec_social_reject_low	1.033534	16.000000	n/a	2	-1.067708e-01	-2.317708e-01
366.140380	0.866705	dec_nonsocial_choice	0.866705	16.000000	n/a	8	2.675781e-01	2.675781e-01
366.140380	0.866705	dec_choice	0.866705	16.000000	n/a	8	2.669271e-01	2.669271e-01
366.140380	0.866705	dec_nonsocial_accept	0.866705	16.000000	n/a	8	1.302083e-01	1.302083e-01
366.140380	0.866705	dec_accept	0.866705	16.000000	n/a	8	1.250000e-01	1.250000e-01
366.140380	0.866705	dec_nonsocial_accept_high	0.866705	16.000000	n/a	8	1.354167e-01	1.354167e-01
372.974200	1.033422	dec_nonsocial_choice	1.033422	32.000000	n/a	0	0	-2.324219e-01
372.974200	1.033422	dec_choice	1.033422	32.000000	n/a	0	0	-2.330729e-01
372.974200	1.033422	dec_nonsocial_reject	1.033422	32.000000	n/a	0	0	-3.255208e-02
372.974200	1.033422	dec_reject	1.033422	32.000000	n/a	0	0	-2.864583e-02
372.974200	1.033422	dec_nonsocial_reject_low	1.033422	32.000000	n/a	2	-3.645833e-02	-9.895833e-02
