onset	duration	trial_type	response_time	Endowment	Endowment_pmod	Decision	Decision_pmod	Offer_pmod
4.519703	2	cue_nonsocial	n/a	32	7	n/a	n/a	n/a
4.519703	2	cue_nonsocial_high	n/a	32	11	n/a	n/a	n/a
11.457913	2	cue_social	n/a	16	-5	n/a	n/a	n/a
11.457913	2	cue_social_low	n/a	16	-9	n/a	n/a	n/a
20.687075	2	cue_social	n/a	16	-5	n/a	n/a	n/a
20.687075	2	cue_social_low	n/a	16	-9	n/a	n/a	n/a
27.453049	2	cue_nonsocial	n/a	16	-9	n/a	n/a	n/a
27.453049	2	cue_nonsocial_low	n/a	16	-5	n/a	n/a	n/a
34.286507	2	cue_nonsocial	n/a	32	7	n/a	n/a	n/a
34.286507	2	cue_nonsocial_high	n/a	32	11	n/a	n/a	n/a
42.000580	2	cue_social	n/a	32	11	n/a	n/a	n/a
42.000580	2	cue_social_high	n/a	32	7	n/a	n/a	n/a
48.770230	2	cue_nonsocial	n/a	16	-9	n/a	n/a	n/a
48.770230	2	cue_nonsocial_low	n/a	16	-5	n/a	n/a	n/a
59.636475	2	cue_nonsocial	n/a	32	7	n/a	n/a	n/a
59.636475	2	cue_nonsocial_high	n/a	32	11	n/a	n/a	n/a
66.538040	2	cue_social	n/a	16	-5	n/a	n/a	n/a
66.538040	2	cue_social_low	n/a	16	-9	n/a	n/a	n/a
74.180016	2	cue_social	n/a	32	11	n/a	n/a	n/a
74.180016	2	cue_social_high	n/a	32	7	n/a	n/a	n/a
80.952840	2	cue_nonsocial	n/a	32	7	n/a	n/a	n/a
80.952840	2	cue_nonsocial_high	n/a	32	11	n/a	n/a	n/a
88.602905	2	cue_nonsocial	n/a	16	-9	n/a	n/a	n/a
88.602905	2	cue_nonsocial_low	n/a	16	-5	n/a	n/a	n/a
95.436325	2	cue_nonsocial	n/a	16	-9	n/a	n/a	n/a
95.436325	2	cue_nonsocial_low	n/a	16	-5	n/a	n/a	n/a
104.759410	2	cue_social	n/a	16	-5	n/a	n/a	n/a
104.759410	2	cue_social_low	n/a	16	-9	n/a	n/a	n/a
112.413574	2	cue_social	n/a	16	-5	n/a	n/a	n/a
112.413574	2	cue_social_low	n/a	16	-9	n/a	n/a	n/a
120.080760	2	cue_social	n/a	16	-5	n/a	n/a	n/a
120.080760	2	cue_social_low	n/a	16	-9	n/a	n/a	n/a
126.899574	2	cue_social	n/a	16	-5	n/a	n/a	n/a
126.899574	2	cue_social_low	n/a	16	-9	n/a	n/a	n/a
133.795460	2	cue_social	n/a	32	11	n/a	n/a	n/a
133.795460	2	cue_social_high	n/a	32	7	n/a	n/a	n/a
141.319440	2	cue_nonsocial	n/a	32	7	n/a	n/a	n/a
141.319440	2	cue_nonsocial_high	n/a	32	11	n/a	n/a	n/a
149.026870	2	cue_social	n/a	32	11	n/a	n/a	n/a
149.026870	2	cue_social_high	n/a	32	7	n/a	n/a	n/a
158.218890	2	cue_nonsocial	n/a	32	7	n/a	n/a	n/a
158.218890	2	cue_nonsocial_high	n/a	32	11	n/a	n/a	n/a
167.485980	2	cue_nonsocial	n/a	32	7	n/a	n/a	n/a
167.485980	2	cue_nonsocial_high	n/a	32	11	n/a	n/a	n/a
175.168400	2	cue_social	n/a	16	-5	n/a	n/a	n/a
175.168400	2	cue_social_low	n/a	16	-9	n/a	n/a	n/a
182.786450	2	cue_nonsocial	n/a	32	7	n/a	n/a	n/a
182.786450	2	cue_nonsocial_high	n/a	32	11	n/a	n/a	n/a
189.619340	2	cue_nonsocial	n/a	32	7	n/a	n/a	n/a
189.619340	2	cue_nonsocial_high	n/a	32	11	n/a	n/a	n/a
196.533680	2	cue_social	n/a	16	-5	n/a	n/a	n/a
196.533680	2	cue_social_low	n/a	16	-9	n/a	n/a	n/a
203.285750	2	cue_nonsocial	n/a	32	7	n/a	n/a	n/a
203.285750	2	cue_nonsocial_high	n/a	32	11	n/a	n/a	n/a
210.119170	2	cue_nonsocial	n/a	32	7	n/a	n/a	n/a
210.119170	2	cue_nonsocial_high	n/a	32	11	n/a	n/a	n/a
217.817060	2	cue_social	n/a	16	-5	n/a	n/a	n/a
217.817060	2	cue_social_low	n/a	16	-9	n/a	n/a	n/a
225.419310	2	cue_nonsocial	n/a	16	-9	n/a	n/a	n/a
225.419310	2	cue_nonsocial_low	n/a	16	-5	n/a	n/a	n/a
232.308550	2	cue_social	n/a	16	-5	n/a	n/a	n/a
232.308550	2	cue_social_low	n/a	16	-9	n/a	n/a	n/a
239.085600	2	cue_nonsocial	n/a	16	-9	n/a	n/a	n/a
239.085600	2	cue_nonsocial_low	n/a	16	-5	n/a	n/a	n/a
245.919110	2	cue_nonsocial	n/a	16	-9	n/a	n/a	n/a
245.919110	2	cue_nonsocial_low	n/a	16	-5	n/a	n/a	n/a
252.819730	2	cue_social	n/a	16	-5	n/a	n/a	n/a
252.819730	2	cue_social_low	n/a	16	-9	n/a	n/a	n/a
259.585630	2	cue_nonsocial	n/a	16	-9	n/a	n/a	n/a
259.585630	2	cue_nonsocial_low	n/a	16	-5	n/a	n/a	n/a
266.419100	2	cue_nonsocial	n/a	16	-9	n/a	n/a	n/a
266.419100	2	cue_nonsocial_low	n/a	16	-5	n/a	n/a	n/a
275.685640	2	cue_nonsocial	n/a	16	-9	n/a	n/a	n/a
275.685640	2	cue_nonsocial_low	n/a	16	-5	n/a	n/a	n/a
284.952120	2	cue_nonsocial	n/a	16	-9	n/a	n/a	n/a
284.952120	2	cue_nonsocial_low	n/a	16	-5	n/a	n/a	n/a
291.869400	2	cue_social	n/a	16	-5	n/a	n/a	n/a
291.869400	2	cue_social_low	n/a	16	-9	n/a	n/a	n/a
304.357730	2	cue_social	n/a	16	-5	n/a	n/a	n/a
304.357730	2	cue_social_low	n/a	16	-9	n/a	n/a	n/a
311.209260	2	cue_social	n/a	16	-5	n/a	n/a	n/a
311.209260	2	cue_social_low	n/a	16	-9	n/a	n/a	n/a
318.823880	2	cue_social	n/a	32	11	n/a	n/a	n/a
318.823880	2	cue_social_high	n/a	32	7	n/a	n/a	n/a
325.671800	2	cue_social	n/a	32	11	n/a	n/a	n/a
325.671800	2	cue_social_high	n/a	32	7	n/a	n/a	n/a
336.452240	2	cue_nonsocial	n/a	32	7	n/a	n/a	n/a
336.452240	2	cue_nonsocial_high	n/a	32	11	n/a	n/a	n/a
347.410060	2	cue_social	n/a	16	-5	n/a	n/a	n/a
347.410060	2	cue_social_low	n/a	16	-9	n/a	n/a	n/a
354.220460	2	cue_social	n/a	16	-5	n/a	n/a	n/a
354.220460	2	cue_social_low	n/a	16	-9	n/a	n/a	n/a
363.402000	2	cue_nonsocial	n/a	32	7	n/a	n/a	n/a
363.402000	2	cue_nonsocial_high	n/a	32	11	n/a	n/a	n/a
371.122800	2	cue_social	n/a	32	11	n/a	n/a	n/a
371.122800	2	cue_social_high	n/a	32	7	n/a	n/a	n/a
6.526950	1.149328	dec_nonsocial_choice	1.149328	32.000000	n/a	16	2.695312e-01	2.695312e-01
6.526950	1.149328	dec_choice	1.149328	32.000000	n/a	16	2.708333e-01	2.708333e-01
6.526950	1.149328	dec_nonsocial_accept	1.149328	32.000000	n/a	16	1.019737e-01	1.019737e-01
6.526950	1.149328	dec_accept	1.149328	32.000000	n/a	16	1.306818e-01	1.306818e-01
6.526950	1.149328	dec_nonsocial_high	1.149328	32.000000	n/a	16	2.708333e-01	2.708333e-01
6.526950	1.149328	dec_nonsocial_accept_high	1.149328	32.000000	n/a	16	1.306818e-01	1.306818e-01
13.360019	0.982825	dec_social_choice	0.982825	16.000000	n/a	0	0	-2.304688e-01
13.360019	0.982825	dec_choice	0.982825	16.000000	n/a	0	0	-2.317708e-01
13.360019	0.982825	dec_social_reject	0.982825	16.000000	n/a	0	0	-5.818966e-02
13.360019	0.982825	dec_reject	0.982825	16.000000	n/a	0	0	-6.640625e-02
13.360019	0.982825	dec_social_reject_low	0.982825	16.000000	n/a	1	-1.692708e-01	-2.317708e-01
22.626670	1.199377	dec_social_choice	1.199377	16.000000	n/a	8	2.695312e-01	2.695312e-01
22.626670	1.199377	dec_choice	1.199377	16.000000	n/a	8	2.682292e-01	2.682292e-01
22.626670	1.199377	dec_social_accept	1.199377	16.000000	n/a	8	1.019737e-01	1.019737e-01
22.626670	1.199377	dec_accept	1.199377	16.000000	n/a	8	6.250000e-02	6.250000e-02
22.626670	1.199377	dec_social_high	1.199377	16.000000	n/a	8	2.682292e-01	2.682292e-01
22.626670	1.199377	dec_social_accept_high	1.199377	16.000000	n/a	8	2.682292e-01	2.682292e-01
29.460007	2.015790	dec_nonsocial_choice	2.015790	16.000000	n/a	8	2.695312e-01	2.695312e-01
29.460007	2.015790	dec_choice	2.015790	16.000000	n/a	8	2.708333e-01	2.708333e-01
29.460007	2.015790	dec_nonsocial_accept	2.015790	16.000000	n/a	8	1.019737e-01	1.019737e-01
29.460007	2.015790	dec_accept	2.015790	16.000000	n/a	8	1.306818e-01	1.306818e-01
29.460007	2.015790	dec_nonsocial_high	2.015790	16.000000	n/a	8	2.708333e-01	2.708333e-01
29.460007	2.015790	dec_nonsocial_accept_high	2.015790	16.000000	n/a	8	1.306818e-01	1.306818e-01
36.292900	0.949936	dec_nonsocial_choice	0.949936	32.000000	n/a	0	0	-2.304688e-01
36.292900	0.949936	dec_choice	0.949936	32.000000	n/a	0	0	-2.291667e-01
36.292900	0.949936	dec_nonsocial_reject	0.949936	32.000000	n/a	0	0	-2.693966e-02
36.292900	0.949936	dec_reject	0.949936	32.000000	n/a	0	0	-1.682692e-02
36.292900	0.949936	dec_nonsocial_reject_low	0.949936	32.000000	n/a	3	-3.515625e-02	-1.289062e-01
43.942772	1.033497	dec_social_choice	1.033497	32.000000	n/a	0	0	-2.304688e-01
43.942772	1.033497	dec_choice	1.033497	32.000000	n/a	0	0	-2.317708e-01
43.942772	1.033497	dec_social_reject	1.033497	32.000000	n/a	0	0	-2.693966e-02
43.942772	1.033497	dec_reject	1.033497	32.000000	n/a	0	0	-3.515625e-02
43.942772	1.033497	dec_social_low	1.033497	32.000000	n/a	0	-2.317708e-01	-2.317708e-01
43.942772	1.033497	dec_social_reject_low	1.033497	32.000000	n/a	3	-1.380208e-01	-2.317708e-01
50.776150	1.083342	dec_nonsocial_choice	1.083342	16.000000	n/a	0	0	-2.304688e-01
50.776150	1.083342	dec_choice	1.083342	16.000000	n/a	0	0	-2.291667e-01
50.776150	1.083342	dec_nonsocial_reject	1.083342	16.000000	n/a	0	0	1.293103e-01
50.776150	1.083342	dec_reject	1.083342	16.000000	n/a	0	0	1.394231e-01
50.776150	1.083342	dec_nonsocial_low	1.083342	16.000000	n/a	0	-2.291667e-01	-2.291667e-01
50.776150	1.083342	dec_nonsocial_reject_low	1.083342	16.000000	n/a	4	1.394231e-01	-1.105769e-01
61.643005	1.383449	dec_nonsocial_choice	1.383449	32.000000	n/a	0	0	-2.304688e-01
61.643005	1.383449	dec_choice	1.383449	32.000000	n/a	0	0	-2.291667e-01
61.643005	1.383449	dec_nonsocial_reject	1.383449	32.000000	n/a	0	0	-5.818966e-02
61.643005	1.383449	dec_reject	1.383449	32.000000	n/a	0	0	-4.807692e-02
61.643005	1.383449	dec_nonsocial_reject_low	1.383449	32.000000	n/a	2	-6.640625e-02	-1.289062e-01
68.475975	1.883685	dec_social_choice	1.883685	16.000000	n/a	0	0	-2.304688e-01
68.475975	1.883685	dec_choice	1.883685	16.000000	n/a	0	0	-2.317708e-01
68.475975	1.883685	dec_social_reject	1.883685	16.000000	n/a	0	0	4.310345e-03
68.475975	1.883685	dec_reject	1.883685	16.000000	n/a	0	0	-3.906250e-03
68.475975	1.883685	dec_social_reject_low	1.883685	16.000000	n/a	2	-1.067708e-01	-2.317708e-01
76.126180	1.249945	dec_social_choice	1.249945	32.000000	n/a	16	2.695312e-01	2.695312e-01
76.126180	1.249945	dec_choice	1.249945	32.000000	n/a	16	2.682292e-01	2.682292e-01
76.126180	1.249945	dec_social_accept	1.249945	32.000000	n/a	16	1.019737e-01	1.019737e-01
76.126180	1.249945	dec_accept	1.249945	32.000000	n/a	16	6.250000e-02	6.250000e-02
76.126180	1.249945	dec_social_high	1.249945	32.000000	n/a	16	2.682292e-01	2.682292e-01
76.126180	1.249945	dec_social_accept_high	1.249945	32.000000	n/a	16	2.682292e-01	2.682292e-01
82.959290	1.600442	dec_nonsocial_choice	1.600442	32.000000	n/a	0	0	-2.304688e-01
82.959290	1.600442	dec_choice	1.600442	32.000000	n/a	0	0	-2.291667e-01
82.959290	1.600442	dec_nonsocial_reject	1.600442	32.000000	n/a	0	0	-5.818966e-02
82.959290	1.600442	dec_reject	1.600442	32.000000	n/a	0	0	-4.807692e-02
82.959290	1.600442	dec_nonsocial_reject_low	1.600442	32.000000	n/a	2	-6.640625e-02	-1.289062e-01
90.609146	1.683555	dec_nonsocial_choice	1.683555	16.000000	n/a	0	0	-2.304688e-01
90.609146	1.683555	dec_choice	1.683555	16.000000	n/a	0	0	-2.291667e-01
90.609146	1.683555	dec_nonsocial_reject	1.683555	16.000000	n/a	0	0	1.293103e-01
90.609146	1.683555	dec_reject	1.683555	16.000000	n/a	0	0	1.394231e-01
90.609146	1.683555	dec_nonsocial_low	1.683555	16.000000	n/a	0	-2.291667e-01	-2.291667e-01
90.609146	1.683555	dec_nonsocial_reject_low	1.683555	16.000000	n/a	4	1.394231e-01	-1.105769e-01
97.441970	1.266963	dec_nonsocial_choice	1.266963	16.000000	n/a	0	0	-2.304688e-01
97.441970	1.266963	dec_choice	1.266963	16.000000	n/a	0	0	-2.291667e-01
97.441970	1.266963	dec_nonsocial_reject	1.266963	16.000000	n/a	0	0	-5.818966e-02
97.441970	1.266963	dec_reject	1.266963	16.000000	n/a	0	0	-4.807692e-02
97.441970	1.266963	dec_nonsocial_low	1.266963	16.000000	n/a	0	-2.291667e-01	-2.291667e-01
97.441970	1.266963	dec_nonsocial_reject_low	1.266963	16.000000	n/a	1	-4.807692e-02	-1.105769e-01
106.708630	1.400818	dec_social_choice	1.400818	16.000000	n/a	0	0	-2.304688e-01
106.708630	1.400818	dec_choice	1.400818	16.000000	n/a	0	0	-2.317708e-01
106.708630	1.400818	dec_social_reject	1.400818	16.000000	n/a	0	0	1.293103e-01
106.708630	1.400818	dec_reject	1.400818	16.000000	n/a	0	0	1.210938e-01
106.708630	1.400818	dec_social_low	1.400818	16.000000	n/a	0	-2.317708e-01	-2.317708e-01
106.708630	1.400818	dec_social_reject_low	1.400818	16.000000	n/a	4	1.822917e-02	-2.317708e-01
114.359920	1.582725	dec_social_choice	1.582725	16.000000	n/a	0	0	-2.304688e-01
114.359920	1.582725	dec_choice	1.582725	16.000000	n/a	0	0	-2.317708e-01
114.359920	1.582725	dec_social_reject	1.582725	16.000000	n/a	0	0	1.293103e-01
114.359920	1.582725	dec_reject	1.582725	16.000000	n/a	0	0	1.210938e-01
114.359920	1.582725	dec_social_reject_low	1.582725	16.000000	n/a	4	1.822917e-02	-2.317708e-01
122.009910	1.915928	dec_social_choice	1.915928	16.000000	n/a	0	0	-2.304688e-01
122.009910	1.915928	dec_choice	1.915928	16.000000	n/a	0	0	-2.317708e-01
122.009910	1.915928	dec_social_reject	1.915928	16.000000	n/a	0	0	1.293103e-01
122.009910	1.915928	dec_reject	1.915928	16.000000	n/a	0	0	1.210938e-01
122.009910	1.915928	dec_social_reject_low	1.915928	16.000000	n/a	4	1.822917e-02	-2.317708e-01
128.842930	1.649664	dec_social_choice	1.649664	16.000000	n/a	8	2.695312e-01	2.695312e-01
128.842930	1.649664	dec_choice	1.649664	16.000000	n/a	8	2.682292e-01	2.682292e-01
128.842930	1.649664	dec_social_accept	1.649664	16.000000	n/a	8	1.019737e-01	1.019737e-01
128.842930	1.649664	dec_accept	1.649664	16.000000	n/a	8	6.250000e-02	6.250000e-02
128.842930	1.649664	dec_social_high	1.649664	16.000000	n/a	8	2.682292e-01	2.682292e-01
128.842930	1.649664	dec_social_accept_high	1.649664	16.000000	n/a	8	2.682292e-01	2.682292e-01
135.675920	1.482427	dec_social_choice	1.482427	32.000000	n/a	0	0	-2.304688e-01
135.675920	1.482427	dec_choice	1.482427	32.000000	n/a	0	0	-2.317708e-01
135.675920	1.482427	dec_social_reject	1.482427	32.000000	n/a	0	0	-5.818966e-02
135.675920	1.482427	dec_reject	1.482427	32.000000	n/a	0	0	-6.640625e-02
135.675920	1.482427	dec_social_reject_low	1.482427	32.000000	n/a	2	-1.692708e-01	-2.317708e-01
143.326900	1.732304	dec_nonsocial_choice	1.732304	32.000000	n/a	8	1.953125e-02	1.953125e-02
143.326900	1.732304	dec_choice	1.732304	32.000000	n/a	8	2.083333e-02	2.083333e-02
143.326900	1.732304	dec_nonsocial_accept	1.732304	32.000000	n/a	8	-1.480263e-01	-1.480263e-01
143.326900	1.732304	dec_accept	1.732304	32.000000	n/a	8	-1.193182e-01	-1.193182e-01
143.326900	1.732304	dec_nonsocial_high	1.732304	32.000000	n/a	8	2.083333e-02	2.083333e-02
143.326900	1.732304	dec_nonsocial_accept_high	1.732304	32.000000	n/a	8	-1.193182e-01	-1.193182e-01
150.974980	0.901099	dec_social_choice	0.901099	32.000000	n/a	0	0	-2.304688e-01
150.974980	0.901099	dec_choice	0.901099	32.000000	n/a	0	0	-2.317708e-01
150.974980	0.901099	dec_social_reject	0.901099	32.000000	n/a	0	0	-5.818966e-02
150.974980	0.901099	dec_reject	0.901099	32.000000	n/a	0	0	-6.640625e-02
150.974980	0.901099	dec_social_reject_low	0.901099	32.000000	n/a	2	-1.692708e-01	-2.317708e-01
160.226030	2.233380	dec_nonsocial_choice	2.233380	32.000000	n/a	0	0	-2.304688e-01
160.226030	2.233380	dec_choice	2.233380	32.000000	n/a	0	0	-2.291667e-01
160.226030	2.233380	dec_nonsocial_reject	2.233380	32.000000	n/a	0	0	-2.693966e-02
160.226030	2.233380	dec_reject	2.233380	32.000000	n/a	0	0	-1.682692e-02
160.226030	2.233380	dec_nonsocial_low	2.233380	32.000000	n/a	0	-2.291667e-01	-2.291667e-01
160.226030	2.233380	dec_nonsocial_reject_low	2.233380	32.000000	n/a	3	-1.682692e-02	-1.105769e-01
169.492280	1.216361	dec_nonsocial_choice	1.216361	32.000000	n/a	16	2.695312e-01	2.695312e-01
169.492280	1.216361	dec_choice	1.216361	32.000000	n/a	16	2.708333e-01	2.708333e-01
169.492280	1.216361	dec_nonsocial_accept	1.216361	32.000000	n/a	16	1.019737e-01	1.019737e-01
169.492280	1.216361	dec_accept	1.216361	32.000000	n/a	16	1.306818e-01	1.306818e-01
169.492280	1.216361	dec_nonsocial_accept_high	1.216361	32.000000	n/a	16	6.250000e-02	6.250000e-02
177.141850	0.933403	dec_social_choice	0.933403	16.000000	n/a	8	2.695312e-01	2.695312e-01
177.141850	0.933403	dec_choice	0.933403	16.000000	n/a	8	2.682292e-01	2.682292e-01
177.141850	0.933403	dec_social_accept	0.933403	16.000000	n/a	8	1.019737e-01	1.019737e-01
177.141850	0.933403	dec_accept	0.933403	16.000000	n/a	8	6.250000e-02	6.250000e-02
177.141850	0.933403	dec_social_accept_high	0.933403	16.000000	n/a	8	2.682292e-01	2.682292e-01
184.792850	1.165665	dec_nonsocial_choice	1.165665	32.000000	n/a	0	0	-2.304688e-01
184.792850	1.165665	dec_choice	1.165665	32.000000	n/a	0	0	-2.291667e-01
184.792850	1.165665	dec_nonsocial_reject	1.165665	32.000000	n/a	0	0	-5.818966e-02
184.792850	1.165665	dec_reject	1.165665	32.000000	n/a	0	0	-4.807692e-02
184.792850	1.165665	dec_nonsocial_low	1.165665	32.000000	n/a	0	-2.291667e-01	-2.291667e-01
184.792850	1.165665	dec_nonsocial_reject_low	1.165665	32.000000	n/a	2	-4.807692e-02	-1.105769e-01
191.625850	1.583195	dec_nonsocial_choice	1.583195	32.000000	n/a	0	0	-2.304688e-01
191.625850	1.583195	dec_choice	1.583195	32.000000	n/a	0	0	-2.291667e-01
191.625850	1.583195	dec_nonsocial_reject	1.583195	32.000000	n/a	0	0	-2.693966e-02
191.625850	1.583195	dec_reject	1.583195	32.000000	n/a	0	0	-1.682692e-02
191.625850	1.583195	dec_nonsocial_reject_low	1.583195	32.000000	n/a	3	-3.515625e-02	-1.289062e-01
198.458940	1.532985	dec_social_choice	1.532985	16.000000	n/a	8	2.695312e-01	2.695312e-01
198.458940	1.532985	dec_choice	1.532985	16.000000	n/a	8	2.682292e-01	2.682292e-01
198.458940	1.532985	dec_social_accept	1.532985	16.000000	n/a	8	1.019737e-01	1.019737e-01
198.458940	1.532985	dec_accept	1.532985	16.000000	n/a	8	6.250000e-02	6.250000e-02
198.458940	1.532985	dec_social_accept_high	1.532985	16.000000	n/a	8	2.682292e-01	2.682292e-01
205.292500	1.483459	dec_nonsocial_choice	1.483459	32.000000	n/a	2	-1.679688e-01	-1.679688e-01
205.292500	1.483459	dec_choice	1.483459	32.000000	n/a	2	-1.666667e-01	-1.666667e-01
205.292500	1.483459	dec_nonsocial_accept	1.483459	32.000000	n/a	2	-3.355263e-01	-3.355263e-01
205.292500	1.483459	dec_accept	1.483459	32.000000	n/a	2	-3.068182e-01	-3.068182e-01
205.292500	1.483459	dec_nonsocial_low	1.483459	32.000000	n/a	2	-1.666667e-01	-1.666667e-01
205.292500	1.483459	dec_nonsocial_accept_low	1.483459	32.000000	n/a	2	-3.068182e-01	-3.068182e-01
212.125950	2.065905	dec_nonsocial_choice	2.065905	32.000000	n/a	8	1.953125e-02	1.953125e-02
212.125950	2.065905	dec_choice	2.065905	32.000000	n/a	8	2.083333e-02	2.083333e-02
212.125950	2.065905	dec_nonsocial_accept	2.065905	32.000000	n/a	8	-1.480263e-01	-1.480263e-01
212.125950	2.065905	dec_accept	2.065905	32.000000	n/a	8	-1.193182e-01	-1.193182e-01
212.125950	2.065905	dec_nonsocial_accept_high	2.065905	32.000000	n/a	8	-1.875000e-01	-1.875000e-01
219.775440	1.349927	dec_social_choice	1.349927	16.000000	n/a	0	0	-2.304688e-01
219.775440	1.349927	dec_choice	1.349927	16.000000	n/a	0	0	-2.317708e-01
219.775440	1.349927	dec_social_reject	1.349927	16.000000	n/a	0	0	-5.818966e-02
219.775440	1.349927	dec_reject	1.349927	16.000000	n/a	0	0	-6.640625e-02
219.775440	1.349927	dec_social_low	1.349927	16.000000	n/a	0	-2.317708e-01	-2.317708e-01
219.775440	1.349927	dec_social_reject_low	1.349927	16.000000	n/a	1	-1.692708e-01	-2.317708e-01
227.425810	1.916125	dec_nonsocial_choice	1.916125	16.000000	n/a	0	0	-2.304688e-01
227.425810	1.916125	dec_choice	1.916125	16.000000	n/a	0	0	-2.291667e-01
227.425810	1.916125	dec_nonsocial_reject	1.916125	16.000000	n/a	0	0	4.310345e-03
227.425810	1.916125	dec_reject	1.916125	16.000000	n/a	0	0	1.442308e-02
227.425810	1.916125	dec_nonsocial_reject_low	1.916125	16.000000	n/a	2	-3.906250e-03	-1.289062e-01
234.258790	1.116097	dec_social_choice	1.116097	16.000000	n/a	0	0	-2.304688e-01
234.258790	1.116097	dec_choice	1.116097	16.000000	n/a	0	0	-2.317708e-01
234.258790	1.116097	dec_social_reject	1.116097	16.000000	n/a	0	0	-5.818966e-02
234.258790	1.116097	dec_reject	1.116097	16.000000	n/a	0	0	-6.640625e-02
234.258790	1.116097	dec_social_low	1.116097	16.000000	n/a	0	-2.317708e-01	-2.317708e-01
234.258790	1.116097	dec_social_reject_low	1.116097	16.000000	n/a	1	-1.692708e-01	-2.317708e-01
241.092820	1.565789	dec_nonsocial_choice	1.565789	16.000000	n/a	0	0	-2.304688e-01
241.092820	1.565789	dec_choice	1.565789	16.000000	n/a	0	0	-2.291667e-01
241.092820	1.565789	dec_nonsocial_reject	1.565789	16.000000	n/a	0	0	-5.818966e-02
241.092820	1.565789	dec_reject	1.565789	16.000000	n/a	0	0	-4.807692e-02
241.092820	1.565789	dec_nonsocial_reject_low	1.565789	16.000000	n/a	1	-6.640625e-02	-1.289062e-01
247.926770	1.299097	dec_nonsocial_choice	1.299097	16.000000	n/a	8	2.695312e-01	2.695312e-01
247.926770	1.299097	dec_choice	1.299097	16.000000	n/a	8	2.708333e-01	2.708333e-01
247.926770	1.299097	dec_nonsocial_accept	1.299097	16.000000	n/a	8	1.019737e-01	1.019737e-01
247.926770	1.299097	dec_accept	1.299097	16.000000	n/a	8	1.306818e-01	1.306818e-01
247.926770	1.299097	dec_nonsocial_accept_high	1.299097	16.000000	n/a	8	6.250000e-02	6.250000e-02
254.759770	2.698983	dec_social_choice	2.698983	16.000000	n/a	0	0	-2.304688e-01
254.759770	2.698983	dec_choice	2.698983	16.000000	n/a	0	0	-2.317708e-01
254.759770	2.698983	dec_social_reject	2.698983	16.000000	n/a	0	0	1.293103e-01
254.759770	2.698983	dec_reject	2.698983	16.000000	n/a	0	0	1.210938e-01
254.759770	2.698983	dec_social_low	2.698983	16.000000	n/a	0	-2.317708e-01	-2.317708e-01
254.759770	2.698983	dec_social_reject_low	2.698983	16.000000	n/a	4	1.822917e-02	-2.317708e-01
261.592770	1.399365	dec_nonsocial_choice	1.399365	16.000000	n/a	4	1.953125e-02	1.953125e-02
261.592770	1.399365	dec_choice	1.399365	16.000000	n/a	4	2.083333e-02	2.083333e-02
261.592770	1.399365	dec_nonsocial_accept	1.399365	16.000000	n/a	4	-1.480263e-01	-1.480263e-01
261.592770	1.399365	dec_accept	1.399365	16.000000	n/a	4	-1.193182e-01	-1.193182e-01
261.592770	1.399365	dec_nonsocial_high	1.399365	16.000000	n/a	4	2.083333e-02	2.083333e-02
261.592770	1.399365	dec_nonsocial_accept_high	1.399365	16.000000	n/a	4	-1.193182e-01	-1.193182e-01
268.424800	1.116717	dec_nonsocial_choice	1.116717	16.000000	n/a	0	0	-2.304688e-01
268.424800	1.116717	dec_choice	1.116717	16.000000	n/a	0	0	-2.291667e-01
268.424800	1.116717	dec_nonsocial_reject	1.116717	16.000000	n/a	0	0	4.310345e-03
268.424800	1.116717	dec_reject	1.116717	16.000000	n/a	0	0	1.442308e-02
268.424800	1.116717	dec_nonsocial_low	1.116717	16.000000	n/a	0	-2.291667e-01	-2.291667e-01
268.424800	1.116717	dec_nonsocial_reject_low	1.116717	16.000000	n/a	2	1.442308e-02	-1.105769e-01
277.692750	0.832691	dec_nonsocial_choice	0.832691	16.000000	n/a	8	2.695312e-01	2.695312e-01
277.692750	0.832691	dec_choice	0.832691	16.000000	n/a	8	2.708333e-01	2.708333e-01
277.692750	0.832691	dec_nonsocial_accept	0.832691	16.000000	n/a	8	1.019737e-01	1.019737e-01
277.692750	0.832691	dec_accept	0.832691	16.000000	n/a	8	1.306818e-01	1.306818e-01
277.692750	0.832691	dec_nonsocial_accept_high	0.832691	16.000000	n/a	8	6.250000e-02	6.250000e-02
286.958860	2.216058	dec_nonsocial_choice	2.216058	16.000000	n/a	4	1.953125e-02	1.953125e-02
286.958860	2.216058	dec_choice	2.216058	16.000000	n/a	4	2.083333e-02	2.083333e-02
286.958860	2.216058	dec_nonsocial_accept	2.216058	16.000000	n/a	4	-1.480263e-01	-1.480263e-01
286.958860	2.216058	dec_accept	2.216058	16.000000	n/a	4	-1.193182e-01	-1.193182e-01
286.958860	2.216058	dec_nonsocial_high	2.216058	16.000000	n/a	4	2.083333e-02	2.083333e-02
286.958860	2.216058	dec_nonsocial_accept_high	2.216058	16.000000	n/a	4	-1.193182e-01	-1.193182e-01
293.791780	0.966760	dec_social_choice	0.966760	16.000000	n/a	0	0	-2.304688e-01
293.791780	0.966760	dec_choice	0.966760	16.000000	n/a	0	0	-2.317708e-01
293.791780	0.966760	dec_social_reject	0.966760	16.000000	n/a	0	0	-5.818966e-02
293.791780	0.966760	dec_reject	0.966760	16.000000	n/a	0	0	-6.640625e-02
293.791780	0.966760	dec_social_reject_low	0.966760	16.000000	n/a	1	-1.692708e-01	-2.317708e-01
306.275760	1.499529	dec_social_choice	1.499529	16.000000	n/a	0	0	-2.304688e-01
306.275760	1.499529	dec_choice	1.499529	16.000000	n/a	0	0	-2.317708e-01
306.275760	1.499529	dec_social_reject	1.499529	16.000000	n/a	0	0	4.310345e-03
306.275760	1.499529	dec_reject	1.499529	16.000000	n/a	0	0	-3.906250e-03
306.275760	1.499529	dec_social_reject_low	1.499529	16.000000	n/a	2	-1.067708e-01	-2.317708e-01
313.107760	1.467112	dec_social_choice	1.467112	16.000000	n/a	0	0	-2.304688e-01
313.107760	1.467112	dec_choice	1.467112	16.000000	n/a	0	0	-2.317708e-01
313.107760	1.467112	dec_social_reject	1.467112	16.000000	n/a	0	0	4.310345e-03
313.107760	1.467112	dec_reject	1.467112	16.000000	n/a	0	0	-3.906250e-03
313.107760	1.467112	dec_social_low	1.467112	16.000000	n/a	0	-2.317708e-01	-2.317708e-01
313.107760	1.467112	dec_social_reject_low	1.467112	16.000000	n/a	2	-1.067708e-01	-2.317708e-01
320.758730	2.633148	dec_social_choice	2.633148	32.000000	n/a	8	1.953125e-02	1.953125e-02
320.758730	2.633148	dec_choice	2.633148	32.000000	n/a	8	1.822917e-02	1.822917e-02
320.758730	2.633148	dec_social_accept	2.633148	32.000000	n/a	8	-1.480263e-01	-1.480263e-01
320.758730	2.633148	dec_accept	2.633148	32.000000	n/a	8	-1.875000e-01	-1.875000e-01
320.758730	2.633148	dec_social_high	2.633148	32.000000	n/a	8	1.822917e-02	1.822917e-02
320.758730	2.633148	dec_social_accept_high	2.633148	32.000000	n/a	8	1.822917e-02	1.822917e-02
327.591200	1.033640	dec_social_choice	1.033640	32.000000	n/a	8	1.953125e-02	1.953125e-02
327.591200	1.033640	dec_choice	1.033640	32.000000	n/a	8	1.822917e-02	1.822917e-02
327.591200	1.033640	dec_social_accept	1.033640	32.000000	n/a	8	-1.480263e-01	-1.480263e-01
327.591200	1.033640	dec_accept	1.033640	32.000000	n/a	8	-1.875000e-01	-1.875000e-01
327.591200	1.033640	dec_social_high	1.033640	32.000000	n/a	8	1.822917e-02	1.822917e-02
327.591200	1.033640	dec_social_accept_high	1.033640	32.000000	n/a	8	1.822917e-02	1.822917e-02
338.458370	1.400332	dec_nonsocial_choice	1.400332	32.000000	n/a	0	0	-2.304688e-01
338.458370	1.400332	dec_choice	1.400332	32.000000	n/a	0	0	-2.291667e-01
338.458370	1.400332	dec_nonsocial_reject	1.400332	32.000000	n/a	0	0	-2.693966e-02
338.458370	1.400332	dec_reject	1.400332	32.000000	n/a	0	0	-1.682692e-02
338.458370	1.400332	dec_nonsocial_low	1.400332	32.000000	n/a	0	-2.291667e-01	-2.291667e-01
338.458370	1.400332	dec_nonsocial_reject_low	1.400332	32.000000	n/a	3	-1.682692e-02	-1.105769e-01
349.325500	0.949598	dec_social_choice	0.949598	16.000000	n/a	0	0	-2.304688e-01
349.325500	0.949598	dec_choice	0.949598	16.000000	n/a	0	0	-2.317708e-01
349.325500	0.949598	dec_social_reject	0.949598	16.000000	n/a	0	0	4.310345e-03
349.325500	0.949598	dec_reject	0.949598	16.000000	n/a	0	0	-3.906250e-03
349.325500	0.949598	dec_social_reject_low	0.949598	16.000000	n/a	2	-1.067708e-01	-2.317708e-01
356.157750	1.234137	dec_social_choice	1.234137	16.000000	n/a	8	2.695312e-01	2.695312e-01
356.157750	1.234137	dec_choice	1.234137	16.000000	n/a	8	2.682292e-01	2.682292e-01
356.157750	1.234137	dec_social_accept	1.234137	16.000000	n/a	8	1.019737e-01	1.019737e-01
356.157750	1.234137	dec_accept	1.234137	16.000000	n/a	8	6.250000e-02	6.250000e-02
356.157750	1.234137	dec_social_accept_high	1.234137	16.000000	n/a	8	2.682292e-01	2.682292e-01
365.407680	1.050785	dec_nonsocial_choice	1.050785	32.000000	n/a	16	2.695312e-01	2.695312e-01
365.407680	1.050785	dec_choice	1.050785	32.000000	n/a	16	2.708333e-01	2.708333e-01
365.407680	1.050785	dec_nonsocial_accept	1.050785	32.000000	n/a	16	1.019737e-01	1.019737e-01
365.407680	1.050785	dec_accept	1.050785	32.000000	n/a	16	1.306818e-01	1.306818e-01
365.407680	1.050785	dec_nonsocial_accept_high	1.050785	32.000000	n/a	16	6.250000e-02	6.250000e-02
373.059660	1.532049	dec_social_choice	1.532049	32.000000	n/a	0	0	-2.304688e-01
373.059660	1.532049	dec_choice	1.532049	32.000000	n/a	0	0	-2.317708e-01
373.059660	1.532049	dec_social_reject	1.532049	32.000000	n/a	0	0	-2.693966e-02
373.059660	1.532049	dec_reject	1.532049	32.000000	n/a	0	0	-3.515625e-02
373.059660	1.532049	dec_social_reject_low	1.532049	32.000000	n/a	3	-1.380208e-01	-2.317708e-01
