onset	duration	trial_type	response_time	Endowment	Endowment_pmod	Decision	Decision_pmod	Offer_pmod
4.519052	2	cue_nonsocial	n/a	16	-6	n/a	n/a	n/a
4.519052	2	cue_nonsocial_low	n/a	16	-7	n/a	n/a	n/a
13.768817	2	cue_nonsocial	n/a	16	-6	n/a	n/a	n/a
13.768817	2	cue_nonsocial_low	n/a	16	-7	n/a	n/a	n/a
21.418852	2	cue_nonsocial	n/a	16	-6	n/a	n/a	n/a
21.418852	2	cue_nonsocial_low	n/a	16	-7	n/a	n/a	n/a
29.147470	2	cue_social	n/a	16	-7	n/a	n/a	n/a
29.147470	2	cue_social_low	n/a	16	-6	n/a	n/a	n/a
36.000996	2	cue_social	n/a	16	-7	n/a	n/a	n/a
36.000996	2	cue_social_low	n/a	16	-6	n/a	n/a	n/a
43.552334	2	cue_nonsocial	n/a	16	-6	n/a	n/a	n/a
43.552334	2	cue_nonsocial_low	n/a	16	-7	n/a	n/a	n/a
51.186474	2	cue_nonsocial	n/a	32	10	n/a	n/a	n/a
51.186474	2	cue_nonsocial_high	n/a	32	9	n/a	n/a	n/a
58.835075	2	cue_nonsocial	n/a	16	-6	n/a	n/a	n/a
58.835075	2	cue_nonsocial_low	n/a	16	-7	n/a	n/a	n/a
65.766990	2	cue_social	n/a	16	-7	n/a	n/a	n/a
65.766990	2	cue_social_low	n/a	16	-6	n/a	n/a	n/a
73.397310	2	cue_social	n/a	32	9	n/a	n/a	n/a
73.397310	2	cue_social_high	n/a	32	10	n/a	n/a	n/a
80.232370	2	cue_social	n/a	16	-7	n/a	n/a	n/a
80.232370	2	cue_social_low	n/a	16	-6	n/a	n/a	n/a
92.647630	2	cue_social	n/a	32	9	n/a	n/a	n/a
92.647630	2	cue_social_high	n/a	32	10	n/a	n/a	n/a
99.468990	2	cue_nonsocial	n/a	16	-6	n/a	n/a	n/a
99.468990	2	cue_nonsocial_low	n/a	16	-7	n/a	n/a	n/a
106.382820	2	cue_social	n/a	32	9	n/a	n/a	n/a
106.382820	2	cue_social_high	n/a	32	10	n/a	n/a	n/a
113.135670	2	cue_nonsocial	n/a	32	10	n/a	n/a	n/a
113.135670	2	cue_nonsocial_high	n/a	32	9	n/a	n/a	n/a
122.471030	2	cue_social	n/a	32	9	n/a	n/a	n/a
122.471030	2	cue_social_high	n/a	32	10	n/a	n/a	n/a
133.268800	2	cue_nonsocial	n/a	16	-6	n/a	n/a	n/a
133.268800	2	cue_nonsocial_low	n/a	16	-7	n/a	n/a	n/a
140.199160	2	cue_social	n/a	32	9	n/a	n/a	n/a
140.199160	2	cue_social_high	n/a	32	10	n/a	n/a	n/a
147.839260	2	cue_social	n/a	16	-7	n/a	n/a	n/a
147.839260	2	cue_social_low	n/a	16	-6	n/a	n/a	n/a
154.656450	2	cue_social	n/a	32	9	n/a	n/a	n/a
154.656450	2	cue_social_high	n/a	32	10	n/a	n/a	n/a
163.919270	2	cue_social	n/a	16	-7	n/a	n/a	n/a
163.919270	2	cue_social_low	n/a	16	-6	n/a	n/a	n/a
173.184980	2	cue_social	n/a	32	9	n/a	n/a	n/a
173.184980	2	cue_social_high	n/a	32	10	n/a	n/a	n/a
180.751890	2	cue_nonsocial	n/a	16	-6	n/a	n/a	n/a
180.751890	2	cue_nonsocial_low	n/a	16	-7	n/a	n/a	n/a
188.402820	2	cue_nonsocial	n/a	32	10	n/a	n/a	n/a
188.402820	2	cue_nonsocial_high	n/a	32	9	n/a	n/a	n/a
196.051820	2	cue_nonsocial	n/a	32	10	n/a	n/a	n/a
196.051820	2	cue_nonsocial_high	n/a	32	9	n/a	n/a	n/a
202.885120	2	cue_nonsocial	n/a	16	-6	n/a	n/a	n/a
202.885120	2	cue_nonsocial_low	n/a	16	-7	n/a	n/a	n/a
210.535230	2	cue_nonsocial	n/a	32	10	n/a	n/a	n/a
210.535230	2	cue_nonsocial_high	n/a	32	9	n/a	n/a	n/a
217.441500	2	cue_social	n/a	16	-7	n/a	n/a	n/a
217.441500	2	cue_social_low	n/a	16	-6	n/a	n/a	n/a
225.001890	2	cue_nonsocial	n/a	16	-6	n/a	n/a	n/a
225.001890	2	cue_nonsocial_low	n/a	16	-7	n/a	n/a	n/a
231.834900	2	cue_nonsocial	n/a	16	-6	n/a	n/a	n/a
231.834900	2	cue_nonsocial_low	n/a	16	-7	n/a	n/a	n/a
238.759250	2	cue_social	n/a	16	-7	n/a	n/a	n/a
238.759250	2	cue_social_low	n/a	16	-6	n/a	n/a	n/a
249.534680	2	cue_nonsocial	n/a	32	10	n/a	n/a	n/a
249.534680	2	cue_nonsocial_high	n/a	32	9	n/a	n/a	n/a
257.185030	2	cue_nonsocial	n/a	16	-6	n/a	n/a	n/a
257.185030	2	cue_nonsocial_low	n/a	16	-7	n/a	n/a	n/a
264.078700	2	cue_social	n/a	16	-7	n/a	n/a	n/a
264.078700	2	cue_social_low	n/a	16	-6	n/a	n/a	n/a
270.851780	2	cue_nonsocial	n/a	32	10	n/a	n/a	n/a
270.851780	2	cue_nonsocial_high	n/a	32	9	n/a	n/a	n/a
280.172270	2	cue_social	n/a	32	9	n/a	n/a	n/a
280.172270	2	cue_social_high	n/a	32	10	n/a	n/a	n/a
287.025020	2	cue_social	n/a	16	-7	n/a	n/a	n/a
287.025020	2	cue_social_low	n/a	16	-6	n/a	n/a	n/a
293.784800	2	cue_nonsocial	n/a	16	-6	n/a	n/a	n/a
293.784800	2	cue_nonsocial_low	n/a	16	-7	n/a	n/a	n/a
300.690730	2	cue_social	n/a	16	-7	n/a	n/a	n/a
300.690730	2	cue_social_low	n/a	16	-6	n/a	n/a	n/a
309.867920	2	cue_nonsocial	n/a	32	10	n/a	n/a	n/a
309.867920	2	cue_nonsocial_high	n/a	32	9	n/a	n/a	n/a
316.753630	2	cue_social	n/a	32	9	n/a	n/a	n/a
316.753630	2	cue_social_high	n/a	32	10	n/a	n/a	n/a
323.650670	2	cue_social	n/a	16	-7	n/a	n/a	n/a
323.650670	2	cue_social_low	n/a	16	-6	n/a	n/a	n/a
330.368070	2	cue_nonsocial	n/a	16	-6	n/a	n/a	n/a
330.368070	2	cue_nonsocial_low	n/a	16	-7	n/a	n/a	n/a
337.201450	2	cue_nonsocial	n/a	16	-6	n/a	n/a	n/a
337.201450	2	cue_nonsocial_low	n/a	16	-7	n/a	n/a	n/a
344.107270	2	cue_social	n/a	32	9	n/a	n/a	n/a
344.107270	2	cue_social_high	n/a	32	10	n/a	n/a	n/a
354.977840	2	cue_social	n/a	16	-7	n/a	n/a	n/a
354.977840	2	cue_social_low	n/a	16	-6	n/a	n/a	n/a
364.215580	2	cue_social	n/a	32	9	n/a	n/a	n/a
364.215580	2	cue_social_high	n/a	32	10	n/a	n/a	n/a
370.984920	2	cue_nonsocial	n/a	32	10	n/a	n/a	n/a
370.984920	2	cue_nonsocial_high	n/a	32	9	n/a	n/a	n/a
6.526071	1.449525	dec_nonsocial_choice	1.449525	16.000000	n/a	0	0	-2.307181e-01
6.526071	1.449525	dec_choice	1.449525	16.000000	n/a	0	0	-2.309783e-01
6.526071	1.449525	dec_nonsocial_reject	1.449525	16.000000	n/a	0	0	-6.628788e-03
6.526071	1.449525	dec_reject	1.449525	16.000000	n/a	0	0	-1.102941e-02
6.526071	1.449525	dec_nonsocial_reject_low	1.449525	16.000000	n/a	2	-1.953125e-03	-1.269531e-01
15.776015	2.016171	dec_nonsocial_choice	2.016171	16.000000	n/a	0	0	-2.307181e-01
15.776015	2.016171	dec_choice	2.016171	16.000000	n/a	0	0	-2.309783e-01
15.776015	2.016171	dec_nonsocial_reject	2.016171	16.000000	n/a	0	0	1.183712e-01
15.776015	2.016171	dec_reject	2.016171	16.000000	n/a	0	0	1.139706e-01
15.776015	2.016171	dec_nonsocial_reject_low	2.016171	16.000000	n/a	4	1.230469e-01	-1.269531e-01
23.425379	2.183397	dec_nonsocial_choice	2.183397	16.000000	n/a	0	0	-2.307181e-01
23.425379	2.183397	dec_choice	2.183397	16.000000	n/a	0	0	-2.309783e-01
23.425379	2.183397	dec_nonsocial_reject	2.183397	16.000000	n/a	0	0	-6.912879e-02
23.425379	2.183397	dec_reject	2.183397	16.000000	n/a	0	0	-7.352941e-02
23.425379	2.183397	dec_nonsocial_low	2.183397	16.000000	n/a	0	-2.309783e-01	-2.309783e-01
23.425379	2.183397	dec_nonsocial_reject_low	2.183397	16.000000	n/a	1	-7.352941e-02	-1.360294e-01
31.074966	1.267117	dec_social_choice	1.267117	16.000000	n/a	0	0	-2.307181e-01
31.074966	1.267117	dec_choice	1.267117	16.000000	n/a	0	0	-2.304688e-01
31.074966	1.267117	dec_social_reject	1.267117	16.000000	n/a	0	0	-6.912879e-02
31.074966	1.267117	dec_reject	1.267117	16.000000	n/a	0	0	-6.445312e-02
31.074966	1.267117	dec_social_low	1.267117	16.000000	n/a	0	-2.304688e-01	-2.304688e-01
31.074966	1.267117	dec_social_reject_low	1.267117	16.000000	n/a	1	-1.679688e-01	-2.304688e-01
37.908016	2.050772	dec_social_choice	2.050772	16.000000	n/a	8	2.692819e-01	2.692819e-01
37.908016	2.050772	dec_choice	2.050772	16.000000	n/a	8	2.695312e-01	2.695312e-01
37.908016	2.050772	dec_social_accept	2.050772	16.000000	n/a	8	3.571429e-02	3.571429e-02
37.908016	2.050772	dec_accept	2.050772	16.000000	n/a	8	6.250000e-02	6.250000e-02
37.908016	2.050772	dec_social_high	2.050772	16.000000	n/a	8	2.695312e-01	2.695312e-01
37.908016	2.050772	dec_social_accept_high	2.050772	16.000000	n/a	8	2.695312e-01	2.695312e-01
45.558033	2.000779	dec_nonsocial_choice	2.000779	16.000000	n/a	0	0	-2.307181e-01
45.558033	2.000779	dec_choice	2.000779	16.000000	n/a	0	0	-2.309783e-01
45.558033	2.000779	dec_nonsocial_reject	2.000779	16.000000	n/a	0	0	-6.628788e-03
45.558033	2.000779	dec_reject	2.000779	16.000000	n/a	0	0	-1.102941e-02
45.558033	2.000779	dec_nonsocial_reject_low	2.000779	16.000000	n/a	2	-1.953125e-03	-1.269531e-01
53.191986	1.349738	dec_nonsocial_choice	1.349738	32.000000	n/a	16	2.692819e-01	2.692819e-01
53.191986	1.349738	dec_choice	1.349738	32.000000	n/a	16	2.690217e-01	2.690217e-01
53.191986	1.349738	dec_nonsocial_accept	1.349738	32.000000	n/a	16	3.571429e-02	3.571429e-02
53.191986	1.349738	dec_accept	1.349738	32.000000	n/a	16	0	0
53.191986	1.349738	dec_nonsocial_accept_high	1.349738	32.000000	n/a	16	6.250000e-02	6.250000e-02
60.841988	1.566287	dec_nonsocial_choice	1.566287	16.000000	n/a	8	2.692819e-01	2.692819e-01
60.841988	1.566287	dec_choice	1.566287	16.000000	n/a	8	2.690217e-01	2.690217e-01
60.841988	1.566287	dec_nonsocial_accept	1.566287	16.000000	n/a	8	3.571429e-02	3.571429e-02
60.841988	1.566287	dec_accept	1.566287	16.000000	n/a	8	0	0
60.841988	1.566287	dec_nonsocial_accept_high	1.566287	16.000000	n/a	8	6.250000e-02	6.250000e-02
67.675960	2.232559	dec_social_choice	2.232559	16.000000	n/a	0	0	-2.307181e-01
67.675960	2.232559	dec_choice	2.232559	16.000000	n/a	0	0	-2.304688e-01
67.675960	2.232559	dec_social_reject	2.232559	16.000000	n/a	0	0	1.183712e-01
67.675960	2.232559	dec_reject	2.232559	16.000000	n/a	0	0	1.230469e-01
67.675960	2.232559	dec_social_low	2.232559	16.000000	n/a	0	-2.304688e-01	-2.304688e-01
67.675960	2.232559	dec_social_reject_low	2.232559	16.000000	n/a	4	1.953125e-02	-2.304688e-01
75.324930	1.516934	dec_social_choice	1.516934	32.000000	n/a	0	0	-2.307181e-01
75.324930	1.516934	dec_choice	1.516934	32.000000	n/a	0	0	-2.304688e-01
75.324930	1.516934	dec_social_reject	1.516934	32.000000	n/a	0	0	-6.912879e-02
75.324930	1.516934	dec_reject	1.516934	32.000000	n/a	0	0	-6.445312e-02
75.324930	1.516934	dec_social_low	1.516934	32.000000	n/a	0	-2.304688e-01	-2.304688e-01
75.324930	1.516934	dec_social_reject_low	1.516934	32.000000	n/a	2	-1.679688e-01	-2.304688e-01
82.157970	1.700665	dec_social_choice	1.700665	16.000000	n/a	8	2.692819e-01	2.692819e-01
82.157970	1.700665	dec_choice	1.700665	16.000000	n/a	8	2.695312e-01	2.695312e-01
82.157970	1.700665	dec_social_accept	1.700665	16.000000	n/a	8	3.571429e-02	3.571429e-02
82.157970	1.700665	dec_accept	1.700665	16.000000	n/a	8	6.250000e-02	6.250000e-02
82.157970	1.700665	dec_social_accept_high	1.700665	16.000000	n/a	8	2.695312e-01	2.695312e-01
94.641420	2.816866	dec_social_choice	2.816866	32.000000	n/a	0	0	-2.307181e-01
94.641420	2.816866	dec_choice	2.816866	32.000000	n/a	0	0	-2.304688e-01
94.641420	2.816866	dec_social_reject	2.816866	32.000000	n/a	0	0	-3.787879e-02
94.641420	2.816866	dec_reject	2.816866	32.000000	n/a	0	0	-3.320312e-02
94.641420	2.816866	dec_social_reject_low	2.816866	32.000000	n/a	3	-1.367188e-01	-2.304688e-01
101.474815	1.016495	dec_nonsocial_choice	1.016495	16.000000	n/a	0	0	-2.307181e-01
101.474815	1.016495	dec_choice	1.016495	16.000000	n/a	0	0	-2.309783e-01
101.474815	1.016495	dec_nonsocial_reject	1.016495	16.000000	n/a	0	0	-6.628788e-03
101.474815	1.016495	dec_reject	1.016495	16.000000	n/a	0	0	-1.102941e-02
101.474815	1.016495	dec_nonsocial_reject_low	1.016495	16.000000	n/a	2	-1.953125e-03	-1.269531e-01
108.307960	1.683447	dec_social_choice	1.683447	32.000000	n/a	8	1.928191e-02	1.928191e-02
108.307960	1.683447	dec_choice	1.683447	32.000000	n/a	8	1.953125e-02	1.953125e-02
108.307960	1.683447	dec_social_accept	1.683447	32.000000	n/a	8	-2.142857e-01	-2.142857e-01
108.307960	1.683447	dec_accept	1.683447	32.000000	n/a	8	-1.875000e-01	-1.875000e-01
108.307960	1.683447	dec_social_accept_high	1.683447	32.000000	n/a	8	1.953125e-02	1.953125e-02
115.141900	2.516719	dec_nonsocial_choice	2.516719	32.000000	n/a	0	0	-2.307181e-01
115.141900	2.516719	dec_choice	2.516719	32.000000	n/a	0	0	-2.309783e-01
115.141900	2.516719	dec_nonsocial_reject	2.516719	32.000000	n/a	0	0	-3.787879e-02
115.141900	2.516719	dec_reject	2.516719	32.000000	n/a	0	0	-4.227941e-02
115.141900	2.516719	dec_nonsocial_low	2.516719	32.000000	n/a	0	-2.309783e-01	-2.309783e-01
115.141900	2.516719	dec_nonsocial_reject_low	2.516719	32.000000	n/a	3	-4.227941e-02	-1.360294e-01
124.407920	2.284182	dec_social_choice	2.284182	32.000000	n/a	0	0	-2.307181e-01
124.407920	2.284182	dec_choice	2.284182	32.000000	n/a	0	0	-2.304688e-01
124.407920	2.284182	dec_social_reject	2.284182	32.000000	n/a	0	0	-3.787879e-02
124.407920	2.284182	dec_reject	2.284182	32.000000	n/a	0	0	-3.320312e-02
124.407920	2.284182	dec_social_reject_low	2.284182	32.000000	n/a	3	-1.367188e-01	-2.304688e-01
135.274540	1.534031	dec_nonsocial_choice	1.534031	16.000000	n/a	8	2.692819e-01	2.692819e-01
135.274540	1.534031	dec_choice	1.534031	16.000000	n/a	8	2.690217e-01	2.690217e-01
135.274540	1.534031	dec_nonsocial_accept	1.534031	16.000000	n/a	8	3.571429e-02	3.571429e-02
135.274540	1.534031	dec_accept	1.534031	16.000000	n/a	8	0	0
135.274540	1.534031	dec_nonsocial_high	1.534031	16.000000	n/a	8	2.690217e-01	2.690217e-01
135.274540	1.534031	dec_nonsocial_accept_high	1.534031	16.000000	n/a	8	0	0
142.107910	1.783879	dec_social_choice	1.783879	32.000000	n/a	0	0	-2.307181e-01
142.107910	1.783879	dec_choice	1.783879	32.000000	n/a	0	0	-2.304688e-01
142.107910	1.783879	dec_social_reject	1.783879	32.000000	n/a	0	0	-6.912879e-02
142.107910	1.783879	dec_reject	1.783879	32.000000	n/a	0	0	-6.445312e-02
142.107910	1.783879	dec_social_reject_low	1.783879	32.000000	n/a	2	-1.679688e-01	-2.304688e-01
149.757890	1.717949	dec_social_choice	1.717949	16.000000	n/a	0	0	-2.307181e-01
149.757890	1.717949	dec_choice	1.717949	16.000000	n/a	0	0	-2.304688e-01
149.757890	1.717949	dec_social_reject	1.717949	16.000000	n/a	0	0	-6.912879e-02
149.757890	1.717949	dec_reject	1.717949	16.000000	n/a	0	0	-6.445312e-02
149.757890	1.717949	dec_social_low	1.717949	16.000000	n/a	0	-2.304688e-01	-2.304688e-01
149.757890	1.717949	dec_social_reject_low	1.717949	16.000000	n/a	1	-1.679688e-01	-2.304688e-01
156.591870	2.816201	dec_social_choice	2.816201	32.000000	n/a	0	0	-2.307181e-01
156.591870	2.816201	dec_choice	2.816201	32.000000	n/a	0	0	-2.304688e-01
156.591870	2.816201	dec_social_reject	2.816201	32.000000	n/a	0	0	-3.787879e-02
156.591870	2.816201	dec_reject	2.816201	32.000000	n/a	0	0	-3.320312e-02
156.591870	2.816201	dec_social_low	2.816201	32.000000	n/a	0	-2.304688e-01	-2.304688e-01
156.591870	2.816201	dec_social_reject_low	2.816201	32.000000	n/a	3	-1.367188e-01	-2.304688e-01
165.857860	2.783429	dec_social_choice	2.783429	16.000000	n/a	0	0	-2.307181e-01
165.857860	2.783429	dec_choice	2.783429	16.000000	n/a	0	0	-2.304688e-01
165.857860	2.783429	dec_social_reject	2.783429	16.000000	n/a	0	0	1.183712e-01
165.857860	2.783429	dec_reject	2.783429	16.000000	n/a	0	0	1.230469e-01
165.857860	2.783429	dec_social_reject_low	2.783429	16.000000	n/a	4	1.953125e-02	-2.304688e-01
175.107850	1.333437	dec_social_choice	1.333437	32.000000	n/a	16	2.692819e-01	2.692819e-01
175.107850	1.333437	dec_choice	1.333437	32.000000	n/a	16	2.695312e-01	2.695312e-01
175.107850	1.333437	dec_social_accept	1.333437	32.000000	n/a	16	3.571429e-02	3.571429e-02
175.107850	1.333437	dec_accept	1.333437	32.000000	n/a	16	6.250000e-02	6.250000e-02
175.107850	1.333437	dec_social_high	1.333437	32.000000	n/a	16	2.695312e-01	2.695312e-01
175.107850	1.333437	dec_social_accept_high	1.333437	32.000000	n/a	16	2.695312e-01	2.695312e-01
182.757840	1.217042	dec_nonsocial_choice	1.217042	16.000000	n/a	0	0	-2.307181e-01
182.757840	1.217042	dec_choice	1.217042	16.000000	n/a	0	0	-2.309783e-01
182.757840	1.217042	dec_nonsocial_reject	1.217042	16.000000	n/a	0	0	-6.628788e-03
182.757840	1.217042	dec_reject	1.217042	16.000000	n/a	0	0	-1.102941e-02
182.757840	1.217042	dec_nonsocial_reject_low	1.217042	16.000000	n/a	2	-1.953125e-03	-1.269531e-01
190.407680	3.766946	missed_trial	3.766946	32.000000	n/a	n/a	n/a	n/a
198.058930	1.315649	dec_nonsocial_choice	1.315649	32.000000	n/a	0	0	-2.307181e-01
198.058930	1.315649	dec_choice	1.315649	32.000000	n/a	0	0	-2.309783e-01
198.058930	1.315649	dec_nonsocial_reject	1.315649	32.000000	n/a	0	0	-3.787879e-02
198.058930	1.315649	dec_reject	1.315649	32.000000	n/a	0	0	-4.227941e-02
198.058930	1.315649	dec_nonsocial_reject_low	1.315649	32.000000	n/a	3	-3.320312e-02	-1.269531e-01
204.890870	1.534107	dec_nonsocial_choice	1.534107	16.000000	n/a	0	0	-2.307181e-01
204.890870	1.534107	dec_choice	1.534107	16.000000	n/a	0	0	-2.309783e-01
204.890870	1.534107	dec_nonsocial_reject	1.534107	16.000000	n/a	0	0	1.183712e-01
204.890870	1.534107	dec_reject	1.534107	16.000000	n/a	0	0	1.139706e-01
204.890870	1.534107	dec_nonsocial_reject_low	1.534107	16.000000	n/a	4	1.230469e-01	-1.269531e-01
212.541850	1.166045	dec_nonsocial_choice	1.166045	32.000000	n/a	0	0	-2.307181e-01
212.541850	1.166045	dec_choice	1.166045	32.000000	n/a	0	0	-2.309783e-01
212.541850	1.166045	dec_nonsocial_reject	1.166045	32.000000	n/a	0	0	-6.912879e-02
212.541850	1.166045	dec_reject	1.166045	32.000000	n/a	0	0	-7.352941e-02
212.541850	1.166045	dec_nonsocial_low	1.166045	32.000000	n/a	0	-2.309783e-01	-2.309783e-01
212.541850	1.166045	dec_nonsocial_reject_low	1.166045	32.000000	n/a	2	-7.352941e-02	-1.360294e-01
219.374830	1.766729	dec_social_choice	1.766729	16.000000	n/a	0	0	-2.307181e-01
219.374830	1.766729	dec_choice	1.766729	16.000000	n/a	0	0	-2.304688e-01
219.374830	1.766729	dec_social_reject	1.766729	16.000000	n/a	0	0	-6.628788e-03
219.374830	1.766729	dec_reject	1.766729	16.000000	n/a	0	0	-1.953125e-03
219.374830	1.766729	dec_social_low	1.766729	16.000000	n/a	0	-2.304688e-01	-2.304688e-01
219.374830	1.766729	dec_social_reject_low	1.766729	16.000000	n/a	2	-1.054688e-01	-2.304688e-01
227.008800	1.632738	dec_nonsocial_choice	1.632738	16.000000	n/a	8	2.692819e-01	2.692819e-01
227.008800	1.632738	dec_choice	1.632738	16.000000	n/a	8	2.690217e-01	2.690217e-01
227.008800	1.632738	dec_nonsocial_accept	1.632738	16.000000	n/a	8	3.571429e-02	3.571429e-02
227.008800	1.632738	dec_accept	1.632738	16.000000	n/a	8	0	0
227.008800	1.632738	dec_nonsocial_high	1.632738	16.000000	n/a	8	2.690217e-01	2.690217e-01
227.008800	1.632738	dec_nonsocial_accept_high	1.632738	16.000000	n/a	8	0	0
233.841800	1.249945	dec_nonsocial_choice	1.249945	16.000000	n/a	0	0	-2.307181e-01
233.841800	1.249945	dec_choice	1.249945	16.000000	n/a	0	0	-2.309783e-01
233.841800	1.249945	dec_nonsocial_reject	1.249945	16.000000	n/a	0	0	1.183712e-01
233.841800	1.249945	dec_reject	1.249945	16.000000	n/a	0	0	1.139706e-01
233.841800	1.249945	dec_nonsocial_reject_low	1.249945	16.000000	n/a	4	1.230469e-01	-1.269531e-01
240.674770	2.016293	dec_social_choice	2.016293	16.000000	n/a	0	0	-2.307181e-01
240.674770	2.016293	dec_choice	2.016293	16.000000	n/a	0	0	-2.304688e-01
240.674770	2.016293	dec_social_reject	2.016293	16.000000	n/a	0	0	-6.628788e-03
240.674770	2.016293	dec_reject	2.016293	16.000000	n/a	0	0	-1.953125e-03
240.674770	2.016293	dec_social_low	2.016293	16.000000	n/a	0	-2.304688e-01	-2.304688e-01
240.674770	2.016293	dec_social_reject_low	2.016293	16.000000	n/a	2	-1.054688e-01	-2.304688e-01
251.541380	1.516368	dec_nonsocial_choice	1.516368	32.000000	n/a	0	0	-2.307181e-01
251.541380	1.516368	dec_choice	1.516368	32.000000	n/a	0	0	-2.309783e-01
251.541380	1.516368	dec_nonsocial_reject	1.516368	32.000000	n/a	0	0	-6.912879e-02
251.541380	1.516368	dec_reject	1.516368	32.000000	n/a	0	0	-7.352941e-02
251.541380	1.516368	dec_nonsocial_low	1.516368	32.000000	n/a	0	-2.309783e-01	-2.309783e-01
251.541380	1.516368	dec_nonsocial_reject_low	1.516368	32.000000	n/a	2	-7.352941e-02	-1.360294e-01
259.190830	1.166737	dec_nonsocial_choice	1.166737	16.000000	n/a	0	0	-2.307181e-01
259.190830	1.166737	dec_choice	1.166737	16.000000	n/a	0	0	-2.309783e-01
259.190830	1.166737	dec_nonsocial_reject	1.166737	16.000000	n/a	0	0	1.183712e-01
259.190830	1.166737	dec_reject	1.166737	16.000000	n/a	0	0	1.139706e-01
259.190830	1.166737	dec_nonsocial_low	1.166737	16.000000	n/a	0	-2.309783e-01	-2.309783e-01
259.190830	1.166737	dec_nonsocial_reject_low	1.166737	16.000000	n/a	4	1.139706e-01	-1.360294e-01
266.025760	1.882325	dec_social_choice	1.882325	16.000000	n/a	0	0	-2.307181e-01
266.025760	1.882325	dec_choice	1.882325	16.000000	n/a	0	0	-2.304688e-01
266.025760	1.882325	dec_social_reject	1.882325	16.000000	n/a	0	0	1.183712e-01
266.025760	1.882325	dec_reject	1.882325	16.000000	n/a	0	0	1.230469e-01
266.025760	1.882325	dec_social_low	1.882325	16.000000	n/a	0	-2.304688e-01	-2.304688e-01
266.025760	1.882325	dec_social_reject_low	1.882325	16.000000	n/a	4	1.953125e-02	-2.304688e-01
272.857820	1.916478	dec_nonsocial_choice	1.916478	32.000000	n/a	0	0	-2.307181e-01
272.857820	1.916478	dec_choice	1.916478	32.000000	n/a	0	0	-2.309783e-01
272.857820	1.916478	dec_nonsocial_reject	1.916478	32.000000	n/a	0	0	-6.912879e-02
272.857820	1.916478	dec_reject	1.916478	32.000000	n/a	0	0	-7.352941e-02
272.857820	1.916478	dec_nonsocial_low	1.916478	32.000000	n/a	0	-2.309783e-01	-2.309783e-01
272.857820	1.916478	dec_nonsocial_reject_low	1.916478	32.000000	n/a	2	-7.352941e-02	-1.360294e-01
282.124330	2.266838	dec_social_choice	2.266838	32.000000	n/a	16	2.692819e-01	2.692819e-01
282.124330	2.266838	dec_choice	2.266838	32.000000	n/a	16	2.695312e-01	2.695312e-01
282.124330	2.266838	dec_social_accept	2.266838	32.000000	n/a	16	3.571429e-02	3.571429e-02
282.124330	2.266838	dec_accept	2.266838	32.000000	n/a	16	6.250000e-02	6.250000e-02
282.124330	2.266838	dec_social_high	2.266838	32.000000	n/a	16	2.695312e-01	2.695312e-01
282.124330	2.266838	dec_social_accept_high	2.266838	32.000000	n/a	16	2.695312e-01	2.695312e-01
288.957860	1.350202	dec_social_choice	1.350202	16.000000	n/a	0	0	-2.307181e-01
288.957860	1.350202	dec_choice	1.350202	16.000000	n/a	0	0	-2.304688e-01
288.957860	1.350202	dec_social_reject	1.350202	16.000000	n/a	0	0	-6.628788e-03
288.957860	1.350202	dec_reject	1.350202	16.000000	n/a	0	0	-1.953125e-03
288.957860	1.350202	dec_social_low	1.350202	16.000000	n/a	0	-2.304688e-01	-2.304688e-01
288.957860	1.350202	dec_social_reject_low	1.350202	16.000000	n/a	2	-1.054688e-01	-2.304688e-01
295.790740	2.183866	dec_nonsocial_choice	2.183866	16.000000	n/a	8	2.692819e-01	2.692819e-01
295.790740	2.183866	dec_choice	2.183866	16.000000	n/a	8	2.690217e-01	2.690217e-01
295.790740	2.183866	dec_nonsocial_accept	2.183866	16.000000	n/a	8	3.571429e-02	3.571429e-02
295.790740	2.183866	dec_accept	2.183866	16.000000	n/a	8	0	0
295.790740	2.183866	dec_nonsocial_accept_high	2.183866	16.000000	n/a	8	6.250000e-02	6.250000e-02
302.624730	1.116593	dec_social_choice	1.116593	16.000000	n/a	0	0	-2.307181e-01
302.624730	1.116593	dec_choice	1.116593	16.000000	n/a	0	0	-2.304688e-01
302.624730	1.116593	dec_social_reject	1.116593	16.000000	n/a	0	0	-6.912879e-02
302.624730	1.116593	dec_reject	1.116593	16.000000	n/a	0	0	-6.445312e-02
302.624730	1.116593	dec_social_reject_low	1.116593	16.000000	n/a	1	-1.679688e-01	-2.304688e-01
311.874700	1.433298	dec_nonsocial_choice	1.433298	32.000000	n/a	16	2.692819e-01	2.692819e-01
311.874700	1.433298	dec_choice	1.433298	32.000000	n/a	16	2.690217e-01	2.690217e-01
311.874700	1.433298	dec_nonsocial_accept	1.433298	32.000000	n/a	16	3.571429e-02	3.571429e-02
311.874700	1.433298	dec_accept	1.433298	32.000000	n/a	16	0	0
311.874700	1.433298	dec_nonsocial_accept_high	1.433298	32.000000	n/a	16	6.250000e-02	6.250000e-02
318.708700	1.549253	dec_social_choice	1.549253	32.000000	n/a	16	2.692819e-01	2.692819e-01
318.708700	1.549253	dec_choice	1.549253	32.000000	n/a	16	2.695312e-01	2.695312e-01
318.708700	1.549253	dec_social_accept	1.549253	32.000000	n/a	16	3.571429e-02	3.571429e-02
318.708700	1.549253	dec_accept	1.549253	32.000000	n/a	16	6.250000e-02	6.250000e-02
318.708700	1.549253	dec_social_accept_high	1.549253	32.000000	n/a	16	2.695312e-01	2.695312e-01
325.541720	1.866275	dec_social_choice	1.866275	16.000000	n/a	0	0	-2.307181e-01
325.541720	1.866275	dec_choice	1.866275	16.000000	n/a	0	0	-2.304688e-01
325.541720	1.866275	dec_social_reject	1.866275	16.000000	n/a	0	0	1.183712e-01
325.541720	1.866275	dec_reject	1.866275	16.000000	n/a	0	0	1.230469e-01
325.541720	1.866275	dec_social_reject_low	1.866275	16.000000	n/a	4	1.953125e-02	-2.304688e-01
332.374700	1.899521	dec_nonsocial_choice	1.899521	16.000000	n/a	0	0	-2.307181e-01
332.374700	1.899521	dec_choice	1.899521	16.000000	n/a	0	0	-2.309783e-01
332.374700	1.899521	dec_nonsocial_reject	1.899521	16.000000	n/a	0	0	1.183712e-01
332.374700	1.899521	dec_reject	1.899521	16.000000	n/a	0	0	1.139706e-01
332.374700	1.899521	dec_nonsocial_low	1.899521	16.000000	n/a	0	-2.309783e-01	-2.309783e-01
332.374700	1.899521	dec_nonsocial_reject_low	1.899521	16.000000	n/a	4	1.139706e-01	-1.360294e-01
339.208680	1.265427	dec_nonsocial_choice	1.265427	16.000000	n/a	0	0	-2.307181e-01
339.208680	1.265427	dec_choice	1.265427	16.000000	n/a	0	0	-2.309783e-01
339.208680	1.265427	dec_nonsocial_reject	1.265427	16.000000	n/a	0	0	-6.912879e-02
339.208680	1.265427	dec_reject	1.265427	16.000000	n/a	0	0	-7.352941e-02
339.208680	1.265427	dec_nonsocial_reject_low	1.265427	16.000000	n/a	1	-6.445312e-02	-1.269531e-01
346.041000	1.266826	dec_social_choice	1.266826	32.000000	n/a	0	0	-2.307181e-01
346.041000	1.266826	dec_choice	1.266826	32.000000	n/a	0	0	-2.304688e-01
346.041000	1.266826	dec_social_reject	1.266826	32.000000	n/a	0	0	-6.912879e-02
346.041000	1.266826	dec_reject	1.266826	32.000000	n/a	0	0	-6.445312e-02
346.041000	1.266826	dec_social_reject_low	1.266826	32.000000	n/a	2	-1.679688e-01	-2.304688e-01
356.906770	1.451229	dec_social_choice	1.451229	16.000000	n/a	4	1.928191e-02	1.928191e-02
356.906770	1.451229	dec_choice	1.451229	16.000000	n/a	4	1.953125e-02	1.953125e-02
356.906770	1.451229	dec_social_accept	1.451229	16.000000	n/a	4	-2.142857e-01	-2.142857e-01
356.906770	1.451229	dec_accept	1.451229	16.000000	n/a	4	-1.875000e-01	-1.875000e-01
356.906770	1.451229	dec_social_accept_high	1.451229	16.000000	n/a	4	1.953125e-02	1.953125e-02
366.157680	1.100308	dec_social_choice	1.100308	32.000000	n/a	16	2.692819e-01	2.692819e-01
366.157680	1.100308	dec_choice	1.100308	32.000000	n/a	16	2.695312e-01	2.695312e-01
366.157680	1.100308	dec_social_accept	1.100308	32.000000	n/a	16	3.571429e-02	3.571429e-02
366.157680	1.100308	dec_accept	1.100308	32.000000	n/a	16	6.250000e-02	6.250000e-02
366.157680	1.100308	dec_social_accept_high	1.100308	32.000000	n/a	16	2.695312e-01	2.695312e-01
372.990880	1.700352	dec_nonsocial_choice	1.700352	32.000000	n/a	0	0	-2.307181e-01
372.990880	1.700352	dec_choice	1.700352	32.000000	n/a	0	0	-2.309783e-01
372.990880	1.700352	dec_nonsocial_reject	1.700352	32.000000	n/a	0	0	-6.912879e-02
372.990880	1.700352	dec_reject	1.700352	32.000000	n/a	0	0	-7.352941e-02
372.990880	1.700352	dec_nonsocial_reject_low	1.700352	32.000000	n/a	2	-6.445312e-02	-1.269531e-01
