instrText,stimDoor,stimDoorLure,stimFace,stimFaceLure,Instructions.thisRepN,Instructions.thisTrialN,Instructions.thisN,Instructions.thisIndex,Trials.thisRepN,Trials.thisTrialN,Trials.thisN,Trials.thisIndex,Func,Keys,Text,RespTime,Onset,Offset,SystemTime_Start,SystemTime_Stop,Stim,Lure,Participant*,Age,date,expName,psychopyVersion,frameRate,
"In the earlier Feedback Games, you chose which doors contained a prize, and which peers liked you. 

You then saw positive or negative feedback (green check mark or red X) from the door or peer you selected.

You will now see a series of doors and peers, some of which you saw during the earlier Feedback Games, and some that you have never seen before.

Please press the spacebar to continue.",,,,,0,0,0,0,,,,,instrFunc,space,"In the earlier Feedback Games, you chose which doors contained a prize, and which peers liked you. 

You then saw positive or negative feedback (green check mark or red X) from the door or peer you selected.

You will now see a series of doors and peers, some of which you saw during the earlier Feedback Games, and some that you have never seen before.

Please press the spacebar to continue.",30.183327700011432,40.01597519998904,70.27293237994309,2023-10-05 14:22:27.513781,2023-10-05 14:22:57.755095,,,10806,18-29,2023-10-05_14h22.23.928,Recall,2021.2.3,60.03103604784466,
"For doors/peers that you remember selecting and getting feedback from, your job is to RECALL what feedback you received. 

Press '1' if you recall positive feedback. 

Press '2' if you recall negative feedback

Press the spacebar to continue.",,,,,0,1,1,1,,,,,instrFunc,space,"For doors/peers that you remember selecting and getting feedback from, your job is to RECALL what feedback you received. 

Press '1' if you recall positive feedback. 

Press '2' if you recall negative feedback

Press the spacebar to continue.",15.835737000015797,70.24375399999553,86.13619640999241,2023-10-05 14:22:57.756095,2023-10-05 14:23:13.633220,,,10806,18-29,2023-10-05_14h22.23.928,Recall,2021.2.3,60.03103604784466,
"For doors/peers that you don't remember getting feedback from, your job is to PREDICT what feedback you WOULD HAVE received.

Press '9' if you predict positive feedback.

Press '0' if you predict negative feedback. 

Please press the spacebar to continue.",,,,,0,2,2,2,,,,,instrFunc,space,"For doors/peers that you don't remember getting feedback from, your job is to PREDICT what feedback you WOULD HAVE received.

Press '9' if you predict positive feedback.

Press '0' if you predict negative feedback. 

Please press the spacebar to continue.",13.813031300000148,86.12256499999785,99.99602140998468,2023-10-05 14:23:13.634219,2023-10-05 14:23:27.492893,,,10806,18-29,2023-10-05_14h22.23.928,Recall,2021.2.3,60.03103604784466,
"This task is self-paced, and the prompts will always stay on the screen so that you know which buttons to press.

On the next screen we will show you what those prompts look like, so that you know exactly what to expect. 

You will start with either doors or peers, and then switch halfway through. 

Please press the spacebar to continue.",,,,,0,3,3,3,,,,,instrFunc,space,"This task is self-paced, and the prompts will always stay on the screen so that you know which buttons to press.

On the next screen we will show you what those prompts look like, so that you know exactly what to expect. 

You will start with either doors or peers, and then switch halfway through. 

Please press the spacebar to continue.",15.788648900022963,99.97894229998928,115.82191000998137,2023-10-05 14:23:27.493893,2023-10-05 14:23:43.321562,,,10806,18-29,2023-10-05_14h22.23.928,Recall,2021.2.3,60.03103604784466,
,,,,,,,,,,,,,imgtextFunc,space,"Here is what the screen will look like while you make your ratings.
The green circles remind you to press 1 or 9 for positive feedback.
The red circles remind you to press 2 or 0 for negative feedback.









Please let the experimenter know if you have any questions.

Whenever you're ready, press the spacebar to start the task.",71.95088979997672,115.96049800000037,188.09076630999334,2023-10-05 14:23:43.332557,2023-10-05 14:24:55.458391,,,10806,18-29,2023-10-05_14h22.23.928,Recall,2021.2.3,60.03103604784466,
,L_SD510.jpg,1,L_MF510.jpg,1,,,,,0,0,0,99,imgFunc,9,NA,11.17799319999176,188.06955769998604,199.3833663299738,2023-10-05 14:24:55.496934,2023-10-05 14:25:06.799487,L_SD510.jpg,1,10806,18-29,2023-10-05_14h22.23.928,Recall,2021.2.3,60.03103604784466,
,SD013.jpg,0,MF013.jpg,0,,,,,0,1,1,62,imgFunc,0,NA,2.7582320000219624,199.37730219998048,202.2559823100164,2023-10-05 14:25:06.810459,2023-10-05 14:25:09.684800,SD013.jpg,0,10806,18-29,2023-10-05_14h22.23.928,Recall,2021.2.3,60.03103604784466,
,SD017.jpg,0,MF017.jpg,0,,,,,0,2,2,66,imgFunc,9,NA,1.9468042000080459,202.22866870000144,204.26466200998402,2023-10-05 14:25:09.692781,2023-10-05 14:25:11.719844,SD017.jpg,0,10806,18-29,2023-10-05_14h22.23.928,Recall,2021.2.3,60.03103604784466,
,L_DD505.jpg,1,L_FF505.jpg,1,,,,,0,3,3,44,imgFunc,9,NA,2.5962728000013158,204.26719849999063,206.96326280999347,2023-10-05 14:25:11.730824,2023-10-05 14:25:14.421551,L_DD505.jpg,1,10806,18-29,2023-10-05_14h22.23.928,Recall,2021.2.3,60.03103604784466,
,DD018.jpg,0,FF018.jpg,0,,,,,0,4,4,17,imgFunc,1,NA,2.032895800017286,206.95871289999923,209.07836210998357,2023-10-05 14:25:14.428383,2023-10-05 14:25:16.539674,DD018.jpg,0,10806,18-29,2023-10-05_14h22.23.928,Recall,2021.2.3,60.03103604784466,
,SD011.jpg,0,MF011.jpg,0,,,,,0,5,5,60,imgFunc,0,NA,5.298614100000123,209.0770300999866,214.4658210100024,2023-10-05 14:25:16.546680,2023-10-05 14:25:21.927155,SD011.jpg,0,10806,18-29,2023-10-05_14h22.23.928,Recall,2021.2.3,60.03103604784466,
,DD040.jpg,0,FF040.jpg,0,,,,,0,6,6,39,imgFunc,0,NA,1.572779600013746,214.4746833999816,216.14091261001886,2023-10-05 14:25:21.936133,2023-10-05 14:25:23.595541,DD040.jpg,0,10806,18-29,2023-10-05_14h22.23.928,Recall,2021.2.3,60.03103604784466,
,SD020.jpg,0,MF020.jpg,0,,,,,0,7,7,69,imgFunc,0,NA,2.004806799988728,216.16271539998706,218.27161910998984,2023-10-05 14:25:23.607511,2023-10-05 14:25:25.713147,SD020.jpg,0,10806,18-29,2023-10-05_14h22.23.928,Recall,2021.2.3,60.03103604784466,
,DD008.jpg,0,FF008.jpg,0,,,,,0,8,8,7,imgFunc,1,NA,2.930950399982976,218.2526891999878,221.2711765099957,2023-10-05 14:25:25.721128,2023-10-05 14:25:28.732070,DD008.jpg,0,10806,18-29,2023-10-05_14h22.23.928,Recall,2021.2.3,60.03103604784466,
,SD040.jpg,0,MF040.jpg,0,,,,,0,9,9,89,imgFunc,0,NA,1.6393850000167731,221.27219989997684,223.00851710996358,2023-10-05 14:25:28.739053,2023-10-05 14:25:30.466675,SD040.jpg,0,10806,18-29,2023-10-05_14h22.23.928,Recall,2021.2.3,60.03103604784466,
,SD036.jpg,0,MF036.jpg,0,,,,,0,10,10,85,imgFunc,1,NA,2.7955937999940943,223.01195719998213,225.8993376099388,2023-10-05 14:25:30.473658,2023-10-05 14:25:33.351672,SD036.jpg,0,10806,18-29,2023-10-05_14h22.23.928,Recall,2021.2.3,60.03103604784466,
,L_SD504.jpg,1,L_MF504.jpg,1,,,,,0,11,11,93,imgFunc,0,NA,2.8761747000098694,225.89927429999807,228.86953040998196,2023-10-05 14:25:33.359559,2023-10-05 14:25:36.321127,L_SD504.jpg,1,10806,18-29,2023-10-05_14h22.23.928,Recall,2021.2.3,60.03103604784466,
,DD005.jpg,0,FF005.jpg,0,,,,,0,12,12,4,imgFunc,0,NA,1.946646199998213,228.88455109999632,230.94101280995528,2023-10-05 14:25:36.335092,2023-10-05 14:25:38.388598,DD005.jpg,0,10806,18-29,2023-10-05_14h22.23.928,Recall,2021.2.3,60.03103604784466,
,DD014.jpg,0,FF014.jpg,0,,,,,0,13,13,13,imgFunc,1,NA,2.8225730000121985,230.93684039998334,233.85736570996232,2023-10-05 14:25:38.396577,2023-10-05 14:25:41.308147,DD014.jpg,0,10806,18-29,2023-10-05_14h22.23.928,Recall,2021.2.3,60.03103604784466,
,SD012.jpg,0,MF012.jpg,0,,,,,0,14,14,61,imgFunc,1,NA,1.0197737000125926,233.85193720000098,234.97080850997008,2023-10-05 14:25:41.315130,2023-10-05 14:25:42.425665,SD012.jpg,0,10806,18-29,2023-10-05_14h22.23.928,Recall,2021.2.3,60.03103604784466,
,DD013.jpg,0,FF013.jpg,0,,,,,0,15,15,12,imgFunc,0,NA,1.1370678000093903,234.96649609997985,236.20212540996727,2023-10-05 14:25:42.432648,2023-10-05 14:25:43.659645,DD013.jpg,0,10806,18-29,2023-10-05_14h22.23.928,Recall,2021.2.3,60.03103604784466,
,DD037.jpg,0,FF037.jpg,0,,,,,0,16,16,36,imgFunc,1,NA,2.1247693999903277,236.20287179999286,238.4228975099686,2023-10-05 14:25:43.666628,2023-10-05 14:25:45.878039,DD037.jpg,0,10806,18-29,2023-10-05_14h22.23.928,Recall,2021.2.3,60.03103604784466,
,DD038.jpg,0,FF038.jpg,0,,,,,0,17,17,37,imgFunc,1,NA,1.7480653999955393,238.427454699995,240.26756440996542,2023-10-05 14:25:45.892004,2023-10-05 14:25:47.729259,DD038.jpg,0,10806,18-29,2023-10-05_14h22.23.928,Recall,2021.2.3,60.03103604784466,
,L_DD508.jpg,1,L_FF508.jpg,1,,,,,0,18,18,47,imgFunc,1,NA,3.2800035000254866,240.27157559999614,243.64215320997755,2023-10-05 14:25:47.736243,2023-10-05 14:25:51.098454,L_DD508.jpg,1,10806,18-29,2023-10-05_14h22.23.928,Recall,2021.2.3,60.03103604784466,
,DD007.jpg,0,FF007.jpg,0,,,,,0,19,19,6,imgFunc,9,NA,3.6818121999967843,243.64582469998277,247.43290850997437,2023-10-05 14:25:51.106457,2023-10-05 14:25:54.884575,DD007.jpg,0,10806,18-29,2023-10-05_14h22.23.928,Recall,2021.2.3,60.03103604784466,
,DD032.jpg,0,FF032.jpg,0,,,,,0,20,20,31,imgFunc,9,NA,2.516094599995995,247.42759479998494,250.04767230994185,2023-10-05 14:25:54.891558,2023-10-05 14:25:57.503116,DD032.jpg,0,10806,18-29,2023-10-05_14h22.23.928,Recall,2021.2.3,60.03103604784466,
,DD011.jpg,0,FF011.jpg,0,,,,,0,21,21,10,imgFunc,9,NA,1.5054829000146128,250.06213690000004,251.68140970999957,2023-10-05 14:25:57.510122,2023-10-05 14:25:59.120960,DD011.jpg,0,10806,18-29,2023-10-05_14h22.23.928,Recall,2021.2.3,60.03103604784466,
,DD001.jpg,0,FF001.jpg,0,,,,,0,22,22,0,imgFunc,9,NA,1.054182399995625,251.66543679998722,252.8169977099751,2023-10-05 14:25:59.128941,2023-10-05 14:26:00.271781,DD001.jpg,0,10806,18-29,2023-10-05_14h22.23.928,Recall,2021.2.3,60.03103604784466,
,SD024.jpg,0,MF024.jpg,0,,,,,0,23,23,73,imgFunc,0,NA,3.9609857999894302,252.81466740000178,256.8686543100048,2023-10-05 14:26:00.278764,2023-10-05 14:26:04.324799,SD024.jpg,0,10806,18-29,2023-10-05_14h22.23.928,Recall,2021.2.3,60.03103604784466,
,SD022.jpg,0,MF022.jpg,0,,,,,0,24,24,71,imgFunc,0,NA,2.857716200000141,256.86993580000126,259.82368180999765,2023-10-05 14:26:04.331782,2023-10-05 14:26:07.276964,SD022.jpg,0,10806,18-29,2023-10-05_14h22.23.928,Recall,2021.2.3,60.03103604784466,
,SD004.jpg,0,MF004.jpg,0,,,,,0,25,25,53,imgFunc,0,NA,2.7860385999956634,259.82166600000346,262.708671809989,2023-10-05 14:26:07.283947,2023-10-05 14:26:10.162287,SD004.jpg,0,10806,18-29,2023-10-05_14h22.23.928,Recall,2021.2.3,60.03103604784466,
,L_DD502.jpg,1,L_FF502.jpg,1,,,,,0,26,26,41,imgFunc,0,NA,0.8675134999793954,262.70809969998663,263.66663540998707,2023-10-05 14:26:10.174256,2023-10-05 14:26:11.129676,L_DD502.jpg,1,10806,18-29,2023-10-05_14h22.23.928,Recall,2021.2.3,60.03103604784466,
,DD025.jpg,0,FF025.jpg,0,,,,,0,27,27,24,imgFunc,0,NA,2.4846464000002015,263.6669557999994,266.2373985099839,2023-10-05 14:26:11.136659,2023-10-05 14:26:13.698342,DD025.jpg,0,10806,18-29,2023-10-05_14h22.23.928,Recall,2021.2.3,60.03103604784466,
,L_DD503.jpg,1,L_FF503.jpg,1,,,,,0,28,28,42,imgFunc,0,NA,1.7723662999924272,266.2429564999766,268.1112598099862,2023-10-05 14:26:13.706323,2023-10-05 14:26:15.566096,L_DD503.jpg,1,10806,18-29,2023-10-05_14h22.23.928,Recall,2021.2.3,60.03103604784466,
,SD002.jpg,0,MF002.jpg,0,,,,,0,29,29,51,imgFunc,9,NA,1.2463238000054844,268.1050312999869,269.4405766099517,2023-10-05 14:26:15.573079,2023-10-05 14:26:16.900572,SD002.jpg,0,10806,18-29,2023-10-05_14h22.23.928,Recall,2021.2.3,60.03103604784466,
,SD009.jpg,0,MF009.jpg,0,,,,,0,30,30,58,imgFunc,9,NA,1.0873223000089638,269.44826370000374,270.63396870999713,2023-10-05 14:26:16.907555,2023-10-05 14:26:18.084886,SD009.jpg,0,10806,18-29,2023-10-05_14h22.23.928,Recall,2021.2.3,60.03103604784466,
,L_SD501.jpg,1,L_MF501.jpg,1,,,,,0,31,31,90,imgFunc,9,NA,2.477918199991109,270.6336867999926,273.2073503099964,2023-10-05 14:26:18.098851,2023-10-05 14:26:20.669976,L_SD501.jpg,1,10806,18-29,2023-10-05_14h22.23.928,Recall,2021.2.3,60.03103604784466,
,SD008.jpg,0,MF008.jpg,0,,,,,0,32,32,57,imgFunc,0,NA,2.249619799986249,273.2060858999903,275.54307730999426,2023-10-05 14:26:20.676959,2023-10-05 14:26:23.005086,SD008.jpg,0,10806,18-29,2023-10-05_14h22.23.928,Recall,2021.2.3,60.03103604784466,
,DD009.jpg,0,FF009.jpg,0,,,,,0,33,33,8,imgFunc,1,NA,2.2763779000088107,275.5472322999849,277.916631209926,2023-10-05 14:26:23.012091,2023-10-05 14:26:25.373288,DD009.jpg,0,10806,18-29,2023-10-05_14h22.23.928,Recall,2021.2.3,60.03103604784466,
,DD030.jpg,0,FF030.jpg,0,,,,,0,34,34,29,imgFunc,1,NA,1.5818908999790438,277.92161359998863,279.60776950998115,2023-10-05 14:26:25.380271,2023-10-05 14:26:27.057933,DD030.jpg,0,10806,18-29,2023-10-05_14h22.23.928,Recall,2021.2.3,60.03103604784466,
,SD016.jpg,0,MF016.jpg,0,,,,,0,35,35,65,imgFunc,2,NA,1.1903081000200473,279.6012620999827,280.8868582099676,2023-10-05 14:26:27.064938,2023-10-05 14:26:28.342370,SD016.jpg,0,10806,18-29,2023-10-05_14h22.23.928,Recall,2021.2.3,60.03103604784466,
,DD028.jpg,0,FF028.jpg,0,,,,,0,36,36,27,imgFunc,1,NA,1.1707469999964815,280.8928427999781,282.14899010999943,2023-10-05 14:26:28.356335,2023-10-05 14:26:29.610000,DD028.jpg,0,10806,18-29,2023-10-05_14h22.23.928,Recall,2021.2.3,60.03103604784466,
,DD026.jpg,0,FF026.jpg,0,,,,,0,37,37,25,imgFunc,0,NA,2.1160260000033304,282.14778479997767,284.3514039099391,2023-10-05 14:26:29.616983,2023-10-05 14:26:31.811737,DD026.jpg,0,10806,18-29,2023-10-05_14h22.23.928,Recall,2021.2.3,60.03103604784466,
,SD026.jpg,0,MF026.jpg,0,,,,,0,38,38,75,imgFunc,9,NA,4.0325857999851,284.3590054999804,288.49698570996406,2023-10-05 14:26:31.818720,2023-10-05 14:26:35.947739,SD026.jpg,0,10806,18-29,2023-10-05_14h22.23.928,Recall,2021.2.3,60.03103604784466,
,DD027.jpg,0,FF027.jpg,0,,,,,0,39,39,26,imgFunc,9,NA,1.2430145999824163,288.4924498999899,289.82804780994775,2023-10-05 14:26:35.954745,2023-10-05 14:26:37.281976,DD027.jpg,0,10806,18-29,2023-10-05_14h22.23.928,Recall,2021.2.3,60.03103604784466,
,DD006.jpg,0,FF006.jpg,0,,,,,0,40,40,5,imgFunc,0,NA,2.688035300001502,289.823544999992,292.61030611000024,2023-10-05 14:26:37.289979,2023-10-05 14:26:40.067642,DD006.jpg,0,10806,18-29,2023-10-05_14h22.23.928,Recall,2021.2.3,60.03103604784466,
,SD003.jpg,0,MF003.jpg,0,,,,,0,41,41,52,imgFunc,9,NA,1.7309781000076327,292.6047170999809,294.4245824099926,2023-10-05 14:26:40.074626,2023-10-05 14:26:41.885488,SD003.jpg,0,10806,18-29,2023-10-05_14h22.23.928,Recall,2021.2.3,60.03103604784466,
,DD016.jpg,0,FF016.jpg,0,,,,,0,42,42,15,imgFunc,9,NA,2.333666999998968,294.4340894999914,296.8704790099873,2023-10-05 14:26:41.892471,2023-10-05 14:26:44.320391,DD016.jpg,0,10806,18-29,2023-10-05_14h22.23.928,Recall,2021.2.3,60.03103604784466,
,SD033.jpg,0,MF033.jpg,0,,,,,0,43,43,82,imgFunc,9,NA,1.0365848999936134,296.8671657999803,298.00325881000026,2023-10-05 14:26:44.327374,2023-10-05 14:26:45.454705,SD033.jpg,0,10806,18-29,2023-10-05_14h22.23.928,Recall,2021.2.3,60.03103604784466,
,L_SD503.jpg,1,L_MF503.jpg,1,,,,,0,44,44,92,imgFunc,9,NA,0.9752905999775976,298.00012899999274,299.06880901000113,2023-10-05 14:26:45.461688,2023-10-05 14:26:46.522118,L_SD503.jpg,1,10806,18-29,2023-10-05_14h22.23.928,Recall,2021.2.3,60.03103604784466,
,DD039.jpg,0,FF039.jpg,0,,,,,0,45,45,38,imgFunc,9,NA,1.2479227999865543,299.07170199998654,300.4115940099873,2023-10-05 14:26:46.535080,2023-10-05 14:26:47.872827,DD039.jpg,0,10806,18-29,2023-10-05_14h22.23.928,Recall,2021.2.3,60.03103604784466,
,DD031.jpg,0,FF031.jpg,0,,,,,0,46,46,30,imgFunc,1,NA,3.0071791999798734,300.4241859999893,303.5421662099834,2023-10-05 14:26:47.881805,2023-10-05 14:26:50.992110,DD031.jpg,0,10806,18-29,2023-10-05_14h22.23.928,Recall,2021.2.3,60.03103604784466,
,DD023.jpg,0,FF023.jpg,0,,,,,0,47,47,22,imgFunc,9,NA,3.4230022999981884,303.5362460000033,307.05691351002315,2023-10-05 14:26:50.999093,2023-10-05 14:26:54.511430,DD023.jpg,0,10806,18-29,2023-10-05_14h22.23.928,Recall,2021.2.3,60.03103604784466,
,SD019.jpg,0,MF019.jpg,0,,,,,0,48,48,68,imgFunc,0,NA,2.734546399995452,307.0650820999872,309.8997444099805,2023-10-05 14:26:54.519408,2023-10-05 14:26:57.346747,SD019.jpg,0,10806,18-29,2023-10-05_14h22.23.928,Recall,2021.2.3,60.03103604784466,
,SD030.jpg,0,MF030.jpg,0,,,,,0,49,49,79,imgFunc,0,NA,1.043105699995067,309.90053230000194,311.0526526099711,2023-10-05 14:26:57.353730,2023-10-05 14:26:58.497647,SD030.jpg,0,10806,18-29,2023-10-05_14h22.23.928,Recall,2021.2.3,60.03103604784466,
,SD032.jpg,0,MF032.jpg,0,,,,,0,50,50,81,imgFunc,9,NA,0.8811599999899045,311.0464449999854,312.0186767099949,2023-10-05 14:26:58.511611,2023-10-05 14:26:59.481526,SD032.jpg,0,10806,18-29,2023-10-05_14h22.23.928,Recall,2021.2.3,60.03103604784466,
,DD003.jpg,0,FF003.jpg,0,,,,,0,51,51,2,imgFunc,0,NA,1.493517900002189,312.018098999979,313.6048897099681,2023-10-05 14:26:59.488509,2023-10-05 14:27:01.066344,DD003.jpg,0,10806,18-29,2023-10-05_14h22.23.928,Recall,2021.2.3,60.03103604784466,
,L_DD507.jpg,1,L_FF507.jpg,1,,,,,0,52,52,46,imgFunc,9,NA,0.7545564000029117,313.6054440999869,314.45791470998665,2023-10-05 14:27:01.073326,2023-10-05 14:27:01.916800,L_DD507.jpg,1,10806,18-29,2023-10-05_14h22.23.928,Recall,2021.2.3,60.03103604784466,
,SD010.jpg,0,MF010.jpg,0,,,,,0,53,53,59,imgFunc,9,NA,0.8553683000209276,314.45640419999836,315.4086598099675,2023-10-05 14:27:01.923783,2023-10-05 14:27:02.867464,SD010.jpg,0,10806,18-29,2023-10-05_14h22.23.928,Recall,2021.2.3,60.03103604784466,
,SD007.jpg,0,MF007.jpg,0,,,,,0,54,54,56,imgFunc,0,NA,0.7445100000186358,315.40698079997674,316.2434692099632,2023-10-05 14:27:02.874447,2023-10-05 14:27:03.702062,SD007.jpg,0,10806,18-29,2023-10-05_14h22.23.928,Recall,2021.2.3,60.03103604784466,
,DD033.jpg,0,FF033.jpg,0,,,,,0,55,55,32,imgFunc,9,NA,0.8537272000103258,316.25007849998656,317.18738940998446,2023-10-05 14:27:03.717024,2023-10-05 14:27:04.652385,DD033.jpg,0,10806,18-29,2023-10-05_14h22.23.928,Recall,2021.2.3,60.03103604784466,
,DD004.jpg,0,FF004.jpg,0,,,,,0,56,56,3,imgFunc,9,NA,1.9974473000038415,317.1862997999997,319.27265921002254,2023-10-05 14:27:04.659368,2023-10-05 14:27:06.736830,DD004.jpg,0,10806,18-29,2023-10-05_14h22.23.928,Recall,2021.2.3,60.03103604784466,
,L_SD502.jpg,1,L_MF502.jpg,1,,,,,0,57,57,91,imgFunc,9,NA,0.755213399999775,319.27646679998725,320.1249317099573,2023-10-05 14:27:06.746016,2023-10-05 14:27:07.587538,L_SD502.jpg,1,10806,18-29,2023-10-05_14h22.23.928,Recall,2021.2.3,60.03103604784466,
,SD001.jpg,0,MF001.jpg,0,,,,,0,58,58,50,imgFunc,9,NA,0.7556063999945763,320.1241309999896,320.9767891099618,2023-10-05 14:27:07.594521,2023-10-05 14:27:08.438516,SD001.jpg,0,10806,18-29,2023-10-05_14h22.23.928,Recall,2021.2.3,60.03103604784466,
,SD034.jpg,0,MF034.jpg,0,,,,,0,59,59,83,imgFunc,9,NA,3.6148570999794174,320.9767914999975,324.68119500999455,2023-10-05 14:27:08.445499,2023-10-05 14:27:12.141090,SD034.jpg,0,10806,18-29,2023-10-05_14h22.23.928,Recall,2021.2.3,60.03103604784466,
,SD023.jpg,0,MF023.jpg,0,,,,,0,60,60,72,imgFunc,0,NA,0.8422915000119247,324.6773478999967,325.61246690995176,2023-10-05 14:27:12.148073,2023-10-05 14:27:13.075058,SD023.jpg,0,10806,18-29,2023-10-05_14h22.23.928,Recall,2021.2.3,60.03103604784466,
,SD014.jpg,0,MF014.jpg,0,,,,,0,61,61,63,imgFunc,0,NA,1.0467787999950815,325.6168373999826,326.7527588099765,2023-10-05 14:27:13.082041,2023-10-05 14:27:14.209280,SD014.jpg,0,10806,18-29,2023-10-05_14h22.23.928,Recall,2021.2.3,60.03103604784466,
,SD029.jpg,0,MF029.jpg,0,,,,,0,62,62,78,imgFunc,0,NA,1.788463100005174,326.7472532999818,328.6328769099782,2023-10-05 14:27:14.217282,2023-10-05 14:27:16.093975,SD029.jpg,0,10806,18-29,2023-10-05_14h22.23.928,Recall,2021.2.3,60.03103604784466,
,SD018.jpg,0,MF018.jpg,0,,,,,0,63,63,67,imgFunc,9,NA,2.401033899979666,328.6304455999925,331.117265709996,2023-10-05 14:27:16.100958,2023-10-05 14:27:18.579100,SD018.jpg,0,10806,18-29,2023-10-05_14h22.23.928,Recall,2021.2.3,60.03103604784466,
,L_DD506.jpg,1,L_FF506.jpg,1,,,,,0,64,64,45,imgFunc,9,NA,1.0253398999921046,331.126045699988,332.2508763099904,2023-10-05 14:27:18.592067,2023-10-05 14:27:19.713019,L_DD506.jpg,1,10806,18-29,2023-10-05_14h22.23.928,Recall,2021.2.3,60.03103604784466,
,SD021.jpg,0,MF021.jpg,0,,,,,0,65,65,70,imgFunc,9,NA,0.7795038000040222,332.2522858000011,333.1207747099397,2023-10-05 14:27:19.721022,2023-10-05 14:27:20.580527,SD021.jpg,0,10806,18-29,2023-10-05_14h22.23.928,Recall,2021.2.3,60.03103604784466,
,L_SD505.jpg,1,L_MF505.jpg,1,,,,,0,66,66,94,imgFunc,0,NA,0.9302138000202831,333.1171420000028,334.1363498099672,2023-10-05 14:27:20.587510,2023-10-05 14:27:21.597833,L_SD505.jpg,1,10806,18-29,2023-10-05_14h22.23.928,Recall,2021.2.3,60.03103604784466,
,SD015.jpg,0,MF015.jpg,0,,,,,0,67,67,64,imgFunc,9,NA,1.587514699989697,334.13213039998664,335.80166210999596,2023-10-05 14:27:21.604817,2023-10-05 14:27:23.265801,SD015.jpg,0,10806,18-29,2023-10-05_14h22.23.928,Recall,2021.2.3,60.03103604784466,
,SD028.jpg,0,MF028.jpg,0,,,,,0,68,68,77,imgFunc,0,NA,0.7466813999926671,335.80499599999166,336.64033870995627,2023-10-05 14:27:23.272784,2023-10-05 14:27:24.099850,SD028.jpg,0,10806,18-29,2023-10-05_14h22.23.928,Recall,2021.2.3,60.03103604784466,
,SD037.jpg,0,MF037.jpg,0,,,,,0,69,69,86,imgFunc,0,NA,0.8850747999968007,336.6505607999861,337.62294671000564,2023-10-05 14:27:24.113815,2023-10-05 14:27:25.083830,SD037.jpg,0,10806,18-29,2023-10-05_14h22.23.928,Recall,2021.2.3,60.03103604784466,
,DD012.jpg,0,FF012.jpg,0,,,,,0,70,70,11,imgFunc,9,NA,1.476266299985582,337.6273836999899,339.19694880995667,2023-10-05 14:27:25.090813,2023-10-05 14:27:26.651679,DD012.jpg,0,10806,18-29,2023-10-05_14h22.23.928,Recall,2021.2.3,60.03103604784466,
,L_SD506.jpg,1,L_MF506.jpg,1,,,,,0,71,71,95,imgFunc,0,NA,0.8921049000055064,339.18755780000356,340.17196161000174,2023-10-05 14:27:26.659659,2023-10-05 14:27:27.635578,L_SD506.jpg,1,10806,18-29,2023-10-05_14h22.23.928,Recall,2021.2.3,60.03103604784466,
,DD019.jpg,0,FF019.jpg,0,,,,,0,72,72,18,imgFunc,9,NA,1.6276158999826293,340.1721073999943,341.89159380999627,2023-10-05 14:27:27.642561,2023-10-05 14:27:29.353256,DD019.jpg,0,10806,18-29,2023-10-05_14h22.23.928,Recall,2021.2.3,60.03103604784466,
,SD006.jpg,0,MF006.jpg,0,,,,,0,73,73,55,imgFunc,9,NA,0.8054252000001725,341.8903180999914,342.7926497099397,2023-10-05 14:27:29.360262,2023-10-05 14:27:30.254112,SD006.jpg,0,10806,18-29,2023-10-05_14h22.23.928,Recall,2021.2.3,60.03103604784466,
,SD027.jpg,0,MF027.jpg,0,,,,,0,74,74,76,imgFunc,9,NA,2.0591159000177868,342.8045956999995,344.96079330999055,2023-10-05 14:27:30.268077,2023-10-05 14:27:32.422556,SD027.jpg,0,10806,18-29,2023-10-05_14h22.23.928,Recall,2021.2.3,60.03103604784466,
,DD015.jpg,0,FF015.jpg,0,,,,,0,75,75,14,imgFunc,0,NA,1.0263673000154085,344.9573147999763,346.0764669099299,2023-10-05 14:27:32.429539,2023-10-05 14:27:33.539830,DD015.jpg,0,10806,18-29,2023-10-05_14h22.23.928,Recall,2021.2.3,60.03103604784466,
,DD010.jpg,0,FF010.jpg,0,,,,,0,76,76,9,imgFunc,0,NA,1.0690862000046764,346.0745488999819,347.22730340997805,2023-10-05 14:27:33.546813,2023-10-05 14:27:34.690918,DD010.jpg,0,10806,18-29,2023-10-05_14h22.23.928,Recall,2021.2.3,60.03103604784466,
,DD034.jpg,0,FF034.jpg,0,,,,,0,77,77,33,imgFunc,9,NA,1.0718479999923147,347.23179999997956,348.40074081000057,2023-10-05 14:27:34.697901,2023-10-05 14:27:35.858199,DD034.jpg,0,10806,18-29,2023-10-05_14h22.23.928,Recall,2021.2.3,60.03103604784466,
,SD031.jpg,0,MF031.jpg,0,,,,,0,78,78,80,imgFunc,0,NA,2.031173499999568,348.4001941999886,350.5368812099914,2023-10-05 14:27:35.865182,2023-10-05 14:27:37.993075,SD031.jpg,0,10806,18-29,2023-10-05_14h22.23.928,Recall,2021.2.3,60.03103604784466,
,DD020.jpg,0,FF020.jpg,0,,,,,0,79,79,19,imgFunc,9,NA,1.0596053999906871,350.53221209999174,351.6845612099569,2023-10-05 14:27:38.000058,2023-10-05 14:27:39.143743,DD020.jpg,0,10806,18-29,2023-10-05_14h22.23.928,Recall,2021.2.3,60.03103604784466,
,DD035.jpg,0,FF035.jpg,0,,,,,0,80,80,34,imgFunc,9,NA,2.9387432000075933,351.676750899991,354.69806630999665,2023-10-05 14:27:39.150726,2023-10-05 14:27:42.163170,DD035.jpg,0,10806,18-29,2023-10-05_14h22.23.928,Recall,2021.2.3,60.03103604784466,
,DD036.jpg,0,FF036.jpg,0,,,,,0,81,81,35,imgFunc,9,NA,0.9623118000163231,354.7012020999973,355.7535133099882,2023-10-05 14:27:42.170153,2023-10-05 14:27:43.213734,DD036.jpg,0,10806,18-29,2023-10-05_14h22.23.928,Recall,2021.2.3,60.03103604784466,
,L_DD504.jpg,1,L_FF504.jpg,1,,,,,0,82,82,43,imgFunc,9,NA,0.6655357999843545,355.75820039998507,356.52691670996137,2023-10-05 14:27:43.220717,2023-10-05 14:27:43.980968,L_DD504.jpg,1,10806,18-29,2023-10-05_14h22.23.928,Recall,2021.2.3,60.03103604784466,
,DD022.jpg,0,FF022.jpg,0,,,,,0,83,83,21,imgFunc,0,NA,0.9129057999816723,356.5344664999866,357.5420653099427,2023-10-05 14:27:43.993963,2023-10-05 14:27:44.998209,DD022.jpg,0,10806,18-29,2023-10-05_14h22.23.928,Recall,2021.2.3,60.03103604784466,
,DD024.jpg,0,FF024.jpg,0,,,,,0,84,84,23,imgFunc,0,NA,0.8900414999807253,357.533726499998,358.51949420999154,2023-10-05 14:27:45.005192,2023-10-05 14:27:45.982243,DD024.jpg,0,10806,18-29,2023-10-05_14h22.23.928,Recall,2021.2.3,60.03103604784466,
,DD021.jpg,0,FF021.jpg,0,,,,,0,85,85,20,imgFunc,0,NA,1.4801863000029698,358.5193663999962,360.08911400998477,2023-10-05 14:27:45.989225,2023-10-05 14:27:47.550231,DD021.jpg,0,10806,18-29,2023-10-05_14h22.23.928,Recall,2021.2.3,60.03103604784466,
,L_DD501.jpg,1,L_FF501.jpg,1,,,,,0,86,86,40,imgFunc,9,NA,0.8573566999984905,360.086298899987,361.038875809958,2023-10-05 14:27:47.557214,2023-10-05 14:27:48.500796,L_DD501.jpg,1,10806,18-29,2023-10-05_14h22.23.928,Recall,2021.2.3,60.03103604784466,
,SD025.jpg,0,MF025.jpg,0,,,,,0,87,87,74,imgFunc,0,NA,1.901498499995796,361.03414319999865,363.02098110999214,2023-10-05 14:27:48.507779,2023-10-05 14:27:50.485753,SD025.jpg,0,10806,18-29,2023-10-05_14h22.23.928,Recall,2021.2.3,60.03103604784466,
,L_SD508.jpg,1,L_MF508.jpg,1,,,,,0,88,88,97,imgFunc,9,NA,1.4659545000176877,363.0377817999979,364.5926737099944,2023-10-05 14:27:50.499717,2023-10-05 14:27:52.053469,L_SD508.jpg,1,10806,18-29,2023-10-05_14h22.23.928,Recall,2021.2.3,60.03103604784466,
,DD017.jpg,0,FF017.jpg,0,,,,,0,89,89,16,imgFunc,9,NA,1.1033736999961548,364.59224619998713,365.7944314099732,2023-10-05 14:27:52.060453,2023-10-05 14:27:53.254002,DD017.jpg,0,10806,18-29,2023-10-05_14h22.23.928,Recall,2021.2.3,60.03103604784466,
,L_SD509.jpg,1,L_MF509.jpg,1,,,,,0,90,90,98,imgFunc,9,NA,1.3230784000188578,365.78837439999916,367.20787691001897,2023-10-05 14:27:53.260985,2023-10-05 14:27:54.671821,L_SD509.jpg,1,10806,18-29,2023-10-05_14h22.23.928,Recall,2021.2.3,60.03103604784466,
,SD039.jpg,0,MF039.jpg,0,,,,,0,91,91,88,imgFunc,9,NA,0.9529016000160482,367.21484259999124,368.2655787099793,2023-10-05 14:27:54.679800,2023-10-05 14:27:55.722705,SD039.jpg,0,10806,18-29,2023-10-05_14h22.23.928,Recall,2021.2.3,60.03103604784466,
,SD038.jpg,0,MF038.jpg,0,,,,,0,92,92,87,imgFunc,0,NA,0.7489040000073146,368.2587316999852,369.09484870996675,2023-10-05 14:27:55.729688,2023-10-05 14:27:56.556756,SD038.jpg,0,10806,18-29,2023-10-05_14h22.23.928,Recall,2021.2.3,60.03103604784466,
,L_DD509.jpg,1,L_FF509.jpg,1,,,,,0,93,93,48,imgFunc,9,NA,0.7007412000093609,369.0989636000013,369.8856715100119,2023-10-05 14:27:56.571718,2023-10-05 14:27:57.357341,L_DD509.jpg,1,10806,18-29,2023-10-05_14h22.23.928,Recall,2021.2.3,60.03103604784466,
,L_DD510.jpg,1,L_FF510.jpg,1,,,,,0,94,94,49,imgFunc,9,NA,2.02870670001721,369.8910340000002,372.01136890999624,2023-10-05 14:27:57.364324,2023-10-05 14:27:59.475671,L_DD510.jpg,1,10806,18-29,2023-10-05_14h22.23.928,Recall,2021.2.3,60.03103604784466,
,SD005.jpg,0,MF005.jpg,0,,,,,0,95,95,54,imgFunc,0,NA,1.365005600004224,372.0104607999965,373.4633918099862,2023-10-05 14:27:59.482654,2023-10-05 14:28:00.926485,SD005.jpg,0,10806,18-29,2023-10-05_14h22.23.928,Recall,2021.2.3,60.03103604784466,
,DD029.jpg,0,FF029.jpg,0,,,,,0,96,96,28,imgFunc,9,NA,0.777650400006678,373.46989829998347,374.35539700998925,2023-10-05 14:28:00.933468,2023-10-05 14:28:01.810330,DD029.jpg,0,10806,18-29,2023-10-05_14h22.23.928,Recall,2021.2.3,60.03103604784466,
,DD002.jpg,0,FF002.jpg,0,,,,,0,97,97,1,imgFunc,9,NA,1.3830941000196617,374.35269379999954,375.83926830999553,2023-10-05 14:28:01.817314,2023-10-05 14:28:03.295091,DD002.jpg,0,10806,18-29,2023-10-05_14h22.23.928,Recall,2021.2.3,60.03103604784466,
,L_SD507.jpg,1,L_MF507.jpg,1,,,,,0,98,98,96,imgFunc,9,NA,1.0609926999895833,375.8347162999853,376.98768450997886,2023-10-05 14:28:03.302074,2023-10-05 14:28:04.445962,L_SD507.jpg,1,10806,18-29,2023-10-05_14h22.23.928,Recall,2021.2.3,60.03103604784466,
,SD035.jpg,0,MF035.jpg,0,,,,,0,99,99,84,imgFunc,9,NA,0.696243799990043,376.9834378999949,377.7693962099729,2023-10-05 14:28:04.452945,2023-10-05 14:28:05.229834,SD035.jpg,0,10806,18-29,2023-10-05_14h22.23.928,Recall,2021.2.3,60.03103604784466,
,,,,,,,,,,,,,instrFunc,space,"Great work! 

 Now you will switch to the other image type.

 Press the spacebar whenever you are ready to start.",8.71435660001589,377.70136549999006,386.4547477099695,2023-10-05 14:28:05.230834,2023-10-05 14:28:13.968486,,,10806,18-29,2023-10-05_14h22.23.928,Recall,2021.2.3,60.03103604784466,
,L_DD506.jpg,1,L_FF506.jpg,1,,,,,0,0,0,45,imgFunc,0,NA,3.6027440000034403,386.54085409999243,390.25300481999875,2023-10-05 14:28:13.997411,2023-10-05 14:28:17.705571,L_FF506.jpg,1,10806,18-29,2023-10-05_14h22.23.928,Recall,2021.2.3,60.03103604784466,
,SD035.jpg,0,MF035.jpg,0,,,,,0,1,1,84,imgFunc,1,NA,2.5658193999843206,390.26592679999885,392.9531789099856,2023-10-05 14:28:17.712554,2023-10-05 14:28:20.390736,MF035.jpg,0,10806,18-29,2023-10-05_14h22.23.928,Recall,2021.2.3,60.03103604784466,
,DD023.jpg,0,FF023.jpg,0,,,,,0,2,2,22,imgFunc,2,NA,2.046711700008018,392.95305859998916,395.12271741000586,2023-10-05 14:28:20.397719,2023-10-05 14:28:22.559150,FF023.jpg,0,10806,18-29,2023-10-05_14h22.23.928,Recall,2021.2.3,60.03103604784466,
,L_SD510.jpg,1,L_MF510.jpg,1,,,,,0,3,3,99,imgFunc,0,NA,2.662860400014324,395.1207652000012,397.8992386099999,2023-10-05 14:28:22.570123,2023-10-05 14:28:25.344164,L_MF510.jpg,1,10806,18-29,2023-10-05_14h22.23.928,Recall,2021.2.3,60.03103604784466,
,SD014.jpg,0,MF014.jpg,0,,,,,0,4,4,63,imgFunc,0,NA,2.1963905000011437,397.89136119998875,400.1948781099927,2023-10-05 14:28:25.351149,2023-10-05 14:28:27.646115,MF014.jpg,0,10806,18-29,2023-10-05_14h22.23.928,Recall,2021.2.3,60.03103604784466,
,L_DD502.jpg,1,L_FF502.jpg,1,,,,,0,5,5,41,imgFunc,9,NA,1.9460933999798726,400.1893840999983,402.24263350997353,2023-10-05 14:28:27.653099,2023-10-05 14:28:29.697346,L_FF502.jpg,1,10806,18-29,2023-10-05_14h22.23.928,Recall,2021.2.3,60.03103604784466,
,DD036.jpg,0,FF036.jpg,0,,,,,0,6,6,35,imgFunc,0,NA,1.0104936999850906,402.2530169999809,403.372090209974,2023-10-05 14:28:29.704352,2023-10-05 14:28:30.815091,FF036.jpg,0,10806,18-29,2023-10-05_14h22.23.928,Recall,2021.2.3,60.03103604784466,
,SD012.jpg,0,MF012.jpg,0,,,,,0,7,7,61,imgFunc,9,NA,1.2280125000106636,403.37982099998044,404.73244400997646,2023-10-05 14:28:30.822075,2023-10-05 14:28:32.166050,MF012.jpg,0,10806,18-29,2023-10-05_14h22.23.928,Recall,2021.2.3,60.03103604784466,
,SD007.jpg,0,MF007.jpg,0,,,,,0,8,8,56,imgFunc,1,NA,2.0940935000253376,404.72161989999586,406.9254951099865,2023-10-05 14:28:32.173034,2023-10-05 14:28:34.367849,MF007.jpg,0,10806,18-29,2023-10-05_14h22.23.928,Recall,2021.2.3,60.03103604784466,
,SD026.jpg,0,MF026.jpg,0,,,,,0,9,9,75,imgFunc,1,NA,1.094127699994715,406.92158019999624,408.1240435099753,2023-10-05 14:28:34.374832,2023-10-05 14:28:35.568273,MF026.jpg,0,10806,18-29,2023-10-05_14h22.23.928,Recall,2021.2.3,60.03103604784466,
,DD027.jpg,0,FF027.jpg,0,,,,,0,10,10,26,imgFunc,0,NA,1.9117361000098754,408.11192249998567,410.1323215099401,2023-10-05 14:28:35.575257,2023-10-05 14:28:37.586702,FF027.jpg,0,10806,18-29,2023-10-05_14h22.23.928,Recall,2021.2.3,60.03103604784466,
,L_DD509.jpg,1,L_FF509.jpg,1,,,,,0,11,11,48,imgFunc,1,NA,1.0973431000020355,410.1343233999796,411.3370822099678,2023-10-05 14:28:37.593685,2023-10-05 14:28:38.787470,L_FF509.jpg,1,10806,18-29,2023-10-05_14h22.23.928,Recall,2021.2.3,60.03103604784466,
,DD016.jpg,0,FF016.jpg,0,,,,,0,12,12,15,imgFunc,1,NA,1.9831609999819193,411.3444741999847,413.4357164099929,2023-10-05 14:28:38.800437,2023-10-05 14:28:40.889038,FF016.jpg,0,10806,18-29,2023-10-05_14h22.23.928,Recall,2021.2.3,60.03103604784466,
,SD004.jpg,0,MF004.jpg,0,,,,,0,13,13,53,imgFunc,1,NA,0.9214422999939416,413.4463564000034,414.48224091000156,2023-10-05 14:28:40.896021,2023-10-05 14:28:41.923115,MF004.jpg,0,10806,18-29,2023-10-05_14h22.23.928,Recall,2021.2.3,60.03103604784466,
,SD036.jpg,0,MF036.jpg,0,,,,,0,14,14,85,imgFunc,9,NA,3.352403199998662,414.47110889997566,417.92570690999855,2023-10-05 14:28:41.930098,2023-10-05 14:28:45.375769,MF036.jpg,0,10806,18-29,2023-10-05_14h22.23.928,Recall,2021.2.3,60.03103604784466,
,SD017.jpg,0,MF017.jpg,0,,,,,0,15,15,66,imgFunc,9,NA,1.2889486000058241,417.9188302999828,419.3043996099732,2023-10-05 14:28:45.382753,2023-10-05 14:28:46.759969,MF017.jpg,0,10806,18-29,2023-10-05_14h22.23.928,Recall,2021.2.3,60.03103604784466,
,SD003.jpg,0,MF003.jpg,0,,,,,0,16,16,52,imgFunc,0,NA,1.2937416000058874,419.31405580000137,420.7167589099845,2023-10-05 14:28:46.766952,2023-10-05 14:28:48.160981,MF003.jpg,0,10806,18-29,2023-10-05_14h22.23.928,Recall,2021.2.3,60.03103604784466,
,DD011.jpg,0,FF011.jpg,0,,,,,0,17,17,10,imgFunc,0,NA,0.9560747999930754,420.7233980000019,421.7786716099945,2023-10-05 14:28:48.174946,2023-10-05 14:28:49.229272,FF011.jpg,0,10806,18-29,2023-10-05_14h22.23.928,Recall,2021.2.3,60.03103604784466,
,DD017.jpg,0,FF017.jpg,0,,,,,0,18,18,16,imgFunc,0,NA,0.8275768999883439,421.78026359999785,422.7129215099849,2023-10-05 14:28:49.237251,2023-10-05 14:28:50.162703,FF017.jpg,0,10806,18-29,2023-10-05_14h22.23.928,Recall,2021.2.3,60.03103604784466,
,DD026.jpg,0,FF026.jpg,0,,,,,0,19,19,25,imgFunc,1,NA,1.8245745999738574,422.71115859999554,424.64748170998064,2023-10-05 14:28:50.169686,2023-10-05 14:28:52.096965,FF026.jpg,0,10806,18-29,2023-10-05_14h22.23.928,Recall,2021.2.3,60.03103604784466,
,DD014.jpg,0,FF014.jpg,0,,,,,0,20,20,13,imgFunc,1,NA,1.1294034000020474,424.6462124999962,425.88250120996963,2023-10-05 14:28:52.103948,2023-10-05 14:28:53.331416,FF014.jpg,0,10806,18-29,2023-10-05_14h22.23.928,Recall,2021.2.3,60.03103604784466,
,DD018.jpg,0,FF018.jpg,0,,,,,0,21,21,17,imgFunc,1,NA,1.3105859000061173,425.8891439999861,427.3089151099848,2023-10-05 14:28:53.338399,2023-10-05 14:28:54.749304,FF018.jpg,0,10806,18-29,2023-10-05_14h22.23.928,Recall,2021.2.3,60.03103604784466,
,SD040.jpg,0,MF040.jpg,0,,,,,0,22,22,89,imgFunc,9,NA,1.6995392000244465,427.308154999977,429.1260821099859,2023-10-05 14:28:54.757285,2023-10-05 14:28:56.567102,MF040.jpg,0,10806,18-29,2023-10-05_14h22.23.928,Recall,2021.2.3,60.03103604784466,
,L_SD504.jpg,1,L_MF504.jpg,1,,,,,0,23,23,93,imgFunc,9,NA,1.2100386999954935,429.10963540000375,430.412564809958,2023-10-05 14:28:56.574086,2023-10-05 14:28:57.868093,L_MF504.jpg,1,10806,18-29,2023-10-05_14h22.23.928,Recall,2021.2.3,60.03103604784466,
,SD001.jpg,0,MF001.jpg,0,,,,,0,24,24,50,imgFunc,0,NA,0.8384797000035178,430.417023099988,431.3697789099533,2023-10-05 14:28:57.875076,2023-10-05 14:28:58.818849,MF001.jpg,0,10806,18-29,2023-10-05_14h22.23.928,Recall,2021.2.3,60.03103604784466,
,SD037.jpg,0,MF037.jpg,0,,,,,0,25,25,86,imgFunc,0,NA,1.7016383000009228,431.3699614999932,433.1730869099847,2023-10-05 14:28:58.825832,2023-10-05 14:29:00.620174,MF037.jpg,0,10806,18-29,2023-10-05_14h22.23.928,Recall,2021.2.3,60.03103604784466,
,DD009.jpg,0,FF009.jpg,0,,,,,0,26,26,8,imgFunc,0,NA,0.6299595000164118,433.1858263000031,433.9267486099852,2023-10-05 14:29:00.633141,2023-10-05 14:29:01.370529,FF009.jpg,0,10806,18-29,2023-10-05_14h22.23.928,Recall,2021.2.3,60.03103604784466,
,L_SD502.jpg,1,L_MF502.jpg,1,,,,,0,27,27,91,imgFunc,0,NA,1.7311101999948733,433.92452579998644,435.761295209988,2023-10-05 14:29:01.377513,2023-10-05 14:29:03.205415,L_MF502.jpg,1,10806,18-29,2023-10-05_14h22.23.928,Recall,2021.2.3,60.03103604784466,
,DD025.jpg,0,FF025.jpg,0,,,,,0,28,28,24,imgFunc,9,NA,1.7231433000124525,435.74840039998526,437.56866790994536,2023-10-05 14:29:03.212398,2023-10-05 14:29:05.023547,FF025.jpg,0,10806,18-29,2023-10-05_14h22.23.928,Recall,2021.2.3,60.03103604784466,
,DD029.jpg,0,FF029.jpg,0,,,,,0,29,29,28,imgFunc,9,NA,1.6920078999828547,437.571729999996,439.37483970998437,2023-10-05 14:29:05.030530,2023-10-05 14:29:06.824652,FF029.jpg,0,10806,18-29,2023-10-05_14h22.23.928,Recall,2021.2.3,60.03103604784466,
,DD022.jpg,0,FF022.jpg,0,,,,,0,30,30,21,imgFunc,0,NA,1.2256229000049643,439.37418899999466,440.71049240996945,2023-10-05 14:29:06.831635,2023-10-05 14:29:08.158900,FF022.jpg,0,10806,18-29,2023-10-05_14h22.23.928,Recall,2021.2.3,60.03103604784466,
,DD034.jpg,0,FF034.jpg,0,,,,,0,31,31,33,imgFunc,0,NA,1.7296673000091687,440.7260591999802,442.5646480099822,2023-10-05 14:29:08.172865,2023-10-05 14:29:10.010210,FF034.jpg,0,10806,18-29,2023-10-05_14h22.23.928,Recall,2021.2.3,60.03103604784466,
,DD015.jpg,0,FF015.jpg,0,,,,,0,32,32,14,imgFunc,0,NA,0.6244934999849647,442.5592651999905,443.2951941099891,2023-10-05 14:29:10.017193,2023-10-05 14:29:10.744123,FF015.jpg,0,10806,18-29,2023-10-05_14h22.23.928,Recall,2021.2.3,60.03103604784466,
,L_DD507.jpg,1,L_FF507.jpg,1,,,,,0,33,33,46,imgFunc,9,NA,1.0922500000160653,443.2914778999984,444.4942426100024,2023-10-05 14:29:10.751106,2023-10-05 14:29:11.944980,L_FF507.jpg,1,10806,18-29,2023-10-05_14h22.23.928,Recall,2021.2.3,60.03103604784466,
,DD038.jpg,0,FF038.jpg,0,,,,,0,34,34,37,imgFunc,0,NA,1.7925688000104856,444.49505769999814,446.3981535099738,2023-10-05 14:29:11.951964,2023-10-05 14:29:13.846425,FF038.jpg,0,10806,18-29,2023-10-05_14h22.23.928,Recall,2021.2.3,60.03103604784466,
,SD024.jpg,0,MF024.jpg,0,,,,,0,35,35,73,imgFunc,9,NA,1.628086600016104,446.40362070000265,448.1396934100194,2023-10-05 14:29:13.853408,2023-10-05 14:29:15.581389,MF024.jpg,0,10806,18-29,2023-10-05_14h22.23.928,Recall,2021.2.3,60.03103604784466,
,L_SD507.jpg,1,L_MF507.jpg,1,,,,,0,36,36,96,imgFunc,9,NA,1.741008500015596,448.1308070999803,449.98246890996234,2023-10-05 14:29:15.589388,2023-10-05 14:29:17.432576,L_MF507.jpg,1,10806,18-29,2023-10-05_14h22.23.928,Recall,2021.2.3,60.03103604784466,
,L_SD508.jpg,1,L_MF508.jpg,1,,,,,0,37,37,97,imgFunc,9,NA,0.804619200003799,449.9791546999768,450.88188430992886,2023-10-05 14:29:17.439559,2023-10-05 14:29:18.333187,L_MF508.jpg,1,10806,18-29,2023-10-05_14h22.23.928,Recall,2021.2.3,60.03103604784466,
,L_DD504.jpg,1,L_FF504.jpg,1,,,,,0,38,38,43,imgFunc,9,NA,0.9626409999909811,450.88500169999315,451.9538795100234,2023-10-05 14:29:18.340170,2023-10-05 14:29:19.400263,L_FF504.jpg,1,10806,18-29,2023-10-05_14h22.23.928,Recall,2021.2.3,60.03103604784466,
,SD016.jpg,0,MF016.jpg,0,,,,,0,39,39,65,imgFunc,0,NA,1.0701578999869525,451.9536516999942,453.1397519099701,2023-10-05 14:29:19.407246,2023-10-05 14:29:20.584473,MF016.jpg,0,10806,18-29,2023-10-05_14h22.23.928,Recall,2021.2.3,60.03103604784466,
,SD030.jpg,0,MF030.jpg,0,,,,,0,40,40,79,imgFunc,9,NA,1.0227256000216585,453.14510059999884,454.26786370997434,2023-10-05 14:29:20.598437,2023-10-05 14:29:21.719054,MF030.jpg,0,10806,18-29,2023-10-05_14h22.23.928,Recall,2021.2.3,60.03103604784466,
,DD019.jpg,0,FF019.jpg,0,,,,,0,41,41,18,imgFunc,0,NA,0.8550962000153959,454.264634399995,455.2167496100301,2023-10-05 14:29:21.726038,2023-10-05 14:29:22.669762,FF019.jpg,0,10806,18-29,2023-10-05_14h22.23.928,Recall,2021.2.3,60.03103604784466,
,L_DD503.jpg,1,L_FF503.jpg,1,,,,,0,42,42,42,imgFunc,9,NA,1.6145727999974042,455.2171396999911,456.9366382099688,2023-10-05 14:29:22.676746,2023-10-05 14:29:24.387395,L_FF503.jpg,1,10806,18-29,2023-10-05_14h22.23.928,Recall,2021.2.3,60.03103604784466,
,SD029.jpg,0,MF029.jpg,0,,,,,0,43,43,78,imgFunc,0,NA,0.7614027000090573,456.9343011000019,457.803598509985,2023-10-05 14:29:24.394378,2023-10-05 14:29:25.254822,MF029.jpg,0,10806,18-29,2023-10-05_14h22.23.928,Recall,2021.2.3,60.03103604784466,
,SD028.jpg,0,MF028.jpg,0,,,,,0,44,44,77,imgFunc,9,NA,0.9245554000081029,457.803293999983,458.8391558099538,2023-10-05 14:29:25.261805,2023-10-05 14:29:26.288800,MF028.jpg,0,10806,18-29,2023-10-05_14h22.23.928,Recall,2021.2.3,60.03103604784466,
,DD030.jpg,0,FF030.jpg,0,,,,,0,45,45,29,imgFunc,9,NA,1.7559107999841217,458.8438819999865,460.69969550997484,2023-10-05 14:29:26.302765,2023-10-05 14:29:28.156823,FF030.jpg,0,10806,18-29,2023-10-05_14h22.23.928,Recall,2021.2.3,60.03103604784466,
,SD025.jpg,0,MF025.jpg,0,,,,,0,46,46,74,imgFunc,9,NA,0.8550701000203844,460.70482259997516,461.67383660993073,2023-10-05 14:29:28.163806,2023-10-05 14:29:29.124181,MF025.jpg,0,10806,18-29,2023-10-05_14h22.23.928,Recall,2021.2.3,60.03103604784466,
,SD034.jpg,0,MF034.jpg,0,,,,,0,47,47,83,imgFunc,9,NA,0.739583099988522,461.6761377999792,462.52728440993815,2023-10-05 14:29:29.132161,2023-10-05 14:29:29.974640,MF034.jpg,0,10806,18-29,2023-10-05_14h22.23.928,Recall,2021.2.3,60.03103604784466,
,DD028.jpg,0,FF028.jpg,0,,,,,0,48,48,27,imgFunc,9,NA,1.0106088999891654,462.53302519998397,463.65256950995536,2023-10-05 14:29:29.981623,2023-10-05 14:29:31.092311,FF028.jpg,0,10806,18-29,2023-10-05_14h22.23.928,Recall,2021.2.3,60.03103604784466,
,SD006.jpg,0,MF006.jpg,0,,,,,0,49,49,55,imgFunc,0,NA,1.3466366000066046,463.6531711999851,465.1228482099832,2023-10-05 14:29:31.099294,2023-10-05 14:29:32.559925,MF006.jpg,0,10806,18-29,2023-10-05_14h22.23.928,Recall,2021.2.3,60.03103604784466,
,DD010.jpg,0,FF010.jpg,0,,,,,0,50,50,9,imgFunc,0,NA,1.249692999990657,465.118118399987,466.48677250996116,2023-10-05 14:29:32.567906,2023-10-05 14:29:33.927821,FF010.jpg,0,10806,18-29,2023-10-05_14h22.23.928,Recall,2021.2.3,60.03103604784466,
,SD033.jpg,0,MF033.jpg,0,,,,,0,51,51,82,imgFunc,9,NA,1.3910292999935336,466.4727201999922,467.95917520998046,2023-10-05 14:29:33.934804,2023-10-05 14:29:35.412213,MF033.jpg,0,10806,18-29,2023-10-05_14h22.23.928,Recall,2021.2.3,60.03103604784466,
,DD006.jpg,0,FF006.jpg,0,,,,,0,52,52,5,imgFunc,9,NA,1.9692077000217978,467.96657479999703,470.0531885099772,2023-10-05 14:29:35.419196,2023-10-05 14:29:37.496984,FF006.jpg,0,10806,18-29,2023-10-05_14h22.23.928,Recall,2021.2.3,60.03103604784466,
,DD033.jpg,0,FF033.jpg,0,,,,,0,53,53,32,imgFunc,9,NA,1.3791401000053156,470.0526271999988,471.5392913099495,2023-10-05 14:29:37.503967,2023-10-05 14:29:38.981830,FF033.jpg,0,10806,18-29,2023-10-05_14h22.23.928,Recall,2021.2.3,60.03103604784466,
,L_DD508.jpg,1,L_FF508.jpg,1,,,,,0,54,54,47,imgFunc,0,NA,0.8915638999897055,471.54009699999006,472.5313206099672,2023-10-05 14:29:38.994797,2023-10-05 14:29:39.982349,L_FF508.jpg,1,10806,18-29,2023-10-05_14h22.23.928,Recall,2021.2.3,60.03103604784466,
,SD020.jpg,0,MF020.jpg,0,,,,,0,55,55,69,imgFunc,9,NA,0.6687771000142675,472.53896869998425,473.3247958099528,2023-10-05 14:29:39.989333,2023-10-05 14:29:40.766096,MF020.jpg,0,10806,18-29,2023-10-05_14h22.23.928,Recall,2021.2.3,60.03103604784466,
,DD008.jpg,0,FF008.jpg,0,,,,,0,56,56,7,imgFunc,9,NA,1.0350631000183057,473.3086938999768,474.4431224099826,2023-10-05 14:29:40.774076,2023-10-05 14:29:41.900258,FF008.jpg,0,10806,18-29,2023-10-05_14h22.23.928,Recall,2021.2.3,60.03103604784466,
,DD024.jpg,0,FF024.jpg,0,,,,,0,57,57,23,imgFunc,9,NA,0.5895410999946762,474.45016690000193,475.15232221002225,2023-10-05 14:29:41.907241,2023-10-05 14:29:42.600678,FF024.jpg,0,10806,18-29,2023-10-05_14h22.23.928,Recall,2021.2.3,60.03103604784466,
,SD009.jpg,0,MF009.jpg,0,,,,,0,58,58,58,imgFunc,9,NA,1.2752471000130754,475.14856000000145,476.5343974100251,2023-10-05 14:29:42.607661,2023-10-05 14:29:43.985117,MF009.jpg,0,10806,18-29,2023-10-05_14h22.23.928,Recall,2021.2.3,60.03103604784466,
,L_SD506.jpg,1,L_MF506.jpg,1,,,,,0,59,59,95,imgFunc,9,NA,0.6474663999979384,476.5443378999771,477.29871520996676,2023-10-05 14:29:43.999105,2023-10-05 14:29:44.752256,L_MF506.jpg,1,10806,18-29,2023-10-05_14h22.23.928,Recall,2021.2.3,60.03103604784466,
,SD032.jpg,0,MF032.jpg,0,,,,,0,60,60,81,imgFunc,9,NA,0.7958520000101998,477.2999273999885,478.2025735099742,2023-10-05 14:29:44.759239,2023-10-05 14:29:45.653046,MF032.jpg,0,10806,18-29,2023-10-05_14h22.23.928,Recall,2021.2.3,60.03103604784466,
,DD002.jpg,0,FF002.jpg,0,,,,,0,61,61,1,imgFunc,0,NA,0.7516368000069633,478.2003534999967,479.0528956099588,2023-10-05 14:29:45.660029,2023-10-05 14:29:46.503705,FF002.jpg,0,10806,18-29,2023-10-05_14h22.23.928,Recall,2021.2.3,60.03103604784466,
,SD027.jpg,0,MF027.jpg,0,,,,,0,62,62,76,imgFunc,9,NA,1.4720312000135891,479.0475525999791,480.61660970997764,2023-10-05 14:29:46.510688,2023-10-05 14:29:48.070809,MF027.jpg,0,10806,18-29,2023-10-05_14h22.23.928,Recall,2021.2.3,60.03103604784466,
,SD005.jpg,0,MF005.jpg,0,,,,,0,63,63,54,imgFunc,9,NA,0.8084302000061143,480.63132109999424,481.54969420997077,2023-10-05 14:29:48.078818,2023-10-05 14:29:48.988738,MF005.jpg,0,10806,18-29,2023-10-05_14h22.23.928,Recall,2021.2.3,60.03103604784466,
,SD011.jpg,0,MF011.jpg,0,,,,,0,64,64,60,imgFunc,0,NA,1.1049400999909267,481.5428983999882,482.7624197099649,2023-10-05 14:29:48.995721,2023-10-05 14:29:50.206256,MF011.jpg,0,10806,18-29,2023-10-05_14h22.23.928,Recall,2021.2.3,60.03103604784466,
,DD032.jpg,0,FF032.jpg,0,,,,,0,65,65,31,imgFunc,9,NA,0.9737230000027921,482.75395600000047,483.83984701000736,2023-10-05 14:29:50.213239,2023-10-05 14:29:51.290495,FF032.jpg,0,10806,18-29,2023-10-05_14h22.23.928,Recall,2021.2.3,60.03103604784466,
,DD031.jpg,0,FF031.jpg,0,,,,,0,66,66,30,imgFunc,9,NA,0.9214054000040051,483.8380916999886,484.8576292099897,2023-10-05 14:29:51.297479,2023-10-05 14:29:52.307902,FF031.jpg,0,10806,18-29,2023-10-05_14h22.23.928,Recall,2021.2.3,60.03103604784466,
,SD023.jpg,0,MF023.jpg,0,,,,,0,67,67,72,imgFunc,9,NA,1.0016387999930885,484.86978909999016,485.9860827100056,2023-10-05 14:29:52.316878,2023-10-05 14:29:53.425501,MF023.jpg,0,10806,18-29,2023-10-05_14h22.23.928,Recall,2021.2.3,60.03103604784466,
,SD013.jpg,0,MF013.jpg,0,,,,,0,68,68,62,imgFunc,0,NA,0.7906729000096675,485.984742599976,486.87263510996127,2023-10-05 14:29:53.439463,2023-10-05 14:29:54.325963,MF013.jpg,0,10806,18-29,2023-10-05_14h22.23.928,Recall,2021.2.3,60.03103604784466,
,L_SD505.jpg,1,L_MF505.jpg,1,,,,,0,69,69,94,imgFunc,9,NA,0.7947391999769025,486.8847836999921,487.7999306099664,2023-10-05 14:29:54.334912,2023-10-05 14:29:55.242808,L_MF505.jpg,1,10806,18-29,2023-10-05_14h22.23.928,Recall,2021.2.3,60.03103604784466,
,DD037.jpg,0,FF037.jpg,0,,,,,0,70,70,36,imgFunc,9,NA,1.2382798999897204,487.80156349999015,489.1517850099772,2023-10-05 14:29:55.251803,2023-10-05 14:29:56.594119,FF037.jpg,0,10806,18-29,2023-10-05_14h22.23.928,Recall,2021.2.3,60.03103604784466,
,SD018.jpg,0,MF018.jpg,0,,,,,0,71,71,67,imgFunc,9,NA,1.3861635000212118,489.14157749997685,490.6280561099993,2023-10-05 14:29:56.601102,2023-10-05 14:29:58.078902,MF018.jpg,0,10806,18-29,2023-10-05_14h22.23.928,Recall,2021.2.3,60.03103604784466,
,DD035.jpg,0,FF035.jpg,0,,,,,0,72,72,34,imgFunc,0,NA,1.607099900022149,490.632720900001,492.3520657099725,2023-10-05 14:29:58.085885,2023-10-05 14:29:59.796474,FF035.jpg,0,10806,18-29,2023-10-05_14h22.23.928,Recall,2021.2.3,60.03103604784466,
,DD004.jpg,0,FF004.jpg,0,,,,,0,73,73,3,imgFunc,9,NA,1.3949452000088058,492.364814999979,493.86939360998804,2023-10-05 14:29:59.811437,2023-10-05 14:30:01.314164,FF004.jpg,0,10806,18-29,2023-10-05_14h22.23.928,Recall,2021.2.3,60.03103604784466,
,SD021.jpg,0,MF021.jpg,0,,,,,0,74,74,70,imgFunc,9,NA,1.088206300017191,493.86359130000346,495.0660166099551,2023-10-05 14:30:01.321170,2023-10-05 14:30:02.515355,MF021.jpg,0,10806,18-29,2023-10-05_14h22.23.928,Recall,2021.2.3,60.03103604784466,
,SD022.jpg,0,MF022.jpg,0,,,,,0,75,75,71,imgFunc,9,NA,0.6252782999945339,495.0625424000027,495.79816000998835,2023-10-05 14:30:02.522338,2023-10-05 14:30:03.249256,MF022.jpg,0,10806,18-29,2023-10-05_14h22.23.928,Recall,2021.2.3,60.03103604784466,
,DD021.jpg,0,FF021.jpg,0,,,,,0,76,76,20,imgFunc,9,NA,0.7774849999987055,495.79831439998816,496.68272200998035,2023-10-05 14:30:03.257258,2023-10-05 14:30:04.133064,FF021.jpg,0,10806,18-29,2023-10-05_14h22.23.928,Recall,2021.2.3,60.03103604784466,
,SD015.jpg,0,MF015.jpg,0,,,,,0,77,77,64,imgFunc,9,NA,0.6830214999790769,496.69276989999344,497.49535650995676,2023-10-05 14:30:04.140046,2023-10-05 14:30:04.933826,MF015.jpg,0,10806,18-29,2023-10-05_14h22.23.928,Recall,2021.2.3,60.03103604784466,
,DD012.jpg,0,FF012.jpg,0,,,,,0,78,78,11,imgFunc,9,NA,1.0518303000135347,497.48377130000154,498.6353542099823,2023-10-05 14:30:04.941807,2023-10-05 14:30:06.084047,FF012.jpg,0,10806,18-29,2023-10-05_14h22.23.928,Recall,2021.2.3,60.03103604784466,
,DD001.jpg,0,FF001.jpg,0,,,,,0,79,79,0,imgFunc,9,NA,0.6289819999947213,498.63480430000345,499.3699885099777,2023-10-05 14:30:06.092050,2023-10-05 14:30:06.818232,FF001.jpg,0,10806,18-29,2023-10-05_14h22.23.928,Recall,2021.2.3,60.03103604784466,
,SD039.jpg,0,MF039.jpg,0,,,,,0,80,80,88,imgFunc,9,NA,0.7706634000060149,499.37310209998395,500.2584025099932,2023-10-05 14:30:06.825237,2023-10-05 14:30:07.702344,MF039.jpg,0,10806,18-29,2023-10-05_14h22.23.928,Recall,2021.2.3,60.03103604784466,
,SD008.jpg,0,MF008.jpg,0,,,,,0,81,81,57,imgFunc,9,NA,0.9162522999977227,500.25164999999106,501.2708645099774,2023-10-05 14:30:07.709327,2023-10-05 14:30:08.719791,MF008.jpg,0,10806,18-29,2023-10-05_14h22.23.928,Recall,2021.2.3,60.03103604784466,
,DD007.jpg,0,FF007.jpg,0,,,,,0,82,82,6,imgFunc,9,NA,0.5436494999739807,501.28011719998904,501.9369973099674,2023-10-05 14:30:08.732644,2023-10-05 14:30:09.386979,FF007.jpg,0,10806,18-29,2023-10-05_14h22.23.928,Recall,2021.2.3,60.03103604784466,
,SD002.jpg,0,MF002.jpg,0,,,,,0,83,83,51,imgFunc,9,NA,0.6181134000071324,501.9338388000033,502.6522776100028,2023-10-05 14:30:09.393962,2023-10-05 14:30:10.104267,MF002.jpg,0,10806,18-29,2023-10-05_14h22.23.928,Recall,2021.2.3,60.03103604784466,
,DD020.jpg,0,FF020.jpg,0,,,,,0,84,84,19,imgFunc,9,NA,1.067266500002006,502.65259069998865,503.82185980997747,2023-10-05 14:30:10.111250,2023-10-05 14:30:11.271865,FF020.jpg,0,10806,18-29,2023-10-05_14h22.23.928,Recall,2021.2.3,60.03103604784466,
,DD003.jpg,0,FF003.jpg,0,,,,,0,85,85,2,imgFunc,9,NA,0.433060800016392,503.82268209999893,504.358569109987,2023-10-05 14:30:11.278849,2023-10-05 14:30:11.805632,FF003.jpg,0,10806,18-29,2023-10-05_14h22.23.928,Recall,2021.2.3,60.03103604784466,
,L_DD501.jpg,1,L_FF501.jpg,1,,,,,0,86,86,40,imgFunc,9,NA,1.3196590000006836,504.3601805999933,505.79631420996157,2023-10-05 14:30:11.812615,2023-10-05 14:30:13.239690,L_FF501.jpg,1,10806,18-29,2023-10-05_14h22.23.928,Recall,2021.2.3,60.03103604784466,
,SD031.jpg,0,MF031.jpg,0,,,,,0,87,87,80,imgFunc,9,NA,0.8011626000225078,505.79861739999615,506.7029848099919,2023-10-05 14:30:13.254652,2023-10-05 14:30:14.157075,MF031.jpg,0,10806,18-29,2023-10-05_14h22.23.928,Recall,2021.2.3,60.03103604784466,
,DD005.jpg,0,FF005.jpg,0,,,,,0,88,88,4,imgFunc,0,NA,1.8688566999917384,506.706926999992,508.6763955099741,2023-10-05 14:30:14.164058,2023-10-05 14:30:16.125649,FF005.jpg,0,10806,18-29,2023-10-05_14h22.23.928,Recall,2021.2.3,60.03103604784466,
,L_SD503.jpg,1,L_MF503.jpg,1,,,,,0,89,89,92,imgFunc,9,NA,0.7706486000097357,508.6771772999782,509.56252030996257,2023-10-05 14:30:16.132640,2023-10-05 14:30:17.009342,L_MF503.jpg,1,10806,18-29,2023-10-05_14h22.23.928,Recall,2021.2.3,60.03103604784466,
,DD040.jpg,0,FF040.jpg,0,,,,,0,90,90,39,imgFunc,0,NA,0.6444658000255004,509.56335189999663,510.3153409100196,2023-10-05 14:30:17.016325,2023-10-05 14:30:17.759929,FF040.jpg,0,10806,18-29,2023-10-05_14h22.23.928,Recall,2021.2.3,60.03103604784466,
,SD038.jpg,0,MF038.jpg,0,,,,,0,91,91,87,imgFunc,9,NA,0.9042985000123736,510.3274952999782,511.36327810998773,2023-10-05 14:30:17.766913,2023-10-05 14:30:18.793745,MF038.jpg,0,10806,18-29,2023-10-05_14h22.23.928,Recall,2021.2.3,60.03103604784466,
,DD039.jpg,0,FF039.jpg,0,,,,,0,92,92,38,imgFunc,9,NA,1.3203645999892615,511.3432280999841,512.7794284099946,2023-10-05 14:30:18.800729,2023-10-05 14:30:20.228200,FF039.jpg,0,10806,18-29,2023-10-05_14h22.23.928,Recall,2021.2.3,60.03103604784466,
,SD010.jpg,0,MF010.jpg,0,,,,,0,93,93,59,imgFunc,9,NA,0.8613900000054855,512.7702756999934,513.7391539099626,2023-10-05 14:30:20.235183,2023-10-05 14:30:21.195462,MF010.jpg,0,10806,18-29,2023-10-05_14h22.23.928,Recall,2021.2.3,60.03103604784466,
,SD019.jpg,0,MF019.jpg,0,,,,,0,94,94,68,imgFunc,9,NA,0.7205467000021599,513.7430877999868,514.5622504099738,2023-10-05 14:30:21.202445,2023-10-05 14:30:22.012824,MF019.jpg,0,10806,18-29,2023-10-05_14h22.23.928,Recall,2021.2.3,60.03103604784466,
,L_SD509.jpg,1,L_MF509.jpg,1,,,,,0,95,95,98,imgFunc,0,NA,0.9519289000018034,514.5679474999779,515.636974909954,2023-10-05 14:30:22.019807,2023-10-05 14:30:23.080361,L_MF509.jpg,1,10806,18-29,2023-10-05_14h22.23.928,Recall,2021.2.3,60.03103604784466,
,DD013.jpg,0,FF013.jpg,0,,,,,0,96,96,12,imgFunc,9,NA,0.5379626000067219,515.6378674999869,516.2767739100091,2023-10-05 14:30:23.094326,2023-10-05 14:30:23.730782,FF013.jpg,0,10806,18-29,2023-10-05_14h22.23.928,Recall,2021.2.3,60.03103604784466,
,L_DD505.jpg,1,L_FF505.jpg,1,,,,,0,97,97,44,imgFunc,9,NA,0.6964589999988675,516.2793124000018,517.0813558099617,2023-10-05 14:30:23.737765,2023-10-05 14:30:24.531345,L_FF505.jpg,1,10806,18-29,2023-10-05_14h22.23.928,Recall,2021.2.3,60.03103604784466,
,L_DD510.jpg,1,L_FF510.jpg,1,,,,,0,98,98,49,imgFunc,9,NA,0.6649932000145782,517.0790023999871,517.847787309991,2023-10-05 14:30:24.538328,2023-10-05 14:30:25.298280,L_FF510.jpg,1,10806,18-29,2023-10-05_14h22.23.928,Recall,2021.2.3,60.03103604784466,
,L_SD501.jpg,1,L_MF501.jpg,1,,,,,0,99,99,90,imgFunc,9,NA,0.9686547000019345,517.8551674999762,518.9415839099383,2023-10-05 14:30:25.305269,2023-10-05 14:30:26.382853,L_MF501.jpg,1,10806,18-29,2023-10-05_14h22.23.928,Recall,2021.2.3,60.03103604784466,
