onset	duration	trial_type	rt	resp
0.0004118001088500023	0.594915000256151	fixation_1	999	999
0.5953781004063785	3.00155509961769	face	2.033091399818659	1
3.5969760003499687	0.594915000256151	fixation_2	999	999
4.145222700200975	1.000015300232917	feedback win	999	999
5.145240000449121	5.316726699937135	ITI	999	999
10.479175500106066	0.5994045003317297	fixation_1	999	999
11.078627600334585	3.000992299988866	face	1.7830894999206066	2
14.079662800300866	0.5994045003317297	fixation_2	999	999
14.628580800257623	1.0165940998122096	feedback loss	999	999
15.645177000202239	1.1184672000817955	ITI	999	999
16.766882800031453	0.5949079003185034	fixation_1	999	999
17.36184160038829	3.001479599624872	face	2.0328378998674452	2
20.3633623002097	0.5949079003185034	fixation_2	999	999
20.911854000296444	1.0167094999924302	feedback win	999	999
21.928565700072795	1.1177272000350058	ITI	999	999
23.049550200346857	0.5954766999930143	fixation_1	999	999
23.64511140016839	3.0504598999395967	face	3.0499245999380946	1
26.695601200219244	0.5954766999930143	fixation_2	999	999
27.24508160026744	1.0000966000370681	feedback win	999	999
28.24518040008843	3.216656500007957	ITI	999	999
31.465082800015807	0.5967331002466381	fixation_1	999	999
32.061862100381404	3.0012208996340632	face	2.0331734996289015	2
35.06312629999593	0.5967331002466381	fixation_2	999	999
35.6118306000717	1.0165710002183914	feedback loss	999	999
36.628403700422496	5.317764799576253	ITI	999	999
41.94945440022275	0.5956973000429571	fixation_1	999	999
42.54520700033754	3.0499470001086593	face	3.0494134998880327	2
45.59518190007657	0.5956973000429571	fixation_2	999	999
46.145115500316024	1.0000016000121832	feedback loss	999	999
47.14511930011213	3.2162150000222027	ITI	999	999
50.36467660032213	0.6137804999016225	fixation_1	999	999
50.97851950023323	3.001249299850315	face	2.5493546999059618	2
53.9798112004064	0.6137804999016225	fixation_2	999	999
54.52853270014748	1.016665100120008	feedback win	999	999
55.54519990039989	3.216560799628496	ITI	999	999
58.76515940017998	0.6132567999884486	fixation_1	999	999
59.37846920033917	3.0017140000127256	face	2.2836035997606814	2
62.38022670010105	0.6132567999884486	fixation_2	999	999
62.928478199988604	1.0166689003817737	feedback loss	999	999
63.94514920003712	1.1178564000874758	ITI	999	999
65.06641420023516	0.6119717000983655	fixation_1	999	999
65.6784441000782	3.050042000133544	face	3.0495583000592887	2
68.72852090001106	0.6119717000983655	fixation_2	999	999
69.27850710041821	1.0166484997607768	feedback win	999	999
70.29515780042857	1.1181413996964693	ITI	999	999
71.41679630009457	0.5950795002281666	fixation_1	999	999
72.01193630043417	3.0010719997808337	face	2.5492807999253273	1
75.01305240020156	0.5950795002281666	fixation_2	999	999
75.56175800040364	1.0166993997991085	feedback win	999	999
76.57845959998667	1.1174865001812577	ITI	999	999
77.69939419999719	0.5958128003403544	fixation_1	999	999
78.2952682999894	3.0020046001300216	face	2.7995201000012457	1
81.29731410043314	0.5958128003403544	fixation_2	999	999
81.84508410003036	1.0166327003389597	feedback loss	999	999
82.86171900015324	3.216744599863887	ITI	999	999
86.08194970013574	0.6130907000042498	fixation_1	999	999
86.69510030001402	3.001457500271499	face	2.550617900211364	2
89.69660040037706	0.6130907000042498	fixation_2	999	999
90.24499989999458	1.0000209002755582	feedback loss	999	999
91.24502300005406	1.117663400247693	ITI	999	999
92.36610650038347	0.595641499850899	fixation_1	999	999
92.96180680021644	3.0022398000583053	face	2.799781700130552	1
95.9640876003541	0.595641499850899	fixation_2	999	999
96.51165070012212	1.0166620002128184	feedback win	999	999
97.52831480000168	5.316746400203556	ITI	999	999
102.8485611001961	0.59654810000211	fixation_1	999	999
103.44516520015895	3.001523899845779	face	2.0328640998341143	1
106.44673120044172	0.59654810000211	fixation_2	999	999
106.99514400027692	1.000010299962014	feedback win	999	999
107.99515650002286	1.1174443000927567	ITI	999	999
109.11617809999734	0.5954356002621353	fixation_1	999	999
109.71167550003156	3.049548600334674	face	3.0490530002862215	1
112.76125330012292	0.5954356002621353	fixation_2	999	999
113.3116168002598	1.0000716000795364	feedback win	999	999
114.31169060012326	5.316103300079703	ITI	999	999
119.63134090043604	0.5970186996273696	fixation_1	999	999
120.22842000005767	3.0021015000529587	face	2.7846828000620008	2
123.2305632000789	0.5970186996273696	fixation_2	999	999
123.77822980005294	1.0002677999436855	feedback win	999	999
124.77849990036339	3.216725300066173	ITI	999	999
127.99883639998734	0.6129440004006028	fixation_1	999	999
128.61184870032594	3.000691100023687	face	2.2991426000371575	2
131.61258250009269	0.6129440004006028	fixation_2	999	999
132.16168140014634	1.0167032000608742	feedback win	999	999
133.17838670033962	3.2171776997856796	ITI	999	999
136.39920350024477	0.6291962000541389	fixation_1	999	999
137.02846890036017	3.001895199995488	face	2.032486999873072	2
140.03040780033916	0.6291962000541389	fixation_2	999	999
140.57827950036153	1.0166627997532487	feedback win	999	999
141.5949444002472	3.217044400051236	ITI	999	999
144.81571940006688	0.5959276999346912	fixation_1	999	999
145.4117151000537	3.001053400337696	face	2.032552700024098	2
148.4128093002364	0.5959276999346912	fixation_2	999	999
148.9615757004358	1.0167394997552037	feedback win	999	999
149.9783173003234	11.61676670005545	ITI	999	999
161.59889760008082	0.5961409001611173	fixation_1	999	999
162.19510990008712	3.001531300134957	face	1.7825967003591359	1
165.19668550044298	0.5961409001611173	fixation_2	999	999
165.74484860012308	1.0167390001006424	feedback loss	999	999
166.76159010035917	5.316724599804729	ITI	999	999
172.08200120041147	0.5961748999543488	fixation_1	999	999
172.67824060004205	3.0018009999766946	face	2.550783900078386	2
175.68008540011942	0.5961748999543488	fixation_2	999	999
176.22834290005267	1.0165729001164436	feedback win	999	999
177.2449181000702	5.317097499966621	ITI	999	999
182.56574050011113	0.5957677001133561	fixation_1	999	999
183.1615755003877	3.0507524996064603	face	3.050228300038725	2
186.2123564002104	0.5957677001133561	fixation_2	999	999
186.76149720000103	1.000047900248319	feedback loss	999	999
187.76154730003327	3.2169663002714515	ITI	999	999
190.98227610019967	0.5959601998329163	fixation_1	999	999
191.57831120025367	3.0019666999578476	face	2.0329726999625564	1
194.58032000018284	0.5959601998329163	fixation_2	999	999
195.12823860021308	1.0166907999664545	feedback loss	999	999
196.14493160042912	1.1174060995690525	ITI	999	999
197.26612250041217	0.6287015997804701	fixation_1	999	999
197.89489530026913	3.0021017999388278	face	2.0328318998217583	2
200.89704040018842	0.6287015997804701	fixation_2	999	999
201.4449498001486	1.0000049001537263	feedback loss	999	999
202.44495690008625	1.1178848999552429	ITI	999	999
203.5666822004132	0.6115855998359621	fixation_1	999	999
204.17834270000458	3.0016217003576458	face	1.7823709002695978	2
207.18001000024378	0.6115855998359621	fixation_2	999	999
207.72819770034403	1.000103599857539	feedback win	999	999
208.72830340033397	5.316806399729103	ITI	999	999
214.04897040035576	0.5958853997290134	fixation_1	999	999
214.64492790028453	3.0018076999112964	face	2.282985500060022	2
217.6467794002965	0.5958853997290134	fixation_2	999	999
218.19487760029733	1.0165377999655902	feedback loss	999	999
219.2114193001762	5.316048699896783	ITI	999	999
224.53135649999604	0.5969899999909103	fixation_1	999	999
225.12842960003763	3.001688300166279	face	1.5329525000415742	2
228.13015920016915	0.5969899999909103	fixation_2	999	999
228.67825900018215	1.0166686000302434	feedback win	999	999
229.69492979999632	3.2161155003122985	ITI	999	999
232.91506780032068	0.596425199881196	fixation_1	999	999
233.51157480012625	3.0022700000554323	face	1.7839504000730813	1
236.5138885001652	0.596425199881196	fixation_2	999	999
237.06148970033973	1.016508299857378	feedback loss	999	999
238.0780002004467	1.116971299983561	ITI	999	999
239.19895029999316	0.595913200173527	fixation_1	999	999
239.79494410008192	3.0009313002228737	face	2.2830341001972556	1
242.79591820016503	0.595913200173527	fixation_2	999	999
243.3447627001442	1.0166281000711024	feedback win	999	999
244.36139299999923	3.2163925003260374	ITI	999	999
247.5817853002809	0.5963640999980271	fixation_1	999	999
248.17823470011353	3.000863099936396	face	2.2850476000458	1
251.17914180038497	0.5963640999980271	fixation_2	999	999
251.72817950043827	1.000019499566406	feedback loss	999	999
252.72820120025426	1.1183417001739144	ITI	999	999
253.85054820030928	0.5941204996779561	fixation_1	999	999
254.44475750019774	3.0020739999599755	face	2.2838269998319447	2
257.4468755000271	0.5941204996779561	fixation_2	999	999
257.9948703004047	1.0166292996145785	feedback loss	999	999
259.0115018002689	1.117332300171256	ITI	999	999
260.13286690041423	0.6119279996491969	fixation_1	999	999
260.7448791000061	3.0013942001387477	face	2.033593200147152	2
263.7463166001253	0.6119279996491969	fixation_2	999	999
264.2947248001583	1.0166647001169622	feedback loss	999	999
265.3113917000592	1.1176818003877997	ITI	999	999
266.4333377000876	0.5947365001775324	fixation_1	999	999
267.02815610030666	3.0020467001013458	face	1.7836615000851452	1
270.0302472002804	0.5947365001775324	fixation_2	999	999
270.57829430000857	1.016409800387919	feedback win	999	999
271.5947063001804	5.316300400067121	ITI	999	999
276.9151212000288	0.5963145000860095	fixation_1	999	999
277.5115336002782	3.0012453999370337	face	2.2844898998737335	2
280.5128213004209	0.5963145000860095	fixation_2	999	999
281.0614559003152	1.016597599722445	feedback loss	999	999
282.0780557002872	1.1179117001593113	ITI	999	999
283.20016460027546	0.6112461998127401	fixation_1	999	999
283.81150830024853	3.00084610003978	face	2.5340054999105632	2
286.8123983000405	0.6112461998127401	fixation_2	999	999
287.36115860007703	1.0168015002273023	feedback loss	999	999
288.37796240020543	3.2168960999697447	ITI	999	999
291.5989547003992	0.6124336998909712	fixation_1	999	999
292.21147400001064	3.0015039001591504	face	2.7999891000799835	2
295.2130211000331	0.6124336998909712	fixation_2	999	999
295.7613580999896	1.0000895000994205	feedback win	999	999
296.7614497002214	5.315780600067228	ITI	999	999
302.0814505000599	0.5965978000313044	fixation_1	999	999
302.6781360004097	3.0010395999997854	face	1.2834561998024583	2
305.6792198000476	0.5965978000313044	fixation_2	999	999
306.22813610034063	1.01652429997921	feedback loss	999	999
307.24466260010377	5.316403900273144	ITI	999	999
312.56524480041116	0.6127893999218941	fixation_1	999	999
313.17812450043857	3.00200939970091	face	2.549820799846202	1
316.18017800012603	0.6127893999218941	fixation_2	999	999
316.7280918001197	1.0165015999227762	feedback win	999	999
317.74459570040926	1.1172585999593139	ITI	999	999
318.8660887000151	0.5953629002906382	fixation_1	999	999
319.46155250025913	3.0011105998419225	face	2.2832114999182522	2
322.46270430041477	0.5953629002906382	fixation_2	999	999
323.0113719003275	1.0166333001106977	feedback loss	999	999
324.02800730010495	1.1180374999530613	ITI	999	999
325.1502124001272	0.5944881001487374	fixation_1	999	999
325.7447905000299	3.001108800061047	face	2.0330140003934503	1
328.7459414000623	0.5944881001487374	fixation_2	999	999
329.2947611003183	1.0165554997511208	feedback loss	999	999
330.31131890043616	5.317035799846053	ITI	999	999
