onset	duration	trial_type	response_time	Endowment	Decision	Offer
4.628577	2	cue_social	n/a	32	n/a	n/a
4.628577	2	cue_social_high	n/a	32	n/a	n/a
6.513546	1.650753	dec_social_high	1.650753	32	n/a	16
6.513546	1.650753	dec_social_high_accept	1.650753	32	accept	16
11.342094	2	cue_nonsocial	n/a	32	n/a	n/a
11.342094	2	cue_nonsocial_high	n/a	32	n/a	n/a
13.348293	1.399527	dec_nonsocial_high	1.399527	32	n/a	2
13.348293	1.399527	dec_nonsocial_high_reject	1.399527	32	reject	2
18.189175	2	cue_social	n/a	32	n/a	n/a
18.189175	2	cue_social_high	n/a	32	n/a	n/a
20.181904	1.865508	dec_social_high	1.865508	32	n/a	2
20.181904	1.865508	dec_social_high_accept	1.865508	32	accept	2
25.825909	2	cue_nonsocial	n/a	16	n/a	n/a
25.825909	2	cue_nonsocial_low	n/a	16	n/a	n/a
27.831942	1.582534	dec_nonsocial_low	1.582534	16	n/a	1
27.831942	1.582534	dec_nonsocial_low_accept	1.582534	16	accept	1
35.220500	2	cue_social	n/a	16	n/a	n/a
35.220500	2	cue_social_low	n/a	16	n/a	n/a
37.081330	1.349539	dec_social_low	1.349539	16	n/a	4
37.081330	1.349539	dec_social_low_accept	1.349539	16	accept	4
42.812520	2	cue_social	n/a	32	n/a	n/a
42.812520	2	cue_social_high	n/a	32	n/a	n/a
44.730885	1.116365	dec_social_high	1.116365	32	n/a	8
44.730885	1.116365	dec_social_high_accept	1.116365	32	accept	8
53.719310	2	cue_social	n/a	32	n/a	n/a
53.719310	2	cue_social_high	n/a	32	n/a	n/a
55.597298	1.632857	dec_social_high	1.632857	32	n/a	2
55.597298	1.632857	dec_social_high_accept	1.632857	32	accept	2
60.425713	2	cue_nonsocial	n/a	32	n/a	n/a
60.425713	2	cue_nonsocial_high	n/a	32	n/a	n/a
62.430386	1.116224	dec_nonsocial_high	1.116224	32	n/a	8
62.430386	1.116224	dec_nonsocial_high_accept	1.116224	32	accept	8
67.259170	2	cue_nonsocial	n/a	32	n/a	n/a
67.259170	2	cue_nonsocial_high	n/a	32	n/a	n/a
69.263850	1.733725	dec_nonsocial_high	1.733725	32	n/a	3
69.263850	1.733725	dec_nonsocial_high_accept	1.733725	32	accept	3
76.624710	2	cue_social	n/a	32	n/a	n/a
76.624710	2	cue_social_high	n/a	32	n/a	n/a
78.514880	0.949249	dec_social_high	0.949249	32	n/a	3
78.514880	0.949249	dec_social_high_accept	0.949249	32	accept	3
84.159150	2	cue_nonsocial	n/a	16	n/a	n/a
84.159150	2	cue_nonsocial_low	n/a	16	n/a	n/a
86.163826	1.400194	dec_nonsocial_low	1.400194	16	n/a	1
86.163826	1.400194	dec_nonsocial_low_accept	1.400194	16	accept	1
91.112740	2	cue_social	n/a	16	n/a	n/a
91.112740	2	cue_social_low	n/a	16	n/a	n/a
92.996820	1.417319	dec_social_low	1.417319	16	n/a	4
92.996820	1.417319	dec_social_low_accept	1.417319	16	accept	4
101.867260	2	cue_social	n/a	32	n/a	n/a
101.867260	2	cue_social_high	n/a	32	n/a	n/a
103.864876	1.182480	dec_social_high	1.182480	32	n/a	8
103.864876	1.182480	dec_social_high_accept	1.182480	32	accept	8
109.509490	2	cue_nonsocial	n/a	16	n/a	n/a
109.509490	2	cue_nonsocial_low	n/a	16	n/a	n/a
111.514206	1.065989	dec_nonsocial_low	1.065989	16	n/a	2
111.514206	1.065989	dec_nonsocial_low_accept	1.065989	16	accept	2
118.776030	2	cue_nonsocial	n/a	32	n/a	n/a
118.776030	2	cue_nonsocial_high	n/a	32	n/a	n/a
120.780680	1.400473	dec_nonsocial_high	1.400473	32	n/a	3
120.780680	1.400473	dec_nonsocial_high_accept	1.400473	32	accept	3
125.610320	2	cue_social	n/a	32	n/a	n/a
125.610320	2	cue_social_high	n/a	32	n/a	n/a
127.614820	2.465965	dec_social_high	2.465965	32	n/a	2
127.614820	2.465965	dec_social_high_accept	2.465965	32	accept	2
132.442250	2	cue_nonsocial	n/a	16	n/a	n/a
132.442250	2	cue_nonsocial_low	n/a	16	n/a	n/a
134.448460	1.515109	dec_nonsocial_low	1.515109	16	n/a	2
134.448460	1.515109	dec_nonsocial_low_accept	1.515109	16	accept	2
139.275380	2	cue_social	n/a	32	n/a	n/a
139.275380	2	cue_social_high	n/a	32	n/a	n/a
141.280800	1.499726	dec_social_high	1.499726	32	n/a	3
141.280800	1.499726	dec_social_high_accept	1.499726	32	accept	3
148.542180	2	cue_nonsocial	n/a	16	n/a	n/a
148.542180	2	cue_nonsocial_low	n/a	16	n/a	n/a
150.547440	0.915877	dec_nonsocial_low	0.915877	16	n/a	2
150.547440	0.915877	dec_nonsocial_low_accept	0.915877	16	accept	2
155.382550	2	cue_social	n/a	32	n/a	n/a
155.382550	2	cue_social_high	n/a	32	n/a	n/a
157.380800	1.283671	dec_social_high	1.283671	32	n/a	2
157.380800	1.283671	dec_social_high_accept	1.283671	32	accept	2
162.208400	2	cue_nonsocial	n/a	16	n/a	n/a
162.208400	2	cue_nonsocial_low	n/a	16	n/a	n/a
164.214780	1.065304	dec_nonsocial_low	1.065304	16	n/a	2
164.214780	1.065304	dec_nonsocial_low_accept	1.065304	16	accept	2
173.211440	2	cue_social	n/a	16	n/a	n/a
173.211440	2	cue_social_low	n/a	16	n/a	n/a
175.079820	1.518235	dec_social_low	1.518235	16	n/a	2
175.079820	1.518235	dec_social_low_accept	1.518235	16	accept	2
180.716080	2	cue_social	n/a	16	n/a	n/a
180.716080	2	cue_social_low	n/a	16	n/a	n/a
182.713780	1.100324	dec_social_low	1.100324	16	n/a	2
182.713780	1.100324	dec_social_low_accept	1.100324	16	accept	2
187.542710	2	cue_nonsocial	n/a	16	n/a	n/a
187.542710	2	cue_nonsocial_low	n/a	16	n/a	n/a
189.547900	1.199346	dec_nonsocial_low	1.199346	16	n/a	4
189.547900	1.199346	dec_nonsocial_low_accept	1.199346	16	accept	4
194.375660	2	cue_nonsocial	n/a	16	n/a	n/a
194.375660	2	cue_nonsocial_low	n/a	16	n/a	n/a
196.380860	2.232887	dec_nonsocial_low	2.232887	16	n/a	1
196.380860	2.232887	dec_nonsocial_low_accept	2.232887	16	accept	1
201.329970	2	cue_social	n/a	16	n/a	n/a
201.329970	2	cue_social_low	n/a	16	n/a	n/a
203.212830	1.101353	dec_social_low	1.101353	16	n/a	2
203.212830	1.101353	dec_social_low_accept	1.101353	16	accept	2
210.458300	2	cue_nonsocial	n/a	16	n/a	n/a
210.458300	2	cue_nonsocial_low	n/a	16	n/a	n/a
212.463710	1.333443	dec_nonsocial_low	1.333443	16	n/a	8
212.463710	1.333443	dec_nonsocial_low_accept	1.333443	16	accept	8
217.291670	2	cue_nonsocial	n/a	32	n/a	n/a
217.291670	2	cue_nonsocial_high	n/a	32	n/a	n/a
219.297710	1.349941	dec_nonsocial_high	1.349941	32	n/a	16
219.297710	1.349941	dec_nonsocial_high_accept	1.349941	32	accept	16
229.899080	2	cue_social	n/a	32	n/a	n/a
229.899080	2	cue_social_high	n/a	32	n/a	n/a
231.779750	1.033237	dec_social_high	1.033237	32	n/a	16
231.779750	1.033237	dec_social_high_accept	1.033237	32	accept	16
236.608570	2	cue_nonsocial	n/a	16	n/a	n/a
236.608570	2	cue_nonsocial_low	n/a	16	n/a	n/a
238.614720	1.065534	dec_nonsocial_low	1.065534	16	n/a	8
238.614720	1.065534	dec_nonsocial_low_accept	1.065534	16	accept	8
243.558100	2	cue_social	n/a	32	n/a	n/a
243.558100	2	cue_social_high	n/a	32	n/a	n/a
245.447590	0.849435	dec_social_high	0.849435	32	n/a	8
245.447590	0.849435	dec_social_high_accept	0.849435	32	accept	8
251.196980	2	cue_social	n/a	16	n/a	n/a
251.196980	2	cue_social_low	n/a	16	n/a	n/a
253.097370	0.965947	dec_social_low	0.965947	16	n/a	8
253.097370	0.965947	dec_social_low_accept	0.965947	16	accept	8
257.924900	2	cue_nonsocial	n/a	16	n/a	n/a
257.924900	2	cue_nonsocial_low	n/a	16	n/a	n/a
259.931430	1.349263	dec_nonsocial_low	1.349263	16	n/a	8
259.931430	1.349263	dec_nonsocial_low_accept	1.349263	16	accept	8
265.638100	2	cue_social	n/a	16	n/a	n/a
265.638100	2	cue_social_low	n/a	16	n/a	n/a
267.579680	1.100641	dec_social_low	1.100641	16	n/a	8
267.579680	1.100641	dec_social_low_accept	1.100641	16	accept	8
272.408330	2	cue_nonsocial	n/a	32	n/a	n/a
272.408330	2	cue_nonsocial_high	n/a	32	n/a	n/a
274.412700	1.517651	dec_nonsocial_high	1.517651	32	n/a	8
274.412700	1.517651	dec_nonsocial_high_accept	1.517651	32	accept	8
280.041400	2	cue_nonsocial	n/a	16	n/a	n/a
280.041400	2	cue_nonsocial_low	n/a	16	n/a	n/a
282.063800	1.599889	dec_nonsocial_low	1.599889	16	n/a	4
282.063800	1.599889	dec_nonsocial_low_accept	1.599889	16	accept	4
289.308200	2	cue_nonsocial	n/a	16	n/a	n/a
289.308200	2	cue_nonsocial_low	n/a	16	n/a	n/a
291.313480	1.166116	dec_nonsocial_low	1.166116	16	n/a	8
291.313480	1.166116	dec_nonsocial_low_accept	1.166116	16	accept	8
296.217530	2	cue_social	n/a	16	n/a	n/a
296.217530	2	cue_social_low	n/a	16	n/a	n/a
298.146640	1.150379	dec_social_low	1.150379	16	n/a	8
298.146640	1.150379	dec_social_low_accept	1.150379	16	accept	8
302.974520	2	cue_nonsocial	n/a	16	n/a	n/a
302.974520	2	cue_nonsocial_low	n/a	16	n/a	n/a
304.980070	1.066032	dec_nonsocial_low	1.066032	16	n/a	8
304.980070	1.066032	dec_nonsocial_low_accept	1.066032	16	accept	8
310.706000	2	cue_social	n/a	16	n/a	n/a
310.706000	2	cue_social_low	n/a	16	n/a	n/a
312.628720	1.268034	dec_social_low	1.268034	16	n/a	4
312.628720	1.268034	dec_social_low_accept	1.268034	16	accept	4
318.355440	2	cue_social	n/a	16	n/a	n/a
318.355440	2	cue_social_low	n/a	16	n/a	n/a
320.263700	1.383164	dec_social_low	1.383164	16	n/a	8
320.263700	1.383164	dec_social_low_accept	1.383164	16	accept	8
325.193330	2	cue_social	n/a	32	n/a	n/a
325.193330	2	cue_social_high	n/a	32	n/a	n/a
327.096620	1.766286	dec_social_high	1.766286	32	n/a	2
327.096620	1.766286	dec_social_high_accept	1.766286	32	accept	2
332.741520	2	cue_nonsocial	n/a	32	n/a	n/a
332.741520	2	cue_nonsocial_high	n/a	32	n/a	n/a
334.747680	1.432432	dec_nonsocial_high	1.432432	32	n/a	8
334.747680	1.432432	dec_nonsocial_high_accept	1.432432	32	accept	8
339.574620	2	cue_nonsocial	n/a	16	n/a	n/a
339.574620	2	cue_nonsocial_low	n/a	16	n/a	n/a
341.581400	1.132586	dec_nonsocial_low	1.132586	16	n/a	4
341.581400	1.132586	dec_nonsocial_low_accept	1.132586	16	accept	4
347.328460	2	cue_social	n/a	16	n/a	n/a
347.328460	2	cue_social_low	n/a	16	n/a	n/a
349.230620	1.499256	dec_social_low	1.499256	16	n/a	2
349.230620	1.499256	dec_social_low_accept	1.499256	16	accept	2
354.117100	2	cue_social	n/a	32	n/a	n/a
354.117100	2	cue_social_high	n/a	32	n/a	n/a
356.064600	1.764748	dec_social_high	1.764748	32	n/a	2
356.064600	1.764748	dec_social_high_accept	1.764748	32	accept	2
361.707580	2	cue_nonsocial	n/a	16	n/a	n/a
361.707580	2	cue_nonsocial_low	n/a	16	n/a	n/a
363.712500	1.551044	dec_nonsocial_low	1.551044	16	n/a	1
363.712500	1.551044	dec_nonsocial_low_accept	1.551044	16	accept	1
368.541080	2	cue_nonsocial	n/a	16	n/a	n/a
368.541080	2	cue_nonsocial_low	n/a	16	n/a	n/a
370.546600	1.149968	dec_nonsocial_low	1.149968	16	n/a	1
370.546600	1.149968	dec_nonsocial_low_accept	1.149968	16	accept	1
