TrialNumber,Trialn,TrialType,Partner,Feedback,ITI,ISI,ran,order,studyStart,InitFixOnset,decision_onset,resp,resp_onset,rt,ISI_onset,isi_for_trial,ISI_offset,outcome_val,outcome_onset,outcome_offset,trialDuration,ITIonset,ITIoffset,final_fix_offset
1,1,7,3,1,5.652500e+00,2.422500e+00,1.0,0.0,2.8000213e-06,0.0094427,4.0344863,1.0,5.489766,1.4552798,5.590257,3.66722,9.260067,6.0,9.26022,9.86763,5.8331437,9.867821,15.522648,--
2,2,4,2,1,8.075000e-01,8.075000e-01,1.0,1.0,--,--,15.537409,2.0,16.473017,0.9356078,16.573416,2.5718923,19.146597,4.0,19.146727,19.752182,4.2147727,19.75239,20.56315,--
3,3,9,3,3,8.075000e-01,1.615000e+00,1.0,2.0,--,--,20.576109,2.0,21.722836,1.1467263,21.823248,3.1682737,24.993456,7.0,24.993595,25.599329,5.0232186,25.599487,26.409098,--
4,4,1,1,1,8.075000e-01,8.075000e-01,1.0,3.0,--,--,26.414509,2.0,27.873156,1.4586471,27.97357,2.048853,30.023447,2.0,30.023584,30.629805,4.2152963,30.629961,31.43959,--
5,5,6,2,3,8.075000e-01,2.422500e+00,1.0,4.0,--,--,31.451378,2.0,32.90647,1.4550935,33.006905,3.6674066,36.677338,6.0,36.67746,37.282215,5.8308387,37.28237,38.092308,--
6,6,7,3,1,8.075000e-01,1.615000e+00,1.0,5.0,--,--,38.104374,1.0,39.45618,1.3518046,39.55675,2.9631953,42.523544,9.0,42.523685,43.12925,5.024874,43.129417,43.939,--
7,7,6,2,3,4.037500e+00,2.422500e+00,1.0,6.0,--,--,43.951447,1.0,45.09024,1.1387941,45.190704,3.983706,49.177353,1.0,49.177475,49.783897,5.832452,49.78411,53.823685,--
8,8,6,2,3,2.422500e+00,8.075000e-01,1.0,7.0,--,--,53.834557,2.0,55.389374,1.554815,55.489815,1.9526849,57.44448,8.0,57.44462,58.04907,4.2145114,58.04922,60.474197,--
9,9,4,2,1,8.075000e-01,8.075000e-01,1.0,8.0,--,--,60.4851,1.0,61.6245,1.1394006,61.72493,2.3680995,64.09547,6.0,64.0956,64.70196,4.2168555,64.70211,65.51142,--
10,10,8,3,2,2.422500e+00,2.422500e+00,1.0,9.0,--,--,65.52339,1.0,66.25638,0.7329806,66.3568,4.389519,70.74829,5.0,70.74842,71.35388,5.8304896,71.35404,73.77915,--
11,11,9,3,3,7.267500e+00,8.075000e-01,1.0,10.0,--,--,73.789734,1.0,74.83962,1.0498836,74.940025,2.4576163,77.399475,1.0,77.39962,78.00494,4.2152023,78.005104,85.27437,--
12,12,4,2,1,4.037500e+00,2.422500e+00,1.0,11.0,--,--,85.28669,1.0,86.43989,1.1532027,86.540306,3.9692974,90.51244,9.0,90.51258,91.11709,5.8303986,91.11725,95.15709,--
13,13,4,2,1,2.422500e+00,2.422500e+00,1.0,12.0,--,--,95.168175,1.0,96.82278,1.6545998,96.92329,3.4679003,100.39367,7.0,100.39379,100.99913,5.830957,100.99929,103.423676,--
14,14,3,1,3,2.422500e+00,8.075000e-01,1.0,13.0,--,--,103.42704,1.0,105.28918,1.8621371,105.38961,1.6453629,107.03729,4.0,107.037415,107.64198,4.214946,107.64216,110.0672,--
15,15,1,1,1,2.422500e+00,1.615000e+00,1.0,14.0,--,--,110.06904,2.0,111.622574,1.5535326,111.722984,2.7614675,114.48637,4.0,114.486496,115.0918,5.022758,115.091965,117.516716,--
16,16,9,3,3,2.422500e+00,2.422500e+00,1.0,15.0,--,--,117.53813,2.0,118.589516,1.0513786,118.68993,4.071121,122.76375,7.0,122.76391,123.37018,5.832041,123.37033,125.794586,--
17,17,6,2,3,2.422500e+00,8.075000e-01,1.0,16.0,--,--,125.80728,2.0,127.056015,1.2487313,127.15644,2.2587688,129.41805,7.0,129.41817,130.02217,4.214886,130.02232,132.44731,--
18,18,4,2,1,8.075000e-01,2.422500e+00,1.0,17.0,--,--,132.45822,1.0,133.18939,0.7311729,133.28983,4.391327,137.68344,8.0,137.6836,138.289,5.8307757,138.28917,139.09981,--
19,19,3,1,3,8.075000e-01,2.422500e+00,1.0,18.0,--,--,139.10321,1.0,140.5558,1.4525949,140.65622,3.6699052,144.32782,3.0,144.32794,144.93437,5.8311534,144.93452,145.74408,--
20,20,1,1,1,4.037500e+00,2.422500e+00,1.0,19.0,--,--,145.74623,1.0,146.88914,1.1429195,146.98956,3.9795804,150.97195,8.0,150.97209,151.57668,5.8304453,151.57683,155.61644,--
21,21,7,3,1,5.652500e+00,1.615000e+00,1.0,20.0,--,--,155.62802,2.0,156.15587,0.5278557,156.2563,3.7871442,160.0454,4.0,160.04553,160.65065,5.0226245,160.6508,166.30573,--
22,22,9,3,3,8.075000e-01,1.615000e+00,1.0,21.0,--,--,166.31702,2.0,167.35593,1.0389136,167.45633,3.2760863,170.73457,6.0,170.7347,171.33939,5.0223637,171.33954,172.14964,--
23,23,4,2,1,7.267500e+00,8.075000e-01,1.0,22.0,--,--,172.16104,2.0,174.43918,2.2781384,174.53961,1.2293617,175.77124,4.0,175.77136,176.37677,4.215721,176.37692,183.6468,--
24,24,3,1,3,2.422500e+00,8.075000e-01,1.0,23.0,--,--,183.64987,2.0,185.10587,1.455988,185.2064,2.051512,187.26015,8.0,187.26028,187.86488,4.2150097,187.86504,190.28972,--
25,25,1,1,1,8.882500e+00,8.075000e-01,1.0,24.0,--,--,190.29172,1.0,191.02235,0.7306404,191.12279,2.7768595,193.90187,6.0,193.902,194.50801,4.216299,194.50816,203.39235,--
26,26,7,3,1,2.422500e+00,1.615000e+00,1.0,25.0,--,--,203.40897,1.0,204.35585,0.9468781,204.45625,3.3681219,207.82742,9.0,207.82758,208.43105,5.022073,208.4312,210.85553,--
27,27,5,2,2,8.075000e-01,1.615000e+00,1.0,26.0,--,--,210.86746,1.0,212.32248,1.45501,212.42323,2.85999,215.286,5.0,215.28613,215.8914,5.023942,215.89156,216.70146,--
28,28,1,1,1,8.075000e-01,1.615000e+00,1.0,27.0,--,--,216.70456,2.0,217.63919,0.9346345,217.73961,3.3803656,221.12259,4.0,221.12273,221.72794,5.023382,221.7281,222.53772,--
29,29,6,2,3,4.037500e+00,2.422500e+00,1.0,28.0,--,--,222.5496,2.0,223.389,0.8393982,223.48941,4.283102,227.77528,8.0,227.77542,228.38098,5.831377,228.38115,232.42036,--
30,30,9,3,3,2.422500e+00,2.422500e+00,1.0,29.0,--,--,232.43248,1.0,233.48926,1.056777,233.58969,4.065723,237.65738,2.0,237.6575,238.26135,5.8288627,238.2615,240.68587,--
31,31,7,3,1,5.652500e+00,1.615000e+00,1.0,30.0,--,--,240.69618,1.0,242.25566,1.5594817,242.35611,2.7555182,245.11417,8.0,245.1143,245.7192,5.023008,245.71935,251.37413,--
32,32,1,1,1,8.075000e-01,8.075000e-01,1.0,31.0,--,--,251.37718,1.0,252.62213,1.2449586,252.72255,2.2625413,254.9876,6.0,254.98775,255.5931,4.2159185,255.59326,256.40256,--
33,33,3,1,3,8.075000e-01,2.422500e+00,1.0,32.0,--,--,256.40445,1.0,257.55594,1.1514901,257.65634,3.97101,261.63058,2.0,261.63074,262.23572,5.831256,262.23587,263.0456,--
34,34,9,3,3,8.075000e-01,8.075000e-01,1.0,33.0,--,--,263.05716,2.0,263.99017,0.9330122,264.0906,2.5744877,266.66788,6.0,266.668,267.27225,4.215088,267.2724,268.08203,--
35,35,8,3,2,8.075000e-01,2.422500e+00,1.0,34.0,--,--,268.09302,1.0,270.2723,2.179291,270.3727,2.943209,273.3185,5.0,273.31863,273.924,5.830985,273.92416,274.73376,--
36,36,7,3,1,8.075000e-01,8.075000e-01,1.0,35.0,--,--,274.74448,1.0,275.88892,1.1444411,275.98932,2.3630588,278.35556,8.0,278.35568,278.96066,4.2161818,278.96082,279.77087,--
37,37,6,2,3,8.075000e-01,2.422500e+00,1.0,36.0,--,--,279.7825,1.0,280.7224,0.9399028,280.8228,4.182597,285.00757,3.0,285.00772,285.6129,5.830398,285.61307,286.42224,--
38,38,9,3,3,2.422500e+00,1.615000e+00,1.0,37.0,--,--,286.43423,2.0,287.58917,1.1549281,287.68964,3.1600718,290.8524,6.0,290.8525,291.45612,5.0218835,291.45627,293.88052,--
39,39,3,1,3,4.037500e+00,8.075000e-01,1.0,38.0,--,--,293.88358,1.0,295.23914,1.3555875,295.33963,2.1519125,297.49344,1.0,297.4936,298.09793,4.2143784,298.0981,302.13763,--
40,40,9,3,3,8.075000e-01,8.075000e-01,1.0,39.0,--,--,302.1494,1.0,303.28876,1.1393425,303.38937,2.3681574,305.7617,1.0,305.76184,306.36545,4.216042,306.36563,307.17566,--
41,41,5,2,2,8.075000e-01,8.075000e-01,1.0,40.0,--,--,307.18787,1.0,308.0222,0.8343061,308.12262,2.673194,310.7979,5.0,310.79803,311.4034,4.215553,311.4036,312.21307,--
42,42,3,1,3,8.075000e-01,1.615000e+00,1.0,41.0,--,--,312.21616,2.0,312.84006,0.6238777,312.94046,3.6911223,316.63416,9.0,316.63428,317.23965,5.0235,317.23987,318.04953,--
43,43,3,1,3,4.037500e+00,1.615000e+00,1.0,42.0,--,--,318.05145,1.0,318.98877,0.9373197,319.08917,3.3776803,322.46848,4.0,322.4686,323.07303,5.021593,323.07318,327.11316,--
44,44,1,1,1,4.037500e+00,1.615000e+00,1.0,43.0,--,--,327.11533,2.0,327.85577,0.7404291,327.95618,3.574571,331.533,1.0,331.5331,332.1376,5.022277,332.1378,336.17694,--
45,45,2,1,2,8.075000e-01,1.615000e+00,1.0,44.0,--,--,336.17886,2.0,337.422,1.2431353,337.5224,3.0718646,340.5967,5.0,340.59683,341.20148,5.0226254,341.2017,342.01163,--
46,46,7,3,1,8.075000e-01,2.422500e+00,1.0,45.0,--,--,342.0237,1.0,342.8554,0.831688,342.9558,4.290812,347.2487,7.0,347.24884,347.85342,5.8297334,347.8536,348.66373,--
47,47,6,2,3,2.422500e+00,8.075000e-01,1.0,46.0,--,--,348.67615,1.0,350.53906,1.8629206,350.63947,1.6445793,352.2863,2.0,352.2864,352.89175,4.2156153,352.8919,355.31647,--
48,48,7,3,1,8.075000e-01,1.615000e+00,1.0,47.0,--,--,355.32855,2.0,356.37207,1.0435308,356.47247,3.271469,359.74667,4.0,359.7468,360.35132,5.022777,360.35147,361.16116,--
49,49,1,1,1,8.075000e-01,2.422500e+00,1.0,48.0,--,--,361.1642,2.0,363.43875,2.2745163,363.53915,2.8479836,366.3891,4.0,366.38925,366.99374,5.8295217,366.9939,367.80383,--
50,50,2,1,2,2.422500e+00,2.422500e+00,1.0,49.0,--,--,367.80566,2.0,368.95544,1.1497899,369.05588,3.9727101,373.03082,5.0,373.03098,373.63657,5.830918,373.63672,376.06094,--
51,51,4,2,1,8.075000e-01,1.615000e+00,1.0,50.0,--,--,376.07584,2.0,377.1222,1.0463462,377.22266,3.2686539,380.49353,3.0,380.49365,381.09888,5.0230436,381.09906,381.90924,--
52,52,6,2,3,8.075000e-01,8.075000e-01,1.0,51.0,--,--,381.92172,2.0,383.0722,1.1504844,383.17264,2.3570156,385.53314,7.0,385.53326,386.13864,4.216923,386.1388,386.94876,--
53,53,3,1,3,8.075000e-01,1.615000e+00,1.0,52.0,--,--,386.95178,1.0,388.4053,1.453507,388.50574,2.861493,391.36945,4.0,391.36957,391.9748,5.023015,391.97498,392.78464,--
54,54,4,2,1,5.652500e+00,1.615000e+00,1.0,53.0,--,--,392.79807,1.0,394.15552,1.3574475,394.25592,2.9575524,397.2157,7.0,397.21582,397.82047,5.0223975,397.82062,403.47574,412.00128
