instrText,stimDoor,stimDoorLure,stimFace,stimFaceLure,Instructions.thisRepN,Instructions.thisTrialN,Instructions.thisN,Instructions.thisIndex,Trials.thisRepN,Trials.thisTrialN,Trials.thisN,Trials.thisIndex,Func,Keys,Text,RespTime,Onset,Offset,SystemTime_Start,SystemTime_Stop,Stim,Lure,Participant*,Age,date,expName,psychopyVersion,frameRate,
"In the earlier Feedback Games, you chose which doors contained a prize, and which peers liked you. 

You then saw positive or negative feedback (green check mark or red X) from the door or peer you selected.

You will now see a series of doors and peers, some of which you saw during the earlier Feedback Games, and some that you have never seen before.

Please press the spacebar to continue.",,,,,0,0,0,0,,,,,instrFunc,space,"In the earlier Feedback Games, you chose which doors contained a prize, and which peers liked you. 

You then saw positive or negative feedback (green check mark or red X) from the door or peer you selected.

You will now see a series of doors and peers, some of which you saw during the earlier Feedback Games, and some that you have never seen before.

Please press the spacebar to continue.",66.64292839996051,13.042927299975418,79.74487652000971,2023-03-20 15:29:42.346431,2023-03-20 15:30:49.038873,,,10478,18-29,2023-03-20_15h29.39.854,Recall,2021.2.3,59.9344676424944,
"For doors/peers that you remember selecting and getting feedback from, your job is to RECALL what feedback you received. 

Press '1' if you recall positive feedback. 

Press '2' if you recall negative feedback

Press the spacebar to continue.",,,,,0,1,1,1,,,,,instrFunc,space,"For doors/peers that you remember selecting and getting feedback from, your job is to RECALL what feedback you received. 

Press '1' if you recall positive feedback. 

Press '2' if you recall negative feedback

Press the spacebar to continue.",10.871576800011098,79.71828459994867,90.6240272099385,2023-03-20 15:30:49.039873,2023-03-20 15:30:59.930039,,,10478,18-29,2023-03-20_15h29.39.854,Recall,2021.2.3,59.9344676424944,
"For doors/peers that you don't remember getting feedback from, your job is to PREDICT what feedback you WOULD HAVE received.

Press '9' if you predict positive feedback.

Press '0' if you predict negative feedback. 

Please press the spacebar to continue.",,,,,0,2,2,2,,,,,instrFunc,space,"For doors/peers that you don't remember getting feedback from, your job is to PREDICT what feedback you WOULD HAVE received.

Press '9' if you predict positive feedback.

Press '0' if you predict negative feedback. 

Please press the spacebar to continue.",8.571695999940857,90.61028279992752,99.23097790987231,2023-03-20 15:30:59.931040,2023-03-20 15:31:08.536062,,,10478,18-29,2023-03-20_15h29.39.854,Recall,2021.2.3,59.9344676424944,
"This task is self-paced, and the prompts will always stay on the screen so that you know which buttons to press.

On the next screen we will show you what those prompts look like, so that you know exactly what to expect. 

You will start with either doors or peers, and then switch halfway through. 

Please press the spacebar to continue.",,,,,0,3,3,3,,,,,instrFunc,space,"This task is self-paced, and the prompts will always stay on the screen so that you know which buttons to press.

On the next screen we will show you what those prompts look like, so that you know exactly what to expect. 

You will start with either doors or peers, and then switch halfway through. 

Please press the spacebar to continue.",4.6807420999975875,99.21319779998157,103.93131760996766,2023-03-20 15:31:08.537062,2023-03-20 15:31:13.239570,,,10478,18-29,2023-03-20_15h29.39.854,Recall,2021.2.3,59.9344676424944,
,,,,,,,,,,,,,imgtextFunc,space,"Here is what the screen will look like while you make your ratings.
The green circles remind you to press 1 or 9 for positive feedback.
The red circles remind you to press 2 or 0 for positive feedback.









Please let the experimenter know if you have any questions.

Whenever you're ready, press the spacebar to start the task.",10.562034400063567,104.06771189998835,114.80690841004252,2023-03-20 15:31:13.248547,2023-03-20 15:31:23.981303,,,10478,18-29,2023-03-20_15h29.39.854,Recall,2021.2.3,59.9344676424944,
,DD008.jpg,0,FF008.jpg,0,,,,,0,0,0,7,imgFunc,0,NA,6.2158024000236765,114.79818899999373,121.15365522995126,2023-03-20 15:31:24.021497,2023-03-20 15:31:30.368729,FF008.jpg,0,10478,18-29,2023-03-20_15h29.39.854,Recall,2021.2.3,59.9344676424944,
,DD025.jpg,0,FF025.jpg,0,,,,,0,1,1,24,imgFunc,1,NA,5.207949299947359,121.13407979998738,126.4517323100008,2023-03-20 15:31:30.377739,2023-03-20 15:31:35.689263,FF025.jpg,0,10478,18-29,2023-03-20_15h29.39.854,Recall,2021.2.3,59.9344676424944,
,DD020.jpg,0,FF020.jpg,0,,,,,0,2,2,19,imgFunc,2,NA,3.3177146000089124,126.46430889994372,129.88976050983183,2023-03-20 15:31:35.702260,2023-03-20 15:31:39.125023,FF020.jpg,0,10478,18-29,2023-03-20_15h29.39.854,Recall,2021.2.3,59.9344676424944,
,DD032.jpg,0,FF032.jpg,0,,,,,0,3,3,31,imgFunc,2,NA,6.316444500000216,129.87359500001185,136.29620871006045,2023-03-20 15:31:39.132006,2023-03-20 15:31:45.546370,FF032.jpg,0,10478,18-29,2023-03-20_15h29.39.854,Recall,2021.2.3,59.9344676424944,
,L_DD504.jpg,1,L_FF504.jpg,1,,,,,0,4,4,43,imgFunc,9,NA,2.9647389000747353,136.2972945999354,139.36405620980076,2023-03-20 15:31:45.555411,2023-03-20 15:31:48.615119,L_FF504.jpg,1,10478,18-29,2023-03-20_15h29.39.854,Recall,2021.2.3,59.9344676424944,
,DD014.jpg,0,FF014.jpg,0,,,,,0,5,5,13,imgFunc,2,NA,3.3418640999589115,139.36809040000662,142.80412010999862,2023-03-20 15:31:48.623099,2023-03-20 15:31:52.051111,FF014.jpg,0,10478,18-29,2023-03-20_15h29.39.854,Recall,2021.2.3,59.9344676424944,
,DD026.jpg,0,FF026.jpg,0,,,,,0,6,6,25,imgFunc,9,NA,5.454894299968146,142.80726639996283,148.36196790996473,2023-03-20 15:31:52.059092,2023-03-20 15:31:57.604952,FF026.jpg,0,10478,18-29,2023-03-20_15h29.39.854,Recall,2021.2.3,59.9344676424944,
,SD006.jpg,0,MF006.jpg,0,,,,,0,7,7,55,imgFunc,0,NA,7.443520900094882,148.37850739993155,155.95051192003302,2023-03-20 15:31:57.620911,2023-03-20 15:32:05.177155,MF006.jpg,0,10478,18-29,2023-03-20_15h29.39.854,Recall,2021.2.3,59.9344676424944,
,DD010.jpg,0,FF010.jpg,0,,,,,0,8,8,9,imgFunc,1,NA,2.703745999955572,155.92635079997126,158.7264634099556,2023-03-20 15:32:05.186139,2023-03-20 15:32:07.979118,FF010.jpg,0,10478,18-29,2023-03-20_15h29.39.854,Recall,2021.2.3,59.9344676424944,
,DD035.jpg,0,FF035.jpg,0,,,,,0,9,9,34,imgFunc,1,NA,2.4600217000115663,158.72997889993712,161.28324520995375,2023-03-20 15:32:07.986124,2023-03-20 15:32:10.531009,FF035.jpg,0,10478,18-29,2023-03-20_15h29.39.854,Recall,2021.2.3,59.9344676424944,
,L_DD507.jpg,1,L_FF507.jpg,1,,,,,0,10,10,46,imgFunc,9,NA,2.2105442999163643,161.2992191000376,163.63606841000728,2023-03-20 15:32:10.537992,2023-03-20 15:32:12.866039,L_FF507.jpg,1,10478,18-29,2023-03-20_15h29.39.854,Recall,2021.2.3,59.9344676424944,
,SD003.jpg,0,MF003.jpg,0,,,,,0,11,11,52,imgFunc,1,NA,2.854079900076613,163.63168739993125,166.6023594099097,2023-03-20 15:32:12.873022,2023-03-20 15:32:15.834873,MF003.jpg,0,10478,18-29,2023-03-20_15h29.39.854,Recall,2021.2.3,59.9344676424944,
,L_SD501.jpg,1,L_MF501.jpg,1,,,,,0,12,12,90,imgFunc,2,NA,2.841901500010863,166.5719144999748,169.50935000996105,2023-03-20 15:32:15.841856,2023-03-20 15:32:18.770273,L_MF501.jpg,1,10478,18-29,2023-03-20_15h29.39.854,Recall,2021.2.3,59.9344676424944,
,SD018.jpg,0,MF018.jpg,0,,,,,0,13,13,67,imgFunc,2,NA,4.184773299959488,169.51721570000518,173.80543701001443,2023-03-20 15:32:18.777256,2023-03-20 15:32:23.056714,MF018.jpg,0,10478,18-29,2023-03-20_15h29.39.854,Recall,2021.2.3,59.9344676424944,
,DD021.jpg,0,FF021.jpg,0,,,,,0,14,14,20,imgFunc,1,NA,5.0055484001059085,173.80056450003758,178.9049120101845,2023-03-20 15:32:23.064736,2023-03-20 15:32:28.160330,FF021.jpg,0,10478,18-29,2023-03-20_15h29.39.854,Recall,2021.2.3,59.9344676424944,
,SD026.jpg,0,MF026.jpg,0,,,,,0,15,15,75,imgFunc,2,NA,4.028493299963884,178.91367969999555,183.04835510998964,2023-03-20 15:32:28.169308,2023-03-20 15:32:32.296565,MF026.jpg,0,10478,18-29,2023-03-20_15h29.39.854,Recall,2021.2.3,59.9344676424944,
,SD030.jpg,0,MF030.jpg,0,,,,,0,16,16,79,imgFunc,2,NA,2.0525245000608265,183.05733989994042,185.211428809911,2023-03-20 15:32:32.311486,2023-03-20 15:32:34.464114,MF030.jpg,0,10478,18-29,2023-03-20_15h29.39.854,Recall,2021.2.3,59.9344676424944,
,SD014.jpg,0,MF014.jpg,0,,,,,0,17,17,63,imgFunc,1,NA,1.4386967000318691,185.2154687999282,186.75020290981047,2023-03-20 15:32:34.473113,2023-03-20 15:32:35.999256,MF014.jpg,0,10478,18-29,2023-03-20_15h29.39.854,Recall,2021.2.3,59.9344676424944,
,DD023.jpg,0,FF023.jpg,0,,,,,0,18,18,22,imgFunc,1,NA,3.410561600001529,186.74757509992924,190.25132170983125,2023-03-20 15:32:36.006262,2023-03-20 15:32:39.501760,FF023.jpg,0,10478,18-29,2023-03-20_15h29.39.854,Recall,2021.2.3,59.9344676424944,
,L_SD509.jpg,1,L_MF509.jpg,1,,,,,0,19,19,98,imgFunc,0,NA,3.314199100015685,190.25178249995224,193.67268400988542,2023-03-20 15:32:39.508744,2023-03-20 15:32:42.920835,L_MF509.jpg,1,10478,18-29,2023-03-20_15h29.39.854,Recall,2021.2.3,59.9344676424944,
,SD020.jpg,0,MF020.jpg,0,,,,,0,20,20,69,imgFunc,1,NA,2.5126102999784052,193.67749979998916,196.29727330990136,2023-03-20 15:32:42.928838,2023-03-20 15:32:45.539584,MF020.jpg,0,10478,18-29,2023-03-20_15h29.39.854,Recall,2021.2.3,59.9344676424944,
,SD005.jpg,0,MF005.jpg,0,,,,,0,21,21,54,imgFunc,0,NA,4.510239899973385,196.2959230999695,200.90336460992694,2023-03-20 15:32:45.553549,2023-03-20 15:32:50.159523,MF005.jpg,0,10478,18-29,2023-03-20_15h29.39.854,Recall,2021.2.3,59.9344676424944,
,DD039.jpg,0,FF039.jpg,0,,,,,0,22,22,38,imgFunc,9,NA,1.8834661999717355,200.90669209999032,202.89091130986344,2023-03-20 15:32:50.167504,2023-03-20 15:32:52.144324,FF039.jpg,0,10478,18-29,2023-03-20_15h29.39.854,Recall,2021.2.3,59.9344676424944,
,SD031.jpg,0,MF031.jpg,0,,,,,0,23,23,80,imgFunc,1,NA,4.038460500072688,202.887592199957,207.0255728099728,2023-03-20 15:32:52.151307,2023-03-20 15:32:56.280570,MF031.jpg,0,10478,18-29,2023-03-20_15h29.39.854,Recall,2021.2.3,59.9344676424944,
,DD006.jpg,0,FF006.jpg,0,,,,,0,24,24,5,imgFunc,9,NA,2.401064299978316,207.04509949998464,209.56511750991922,2023-03-20 15:32:56.287553,2023-03-20 15:32:58.799078,FF006.jpg,0,10478,18-29,2023-03-20_15h29.39.854,Recall,2021.2.3,59.9344676424944,
,DD024.jpg,0,FF024.jpg,0,,,,,0,25,25,23,imgFunc,9,NA,2.2914888999657705,209.5627232999541,211.96609800995793,2023-03-20 15:32:58.806061,2023-03-20 15:33:01.200809,FF024.jpg,0,10478,18-29,2023-03-20_15h29.39.854,Recall,2021.2.3,59.9344676424944,
,DD029.jpg,0,FF029.jpg,0,,,,,0,26,26,28,imgFunc,1,NA,2.4007562999613583,211.9414571999805,214.42821470997296,2023-03-20 15:33:01.207792,2023-03-20 15:33:03.685816,FF029.jpg,0,10478,18-29,2023-03-20_15h29.39.854,Recall,2021.2.3,59.9344676424944,
,DD005.jpg,0,FF005.jpg,0,,,,,0,27,27,4,imgFunc,0,NA,5.032894000061788,214.42928499996196,219.55159240984358,2023-03-20 15:33:03.692799,2023-03-20 15:33:08.806157,FF005.jpg,0,10478,18-29,2023-03-20_15h29.39.854,Recall,2021.2.3,59.9344676424944,
,SD010.jpg,0,MF010.jpg,0,,,,,0,28,28,59,imgFunc,9,NA,3.135985500062816,219.55821559997275,222.79033290990628,2023-03-20 15:33:08.816132,2023-03-20 15:33:12.041973,MF010.jpg,0,10478,18-29,2023-03-20_15h29.39.854,Recall,2021.2.3,59.9344676424944,
,SD040.jpg,0,MF040.jpg,0,,,,,0,29,29,89,imgFunc,9,NA,7.577157000079751,222.79674469993915,230.48700590990484,2023-03-20 15:33:12.048957,2023-03-20 15:33:19.730497,MF040.jpg,0,10478,18-29,2023-03-20_15h29.39.854,Recall,2021.2.3,59.9344676424944,
,DD011.jpg,0,FF011.jpg,0,,,,,0,30,30,10,imgFunc,2,NA,2.855534400092438,230.5026333000278,233.4555382099934,2023-03-20 15:33:19.746479,2023-03-20 15:33:22.699719,FF011.jpg,0,10478,18-29,2023-03-20_15h29.39.854,Recall,2021.2.3,59.9344676424944,
,DD009.jpg,0,FF009.jpg,0,,,,,0,31,31,8,imgFunc,1,NA,1.859773200005293,233.4423440999817,235.39561001001857,2023-03-20 15:33:22.706702,2023-03-20 15:33:24.650990,FF009.jpg,0,10478,18-29,2023-03-20_15h29.39.854,Recall,2021.2.3,59.9344676424944,
,L_SD502.jpg,1,L_MF502.jpg,1,,,,,0,32,32,91,imgFunc,2,NA,2.9006923000561073,235.39329229993746,238.38039320986718,2023-03-20 15:33:24.657973,2023-03-20 15:33:27.636447,L_MF502.jpg,1,10478,18-29,2023-03-20_15h29.39.854,Recall,2021.2.3,59.9344676424944,
,SD034.jpg,0,MF034.jpg,0,,,,,0,33,33,83,imgFunc,2,NA,1.7387498000171036,238.3873197999783,240.22375780984294,2023-03-20 15:33:27.643430,2023-03-20 15:33:29.471005,MF034.jpg,0,10478,18-29,2023-03-20_15h29.39.854,Recall,2021.2.3,59.9344676424944,
,SD011.jpg,0,MF011.jpg,0,,,,,0,34,34,60,imgFunc,0,NA,2.1405122000724077,240.21761309995782,242.45400770998094,2023-03-20 15:33:29.478568,2023-03-20 15:33:31.705986,MF011.jpg,0,10478,18-29,2023-03-20_15h29.39.854,Recall,2021.2.3,59.9344676424944,
,DD031.jpg,0,FF031.jpg,0,,,,,0,35,35,30,imgFunc,1,NA,6.356529999990016,242.46561670000665,248.92385520995595,2023-03-20 15:33:31.720948,2023-03-20 15:33:38.177384,FF031.jpg,0,10478,18-29,2023-03-20_15h29.39.854,Recall,2021.2.3,59.9344676424944,
,L_SD508.jpg,1,L_MF508.jpg,1,,,,,0,36,36,97,imgFunc,9,NA,4.594940400100313,248.9232415999286,253.60807630990166,2023-03-20 15:33:38.186362,2023-03-20 15:33:42.864038,L_MF508.jpg,1,10478,18-29,2023-03-20_15h29.39.854,Recall,2021.2.3,59.9344676424944,
,SD039.jpg,0,MF039.jpg,0,,,,,0,37,37,88,imgFunc,0,NA,1.7082816999172792,253.61787369998638,255.43414790998213,2023-03-20 15:33:42.873016,2023-03-20 15:33:44.682044,MF039.jpg,0,10478,18-29,2023-03-20_15h29.39.854,Recall,2021.2.3,59.9344676424944,
,SD033.jpg,0,MF033.jpg,0,,,,,0,38,38,82,imgFunc,1,NA,3.546858199988492,255.44329530000687,259.09715520998,2023-03-20 15:33:44.689027,2023-03-20 15:33:48.334625,MF033.jpg,0,10478,18-29,2023-03-20_15h29.39.854,Recall,2021.2.3,59.9344676424944,
,L_DD502.jpg,1,L_FF502.jpg,1,,,,,0,39,39,41,imgFunc,0,NA,1.8327467000344768,259.10152200004086,261.0544219100848,2023-03-20 15:33:48.341608,2023-03-20 15:33:50.286032,L_FF502.jpg,1,10478,18-29,2023-03-20_15h29.39.854,Recall,2021.2.3,59.9344676424944,
,DD027.jpg,0,FF027.jpg,0,,,,,0,40,40,26,imgFunc,1,NA,3.8491725999629125,261.02897230000235,264.96657730988227,2023-03-20 15:33:50.293015,2023-03-20 15:33:54.222076,FF027.jpg,0,10478,18-29,2023-03-20_15h29.39.854,Recall,2021.2.3,59.9344676424944,
,DD016.jpg,0,FF016.jpg,0,,,,,0,41,41,15,imgFunc,1,NA,2.786556400009431,264.9634940000251,267.8339423099533,2023-03-20 15:33:54.228945,2023-03-20 15:33:57.090681,FF016.jpg,0,10478,18-29,2023-03-20_15h29.39.854,Recall,2021.2.3,59.9344676424944,
,DD030.jpg,0,FF030.jpg,0,,,,,0,42,42,29,imgFunc,9,NA,2.9804245999548584,267.8336125999922,270.90347121004015,2023-03-20 15:33:57.098684,2023-03-20 15:34:00.159682,FF030.jpg,0,10478,18-29,2023-03-20_15h29.39.854,Recall,2021.2.3,59.9344676424944,
,SD038.jpg,0,MF038.jpg,0,,,,,0,43,43,87,imgFunc,2,NA,2.9500062000006437,270.91231229994446,273.9663770099869,2023-03-20 15:34:00.166666,2023-03-20 15:34:03.212066,MF038.jpg,0,10478,18-29,2023-03-20_15h29.39.854,Recall,2021.2.3,59.9344676424944,
,DD034.jpg,0,FF034.jpg,0,,,,,0,44,44,33,imgFunc,0,NA,1.1309699000557885,273.97122069995385,275.19446140993387,2023-03-20 15:34:03.225033,2023-03-20 15:34:04.446177,FF034.jpg,0,10478,18-29,2023-03-20_15h29.39.854,Recall,2021.2.3,59.9344676424944,
,DD036.jpg,0,FF036.jpg,0,,,,,0,45,45,35,imgFunc,2,NA,2.201473299995996,275.1887859000126,277.47561471001245,2023-03-20 15:34:04.453161,2023-03-20 15:34:06.730767,FF036.jpg,0,10478,18-29,2023-03-20_15h29.39.854,Recall,2021.2.3,59.9344676424944,
,DD001.jpg,0,FF001.jpg,0,,,,,0,46,46,0,imgFunc,1,NA,3.3658084999769926,277.4804599999916,280.9510218099458,2023-03-20 15:34:06.738769,2023-03-20 15:34:10.200408,FF001.jpg,0,10478,18-29,2023-03-20_15h29.39.854,Recall,2021.2.3,59.9344676424944,
,SD037.jpg,0,MF037.jpg,0,,,,,0,47,47,86,imgFunc,1,NA,6.643741099978797,280.94656930002384,287.68636181007605,2023-03-20 15:34:10.207391,2023-03-20 15:34:16.938464,MF037.jpg,0,10478,18-29,2023-03-20_15h29.39.854,Recall,2021.2.3,59.9344676424944,
,DD007.jpg,0,FF007.jpg,0,,,,,0,48,48,6,imgFunc,1,NA,2.0118478999938816,287.7061007999582,289.8390006099362,2023-03-20 15:34:16.947442,2023-03-20 15:34:19.072816,FF007.jpg,0,10478,18-29,2023-03-20_15h29.39.854,Recall,2021.2.3,59.9344676424944,
,L_DD503.jpg,1,L_FF503.jpg,1,,,,,0,49,49,42,imgFunc,2,NA,1.4540563999908045,289.8402852999279,291.3936280099442,2023-03-20 15:34:19.088811,2023-03-20 15:34:20.641199,L_FF503.jpg,1,10478,18-29,2023-03-20_15h29.39.854,Recall,2021.2.3,59.9344676424944,
,SD019.jpg,0,MF019.jpg,0,,,,,0,50,50,68,imgFunc,1,NA,5.985094500007108,291.3812494999729,297.45419631002005,2023-03-20 15:34:20.648182,2023-03-20 15:34:26.712259,MF019.jpg,0,10478,18-29,2023-03-20_15h29.39.854,Recall,2021.2.3,59.9344676424944,
,SD009.jpg,0,MF009.jpg,0,,,,,0,51,51,58,imgFunc,0,NA,3.7659782000118867,297.4643104999559,301.33160290995147,2023-03-20 15:34:26.721236,2023-03-20 15:34:30.581684,MF009.jpg,0,10478,18-29,2023-03-20_15h29.39.854,Recall,2021.2.3,59.9344676424944,
,DD004.jpg,0,FF004.jpg,0,,,,,0,52,52,3,imgFunc,9,NA,1.8016495999181643,301.34057300002314,303.2604027099442,2023-03-20 15:34:30.588667,2023-03-20 15:34:32.500020,FF004.jpg,0,10478,18-29,2023-03-20_15h29.39.854,Recall,2021.2.3,59.9344676424944,
,SD013.jpg,0,MF013.jpg,0,,,,,0,53,53,62,imgFunc,9,NA,3.7632368999766186,303.25907909998205,307.1168576099444,2023-03-20 15:34:32.514008,2023-03-20 15:34:36.369212,MF013.jpg,0,10478,18-29,2023-03-20_15h29.39.854,Recall,2021.2.3,59.9344676424944,
,L_DD510.jpg,1,L_FF510.jpg,1,,,,,0,54,54,49,imgFunc,0,NA,2.4036621000850573,307.11453329992946,309.6174869099632,2023-03-20 15:34:36.376195,2023-03-20 15:34:38.870971,L_FF510.jpg,1,10478,18-29,2023-03-20_15h29.39.854,Recall,2021.2.3,59.9344676424944,
,SD028.jpg,0,MF028.jpg,0,,,,,0,55,55,77,imgFunc,2,NA,1.6234805000713095,309.6148265999509,311.33463990991004,2023-03-20 15:34:38.877954,2023-03-20 15:34:40.588826,MF028.jpg,0,10478,18-29,2023-03-20_15h29.39.854,Recall,2021.2.3,59.9344676424944,
,SD025.jpg,0,MF025.jpg,0,,,,,0,56,56,74,imgFunc,1,NA,3.4697699999669567,311.3365204000147,314.9070515099447,2023-03-20 15:34:40.595734,2023-03-20 15:34:44.158080,MF025.jpg,0,10478,18-29,2023-03-20_15h29.39.854,Recall,2021.2.3,59.9344676424944,
,L_SD504.jpg,1,L_MF504.jpg,1,,,,,0,57,57,93,imgFunc,2,NA,0.9082793000852689,314.9140854999423,315.93292560987175,2023-03-20 15:34:44.165063,2023-03-20 15:34:45.175457,L_MF504.jpg,1,10478,18-29,2023-03-20_15h29.39.854,Recall,2021.2.3,59.9344676424944,
,SD021.jpg,0,MF021.jpg,0,,,,,0,58,58,70,imgFunc,2,NA,1.789374699932523,315.92889460001606,317.8012066099327,2023-03-20 15:34:45.189421,2023-03-20 15:34:47.060321,MF021.jpg,0,10478,18-29,2023-03-20_15h29.39.854,Recall,2021.2.3,59.9344676424944,
,DD015.jpg,0,FF015.jpg,0,,,,,0,59,59,14,imgFunc,1,NA,1.9009756000014022,317.80116949998774,319.78801331005525,2023-03-20 15:34:47.067304,2023-03-20 15:34:49.045125,FF015.jpg,0,10478,18-29,2023-03-20_15h29.39.854,Recall,2021.2.3,59.9344676424944,
,SD027.jpg,0,MF027.jpg,0,,,,,0,60,60,76,imgFunc,2,NA,1.6983843999914825,319.7958449999569,321.598198910011,2023-03-20 15:34:49.052108,2023-03-20 15:34:50.846292,MF027.jpg,0,10478,18-29,2023-03-20_15h29.39.854,Recall,2021.2.3,59.9344676424944,
,L_DD506.jpg,1,L_FF506.jpg,1,,,,,0,61,61,45,imgFunc,9,NA,3.720133400056511,321.59019469993655,325.41108810994774,2023-03-20 15:34:50.853275,2023-03-20 15:34:54.665706,L_FF506.jpg,1,10478,18-29,2023-03-20_15h29.39.854,Recall,2021.2.3,59.9344676424944,
,SD007.jpg,0,MF007.jpg,0,,,,,0,62,62,56,imgFunc,0,NA,2.0888039000565186,325.4135501999408,327.600135709974,2023-03-20 15:34:54.672689,2023-03-20 15:34:56.850548,MF007.jpg,0,10478,18-29,2023-03-20_15h29.39.854,Recall,2021.2.3,59.9344676424944,
,DD018.jpg,0,FF018.jpg,0,,,,,0,63,63,17,imgFunc,9,NA,1.471596699906513,327.6065665000351,329.17785641003866,2023-03-20 15:34:56.865510,2023-03-20 15:34:58.435057,FF018.jpg,0,10478,18-29,2023-03-20_15h29.39.854,Recall,2021.2.3,59.9344676424944,
,DD017.jpg,0,FF017.jpg,0,,,,,0,64,64,16,imgFunc,9,NA,1.1586408000439405,329.17577910004184,330.42879691009875,2023-03-20 15:34:58.442040,2023-03-20 15:34:59.685924,FF017.jpg,0,10478,18-29,2023-03-20_15h29.39.854,Recall,2021.2.3,59.9344676424944,
,L_DD505.jpg,1,L_FF505.jpg,1,,,,,0,65,65,44,imgFunc,1,NA,1.9564284000080079,330.4258045000024,332.47946510999463,2023-03-20 15:34:59.692907,2023-03-20 15:35:01.737237,L_FF505.jpg,1,10478,18-29,2023-03-20_15h29.39.854,Recall,2021.2.3,59.9344676424944,
,SD022.jpg,0,MF022.jpg,0,,,,,0,66,66,71,imgFunc,0,NA,6.1840412999736145,332.4863056000322,338.7757806099253,2023-03-20 15:35:01.744237,2023-03-20 15:35:08.025287,MF022.jpg,0,10478,18-29,2023-03-20_15h29.39.854,Recall,2021.2.3,59.9344676424944,
,SD004.jpg,0,MF004.jpg,0,,,,,0,67,67,53,imgFunc,9,NA,1.425652000005357,338.8207313999301,340.37553571001627,2023-03-20 15:35:08.040249,2023-03-20 15:35:09.593109,MF004.jpg,0,10478,18-29,2023-03-20_15h29.39.854,Recall,2021.2.3,59.9344676424944,
,L_SD507.jpg,1,L_MF507.jpg,1,,,,,0,68,68,96,imgFunc,9,NA,1.4856082999613136,340.32875620003324,341.8986841100268,2023-03-20 15:35:09.600092,2023-03-20 15:35:11.160868,L_MF507.jpg,1,10478,18-29,2023-03-20_15h29.39.854,Recall,2021.2.3,59.9344676424944,
,SD017.jpg,0,MF017.jpg,0,,,,,0,69,69,66,imgFunc,0,NA,1.9261855999939144,341.9040109999478,343.9242154099047,2023-03-20 15:35:11.167851,2023-03-20 15:35:13.178997,MF017.jpg,0,10478,18-29,2023-03-20_15h29.39.854,Recall,2021.2.3,59.9344676424944,
,L_DD508.jpg,1,L_FF508.jpg,1,,,,,0,70,70,47,imgFunc,9,NA,1.9922311999835074,343.9261224999791,346.0130662099691,2023-03-20 15:35:13.185980,2023-03-20 15:35:15.263705,L_FF508.jpg,1,10478,18-29,2023-03-20_15h29.39.854,Recall,2021.2.3,59.9344676424944,
,SD015.jpg,0,MF015.jpg,0,,,,,0,71,71,64,imgFunc,0,NA,2.0870137999299914,346.0154560999945,348.2019633100135,2023-03-20 15:35:15.270710,2023-03-20 15:35:17.448712,MF015.jpg,0,10478,18-29,2023-03-20_15h29.39.854,Recall,2021.2.3,59.9344676424944,
,L_SD505.jpg,1,L_MF505.jpg,1,,,,,0,72,72,94,imgFunc,0,NA,2.0899430999998003,348.1964318000246,350.3692491099937,2023-03-20 15:35:17.462677,2023-03-20 15:35:19.633626,L_MF505.jpg,1,10478,18-29,2023-03-20_15h29.39.854,Recall,2021.2.3,59.9344676424944,
,DD028.jpg,0,FF028.jpg,0,,,,,0,73,73,27,imgFunc,1,NA,1.534494400024414,350.37577109993435,352.0121839098865,2023-03-20 15:35:19.640609,2023-03-20 15:35:21.268074,FF028.jpg,0,10478,18-29,2023-03-20_15h29.39.854,Recall,2021.2.3,59.9344676424944,
,DD019.jpg,0,FF019.jpg,0,,,,,0,74,74,18,imgFunc,2,NA,1.6149905000347644,352.00745139992796,353.71093270985875,2023-03-20 15:35:21.275057,2023-03-20 15:35:22.969270,FF019.jpg,0,10478,18-29,2023-03-20_15h29.39.854,Recall,2021.2.3,59.9344676424944,
,SD002.jpg,0,MF002.jpg,0,,,,,0,75,75,51,imgFunc,0,NA,2.4632426999742165,353.71112600003835,356.2653430099599,2023-03-20 15:35:22.976254,2023-03-20 15:35:25.521236,MF002.jpg,0,10478,18-29,2023-03-20_15h29.39.854,Recall,2021.2.3,59.9344676424944,
,SD024.jpg,0,MF024.jpg,0,,,,,0,76,76,73,imgFunc,9,NA,3.766752100083977,356.2716728999512,360.142660410027,2023-03-20 15:35:25.528219,2023-03-20 15:35:29.390654,MF024.jpg,0,10478,18-29,2023-03-20_15h29.39.854,Recall,2021.2.3,59.9344676424944,
,DD038.jpg,0,FF038.jpg,0,,,,,0,77,77,37,imgFunc,9,NA,1.5363774000434205,360.12601869995706,361.74582901003305,2023-03-20 15:35:29.397637,2023-03-20 15:35:31.008475,FF038.jpg,0,10478,18-29,2023-03-20_15h29.39.854,Recall,2021.2.3,59.9344676424944,
,DD013.jpg,0,FF013.jpg,0,,,,,0,78,78,12,imgFunc,2,NA,2.3627361999824643,361.7475869000191,364.201390810078,2023-03-20 15:35:31.015458,2023-03-20 15:35:33.460450,FF013.jpg,0,10478,18-29,2023-03-20_15h29.39.854,Recall,2021.2.3,59.9344676424944,
,DD022.jpg,0,FF022.jpg,0,,,,,0,79,79,21,imgFunc,0,NA,1.5592640000395477,364.2071908999933,365.85962060978636,2023-03-20 15:35:33.467455,2023-03-20 15:35:35.111258,FF022.jpg,0,10478,18-29,2023-03-20_15h29.39.854,Recall,2021.2.3,59.9344676424944,
,SD016.jpg,0,MF016.jpg,0,,,,,0,80,80,65,imgFunc,9,NA,2.1032545999623835,365.85471470002085,368.05791221000254,2023-03-20 15:35:35.118210,2023-03-20 15:35:37.312232,MF016.jpg,0,10478,18-29,2023-03-20_15h29.39.854,Recall,2021.2.3,59.9344676424944,
,DD033.jpg,0,FF033.jpg,0,,,,,0,81,81,32,imgFunc,9,NA,2.0910832999506965,368.0753310000291,370.2637681099586,2023-03-20 15:35:37.327190,2023-03-20 15:35:39.514587,FF033.jpg,0,10478,18-29,2023-03-20_15h29.39.854,Recall,2021.2.3,59.9344676424944,
,SD023.jpg,0,MF023.jpg,0,,,,,0,82,82,72,imgFunc,9,NA,1.6358900000341237,370.25052609993145,371.9702095098328,2023-03-20 15:35:39.521571,2023-03-20 15:35:41.232503,MF023.jpg,0,10478,18-29,2023-03-20_15h29.39.854,Recall,2021.2.3,59.9344676424944,
,L_DD509.jpg,1,L_FF509.jpg,1,,,,,0,83,83,48,imgFunc,0,NA,0.9704107999568805,371.97167300002184,373.0409132100176,2023-03-20 15:35:41.239486,2023-03-20 15:35:42.299569,L_FF509.jpg,1,10478,18-29,2023-03-20_15h29.39.854,Recall,2021.2.3,59.9344676424944,
,L_DD501.jpg,1,L_FF501.jpg,1,,,,,0,84,84,40,imgFunc,0,NA,0.8575960999587551,373.0448432000121,373.9972920099972,2023-03-20 15:35:42.306519,2023-03-20 15:35:43.250467,L_FF501.jpg,1,10478,18-29,2023-03-20_15h29.39.854,Recall,2021.2.3,59.9344676424944,
,DD012.jpg,0,FF012.jpg,0,,,,,0,85,85,11,imgFunc,0,NA,1.0527098000748083,374.00173379993066,375.154991309857,2023-03-20 15:35:43.257450,2023-03-20 15:35:44.401435,FF012.jpg,0,10478,18-29,2023-03-20_15h29.39.854,Recall,2021.2.3,59.9344676424944,
,L_SD503.jpg,1,L_MF503.jpg,1,,,,,0,86,86,92,imgFunc,1,NA,4.359989800024778,375.15841799997725,379.6157451099716,2023-03-20 15:35:44.415399,2023-03-20 15:35:48.871312,L_MF503.jpg,1,10478,18-29,2023-03-20_15h29.39.854,Recall,2021.2.3,59.9344676424944,
,L_SD506.jpg,1,L_MF506.jpg,1,,,,,0,87,87,95,imgFunc,9,NA,1.8445213000522926,379.61793269996997,381.55437430995516,2023-03-20 15:35:48.878296,2023-03-20 15:35:50.806106,L_MF506.jpg,1,10478,18-29,2023-03-20_15h29.39.854,Recall,2021.2.3,59.9344676424944,
,SD035.jpg,0,MF035.jpg,0,,,,,0,88,88,84,imgFunc,9,NA,1.2720669000409544,381.55037049995735,382.91916190995835,2023-03-20 15:35:50.813854,2023-03-20 15:35:52.173682,MF035.jpg,0,10478,18-29,2023-03-20_15h29.39.854,Recall,2021.2.3,59.9344676424944,
,SD029.jpg,0,MF029.jpg,0,,,,,0,89,89,78,imgFunc,0,NA,0.8036816999083385,382.91475450003054,383.8174873100361,2023-03-20 15:35:52.180664,2023-03-20 15:35:53.074322,MF029.jpg,0,10478,18-29,2023-03-20_15h29.39.854,Recall,2021.2.3,59.9344676424944,
,DD037.jpg,0,FF037.jpg,0,,,,,0,90,90,36,imgFunc,0,NA,0.605712299933657,383.8245662000263,384.5268765100045,2023-03-20 15:35:53.081305,2023-03-20 15:35:53.774742,FF037.jpg,0,10478,18-29,2023-03-20_15h29.39.854,Recall,2021.2.3,59.9344676424944,
,L_SD510.jpg,1,L_MF510.jpg,1,,,,,0,91,91,99,imgFunc,0,NA,1.2428034000331536,384.5156515999697,385.8522275099531,2023-03-20 15:35:53.781725,2023-03-20 15:35:55.108944,L_MF510.jpg,1,10478,18-29,2023-03-20_15h29.39.854,Recall,2021.2.3,59.9344676424944,
,SD032.jpg,0,MF032.jpg,0,,,,,0,92,92,81,imgFunc,9,NA,1.860885199974291,385.8494483999675,387.802489709924,2023-03-20 15:35:55.115949,2023-03-20 15:35:57.060385,MF032.jpg,0,10478,18-29,2023-03-20_15h29.39.854,Recall,2021.2.3,59.9344676424944,
,DD002.jpg,0,FF002.jpg,0,,,,,0,93,93,1,imgFunc,9,NA,4.04465389996767,387.8017704000231,391.9398532101186,2023-03-20 15:35:57.067368,2023-03-20 15:36:01.196687,FF002.jpg,0,10478,18-29,2023-03-20_15h29.39.854,Recall,2021.2.3,59.9344676424944,
,SD036.jpg,0,MF036.jpg,0,,,,,0,94,94,85,imgFunc,0,NA,1.809123200015165,391.9493306999793,393.8692661098903,2023-03-20 15:36:01.203669,2023-03-20 15:36:03.114940,MF036.jpg,0,10478,18-29,2023-03-20_15h29.39.854,Recall,2021.2.3,59.9344676424944,
,SD012.jpg,0,MF012.jpg,0,,,,,0,95,95,61,imgFunc,0,NA,1.1434131000423804,393.87092050001957,395.11257350991946,2023-03-20 15:36:03.127907,2023-03-20 15:36:04.365841,MF012.jpg,0,10478,18-29,2023-03-20_15h29.39.854,Recall,2021.2.3,59.9344676424944,
,SD001.jpg,0,MF001.jpg,0,,,,,0,96,96,50,imgFunc,0,NA,1.480347599950619,395.1098379000323,396.67948851000983,2023-03-20 15:36:04.372824,2023-03-20 15:36:05.933636,MF001.jpg,0,10478,18-29,2023-03-20_15h29.39.854,Recall,2021.2.3,59.9344676424944,
,SD008.jpg,0,MF008.jpg,0,,,,,0,97,97,57,imgFunc,9,NA,1.8318499999586493,396.67061949998606,398.59080740995705,2023-03-20 15:36:05.940619,2023-03-20 15:36:07.851636,MF008.jpg,0,10478,18-29,2023-03-20_15h29.39.854,Recall,2021.2.3,59.9344676424944,
,DD040.jpg,0,FF040.jpg,0,,,,,0,98,98,39,imgFunc,9,NA,2.2623974999878556,398.5920856000157,400.94578230998013,2023-03-20 15:36:07.858619,2023-03-20 15:36:10.203239,FF040.jpg,0,10478,18-29,2023-03-20_15h29.39.854,Recall,2021.2.3,59.9344676424944,
,DD003.jpg,0,FF003.jpg,0,,,,,0,99,99,2,imgFunc,1,NA,1.8647664999589324,400.9496510999743,402.91929800994694,2023-03-20 15:36:10.210245,2023-03-20 15:36:12.171394,FF003.jpg,0,10478,18-29,2023-03-20_15h29.39.854,Recall,2021.2.3,59.9344676424944,
,,,,,,,,,,,,,instrFunc,space,"Great work! 

 Now you will switch to the other image type.

 Press the spacebar whenever you are ready to start.",2.9753601999254897,402.8470645999769,405.86339700990357,2023-03-20 15:36:12.172395,2023-03-20 15:36:15.172936,,,10478,18-29,2023-03-20_15h29.39.854,Recall,2021.2.3,59.9344676424944,
,DD026.jpg,0,FF026.jpg,0,,,,,0,0,0,25,imgFunc,2,NA,4.985205600038171,405.94922329997644,411.0271940198727,2023-03-20 15:36:15.202858,2023-03-20 15:36:20.277381,DD026.jpg,0,10478,18-29,2023-03-20_15h29.39.854,Recall,2021.2.3,59.9344676424944,
,DD034.jpg,0,FF034.jpg,0,,,,,0,1,1,33,imgFunc,0,NA,5.686022600042634,411.0244836999336,416.80968030984513,2023-03-20 15:36:20.286371,2023-03-20 15:36:26.064731,DD034.jpg,0,10478,18-29,2023-03-20_15h29.39.854,Recall,2021.2.3,59.9344676424944,
,SD036.jpg,0,MF036.jpg,0,,,,,0,2,2,85,imgFunc,0,NA,2.768291899934411,416.8061091999989,419.6566502099158,2023-03-20 15:36:26.073721,2023-03-20 15:36:28.916886,SD036.jpg,0,10478,18-29,2023-03-20_15h29.39.854,Recall,2021.2.3,59.9344676424944,
,DD036.jpg,0,FF036.jpg,0,,,,,0,3,3,35,imgFunc,1,NA,3.547099299961701,419.66743749997113,423.3133825099794,2023-03-20 15:36:28.927859,2023-03-20 15:36:32.569301,DD036.jpg,0,10478,18-29,2023-03-20_15h29.39.854,Recall,2021.2.3,59.9344676424944,
,L_SD502.jpg,1,L_MF502.jpg,1,,,,,0,4,4,91,imgFunc,2,NA,1.6132145000156015,423.31333169993013,425.0152470099274,2023-03-20 15:36:32.577281,2023-03-20 15:36:34.270634,L_SD502.jpg,1,10478,18-29,2023-03-20_15h29.39.854,Recall,2021.2.3,59.9344676424944,
,DD019.jpg,0,FF019.jpg,0,,,,,0,5,5,18,imgFunc,2,NA,2.0115498999366537,425.01886880001985,427.13851711002644,2023-03-20 15:36:34.277618,2023-03-20 15:36:36.388870,DD019.jpg,0,10478,18-29,2023-03-20_15h29.39.854,Recall,2021.2.3,59.9344676424944,
,DD016.jpg,0,FF016.jpg,0,,,,,0,6,6,15,imgFunc,0,NA,4.1560490999836475,427.1544530999381,431.42541140993126,2023-03-20 15:36:36.395853,2023-03-20 15:36:40.658435,DD016.jpg,0,10478,18-29,2023-03-20_15h29.39.854,Recall,2021.2.3,59.9344676424944,
,SD016.jpg,0,MF016.jpg,0,,,,,0,7,7,65,imgFunc,0,NA,1.6694945000344887,431.4009745999938,433.16888801008463,2023-03-20 15:36:40.666388,2023-03-20 15:36:42.426315,SD016.jpg,0,10478,18-29,2023-03-20_15h29.39.854,Recall,2021.2.3,59.9344676424944,
,L_DD509.jpg,1,L_FF509.jpg,1,,,,,0,8,8,48,imgFunc,9,NA,2.0683992000995204,433.16214259993285,435.31594510993455,2023-03-20 15:36:42.433298,2023-03-20 15:36:44.578013,L_DD509.jpg,1,10478,18-29,2023-03-20_15h29.39.854,Recall,2021.2.3,59.9344676424944,
,L_SD506.jpg,1,L_MF506.jpg,1,,,,,0,9,9,95,imgFunc,2,NA,1.6137150999857113,435.32083240000065,437.02392771001905,2023-03-20 15:36:44.584995,2023-03-20 15:36:46.279064,L_SD506.jpg,1,10478,18-29,2023-03-20_15h29.39.854,Recall,2021.2.3,59.9344676424944,
,DD023.jpg,0,FF023.jpg,0,,,,,0,10,10,22,imgFunc,1,NA,1.5677513000555336,437.0144084999338,438.6676376098767,2023-03-20 15:36:46.286047,2023-03-20 15:36:47.930080,DD023.jpg,0,10478,18-29,2023-03-20_15h29.39.854,Recall,2021.2.3,59.9344676424944,
,DD033.jpg,0,FF033.jpg,0,,,,,0,11,11,32,imgFunc,2,NA,1.9586151000112295,438.6638432999607,440.70069651002996,2023-03-20 15:36:47.937060,2023-03-20 15:36:49.965410,DD033.jpg,0,10478,18-29,2023-03-20_15h29.39.854,Recall,2021.2.3,59.9344676424944,
,SD031.jpg,0,MF031.jpg,0,,,,,0,12,12,80,imgFunc,2,NA,1.7381308999611065,440.70841500000097,442.5310082100332,2023-03-20 15:36:49.979374,2023-03-20 15:36:51.799865,SD031.jpg,0,10478,18-29,2023-03-20_15h29.39.854,Recall,2021.2.3,59.9344676424944,
,DD014.jpg,0,FF014.jpg,0,,,,,0,13,13,13,imgFunc,9,NA,4.489141799975187,442.5414126999676,447.1267017099308,2023-03-20 15:36:51.808843,2023-03-20 15:36:56.386545,DD014.jpg,0,10478,18-29,2023-03-20_15h29.39.854,Recall,2021.2.3,59.9344676424944,
,SD007.jpg,0,MF007.jpg,0,,,,,0,14,14,56,imgFunc,9,NA,1.6381889999611303,447.12831749999896,448.85940260998905,2023-03-20 15:36:56.396521,2023-03-20 15:36:58.121129,SD007.jpg,0,10478,18-29,2023-03-20_15h29.39.854,Recall,2021.2.3,59.9344676424944,
,L_DD508.jpg,1,L_FF508.jpg,1,,,,,0,15,15,47,imgFunc,9,NA,2.351679199957289,448.86266670003533,451.315963609959,2023-03-20 15:36:58.128112,2023-03-20 15:37:00.572368,L_DD508.jpg,1,10478,18-29,2023-03-20_15h29.39.854,Recall,2021.2.3,59.9344676424944,
,SD034.jpg,0,MF034.jpg,0,,,,,0,16,16,83,imgFunc,9,NA,0.8931622999953106,451.3132305999752,452.2979262099834,2023-03-20 15:37:00.580345,2023-03-20 15:37:01.556915,SD034.jpg,0,10478,18-29,2023-03-20_15h29.39.854,Recall,2021.2.3,59.9344676424944,
,SD001.jpg,0,MF001.jpg,0,,,,,0,17,17,50,imgFunc,2,NA,1.5750344000989571,452.30348559992854,453.95898660982493,2023-03-20 15:37:01.570880,2023-03-20 15:37:03.224753,SD001.jpg,0,10478,18-29,2023-03-20_15h29.39.854,Recall,2021.2.3,59.9344676424944,
,DD004.jpg,0,FF004.jpg,0,,,,,0,18,18,3,imgFunc,9,NA,2.466968899942003,453.9556352000218,456.50860000995453,2023-03-20 15:37:03.232604,2023-03-20 15:37:05.776508,DD004.jpg,0,10478,18-29,2023-03-20_15h29.39.854,Recall,2021.2.3,59.9344676424944,
,SD037.jpg,0,MF037.jpg,0,,,,,0,19,19,86,imgFunc,0,NA,1.2554386000847444,456.5271600999404,457.87931520992424,2023-03-20 15:37:05.783514,2023-03-20 15:37:07.127415,SD037.jpg,0,10478,18-29,2023-03-20_15h29.39.854,Recall,2021.2.3,59.9344676424944,
,L_SD503.jpg,1,L_MF503.jpg,1,,,,,0,20,20,92,imgFunc,1,NA,3.9260984000284225,457.87245629995596,461.89378290995955,2023-03-20 15:37:07.134398,2023-03-20 15:37:11.147055,L_SD503.jpg,1,10478,18-29,2023-03-20_15h29.39.854,Recall,2021.2.3,59.9344676424944,
,L_SD504.jpg,1,L_MF504.jpg,1,,,,,0,21,21,93,imgFunc,0,NA,1.7944155000150204,461.9000356999459,463.8027634099126,2023-03-20 15:37:11.154061,2023-03-20 15:37:13.048398,L_SD504.jpg,1,10478,18-29,2023-03-20_15h29.39.854,Recall,2021.2.3,59.9344676424944,
,DD006.jpg,0,FF006.jpg,0,,,,,0,22,22,5,imgFunc,0,NA,2.4119779999600723,463.794229799998,466.29488370998297,2023-03-20 15:37:13.057401,2023-03-20 15:37:15.550363,DD006.jpg,0,10478,18-29,2023-03-20_15h29.39.854,Recall,2021.2.3,59.9344676424944,
,SD029.jpg,0,MF029.jpg,0,,,,,0,23,23,78,imgFunc,9,NA,2.2527486999752,466.2897075000219,468.62666171009187,2023-03-20 15:37:15.557347,2023-03-20 15:37:17.885505,SD029.jpg,0,10478,18-29,2023-03-20_15h29.39.854,Recall,2021.2.3,59.9344676424944,
,SD013.jpg,0,MF013.jpg,0,,,,,0,24,24,62,imgFunc,2,NA,3.763377199997194,468.62723139999434,472.48115141002927,2023-03-20 15:37:17.892507,2023-03-20 15:37:21.737882,SD013.jpg,0,10478,18-29,2023-03-20_15h29.39.854,Recall,2021.2.3,59.9344676424944,
,SD005.jpg,0,MF005.jpg,0,,,,,0,25,25,54,imgFunc,9,NA,2.630707999924198,472.4716723000165,475.19179891003296,2023-03-20 15:37:21.744887,2023-03-20 15:37:24.456654,SD005.jpg,0,10478,18-29,2023-03-20_15h29.39.854,Recall,2021.2.3,59.9344676424944,
,DD001.jpg,0,FF001.jpg,0,,,,,0,26,26,0,imgFunc,0,NA,1.002986800041981,475.21149260003585,476.30352390999906,2023-03-20 15:37:24.469621,2023-03-20 15:37:25.557662,DD001.jpg,0,10478,18-29,2023-03-20_15h29.39.854,Recall,2021.2.3,59.9344676424944,
,L_SD501.jpg,1,L_MF501.jpg,1,,,,,0,27,27,90,imgFunc,0,NA,0.8987016000319272,476.2918338000309,477.2777754100971,2023-03-20 15:37:25.564645,2023-03-20 15:37:26.541505,L_SD501.jpg,1,10478,18-29,2023-03-20_15h29.39.854,Recall,2021.2.3,59.9344676424944,
,DD013.jpg,0,FF013.jpg,0,,,,,0,28,28,12,imgFunc,0,NA,0.7237888000672683,477.2746519999346,478.07739370991476,2023-03-20 15:37:26.548488,2023-03-20 15:37:27.342172,DD013.jpg,0,10478,18-29,2023-03-20_15h29.39.854,Recall,2021.2.3,59.9344676424944,
,DD025.jpg,0,FF025.jpg,0,,,,,0,29,29,24,imgFunc,0,NA,1.2750248999800533,478.0753500999417,479.4445283098612,2023-03-20 15:37:27.349155,2023-03-20 15:37:28.709225,DD025.jpg,0,10478,18-29,2023-03-20_15h29.39.854,Recall,2021.2.3,59.9344676424944,
,L_DD503.jpg,1,L_FF503.jpg,1,,,,,0,30,30,42,imgFunc,9,NA,1.8552653000224382,479.44705149997026,481.3999387100339,2023-03-20 15:37:28.717231,2023-03-20 15:37:30.661134,L_DD503.jpg,1,10478,18-29,2023-03-20_15h29.39.854,Recall,2021.2.3,59.9344676424944,
,DD038.jpg,0,FF038.jpg,0,,,,,0,31,31,37,imgFunc,0,NA,0.9421079000458121,481.4164676000364,482.45238831010647,2023-03-20 15:37:30.676096,2023-03-20 15:37:31.711869,DD038.jpg,0,10478,18-29,2023-03-20_15h29.39.854,Recall,2021.2.3,59.9344676424944,
,DD002.jpg,0,FF002.jpg,0,,,,,0,32,32,1,imgFunc,0,NA,0.7523258000146598,482.4541464999784,483.3062756099971,2023-03-20 15:37:31.718852,2023-03-20 15:37:32.562529,DD002.jpg,0,10478,18-29,2023-03-20_15h29.39.854,Recall,2021.2.3,59.9344676424944,
,DD028.jpg,0,FF028.jpg,0,,,,,0,33,33,27,imgFunc,1,NA,1.5789553000358865,483.2915193999652,484.9448254099116,2023-03-20 15:37:32.569512,2023-03-20 15:37:34.213827,DD028.jpg,0,10478,18-29,2023-03-20_15h29.39.854,Recall,2021.2.3,59.9344676424944,
,L_DD504.jpg,1,L_FF504.jpg,1,,,,,0,34,34,43,imgFunc,9,NA,2.863729599979706,484.9508664000314,487.9049274100689,2023-03-20 15:37:34.220810,2023-03-20 15:37:37.165809,L_DD504.jpg,1,10478,18-29,2023-03-20_15h29.39.854,Recall,2021.2.3,59.9344676424944,
,DD032.jpg,0,FF032.jpg,0,,,,,0,35,35,31,imgFunc,9,NA,0.6817107000388205,487.9086485999869,488.6911450099433,2023-03-20 15:37:37.174787,2023-03-20 15:37:37.949466,DD032.jpg,0,10478,18-29,2023-03-20_15h29.39.854,Recall,2021.2.3,59.9344676424944,
,L_SD508.jpg,1,L_MF508.jpg,1,,,,,0,36,36,97,imgFunc,0,NA,1.3756675999611616,488.7106008999981,490.1797274100827,2023-03-20 15:37:37.965448,2023-03-20 15:37:39.434124,L_SD508.jpg,1,10478,18-29,2023-03-20_15h29.39.854,Recall,2021.2.3,59.9344676424944,
,SD035.jpg,0,MF035.jpg,0,,,,,0,37,37,84,imgFunc,9,NA,1.0489557998953387,490.1656713000266,491.30192210990936,2023-03-20 15:37:39.441107,2023-03-20 15:37:40.568287,SD035.jpg,0,10478,18-29,2023-03-20_15h29.39.854,Recall,2021.2.3,59.9344676424944,
,DD040.jpg,0,FF040.jpg,0,,,,,0,38,38,39,imgFunc,9,NA,0.6646129000000656,491.3020264999941,492.0545618099859,2023-03-20 15:37:40.575270,2023-03-20 15:37:41.318735,DD040.jpg,0,10478,18-29,2023-03-20_15h29.39.854,Recall,2021.2.3,59.9344676424944,
,SD019.jpg,0,MF019.jpg,0,,,,,0,39,39,68,imgFunc,9,NA,1.6509580999845639,492.0595483999932,493.7953141100006,2023-03-20 15:37:41.326622,2023-03-20 15:37:43.053534,SD019.jpg,0,10478,18-29,2023-03-20_15h29.39.854,Recall,2021.2.3,59.9344676424944,
,DD037.jpg,0,FF037.jpg,0,,,,,0,40,40,36,imgFunc,9,NA,2.201230000006035,493.79737699998077,496.1004702100763,2023-03-20 15:37:43.060517,2023-03-20 15:37:45.355151,DD037.jpg,0,10478,18-29,2023-03-20_15h29.39.854,Recall,2021.2.3,59.9344676424944,
,DD015.jpg,0,FF015.jpg,0,,,,,0,41,41,14,imgFunc,0,NA,0.757657999987714,496.0889756999677,496.94171851000283,2023-03-20 15:37:45.362134,2023-03-20 15:37:46.205752,DD015.jpg,0,10478,18-29,2023-03-20_15h29.39.854,Recall,2021.2.3,59.9344676424944,
,SD030.jpg,0,MF030.jpg,0,,,,,0,42,42,79,imgFunc,9,NA,2.291981299989857,496.94666729995515,499.3334046099335,2023-03-20 15:37:46.212735,2023-03-20 15:37:48.590635,SD030.jpg,0,10478,18-29,2023-03-20_15h29.39.854,Recall,2021.2.3,59.9344676424944,
,L_DD505.jpg,1,L_FF505.jpg,1,,,,,0,43,43,44,imgFunc,0,NA,0.6798675999743864,499.3346463999478,500.10257430991624,2023-03-20 15:37:48.598638,2023-03-20 15:37:49.357975,L_DD505.jpg,1,10478,18-29,2023-03-20_15h29.39.854,Recall,2021.2.3,59.9344676424944,
,DD021.jpg,0,FF021.jpg,0,,,,,0,44,44,20,imgFunc,0,NA,0.7182432999834418,500.1043880999787,500.92348031001166,2023-03-20 15:37:49.364958,2023-03-20 15:37:50.175158,DD021.jpg,0,10478,18-29,2023-03-20_15h29.39.854,Recall,2021.2.3,59.9344676424944,
,DD031.jpg,0,FF031.jpg,0,,,,,0,45,45,30,imgFunc,2,NA,3.4413947999710217,500.92511620000005,504.45213600993156,2023-03-20 15:37:50.188125,2023-03-20 15:37:53.711430,DD031.jpg,0,10478,18-29,2023-03-20_15h29.39.854,Recall,2021.2.3,59.9344676424944,
,DD039.jpg,0,FF039.jpg,0,,,,,0,46,46,38,imgFunc,9,NA,2.7281653999816626,504.44654299994,507.2653220099164,2023-03-20 15:37:53.719410,2023-03-20 15:37:56.529736,DD039.jpg,0,10478,18-29,2023-03-20_15h29.39.854,Recall,2021.2.3,59.9344676424944,
,DD005.jpg,0,FF005.jpg,0,,,,,0,47,47,4,imgFunc,9,NA,0.590459099970758,507.2721831999952,507.9549609099049,2023-03-20 15:37:56.538714,2023-03-20 15:37:57.213601,DD005.jpg,0,10478,18-29,2023-03-20_15h29.39.854,Recall,2021.2.3,59.9344676424944,
,L_DD506.jpg,1,L_FF506.jpg,1,,,,,0,48,48,45,imgFunc,9,NA,0.7589727001031861,507.95967350003775,508.8121580099687,2023-03-20 15:37:57.220583,2023-03-20 15:37:58.064151,L_DD506.jpg,1,10478,18-29,2023-03-20_15h29.39.854,Recall,2021.2.3,59.9344676424944,
,SD014.jpg,0,MF014.jpg,0,,,,,0,49,49,63,imgFunc,2,NA,1.6788058000383899,508.80758949997835,510.57683981000446,2023-03-20 15:37:58.071140,2023-03-20 15:37:59.832024,SD014.jpg,0,10478,18-29,2023-03-20_15h29.39.854,Recall,2021.2.3,59.9344676424944,
,DD009.jpg,0,FF009.jpg,0,,,,,0,50,50,8,imgFunc,0,NA,2.292730199988,510.57790669996757,512.9505160100525,2023-03-20 15:37:59.845989,2023-03-20 15:38:02.217049,DD009.jpg,0,10478,18-29,2023-03-20_15h29.39.854,Recall,2021.2.3,59.9344676424944,
,DD010.jpg,0,FF010.jpg,0,,,,,0,51,51,9,imgFunc,9,NA,1.34811489994172,512.9545143999858,514.3907825100468,2023-03-20 15:38:02.223938,2023-03-20 15:38:03.651519,DD010.jpg,0,10478,18-29,2023-03-20_15h29.39.854,Recall,2021.2.3,59.9344676424944,
,SD004.jpg,0,MF004.jpg,0,,,,,0,52,52,53,imgFunc,0,NA,1.0555970999412239,514.3910257000243,515.5437884101411,2023-03-20 15:38:03.658502,2023-03-20 15:38:04.802350,SD004.jpg,0,10478,18-29,2023-03-20_15h29.39.854,Recall,2021.2.3,59.9344676424944,
,L_SD509.jpg,1,L_MF509.jpg,1,,,,,0,53,53,98,imgFunc,9,NA,1.6009045999962837,515.5415472999448,517.2282165099168,2023-03-20 15:38:04.809334,2023-03-20 15:38:06.486983,L_SD509.jpg,1,10478,18-29,2023-03-20_15h29.39.854,Recall,2021.2.3,59.9344676424944,
,SD002.jpg,0,MF002.jpg,0,,,,,0,54,54,51,imgFunc,9,NA,0.9574753999477252,517.2332302000141,518.2860708099324,2023-03-20 15:38:06.493966,2023-03-20 15:38:07.537609,SD002.jpg,0,10478,18-29,2023-03-20_15h29.39.854,Recall,2021.2.3,59.9344676424944,
,DD011.jpg,0,FF011.jpg,0,,,,,0,55,55,10,imgFunc,0,NA,0.7183545000152662,518.2723040999845,519.0748878098093,2023-03-20 15:38:07.544592,2023-03-20 15:38:08.338227,DD011.jpg,0,10478,18-29,2023-03-20_15h29.39.854,Recall,2021.2.3,59.9344676424944,
,DD029.jpg,0,FF029.jpg,0,,,,,0,56,56,28,imgFunc,9,NA,0.832426100037992,519.0782396999421,519.9975636098534,2023-03-20 15:38:08.345210,2023-03-20 15:38:09.255386,DD029.jpg,0,10478,18-29,2023-03-20_15h29.39.854,Recall,2021.2.3,59.9344676424944,
,SD039.jpg,0,MF039.jpg,0,,,,,0,57,57,88,imgFunc,9,NA,0.7476391999516636,519.995074299979,520.8314593099058,2023-03-20 15:38:09.262369,2023-03-20 15:38:10.089489,SD039.jpg,0,10478,18-29,2023-03-20_15h29.39.854,Recall,2021.2.3,59.9344676424944,
,DD022.jpg,0,FF022.jpg,0,,,,,0,58,58,21,imgFunc,9,NA,1.4156582000432536,520.8308700999478,522.3342088098871,2023-03-20 15:38:10.096471,2023-03-20 15:38:11.590622,DD022.jpg,0,10478,18-29,2023-03-20_15h29.39.854,Recall,2021.2.3,59.9344676424944,
,SD011.jpg,0,MF011.jpg,0,,,,,0,59,59,60,imgFunc,0,NA,0.548600299982354,522.3539566999534,523.0119370098691,2023-03-20 15:38:11.603590,2023-03-20 15:38:12.257665,SD011.jpg,0,10478,18-29,2023-03-20_15h29.39.854,Recall,2021.2.3,59.9344676424944,
,DD008.jpg,0,FF008.jpg,0,,,,,0,60,60,7,imgFunc,0,NA,0.6984171000076458,523.0122521999292,523.8132918099873,2023-03-20 15:38:12.265646,2023-03-20 15:38:13.058282,DD008.jpg,0,10478,18-29,2023-03-20_15h29.39.854,Recall,2021.2.3,59.9344676424944,
,L_DD510.jpg,1,L_FF510.jpg,1,,,,,0,61,61,49,imgFunc,0,NA,1.818926899926737,523.8036783999996,525.7239262098446,2023-03-20 15:38:13.065266,2023-03-20 15:38:14.976482,L_DD510.jpg,1,10478,18-29,2023-03-20_15h29.39.854,Recall,2021.2.3,59.9344676424944,
,SD010.jpg,0,MF010.jpg,0,,,,,0,62,62,59,imgFunc,9,NA,1.0589955999748781,525.7156281999778,526.868501509889,2023-03-20 15:38:14.983465,2023-03-20 15:38:16.127176,SD010.jpg,0,10478,18-29,2023-03-20_15h29.39.854,Recall,2021.2.3,59.9344676424944,
,L_DD507.jpg,1,L_FF507.jpg,1,,,,,0,63,63,46,imgFunc,0,NA,0.8437334999907762,526.8588554000016,527.7949297098676,2023-03-20 15:38:16.134159,2023-03-20 15:38:17.061128,L_DD507.jpg,1,10478,18-29,2023-03-20_15h29.39.854,Recall,2021.2.3,59.9344676424944,
,SD038.jpg,0,MF038.jpg,0,,,,,0,64,64,87,imgFunc,0,NA,0.7803613999858499,527.8102786999661,528.6825484099099,2023-03-20 15:38:17.075093,2023-03-20 15:38:17.945117,SD038.jpg,0,10478,18-29,2023-03-20_15h29.39.854,Recall,2021.2.3,59.9344676424944,
,DD018.jpg,0,FF018.jpg,0,,,,,0,65,65,17,imgFunc,0,NA,0.4480189000023529,528.6785495999502,529.2145242098486,2023-03-20 15:38:17.952100,2023-03-20 15:38:18.478868,DD018.jpg,0,10478,18-29,2023-03-20_15h29.39.854,Recall,2021.2.3,59.9344676424944,
,DD012.jpg,0,FF012.jpg,0,,,,,0,66,66,11,imgFunc,1,NA,1.5141947000520304,529.2124939999776,530.8154657100094,2023-03-20 15:38:18.485873,2023-03-20 15:38:20.080023,DD012.jpg,0,10478,18-29,2023-03-20_15h29.39.854,Recall,2021.2.3,59.9344676424944,
,L_SD505.jpg,1,L_MF505.jpg,1,,,,,0,67,67,94,imgFunc,9,NA,1.9608792000217363,530.8138042000355,532.8673715100158,2023-03-20 15:38:20.087006,2023-03-20 15:38:22.131469,L_SD505.jpg,1,10478,18-29,2023-03-20_15h29.39.854,Recall,2021.2.3,59.9344676424944,
,SD032.jpg,0,MF032.jpg,0,,,,,0,68,68,81,imgFunc,0,NA,0.858142799930647,532.8684431000147,533.821388709941,2023-03-20 15:38:22.138452,2023-03-20 15:38:23.082173,SD032.jpg,0,10478,18-29,2023-03-20_15h29.39.854,Recall,2021.2.3,59.9344676424944,
,L_DD501.jpg,1,L_FF501.jpg,1,,,,,0,69,69,40,imgFunc,9,NA,0.7110684999497607,533.8315486999927,534.6358009100659,2023-03-20 15:38:23.097135,2023-03-20 15:38:23.899486,L_DD501.jpg,1,10478,18-29,2023-03-20_15h29.39.854,Recall,2021.2.3,59.9344676424944,
,SD022.jpg,0,MF022.jpg,0,,,,,0,70,70,71,imgFunc,0,NA,0.6957314000464976,534.6389676999534,535.4238282099832,2023-03-20 15:38:23.906469,2023-03-20 15:38:24.683295,SD022.jpg,0,10478,18-29,2023-03-20_15h29.39.854,Recall,2021.2.3,59.9344676424944,
,SD023.jpg,0,MF023.jpg,0,,,,,0,71,71,72,imgFunc,0,NA,1.8787527999375015,535.4159126000013,537.385959309875,2023-03-20 15:38:24.690278,2023-03-20 15:38:26.651304,SD023.jpg,0,10478,18-29,2023-03-20_15h29.39.854,Recall,2021.2.3,59.9344676424944,
,DD024.jpg,0,FF024.jpg,0,,,,,0,72,72,23,imgFunc,9,NA,0.6492156999884173,537.3811168000102,538.1171554100001,2023-03-20 15:38:26.658287,2023-03-20 15:38:27.385152,DD024.jpg,0,10478,18-29,2023-03-20_15h29.39.854,Recall,2021.2.3,59.9344676424944,
,SD033.jpg,0,MF033.jpg,0,,,,,0,73,73,82,imgFunc,0,NA,1.3426816000137478,538.1279972000048,539.5640595100122,2023-03-20 15:38:27.392135,2023-03-20 15:38:28.819636,SD033.jpg,0,10478,18-29,2023-03-20_15h29.39.854,Recall,2021.2.3,59.9344676424944,
,L_SD507.jpg,1,L_MF507.jpg,1,,,,,0,74,74,96,imgFunc,0,NA,0.42334960005246103,539.5593265999341,540.0769970099209,2023-03-20 15:38:28.827644,2023-03-20 15:38:29.336646,L_SD507.jpg,1,10478,18-29,2023-03-20_15h29.39.854,Recall,2021.2.3,59.9344676424944,
,SD009.jpg,0,MF009.jpg,0,,,,,0,75,75,58,imgFunc,9,NA,0.9248679999727756,540.0738117999863,541.0933583099395,2023-03-20 15:38:29.343629,2023-03-20 15:38:30.354009,SD009.jpg,0,10478,18-29,2023-03-20_15h29.39.854,Recall,2021.2.3,59.9344676424944,
,SD027.jpg,0,MF027.jpg,0,,,,,0,76,76,76,imgFunc,0,NA,1.2111281000543386,541.09153840004,542.3945553100202,2023-03-20 15:38:30.360992,2023-03-20 15:38:31.655214,SD027.jpg,0,10478,18-29,2023-03-20_15h29.39.854,Recall,2021.2.3,59.9344676424944,
,DD017.jpg,0,FF017.jpg,0,,,,,0,77,77,16,imgFunc,9,NA,0.883868100005202,542.402821799973,543.3886618100805,2023-03-20 15:38:31.662220,2023-03-20 15:38:32.639058,DD017.jpg,0,10478,18-29,2023-03-20_15h29.39.854,Recall,2021.2.3,59.9344676424944,
,DD020.jpg,0,FF020.jpg,0,,,,,0,78,78,19,imgFunc,0,NA,0.6942397999810055,543.3924088999629,544.184144609957,2023-03-20 15:38:32.651027,2023-03-20 15:38:33.439590,DD020.jpg,0,10478,18-29,2023-03-20_15h29.39.854,Recall,2021.2.3,59.9344676424944,
,DD007.jpg,0,FF007.jpg,0,,,,,0,79,79,6,imgFunc,0,NA,0.5329368999227881,544.1857712999918,544.8201689098496,2023-03-20 15:38:33.447571,2023-03-20 15:38:34.073396,DD007.jpg,0,10478,18-29,2023-03-20_15h29.39.854,Recall,2021.2.3,59.9344676424944,
,SD025.jpg,0,MF025.jpg,0,,,,,0,80,80,74,imgFunc,9,NA,0.8044276000000536,544.802264799946,545.6881293100305,2023-03-20 15:38:34.080384,2023-03-20 15:38:34.957318,SD025.jpg,0,10478,18-29,2023-03-20_15h29.39.854,Recall,2021.2.3,59.9344676424944,
,SD028.jpg,0,MF028.jpg,0,,,,,0,81,81,77,imgFunc,0,NA,1.7380957999266684,545.692360999994,547.5122526100604,2023-03-20 15:38:34.964301,2023-03-20 15:38:36.775464,SD028.jpg,0,10478,18-29,2023-03-20_15h29.39.854,Recall,2021.2.3,59.9344676424944,
,DD003.jpg,0,FF003.jpg,0,,,,,0,82,82,2,imgFunc,9,NA,0.5349244000390172,547.5117791999364,548.1306104098912,2023-03-20 15:38:36.782447,2023-03-20 15:38:37.392378,DD003.jpg,0,10478,18-29,2023-03-20_15h29.39.854,Recall,2021.2.3,59.9344676424944,
,SD003.jpg,0,MF003.jpg,0,,,,,0,83,83,52,imgFunc,0,NA,1.231387999956496,548.1433412999613,549.4656223098282,2023-03-20 15:38:37.406343,2023-03-20 15:38:38.726516,SD003.jpg,0,10478,18-29,2023-03-20_15h29.39.854,Recall,2021.2.3,59.9344676424944,
,SD015.jpg,0,MF015.jpg,0,,,,,0,84,84,64,imgFunc,9,NA,1.4384389000479132,549.4639267999446,550.9982386099873,2023-03-20 15:38:38.734496,2023-03-20 15:38:40.261198,SD015.jpg,0,10478,18-29,2023-03-20_15h29.39.854,Recall,2021.2.3,59.9344676424944,
,SD006.jpg,0,MF006.jpg,0,,,,,0,85,85,55,imgFunc,9,NA,0.739847999997437,550.9946628999896,551.8140938100405,2023-03-20 15:38:40.268181,2023-03-20 15:38:41.078530,SD006.jpg,0,10478,18-29,2023-03-20_15h29.39.854,Recall,2021.2.3,59.9344676424944,
,SD017.jpg,0,MF017.jpg,0,,,,,0,86,86,66,imgFunc,0,NA,1.026245699962601,551.8124244000064,552.9317712100456,2023-03-20 15:38:41.085512,2023-03-20 15:38:42.195903,SD017.jpg,0,10478,18-29,2023-03-20_15h29.39.854,Recall,2021.2.3,59.9344676424944,
,SD040.jpg,0,MF040.jpg,0,,,,,0,87,87,89,imgFunc,9,NA,0.5782910999841988,552.9322261000052,553.6014032099629,2023-03-20 15:38:42.202886,2023-03-20 15:38:42.863034,SD040.jpg,0,10478,18-29,2023-03-20_15h29.39.854,Recall,2021.2.3,59.9344676424944,
,L_SD510.jpg,1,L_MF510.jpg,1,,,,,0,88,88,99,imgFunc,0,NA,1.1693697000155225,553.5972657999955,554.849939509877,2023-03-20 15:38:42.870017,2023-03-20 15:38:44.113937,L_SD510.jpg,1,10478,18-29,2023-03-20_15h29.39.854,Recall,2021.2.3,59.9344676424944,
,SD012.jpg,0,MF012.jpg,0,,,,,0,89,89,61,imgFunc,0,NA,2.992601600009948,554.8540913999313,557.9417170099914,2023-03-20 15:38:44.120921,2023-03-20 15:38:47.199405,SD012.jpg,0,10478,18-29,2023-03-20_15h29.39.854,Recall,2021.2.3,59.9344676424944,
,SD018.jpg,0,MF018.jpg,0,,,,,0,90,90,67,imgFunc,0,NA,0.9374752999283373,557.9412036000285,558.9773722098907,2023-03-20 15:38:47.206388,2023-03-20 15:38:48.233608,SD018.jpg,0,10478,18-29,2023-03-20_15h29.39.854,Recall,2021.2.3,59.9344676424944,
,SD020.jpg,0,MF020.jpg,0,,,,,0,91,91,69,imgFunc,9,NA,0.6517238999949768,558.986733000027,559.7389244099613,2023-03-20 15:38:48.240591,2023-03-20 15:38:48.983474,SD020.jpg,0,10478,18-29,2023-03-20_15h29.39.854,Recall,2021.2.3,59.9344676424944,
,DD027.jpg,0,FF027.jpg,0,,,,,0,92,92,26,imgFunc,0,NA,1.9776865999447182,559.7410269000102,561.8118055099621,2023-03-20 15:38:48.998467,2023-03-20 15:38:51.068918,DD027.jpg,0,10478,18-29,2023-03-20_15h29.39.854,Recall,2021.2.3,59.9344676424944,
,SD021.jpg,0,MF021.jpg,0,,,,,0,93,93,70,imgFunc,0,NA,0.9849102000007406,561.8059602000285,562.8749291100539,2023-03-20 15:38:51.075901,2023-03-20 15:38:52.136151,SD021.jpg,0,10478,18-29,2023-03-20_15h29.39.854,Recall,2021.2.3,59.9344676424944,
,SD008.jpg,0,MF008.jpg,0,,,,,0,94,94,57,imgFunc,0,NA,1.1078919999999925,562.8666799999774,564.0531112098834,2023-03-20 15:38:52.143134,2023-03-20 15:38:53.320475,SD008.jpg,0,10478,18-29,2023-03-20_15h29.39.854,Recall,2021.2.3,59.9344676424944,
,L_DD502.jpg,1,L_FF502.jpg,1,,,,,0,95,95,41,imgFunc,9,NA,0.6637962999520823,564.0548145000357,564.8076218100032,2023-03-20 15:38:53.327458,2023-03-20 15:38:54.071111,L_DD502.jpg,1,10478,18-29,2023-03-20_15h29.39.854,Recall,2021.2.3,59.9344676424944,
,SD026.jpg,0,MF026.jpg,0,,,,,0,96,96,75,imgFunc,0,NA,0.7096820999868214,564.8087025999557,565.6112047099741,2023-03-20 15:38:54.078094,2023-03-20 15:38:54.871598,SD026.jpg,0,10478,18-29,2023-03-20_15h29.39.854,Recall,2021.2.3,59.9344676424944,
,DD030.jpg,0,FF030.jpg,0,,,,,0,97,97,29,imgFunc,9,NA,0.5350388999795541,565.6237553999526,566.2456023099367,2023-03-20 15:38:54.885562,2023-03-20 15:38:55.505464,DD030.jpg,0,10478,18-29,2023-03-20_15h29.39.854,Recall,2021.2.3,59.9344676424944,
,SD024.jpg,0,MF024.jpg,0,,,,,0,98,98,73,imgFunc,9,NA,0.5793099999427795,566.2434222999727,566.9101893099723,2023-03-20 15:38:55.513444,2023-03-20 15:38:56.172607,SD024.jpg,0,10478,18-29,2023-03-20_15h29.39.854,Recall,2021.2.3,59.9344676424944,
,DD035.jpg,0,FF035.jpg,0,,,,,0,99,99,34,imgFunc,0,NA,0.8656664000591263,566.9090223000385,567.8616346098715,2023-03-20 15:38:56.179590,2023-03-20 15:38:57.123342,DD035.jpg,0,10478,18-29,2023-03-20_15h29.39.854,Recall,2021.2.3,59.9344676424944,
