TrialNumber,Trial,cLeft,cRight,Partner,Reciprocate,ISI,ITI,ran,order,onset,bpress,resp,resp_onset,highlow,rt,ISIpad,ISI_onset,ISI_offset,outcome_onset,outcome_offset,duration,ITI_onset,ITI_offset
1,1,2,0,1,1,5.000000e-01,8.075000e-01,1.0,0.0,4.0145144,2.0,0,5.7574015,low,1.7428871,1.2571129,6.2773447,9.264962,9.265114,11.26687,7.2523556,11.267318,12.072562
2,2,0,2,3,1,2,8.075000e-01,1.0,1.0,12.151227,2.0,2,14.007245,high,1.8560182,1.1439818,14.527047,18.900951,18.903048,20.90577,8.754542,20.906155,21.709867
3,3,0,2,3,0,5.000000e-01,5.652500e+00,1.0,2.0,21.784306,2.0,2,23.190428,high,1.406122,1.593878,23.711023,27.034216,27.036133,29.038515,7.25421,29.038906,34.686913
4,4,2,4,2,1,5.000000e-01,4.037500e+00,1.0,3.0,34.79479,1.0,2,36.60733,low,1.812542,1.187458,37.12802,40.045887,40.047756,42.05027,7.2554817,42.05066,46.08189
5,5,2,0,2,0,5.000000e-01,8.075000e-01,1.0,4.0,46.18725,1.0,2,47.79063,high,1.6033808,1.3966192,48.310047,51.43781,51.43954,53.441906,7.254659,53.44229,54.244865
6,6,4,0,3,1,5.000000e-01,4.037500e+00,1.0,5.0,54.32249,1.0,4,56.390877,high,2.0683873,0.9316128,56.909946,59.57291,59.574837,61.576878,7.2543874,61.577267,65.610565
7,7,8,2,2,1,2,8.075000e-01,1.0,6.0,65.717125,2.0,2,67.29055,low,1.5734214,1.4265786,67.80939,72.46787,72.46975,74.47156,8.75443,74.47195,75.27589
8,8,2,8,2,0,2,8.075000e-01,1.0,7.0,75.38474,1.0,2,76.72322,low,1.338477,1.661523,77.24389,82.1355,82.13726,84.13893,8.754189,84.13932,84.94279
9,9,2,8,1,0,2,8.075000e-01,1.0,8.0,84.94649,1.0,2,86.156784,low,1.2102951,1.7897049,86.67641,91.69701,91.69897,93.70071,8.754216,93.70109,94.505005
10,10,2,0,1,0,5.000000e-01,8.075000e-01,1.0,9.0,94.50824,2.0,0,96.173645,low,1.6654018,1.3345982,96.69317,99.758896,99.75902,101.76056,7.252318,101.76096,102.56697
11,11,0,8,1,0,5.000000e-01,8.075000e-01,1.0,10.0,102.571304,1.0,0,103.97404,low,1.4027365,1.5972635,104.49405,107.82291,107.82303,109.824974,7.253672,109.825356,110.629684
12,12,0,8,1,1,2,4.037500e+00,1.0,11.0,110.63153,1.0,0,112.20713,low,1.5755962,1.4244038,112.72801,117.3829,117.38301,119.38456,8.753026,119.38494,123.4209
13,13,0,4,2,0,2,2.422500e+00,1.0,12.0,123.52921,2.0,4,125.47359,high,1.9443696,1.0556304,125.994095,130.27988,130.2816,132.2838,8.754589,132.2842,134.70181
14,14,0,8,3,0,2,8.882500e+00,1.0,13.0,134.77863,1.0,0,136.84024,low,2.061615,0.9383851,137.3592,141.52956,141.52968,143.53102,8.752394,143.5314,152.41173
15,15,8,4,3,0,5.000000e-01,2.422500e+00,1.0,14.0,152.48656,2.0,4,153.8571,low,1.3705428,1.6294572,154.37735,157.73755,157.73943,159.74187,7.2553115,159.74226,162.15977
16,16,8,4,1,0,5.000000e-01,8.075000e-01,1.0,15.0,162.16331,2.0,4,163.62318,low,1.4598591,1.5401409,164.14407,167.41394,167.41583,169.41788,7.2545633,169.41827,170.2209
17,17,2,4,2,0,3.500000e+00,4.037500e+00,1.0,16.0,170.3263,1.0,2,172.22346,low,1.8971785,1.1028215,172.7437,178.57687,178.5786,180.5819,10.255614,180.58229,184.61389
18,18,4,8,2,1,3.500000e+00,2.422500e+00,1.0,17.0,184.71906,1.0,4,186.40671,low,1.6876456,1.3123544,186.92679,192.96957,192.97142,194.97316,10.254101,194.97354,197.39189
19,19,2,8,1,0,5.000000e-01,2.422500e+00,1.0,18.0,197.39606,1.0,2,198.82361,low,1.4275542,1.5724458,199.34245,202.6469,202.64882,204.65088,7.25483,204.65128,207.06958
20,20,2,8,3,1,5.000000e-01,5.652500e+00,1.0,19.0,207.14471,1.0,2,208.57385,low,1.4291301,1.5708699,209.09422,212.39603,212.39795,214.3997,7.254978,214.40007,220.04904
21,21,4,0,3,0,5.000000e-01,8.075000e-01,1.0,20.0,220.12402,1.0,4,221.88991,high,1.7658881,1.2341119,222.41066,225.37494,225.37682,227.37901,7.254996,227.37941,228.1817
22,22,2,8,2,0,5.000000e-01,2.422500e+00,1.0,21.0,228.28726,1.0,2,230.10677,low,1.8195103,1.1804897,230.62607,233.53807,233.54001,235.54169,7.25442,235.54207,237.96089
23,23,8,2,3,1,2,2.422500e+00,1.0,22.0,238.04703,2.0,2,239.90665,low,1.859613,1.140387,240.42693,244.7979,244.7998,246.80191,8.754871,246.80229,249.22107
24,24,0,8,3,1,2,8.075000e-01,1.0,23.0,249.29605,1.0,0,251.17377,low,1.8777152,1.1222848,251.6931,256.0469,256.04703,258.04993,8.753881,258.05032,258.8539
25,25,0,4,1,0,2,8.075000e-01,1.0,24.0,258.85898,1.0,0,260.87338,low,2.0144193,0.9855807,261.39224,265.60995,265.61008,267.6129,8.753927,267.61328,268.41656
26,26,4,0,1,1,5.000000e-01,8.075000e-01,1.0,25.0,268.42102,2.0,0,270.42395,low,2.0029426,0.9970574,270.9433,273.6719,273.67203,275.67358,7.252575,275.67398,276.4793
27,27,8,2,2,1,2,4.037500e+00,1.0,26.0,276.58664,2.0,2,278.30707,low,1.7204584,1.2795416,278.82623,283.33658,283.33844,285.3409,8.754281,285.34128,289.3749
28,28,0,4,2,1,5.000000e-01,7.267500e+00,1.0,27.0,289.4792,2.0,4,292.05704,high,2.5778532,0.4221468,292.57605,294.72977,294.7302,296.732,7.252821,296.7324,303.99655
29,29,8,2,3,0,5.000000e-01,2.422500e+00,1.0,28.0,304.0718,2.0,2,305.9065,low,1.8346955,1.1653045,306.42703,309.32193,309.3238,311.32608,7.254273,311.32654,313.7459
30,30,8,2,1,1,3.500000e+00,8.075000e-01,1.0,29.0,313.74948,2.0,2,316.1065,low,2.357041,0.642959,316.62604,321.99982,322.00177,324.0045,10.255022,324.00488,324.80792
31,31,2,0,2,1,5.000000e-01,2.422500e+00,1.0,30.0,324.91193,2.0,0,326.4065,low,1.4945512,1.5054488,326.92654,330.1626,330.16272,332.16406,7.2521267,332.16443,334.5849
32,32,2,4,3,0,5.000000e-01,7.267500e+00,1.0,31.0,334.6594,2.0,4,336.72287,high,2.0634632,0.9365367,337.24326,339.9096,339.91147,341.9139,7.2545047,341.9143,349.1769
33,33,2,4,1,0,5.000000e-01,8.075000e-01,1.0,32.0,349.18048,1.0,2,351.03976,low,1.859268,1.140732,351.55933,354.43094,354.4329,356.43457,7.2540965,356.43497,357.23895
34,34,4,8,2,0,5.000000e-01,2.422500e+00,1.0,33.0,357.34576,1.0,4,359.37347,low,2.0276856,0.9723143,359.89307,362.5969,362.59866,364.6006,7.254813,364.60098,367.01855
35,35,2,4,1,1,5.000000e-01,2.422500e+00,1.0,34.0,367.02377,1.0,2,368.8733,low,1.8495101,1.1504899,369.39206,372.2749,372.27686,374.2789,7.2551136,374.2793,376.69702
36,36,0,8,2,0,3.500000e+00,2.422500e+00,1.0,35.0,376.8,1.0,0,379.0234,low,2.2234383,0.7765618,379.5423,385.0509,385.05103,387.05258,10.252596,387.05298,389.47208
37,37,4,8,3,1,2,8.075000e-01,1.0,36.0,389.54715,1.0,4,391.49017,low,1.9430134,1.0569866,392.00903,396.2979,396.29987,398.30157,8.754421,398.30194,399.10556
38,38,4,8,1,1,2,8.075000e-01,1.0,37.0,399.109,1.0,4,400.8901,low,1.7810947,1.2189053,401.4103,405.8589,405.86087,407.863,8.754005,407.8634,408.66672
39,39,8,2,1,1,2,8.075000e-01,1.0,38.0,408.67114,2.0,2,410.78983,low,2.1186955,0.8813045,411.30917,415.42093,415.42133,417.42358,8.752442,417.42398,418.22806
40,40,2,4,3,1,5.000000e-01,8.075000e-01,1.0,39.0,418.3027,2.0,4,420.7059,high,2.4031718,0.5968283,421.22617,423.55194,423.554,425.55545,7.252728,425.55585,426.36002
41,41,8,2,3,0,2,8.075000e-01,1.0,40.0,426.4349,2.0,2,428.58948,low,2.1545665,0.8454334,429.11008,433.1849,433.18677,435.1889,8.754001,435.18927,435.99258
42,42,8,0,2,1,5.000000e-01,8.075000e-01,1.0,41.0,436.0982,2.0,0,437.87317,low,1.7749512,1.2250488,438.39304,441.3489,441.34903,443.35062,7.25241,443.351,444.15662
