onset	duration	trial_type	rt	resp	gender	image_left	image_right
0.6265564002096653	3.000887999776751	decision	2.034325399901718	right	M	MF001.jpg	MF002.jpg
4.1765323001891375	1.0165407001040876	win	n/a	n/a	n/a	MF001.jpg	MF002.jpg
11.159756400156766	3.001244000159204	decision	2.533007599879056	right	M	MF003.jpg	MF004.jpg
14.709699200000614	1.016733200289309	loss	n/a	n/a	n/a	MF003.jpg	MF004.jpg
17.476565700024366	3.001301399897784	decision	2.033158500213176	left	M	MF005.jpg	MF006.jpg
21.026430900208652	1.0000338000245392	win	n/a	n/a	n/a	MF005.jpg	MF006.jpg
23.776424900162965	3.0013556997291744	decision	2.033455300144851	right	F	FF001.jpg	FF002.jpg
27.326401900034398	1.0000622002407908	win	n/a	n/a	n/a	FF001.jpg	FF002.jpg
32.17641839990392	3.0012873001396656	decision	2.282518300227821	right	F	FF003.jpg	FF004.jpg
35.72623890032992	1.0001709000207484	loss	n/a	n/a	n/a	FF003.jpg	FF004.jpg
42.67648190027103	3.001411299686879	decision	2.2824343000538647	right	M	MF007.jpg	MF008.jpg
46.22630830015987	1.0001702001318336	loss	n/a	n/a	n/a	MF007.jpg	MF008.jpg
51.07637740019709	3.0012626997195184	decision	1.7836092999204993	left	M	MF009.jpg	MF010.jpg
54.62638910021633	1.0166752999648452	win	n/a	n/a	n/a	MF009.jpg	MF010.jpg
59.493087199982256	3.00154050020501	decision	2.03391889994964	left	F	FF005.jpg	FF006.jpg
63.04301510006189	1.0000370000489056	loss	n/a	n/a	n/a	FF005.jpg	FF006.jpg
65.79311119997874	3.0017723999917507	decision	2.282662400044501	right	F	FF007.jpg	FF008.jpg
69.34273490030318	1.000248999800533	win	n/a	n/a	n/a	FF007.jpg	FF008.jpg
72.09309950005263	3.0009360001422465	decision	2.032535800244659	right	F	FF009.jpg	FF010.jpg
75.64298370014876	1.0000895000994205	win	n/a	n/a	n/a	FF009.jpg	FF010.jpg
78.39303110027686	3.001969799865037	decision	1.532946899998933	left	F	FF011.jpg	FF012.jpg
81.94303609989583	1.0165770002640784	loss	n/a	n/a	n/a	FF011.jpg	FF012.jpg
86.80972150014713	3.000573900062591	decision	2.033153399825096	left	M	MF011.jpg	MF012.jpg
90.3595432001166	1.0001011001877487	loss	n/a	n/a	n/a	MF011.jpg	MF012.jpg
93.10968120023608	3.0011768001131713	decision	2.2841932997107506	left	M	MF013.jpg	MF014.jpg
96.65967060020193	1.0169381001032889	win	n/a	n/a	n/a	MF013.jpg	MF014.jpg
103.62640460021794	3.001283099874854	decision	2.033350999932736	right	M	MF015.jpg	MF016.jpg
107.17633990012109	1.0165287000127137	win	n/a	n/a	n/a	MF015.jpg	MF016.jpg
109.94301640009508	3.0008558998815715	decision	1.7830063998699188	right	F	FF013.jpg	FF014.jpg
113.4929206003435	1.0166545999236405	win	n/a	n/a	n/a	FF013.jpg	FF014.jpg
120.45966350007802	3.000417800154537	decision	2.282138000242412	left	M	MF017.jpg	MF018.jpg
124.00950690032914	1.0001240000128746	win	n/a	n/a	n/a	MF017.jpg	MF018.jpg
128.8595551000908	3.001281800214201	decision	2.2833282998763025	right	F	FF015.jpg	FF016.jpg
132.40960500016809	1.0165206999517977	win	n/a	n/a	n/a	FF015.jpg	FF016.jpg
137.276486299932	3.00207980023697	decision	2.5328528000973165	right	M	MF019.jpg	MF020.jpg
140.82620589993894	1.016587800346315	win	n/a	n/a	n/a	MF019.jpg	MF020.jpg
145.69282020023093	3.0014133998192847	decision	2.2828170000575483	left	F	FF017.jpg	FF018.jpg
149.2427739999257	1.0166579000651836	win	n/a	n/a	n/a	FF017.jpg	FF018.jpg
162.50947820022702	3.0014058998785913	decision	2.032546800095588	left	M	MF021.jpg	MF022.jpg
166.05955300014466	1.0164907998405397	loss	n/a	n/a	n/a	MF021.jpg	MF022.jpg
173.02634200034663	3.001274499576539	decision	2.533578199800104	right	M	MF023.jpg	MF024.jpg
176.5761370002292	1.0165369999594986	win	n/a	n/a	n/a	MF023.jpg	MF024.jpg
183.54276630003005	3.0014321003109217	decision	2.533114599995315	right	M	MF025.jpg	MF026.jpg
187.0926711000502	1.016766400076449	loss	n/a	n/a	n/a	MF025.jpg	MF026.jpg
191.95951749989763	3.0012014000676572	decision	2.032609000336379	left	M	MF027.jpg	MF028.jpg
195.50963740004227	1.0164667000062764	loss	n/a	n/a	n/a	MF027.jpg	MF028.jpg
198.27615980012342	3.0014284001663327	decision	1.7828171998262405	right	F	FF019.jpg	FF020.jpg
201.82606870029122	1.0165877998806536	loss	n/a	n/a	n/a	FF019.jpg	FF020.jpg
204.59272570023313	3.0010681999847293	decision	2.032605799846351	left	F	FF021.jpg	FF022.jpg
208.14265030017123	1.0166699001565576	win	n/a	n/a	n/a	FF021.jpg	FF022.jpg
215.10933210002258	3.0011213002726436	decision	2.5331072001717985	right	M	MF029.jpg	MF030.jpg
218.65937450015917	1.0166031001135707	loss	n/a	n/a	n/a	MF029.jpg	MF030.jpg
225.62613310012966	3.0022762999869883	decision	2.032800099812448	left	M	MF031.jpg	MF032.jpg
229.17599930008873	1.0165813998319209	win	n/a	n/a	n/a	MF031.jpg	MF032.jpg
234.12578170001507	3.0359117002226412	decision-missed	n/a	n/a	F	FF023.jpg	FF024.jpg
237.70948860002682	1.0163830001838505	loss	n/a	n/a	n/a	FF023.jpg	FF024.jpg
240.4759745001793	3.0363761000335217	decision-missed	n/a	n/a	F	FF025.jpg	FF026.jpg
244.0594355002977	1.0164553998038173	win	n/a	n/a	n/a	FF025.jpg	FF026.jpg
248.92590920021757	3.0331542999483645	decision-missed	n/a	n/a	F	FF027.jpg	FF028.jpg
252.5092182001099	1.0165798999369144	loss	n/a	n/a	n/a	FF027.jpg	FF028.jpg
255.2760116001591	3.0319805997423828	decision-missed	n/a	n/a	M	MF033.jpg	MF034.jpg
258.8591296002269	1.0001016999594867	loss	n/a	n/a	n/a	MF033.jpg	MF034.jpg
261.6093585002236	3.0374173996970057	decision-missed	n/a	n/a	M	MF035.jpg	MF036.jpg
265.1925204000436	1.01667599985376	loss	n/a	n/a	n/a	MF035.jpg	MF036.jpg
267.95935610029846	3.0385378999635577	decision-missed	n/a	n/a	M	MF037.jpg	MF038.jpg
271.54250300023705	1.0165943000465631	win	n/a	n/a	n/a	MF037.jpg	MF038.jpg
278.5091878003441	3.041512499563396	decision-missed	n/a	n/a	F	FF029.jpg	FF030.jpg
282.0924925999716	1.0003937999717891	loss	n/a	n/a	n/a	FF029.jpg	FF030.jpg
284.8425746001303	3.0008066999725997	decision	2.5500158998183906	left	F	FF031.jpg	FF032.jpg
288.3925417000428	1.0165090002119541	loss	n/a	n/a	n/a	FF031.jpg	FF032.jpg
293.259201399982	3.300109200179577	decision	3.2996437000110745	left	F	FF033.jpg	FF034.jpg
297.10904820030555	1.0000850996002555	win	n/a	n/a	n/a	FF033.jpg	FF034.jpg
304.05912479991093	3.0009502000175416	decision	1.7824178002774715	left	M	MF039.jpg	MF040.jpg
307.60914460010827	1.0165961999446154	loss	n/a	n/a	n/a	MF039.jpg	MF040.jpg
314.57584380032495	3.0008046999573708	decision	1.7832217998802662	right	F	FF035.jpg	FF036.jpg
318.1257830001414	1.0166080999188125	win	n/a	n/a	n/a	FF035.jpg	FF036.jpg
320.89254860021174	3.0022440999746323	decision	2.032830299809575	left	F	FF037.jpg	FF038.jpg
324.4423369001597	1.0168480998836458	loss	n/a	n/a	n/a	FF037.jpg	FF038.jpg
327.20910659991205	3.00171050010249	decision	2.0323434001766145	right	F	FF039.jpg	FF040.jpg
330.75903839990497	1.000053800176829	loss	n/a	n/a	n/a	FF039.jpg	FF040.jpg
