instrText,stimDoor,stimDoorLure,stimFace,stimFaceLure,Instructions.thisRepN,Instructions.thisTrialN,Instructions.thisN,Instructions.thisIndex,Trials.thisRepN,Trials.thisTrialN,Trials.thisN,Trials.thisIndex,Func,Keys,Text,RespTime,Onset,Offset,SystemTime_Start,SystemTime_Stop,Stim,Lure,Participant*,Age,date,expName,psychopyVersion,frameRate,
"In the earlier Feedback Games, you chose which doors contained a prize, and which peers liked you. 

You then saw positive or negative feedback (green check mark or red X) from the door or peer you selected.

You will now see a series of doors and peers, some of which you saw during the earlier Feedback Games, and some that you have never seen before.

Please press the spacebar to continue.",,,,,0,0,0,0,,,,,instrFunc,space,"In the earlier Feedback Games, you chose which doors contained a prize, and which peers liked you. 

You then saw positive or negative feedback (green check mark or red X) from the door or peer you selected.

You will now see a series of doors and peers, some of which you saw during the earlier Feedback Games, and some that you have never seen before.

Please press the spacebar to continue.",21.57951100030914,16.78904980001971,38.427913858089596,2023-10-27 19:55:31.812752,2023-10-27 19:55:53.441837,,,10817,18-29,2023-10-27_19h55.28.875,Recall,2021.2.3,59.98940586009304,
"For doors/peers that you remember selecting and getting feedback from, your job is to RECALL what feedback you received. 

Press '1' if you recall positive feedback. 

Press '2' if you recall negative feedback

Press the spacebar to continue.",,,,,0,1,1,1,,,,,instrFunc,space,"For doors/peers that you remember selecting and getting feedback from, your job is to RECALL what feedback you received. 

Press '1' if you recall positive feedback. 

Press '2' if you recall negative feedback

Press the spacebar to continue.",17.19833210017532,38.40236890036613,55.64496546052396,2023-10-27 19:55:53.442837,2023-10-27 19:56:10.670075,,,10817,18-29,2023-10-27_19h55.28.875,Recall,2021.2.3,59.98940586009304,
"For doors/peers that you don't remember getting feedback from, your job is to PREDICT what feedback you WOULD HAVE received.

Press '9' if you predict positive feedback.

Press '0' if you predict negative feedback. 

Please press the spacebar to continue.",,,,,0,2,2,2,,,,,instrFunc,space,"For doors/peers that you don't remember getting feedback from, your job is to PREDICT what feedback you WOULD HAVE received.

Press '9' if you predict positive feedback.

Press '0' if you predict negative feedback. 

Please press the spacebar to continue.",16.30435650004074,55.63241500034928,71.99191386019811,2023-10-27 19:56:10.671075,2023-10-27 19:56:27.015149,,,10817,18-29,2023-10-27_19h55.28.875,Recall,2021.2.3,59.98940586009304,
"This task is self-paced, and the prompts will always stay on the screen so that you know which buttons to press.

On the next screen we will show you what those prompts look like, so that you know exactly what to expect. 

You will start with either doors or peers, and then switch halfway through. 

Please press the spacebar to continue.",,,,,0,3,3,3,,,,,instrFunc,space,"This task is self-paced, and the prompts will always stay on the screen so that you know which buttons to press.

On the next screen we will show you what those prompts look like, so that you know exactly what to expect. 

You will start with either doors or peers, and then switch halfway through. 

Please press the spacebar to continue.",11.266432499978691,71.97446010028943,83.29747215984389,2023-10-27 19:56:27.016150,2023-10-27 19:56:38.323633,,,10817,18-29,2023-10-27_19h55.28.875,Recall,2021.2.3,59.98940586009304,
,,,,,,,,,,,,,imgtextFunc,space,"Here is what the screen will look like while you make your ratings.
The green circles remind you to press 1 or 9 for positive feedback.
The red circles remind you to press 2 or 0 for negative feedback.









Please let the experimenter know if you have any questions.

Whenever you're ready, press the spacebar to start the task.",12.837340499740094,83.4355320003815,96.45859836041927,2023-10-27 19:56:38.333608,2023-10-27 19:56:51.350397,,,10817,18-29,2023-10-27_19h55.28.875,Recall,2021.2.3,59.98940586009304,
,L_SD509.jpg,1,L_MF509.jpg,1,,,,,0,0,0,98,imgFunc,0,NA,8.569686000235379,96.43915540026501,105.14450018014759,2023-10-27 19:56:51.391568,2023-10-27 19:57:00.089123,L_MF509.jpg,1,10817,18-29,2023-10-27_19h55.28.875,Recall,2021.2.3,59.98940586009304,
,DD039.jpg,0,FF039.jpg,0,,,,,0,1,1,38,imgFunc,2,NA,3.676147199701518,105.11679480038583,108.9008695599623,2023-10-27 19:57:00.098095,2023-10-27 19:57:03.875603,FF039.jpg,0,10817,18-29,2023-10-27_19h55.28.875,Recall,2021.2.3,59.98940586009304,
,SD018.jpg,0,MF018.jpg,0,,,,,0,2,2,67,imgFunc,9,NA,3.743591499980539,108.89724910026416,112.73477046005428,2023-10-27 19:57:03.882586,2023-10-27 19:57:07.711916,MF018.jpg,0,10817,18-29,2023-10-27_19h55.28.875,Recall,2021.2.3,59.98940586009304,
,L_SD504.jpg,1,L_MF504.jpg,1,,,,,0,3,3,93,imgFunc,1,NA,1.5511376997455955,112.73782360041514,114.38120826007798,2023-10-27 19:57:07.723886,2023-10-27 19:57:09.362981,L_MF504.jpg,1,10817,18-29,2023-10-27_19h55.28.875,Recall,2021.2.3,59.98940586009304,
,SD003.jpg,0,MF003.jpg,0,,,,,0,4,4,52,imgFunc,2,NA,2.0534903998486698,114.3794254004024,116.53237676015124,2023-10-27 19:57:09.369965,2023-10-27 19:57:11.514411,MF003.jpg,0,10817,18-29,2023-10-27_19h55.28.875,Recall,2021.2.3,59.98940586009304,
,L_DD508.jpg,1,L_FF508.jpg,1,,,,,0,5,5,47,imgFunc,1,NA,2.618289599660784,116.53463860042393,119.25455765984952,2023-10-27 19:57:11.521395,2023-10-27 19:57:14.232866,L_FF508.jpg,1,10817,18-29,2023-10-27_19h55.28.875,Recall,2021.2.3,59.98940586009304,
,DD006.jpg,0,FF006.jpg,0,,,,,0,6,6,5,imgFunc,2,NA,2.596390999853611,119.25234720017761,121.93938145972788,2023-10-27 19:57:14.239850,2023-10-27 19:57:16.918430,FF006.jpg,0,10817,18-29,2023-10-27_19h55.28.875,Recall,2021.2.3,59.98940586009304,
,SD022.jpg,0,MF022.jpg,0,,,,,0,7,7,71,imgFunc,1,NA,1.8965476001612842,121.94444320024922,123.93494645971805,2023-10-27 19:57:16.931397,2023-10-27 19:57:18.919376,MF022.jpg,0,10817,18-29,2023-10-27_19h55.28.875,Recall,2021.2.3,59.98940586009304,
,SD032.jpg,0,MF032.jpg,0,,,,,0,8,8,81,imgFunc,0,NA,1.714005600195378,123.93499470036477,125.73777056019753,2023-10-27 19:57:18.927351,2023-10-27 19:57:20.721129,MF032.jpg,0,10817,18-29,2023-10-27_19h55.28.875,Recall,2021.2.3,59.98940586009304,
,DD013.jpg,0,FF013.jpg,0,,,,,0,9,9,12,imgFunc,0,NA,1.1118721002712846,125.73701900010929,126.93916486017406,2023-10-27 19:57:20.728112,2023-10-27 19:57:21.922063,FF013.jpg,0,10817,18-29,2023-10-27_19h55.28.875,Recall,2021.2.3,59.98940586009304,
,L_SD507.jpg,1,L_MF507.jpg,1,,,,,0,10,10,96,imgFunc,2,NA,4.05463010026142,126.93820040021092,131.09250156022608,2023-10-27 19:57:21.929046,2023-10-27 19:57:26.074866,L_MF507.jpg,1,10817,18-29,2023-10-27_19h55.28.875,Recall,2021.2.3,59.98940586009304,
,L_DD505.jpg,1,L_FF505.jpg,1,,,,,0,11,11,44,imgFunc,1,NA,3.5306886001490057,131.09416710026562,134.71411706041545,2023-10-27 19:57:26.082847,2023-10-27 19:57:29.693530,L_FF505.jpg,1,10817,18-29,2023-10-27_19h55.28.875,Recall,2021.2.3,59.98940586009304,
,SD021.jpg,0,MF021.jpg,0,,,,,0,12,12,70,imgFunc,1,NA,1.9817547998391092,134.72314560040832,136.79377685999498,2023-10-27 19:57:29.709532,2023-10-27 19:57:31.779100,MF021.jpg,0,10817,18-29,2023-10-27_19h55.28.875,Recall,2021.2.3,59.98940586009304,
,SD011.jpg,0,MF011.jpg,0,,,,,0,13,13,60,imgFunc,2,NA,2.1485286001116037,136.79630780033767,139.0326269599609,2023-10-27 19:57:31.786083,2023-10-27 19:57:34.013512,MF011.jpg,0,10817,18-29,2023-10-27_19h55.28.875,Recall,2021.2.3,59.98940586009304,
,SD015.jpg,0,MF015.jpg,0,,,,,0,14,14,64,imgFunc,1,NA,1.826146500185132,139.03066730033606,140.94994066050276,2023-10-27 19:57:34.021493,2023-10-27 19:57:35.932080,MF015.jpg,0,10817,18-29,2023-10-27_19h55.28.875,Recall,2021.2.3,59.98940586009304,
,SD034.jpg,0,MF034.jpg,0,,,,,0,15,15,83,imgFunc,1,NA,2.6050893999636173,140.94756430014968,143.6502163601108,2023-10-27 19:57:35.940060,2023-10-27 19:57:38.633886,MF034.jpg,0,10817,18-29,2023-10-27_19h55.28.875,Recall,2021.2.3,59.98940586009304,
,L_DD501.jpg,1,L_FF501.jpg,1,,,,,0,16,16,40,imgFunc,2,NA,1.4924832000397146,143.66044750018045,145.262554760091,2023-10-27 19:57:38.641867,2023-10-27 19:57:40.234955,L_FF501.jpg,1,10817,18-29,2023-10-27_19h55.28.875,Recall,2021.2.3,59.98940586009304,
,SD013.jpg,0,MF013.jpg,0,,,,,0,17,17,62,imgFunc,0,NA,4.335397100076079,145.24942970043048,149.67062696022913,2023-10-27 19:57:40.241938,2023-10-27 19:57:44.654955,MF013.jpg,0,10817,18-29,2023-10-27_19h55.28.875,Recall,2021.2.3,59.98940586009304,
,SD031.jpg,0,MF031.jpg,0,,,,,0,18,18,80,imgFunc,0,NA,1.447869200259447,149.6727615003474,151.2242997600697,2023-10-27 19:57:44.662936,2023-10-27 19:57:46.205949,MF031.jpg,0,10817,18-29,2023-10-27_19h55.28.875,Recall,2021.2.3,59.98940586009304,
,DD020.jpg,0,FF020.jpg,0,,,,,0,19,19,19,imgFunc,0,NA,1.5178434001281857,151.22675340017304,152.84592755977064,2023-10-27 19:57:46.213951,2023-10-27 19:57:47.824039,FF020.jpg,0,10817,18-29,2023-10-27_19h55.28.875,Recall,2021.2.3,59.98940586009304,
,DD022.jpg,0,FF022.jpg,0,,,,,0,20,20,21,imgFunc,0,NA,2.991732200141996,152.84893400035799,155.94678165996447,2023-10-27 19:57:47.834014,2023-10-27 19:57:50.926120,FF022.jpg,0,10817,18-29,2023-10-27_19h55.28.875,Recall,2021.2.3,59.98940586009304,
,SD009.jpg,0,MF009.jpg,0,,,,,0,21,21,58,imgFunc,1,NA,1.5770970000885427,155.95194940036163,157.62568586040288,2023-10-27 19:57:50.939087,2023-10-27 19:57:52.610404,MF009.jpg,0,10817,18-29,2023-10-27_19h55.28.875,Recall,2021.2.3,59.98940586009304,
,L_SD502.jpg,1,L_MF502.jpg,1,,,,,0,22,22,91,imgFunc,2,NA,2.159588400274515,157.6252839001827,159.87850666046143,2023-10-27 19:57:52.617388,2023-10-27 19:57:54.862275,L_MF502.jpg,1,10817,18-29,2023-10-27_19h55.28.875,Recall,2021.2.3,59.98940586009304,
,DD040.jpg,0,FF040.jpg,0,,,,,0,23,23,39,imgFunc,9,NA,2.474103400018066,159.87874250020832,162.4481671601534,2023-10-27 19:57:54.869258,2023-10-27 19:57:57.430570,FF040.jpg,0,10817,18-29,2023-10-27_19h55.28.875,Recall,2021.2.3,59.98940586009304,
,DD036.jpg,0,FF036.jpg,0,,,,,0,24,24,35,imgFunc,0,NA,2.8174413996748626,162.44724540039897,165.36754736024886,2023-10-27 19:57:57.437553,2023-10-27 19:58:00.349457,FF036.jpg,0,10817,18-29,2023-10-27_19h55.28.875,Recall,2021.2.3,59.98940586009304,
,DD017.jpg,0,FF017.jpg,0,,,,,0,25,25,16,imgFunc,0,NA,4.584826299920678,165.3679770003073,170.05602115998045,2023-10-27 19:58:00.356440,2023-10-27 19:58:05.036380,FF017.jpg,0,10817,18-29,2023-10-27_19h55.28.875,Recall,2021.2.3,59.98940586009304,
,DD038.jpg,0,FF038.jpg,0,,,,,0,26,26,37,imgFunc,9,NA,2.4877158999443054,170.08115990040824,172.6824912200682,2023-10-27 19:58:05.053337,2023-10-27 19:58:07.637822,FF038.jpg,0,10817,18-29,2023-10-27_19h55.28.875,Recall,2021.2.3,59.98940586009304,
,SD001.jpg,0,MF001.jpg,0,,,,,0,27,27,50,imgFunc,0,NA,2.6543858000077307,172.65845300024375,175.4116572602652,2023-10-27 19:58:07.645824,2023-10-27 19:58:10.390166,MF001.jpg,0,10817,18-29,2023-10-27_19h55.28.875,Recall,2021.2.3,59.98940586009304,
,SD026.jpg,0,MF026.jpg,0,,,,,0,28,28,75,imgFunc,0,NA,1.0990637000650167,175.40574010042474,176.59065706003457,2023-10-27 19:58:10.398147,2023-10-27 19:58:11.573858,MF026.jpg,0,10817,18-29,2023-10-27_19h55.28.875,Recall,2021.2.3,59.98940586009304,
,SD017.jpg,0,MF017.jpg,0,,,,,0,29,29,66,imgFunc,9,NA,1.5053795999847353,176.5912609002553,178.19323326041922,2023-10-27 19:58:11.581839,2023-10-27 19:58:13.174531,MF017.jpg,0,10817,18-29,2023-10-27_19h55.28.875,Recall,2021.2.3,59.98940586009304,
,DD007.jpg,0,FF007.jpg,0,,,,,0,30,30,6,imgFunc,9,NA,1.7105882000178099,178.194134300109,179.99677315959707,2023-10-27 19:58:13.182508,2023-10-27 19:58:14.976936,FF007.jpg,0,10817,18-29,2023-10-27_19h55.28.875,Recall,2021.2.3,59.98940586009304,
,DD009.jpg,0,FF009.jpg,0,,,,,0,31,31,8,imgFunc,1,NA,1.5239412998780608,180.00497810030356,181.62552966037765,2023-10-27 19:58:14.991898,2023-10-27 19:58:16.611304,FF009.jpg,0,10817,18-29,2023-10-27_19h55.28.875,Recall,2021.2.3,59.98940586009304,
,SD019.jpg,0,MF019.jpg,0,,,,,0,32,32,68,imgFunc,1,NA,1.7734326999634504,181.627661800012,183.4970632600598,2023-10-27 19:58:16.618287,2023-10-27 19:58:18.479386,MF019.jpg,0,10817,18-29,2023-10-27_19h55.28.875,Recall,2021.2.3,59.98940586009304,
,DD033.jpg,0,FF033.jpg,0,,,,,0,33,33,32,imgFunc,1,NA,1.2416298002935946,183.4953904002905,184.8310210602358,2023-10-27 19:58:18.486369,2023-10-27 19:58:19.813492,FF033.jpg,0,10817,18-29,2023-10-27_19h55.28.875,Recall,2021.2.3,59.98940586009304,
,DD035.jpg,0,FF035.jpg,0,,,,,0,34,34,34,imgFunc,0,NA,4.5709659000858665,184.83001450030133,189.5013042599894,2023-10-27 19:58:19.820475,2023-10-27 19:58:24.483414,FF035.jpg,0,10817,18-29,2023-10-27_19h55.28.875,Recall,2021.2.3,59.98940586009304,
,SD030.jpg,0,MF030.jpg,0,,,,,0,35,35,79,imgFunc,0,NA,2.296538600232452,189.512336099986,191.91193715995178,2023-10-27 19:58:24.492392,2023-10-27 19:58:26.885211,MF030.jpg,0,10817,18-29,2023-10-27_19h55.28.875,Recall,2021.2.3,59.98940586009304,
,SD008.jpg,0,MF008.jpg,0,,,,,0,36,36,57,imgFunc,0,NA,0.9795861998572946,191.9013201002963,192.9700086596422,2023-10-27 19:58:26.892194,2023-10-27 19:58:27.952666,MF008.jpg,0,10817,18-29,2023-10-27_19h55.28.875,Recall,2021.2.3,59.98940586009304,
,SD020.jpg,0,MF020.jpg,0,,,,,0,37,37,69,imgFunc,9,NA,2.1607357002794743,192.96810659999028,195.22114836005494,2023-10-27 19:58:27.959650,2023-10-27 19:58:30.204365,MF020.jpg,0,10817,18-29,2023-10-27_19h55.28.875,Recall,2021.2.3,59.98940586009304,
,DD032.jpg,0,FF032.jpg,0,,,,,0,38,38,31,imgFunc,0,NA,1.5049247001297772,195.22405870025977,196.82664025994018,2023-10-27 19:58:30.211348,2023-10-27 19:58:31.805486,FF032.jpg,0,10817,18-29,2023-10-27_19h55.28.875,Recall,2021.2.3,59.98940586009304,
,DD018.jpg,0,FF018.jpg,0,,,,,0,39,39,17,imgFunc,9,NA,4.169268999714404,196.82377510005608,201.09465146018192,2023-10-27 19:58:31.812469,2023-10-27 19:58:36.075262,FF018.jpg,0,10817,18-29,2023-10-27_19h55.28.875,Recall,2021.2.3,59.98940586009304,
,DD023.jpg,0,FF023.jpg,0,,,,,0,40,40,22,imgFunc,9,NA,1.2019626996479928,201.10291980020702,202.3897021599114,2023-10-27 19:58:36.090223,2023-10-27 19:58:37.376555,FF023.jpg,0,10817,18-29,2023-10-27_19h55.28.875,Recall,2021.2.3,59.98940586009304,
,DD015.jpg,0,FF015.jpg,0,,,,,0,41,41,14,imgFunc,9,NA,1.2247279002331197,202.39227940002456,203.7102555599995,2023-10-27 19:58:37.384535,2023-10-27 19:58:38.693536,FF015.jpg,0,10817,18-29,2023-10-27_19h55.28.875,Recall,2021.2.3,59.98940586009304,
,L_SD506.jpg,1,L_MF506.jpg,1,,,,,0,42,42,95,imgFunc,0,NA,0.994661099743098,203.7103790002875,204.79603686043993,2023-10-27 19:58:38.701121,2023-10-27 19:58:39.777821,L_MF506.jpg,1,10817,18-29,2023-10-27_19h55.28.875,Recall,2021.2.3,59.98940586009304,
,SD033.jpg,0,MF033.jpg,0,,,,,0,43,43,82,imgFunc,0,NA,2.4389365003444254,204.79407840035856,207.3309926604852,2023-10-27 19:58:39.784805,2023-10-27 19:58:42.312968,MF033.jpg,0,10817,18-29,2023-10-27_19h55.28.875,Recall,2021.2.3,59.98940586009304,
,L_SD503.jpg,1,L_MF503.jpg,1,,,,,0,44,44,92,imgFunc,0,NA,1.221739999949932,207.33093750011176,208.6496482603252,2023-10-27 19:58:42.319951,2023-10-27 19:58:43.630662,L_MF503.jpg,1,10817,18-29,2023-10-27_19h55.28.875,Recall,2021.2.3,59.98940586009304,
,DD034.jpg,0,FF034.jpg,0,,,,,0,45,45,33,imgFunc,0,NA,3.3630606001242995,208.66191430017352,212.1154317604378,2023-10-27 19:58:43.646642,2023-10-27 19:58:47.099968,FF034.jpg,0,10817,18-29,2023-10-27_19h55.28.875,Recall,2021.2.3,59.98940586009304,
,SD004.jpg,0,MF004.jpg,0,,,,,0,46,46,53,imgFunc,9,NA,2.029701200313866,212.1154368002899,214.23529276018962,2023-10-27 19:58:47.106951,2023-10-27 19:58:49.218161,MF004.jpg,0,10817,18-29,2023-10-27_19h55.28.875,Recall,2021.2.3,59.98940586009304,
,DD003.jpg,0,FF003.jpg,0,,,,,0,47,47,2,imgFunc,0,NA,2.0617424002848566,214.2351859002374,216.38790166005492,2023-10-27 19:58:49.225144,2023-10-27 19:58:51.369627,FF003.jpg,0,10817,18-29,2023-10-27_19h55.28.875,Recall,2021.2.3,59.98940586009304,
,DD008.jpg,0,FF008.jpg,0,,,,,0,48,48,7,imgFunc,0,NA,1.9337500999681652,216.38733470020816,218.42324656015262,2023-10-27 19:58:51.376610,2023-10-27 19:58:53.404325,FF008.jpg,0,10817,18-29,2023-10-27_19h55.28.875,Recall,2021.2.3,59.98940586009304,
,SD037.jpg,0,MF037.jpg,0,,,,,0,49,49,86,imgFunc,9,NA,5.693979599978775,218.42697080038488,224.2160823601298,2023-10-27 19:58:53.411308,2023-10-27 19:58:59.192054,MF037.jpg,0,10817,18-29,2023-10-27_19h55.28.875,Recall,2021.2.3,59.98940586009304,
,DD030.jpg,0,FF030.jpg,0,,,,,0,50,50,29,imgFunc,1,NA,1.8605047999881208,224.21240860037506,226.16165246022865,2023-10-27 19:58:59.201031,2023-10-27 19:59:01.143324,FF030.jpg,0,10817,18-29,2023-10-27_19h55.28.875,Recall,2021.2.3,59.98940586009304,
,L_SD508.jpg,1,L_MF508.jpg,1,,,,,0,51,51,97,imgFunc,9,NA,3.0570292002521455,226.16047700028867,229.3137102597393,2023-10-27 19:59:01.150307,2023-10-27 19:59:04.295424,L_MF508.jpg,1,10817,18-29,2023-10-27_19h55.28.875,Recall,2021.2.3,59.98940586009304,
,SD039.jpg,0,MF039.jpg,0,,,,,0,52,52,88,imgFunc,0,NA,2.997828799765557,229.31513760006055,232.41870496002957,2023-10-27 19:59:04.302407,2023-10-27 19:59:07.397757,MF039.jpg,0,10817,18-29,2023-10-27_19h55.28.875,Recall,2021.2.3,59.98940586009304,
,DD029.jpg,0,FF029.jpg,0,,,,,0,53,53,28,imgFunc,0,NA,2.598308099899441,232.4186043003574,235.12120116036385,2023-10-27 19:59:07.405758,2023-10-27 19:59:10.099674,FF029.jpg,0,10817,18-29,2023-10-27_19h55.28.875,Recall,2021.2.3,59.98940586009304,
,L_DD509.jpg,1,L_FF509.jpg,1,,,,,0,54,54,48,imgFunc,9,NA,1.6319610998034477,235.12913660006598,236.8477338599041,2023-10-27 19:59:10.115633,2023-10-27 19:59:11.834180,L_FF509.jpg,1,10817,18-29,2023-10-27_19h55.28.875,Recall,2021.2.3,59.98940586009304,
,DD021.jpg,0,FF021.jpg,0,,,,,0,55,55,20,imgFunc,9,NA,1.3372595999389887,236.84740289999172,238.28316116007045,2023-10-27 19:59:11.841163,2023-10-27 19:59:13.267866,FF021.jpg,0,10817,18-29,2023-10-27_19h55.28.875,Recall,2021.2.3,59.98940586009304,
,SD007.jpg,0,MF007.jpg,0,,,,,0,56,56,56,imgFunc,9,NA,7.031525999773294,238.2815567003563,245.40513475984335,2023-10-27 19:59:13.275848,2023-10-27 19:59:20.390466,MF007.jpg,0,10817,18-29,2023-10-27_19h55.28.875,Recall,2021.2.3,59.98940586009304,
,DD014.jpg,0,FF014.jpg,0,,,,,0,57,57,13,imgFunc,9,NA,0.9466279000043869,245.42236320022494,246.47104316018522,2023-10-27 19:59:20.399444,2023-10-27 19:59:21.441251,FF014.jpg,0,10817,18-29,2023-10-27_19h55.28.875,Recall,2021.2.3,59.98940586009304,
,SD005.jpg,0,MF005.jpg,0,,,,,0,58,58,54,imgFunc,0,NA,1.099362200126052,246.4616023004055,247.66375376051292,2023-10-27 19:59:21.448234,2023-10-27 19:59:22.642108,MF005.jpg,0,10817,18-29,2023-10-27_19h55.28.875,Recall,2021.2.3,59.98940586009304,
,SD010.jpg,0,MF010.jpg,0,,,,,0,59,59,59,imgFunc,0,NA,0.6207304000854492,247.66824240004644,248.3715688600205,2023-10-27 19:59:22.657070,2023-10-27 19:59:23.358890,MF010.jpg,0,10817,18-29,2023-10-27_19h55.28.875,Recall,2021.2.3,59.98940586009304,
,L_SD510.jpg,1,L_MF510.jpg,1,,,,,0,60,60,99,imgFunc,0,NA,1.240970500279218,248.37598920008168,249.71070905961096,2023-10-27 19:59:23.367303,2023-10-27 19:59:24.693478,L_MF510.jpg,1,10817,18-29,2023-10-27_19h55.28.875,Recall,2021.2.3,59.98940586009304,
,SD025.jpg,0,MF025.jpg,0,,,,,0,61,61,74,imgFunc,0,NA,1.9951705997809768,249.7099757003598,251.7966429600492,2023-10-27 19:59:24.700469,2023-10-27 19:59:26.778612,MF025.jpg,0,10817,18-29,2023-10-27_19h55.28.875,Recall,2021.2.3,59.98940586009304,
,L_DD507.jpg,1,L_FF507.jpg,1,,,,,0,62,62,46,imgFunc,9,NA,1.0750295999459922,251.79792120028287,252.9667074601166,2023-10-27 19:59:26.785595,2023-10-27 19:59:27.945805,L_FF507.jpg,1,10817,18-29,2023-10-27_19h55.28.875,Recall,2021.2.3,59.98940586009304,
,L_SD505.jpg,1,L_MF505.jpg,1,,,,,0,63,63,94,imgFunc,1,NA,3.0646799001842737,252.9683242002502,256.1387295597233,2023-10-27 19:59:27.952788,2023-10-27 19:59:31.114583,L_MF505.jpg,1,10817,18-29,2023-10-27_19h55.28.875,Recall,2021.2.3,59.98940586009304,
,SD006.jpg,0,MF006.jpg,0,,,,,0,64,64,55,imgFunc,9,NA,2.2467203997075558,256.13031320041046,258.46664316020906,2023-10-27 19:59:31.122564,2023-10-27 19:59:33.449970,MF006.jpg,0,10817,18-29,2023-10-27_19h55.28.875,Recall,2021.2.3,59.98940586009304,
,DD031.jpg,0,FF031.jpg,0,,,,,0,65,65,30,imgFunc,0,NA,2.2702035000547767,258.4667755002156,260.83655616035685,2023-10-27 19:59:33.456953,2023-10-27 19:59:35.818620,FF031.jpg,0,10817,18-29,2023-10-27_19h55.28.875,Recall,2021.2.3,59.98940586009304,
,SD012.jpg,0,MF012.jpg,0,,,,,0,66,66,61,imgFunc,0,NA,2.4942004000768065,260.83471190044656,263.4207256603986,2023-10-27 19:59:35.825621,2023-10-27 19:59:38.403329,MF012.jpg,0,10817,18-29,2023-10-27_19h55.28.875,Recall,2021.2.3,59.98940586009304,
,DD011.jpg,0,FF011.jpg,0,,,,,0,67,67,10,imgFunc,0,NA,3.1154619003646076,263.4213454001583,266.6414975603111,2023-10-27 19:59:38.410312,2023-10-27 19:59:41.622346,FF011.jpg,0,10817,18-29,2023-10-27_19h55.28.875,Recall,2021.2.3,59.98940586009304,
,SD024.jpg,0,MF024.jpg,0,,,,,0,68,68,73,imgFunc,9,NA,6.83379039959982,266.64717490039766,273.572369360365,2023-10-27 19:59:41.637308,2023-10-27 19:59:48.560600,MF024.jpg,0,10817,18-29,2023-10-27_19h55.28.875,Recall,2021.2.3,59.98940586009304,
,DD037.jpg,0,FF037.jpg,0,,,,,0,69,69,36,imgFunc,9,NA,4.542169299907982,273.57874120026827,278.21335346018896,2023-10-27 19:59:48.569578,2023-10-27 19:59:53.197191,FF037.jpg,0,10817,18-29,2023-10-27_19h55.28.875,Recall,2021.2.3,59.98940586009304,
,L_DD502.jpg,1,L_FF502.jpg,1,,,,,0,70,70,41,imgFunc,2,NA,4.829484399873763,278.2195269004442,283.1539648603648,2023-10-27 19:59:53.206752,2023-10-27 19:59:58.134281,L_FF502.jpg,1,10817,18-29,2023-10-27_19h55.28.875,Recall,2021.2.3,59.98940586009304,
,SD016.jpg,0,MF016.jpg,0,,,,,0,71,71,65,imgFunc,9,NA,2.932868500240147,283.17217550007626,286.22232236061245,2023-10-27 19:59:58.143260,2023-10-27 20:00:01.186614,MF016.jpg,0,10817,18-29,2023-10-27_19h55.28.875,Recall,2021.2.3,59.98940586009304,
,DD016.jpg,0,FF016.jpg,0,,,,,0,72,72,15,imgFunc,9,NA,2.7083414997905493,286.2046723002568,289.00786106009036,2023-10-27 20:00:01.193597,2023-10-27 20:00:03.988444,FF016.jpg,0,10817,18-29,2023-10-27_19h55.28.875,Recall,2021.2.3,59.98940586009304,
,SD036.jpg,0,MF036.jpg,0,,,,,0,73,73,85,imgFunc,0,NA,2.395059600006789,289.01389640010893,291.501856460236,2023-10-27 20:00:04.003406,2023-10-27 20:00:06.490251,MF036.jpg,0,10817,18-29,2023-10-27_19h55.28.875,Recall,2021.2.3,59.98940586009304,
,L_SD501.jpg,1,L_MF501.jpg,1,,,,,0,74,74,90,imgFunc,0,NA,1.6553075998090208,291.5057430001907,293.258394560311,2023-10-27 20:00:06.497234,2023-10-27 20:00:08.241263,L_MF501.jpg,1,10817,18-29,2023-10-27_19h55.28.875,Recall,2021.2.3,59.98940586009304,
,DD005.jpg,0,FF005.jpg,0,,,,,0,75,75,4,imgFunc,0,NA,2.3592947996221483,293.2577277002856,295.71061016013846,2023-10-27 20:00:08.249265,2023-10-27 20:00:10.693182,FF005.jpg,0,10817,18-29,2023-10-27_19h55.28.875,Recall,2021.2.3,59.98940586009304,
,DD012.jpg,0,FF012.jpg,0,,,,,0,76,76,11,imgFunc,9,NA,1.2441141996532679,295.7088405000977,297.0442980597727,2023-10-27 20:00:10.700951,2023-10-27 20:00:12.027555,FF012.jpg,0,10817,18-29,2023-10-27_19h55.28.875,Recall,2021.2.3,59.98940586009304,
,L_DD504.jpg,1,L_FF504.jpg,1,,,,,0,77,77,43,imgFunc,9,NA,1.5996185997501016,297.0492837000638,298.75141295976937,2023-10-27 20:00:12.035536,2023-10-27 20:00:13.728714,L_FF504.jpg,1,10817,18-29,2023-10-27_19h55.28.875,Recall,2021.2.3,59.98940586009304,
,SD002.jpg,0,MF002.jpg,0,,,,,0,78,78,51,imgFunc,9,NA,5.046591200400144,298.7463945001364,303.8848426602781,2023-10-27 20:00:13.735697,2023-10-27 20:00:18.865962,MF002.jpg,0,10817,18-29,2023-10-27_19h55.28.875,Recall,2021.2.3,59.98940586009304,
,SD040.jpg,0,MF040.jpg,0,,,,,0,79,79,89,imgFunc,9,NA,1.187340000178665,303.8856536000967,305.1679835598916,2023-10-27 20:00:18.874939,2023-10-27 20:00:20.150118,MF040.jpg,0,10817,18-29,2023-10-27_19h55.28.875,Recall,2021.2.3,59.98940586009304,
,SD035.jpg,0,MF035.jpg,0,,,,,0,80,80,84,imgFunc,9,NA,0.968049299903214,305.16899540042505,306.23766866046935,2023-10-27 20:00:20.157101,2023-10-27 20:00:21.217504,MF035.jpg,0,10817,18-29,2023-10-27_19h55.28.875,Recall,2021.2.3,59.98940586009304,
,DD024.jpg,0,FF024.jpg,0,,,,,0,81,81,23,imgFunc,0,NA,1.18852679990232,306.23637390043586,307.5220709601417,2023-10-27 20:00:21.224487,2023-10-27 20:00:22.501907,FF024.jpg,0,10817,18-29,2023-10-27_19h55.28.875,Recall,2021.2.3,59.98940586009304,
,DD026.jpg,0,FF026.jpg,0,,,,,0,82,82,25,imgFunc,0,NA,0.8027857998386025,307.52613050024956,308.4132344597019,2023-10-27 20:00:22.516868,2023-10-27 20:00:23.402438,FF026.jpg,0,10817,18-29,2023-10-27_19h55.28.875,Recall,2021.2.3,59.98940586009304,
,L_DD503.jpg,1,L_FF503.jpg,1,,,,,0,83,83,42,imgFunc,0,NA,2.6811036998406053,308.41613880032673,311.186653860379,2023-10-27 20:00:23.409421,2023-10-27 20:00:26.171084,L_FF503.jpg,1,10817,18-29,2023-10-27_19h55.28.875,Recall,2021.2.3,59.98940586009304,
,DD002.jpg,0,FF002.jpg,0,,,,,0,84,84,1,imgFunc,9,NA,2.1823334000073373,311.18653850024566,313.4562469604425,2023-10-27 20:00:26.178090,2023-10-27 20:00:28.439105,FF002.jpg,0,10817,18-29,2023-10-27_19h55.28.875,Recall,2021.2.3,59.98940586009304,
,SD028.jpg,0,MF028.jpg,0,,,,,0,85,85,77,imgFunc,0,NA,1.2017696001566947,313.4553375001997,314.75756405992433,2023-10-27 20:00:28.447129,2023-10-27 20:00:29.740352,MF028.jpg,0,10817,18-29,2023-10-27_19h55.28.875,Recall,2021.2.3,59.98940586009304,
,DD025.jpg,0,FF025.jpg,0,,,,,0,86,86,24,imgFunc,9,NA,4.347043300047517,314.75794690009207,319.19589626044035,2023-10-27 20:00:29.747336,2023-10-27 20:00:34.176823,FF025.jpg,0,10817,18-29,2023-10-27_19h55.28.875,Recall,2021.2.3,59.98940586009304,
,L_DD510.jpg,1,L_FF510.jpg,1,,,,,0,87,87,49,imgFunc,0,NA,1.4690522998571396,319.20394520042464,320.75768896052614,2023-10-27 20:00:34.191785,2023-10-27 20:00:35.744867,L_FF510.jpg,1,10817,18-29,2023-10-27_19h55.28.875,Recall,2021.2.3,59.98940586009304,
,SD029.jpg,0,MF029.jpg,0,,,,,0,88,88,78,imgFunc,9,NA,2.065123699605465,320.7597289001569,322.9124405598268,2023-10-27 20:00:35.751850,2023-10-27 20:00:37.896056,MF029.jpg,0,10817,18-29,2023-10-27_19h55.28.875,Recall,2021.2.3,59.98940586009304,
,DD027.jpg,0,FF027.jpg,0,,,,,0,89,89,26,imgFunc,0,NA,1.7958762999624014,322.9092644001357,324.795881960541,2023-10-27 20:00:37.903039,2023-10-27 20:00:39.780929,FF027.jpg,0,10817,18-29,2023-10-27_19h55.28.875,Recall,2021.2.3,59.98940586009304,
,DD019.jpg,0,FF019.jpg,0,,,,,0,90,90,18,imgFunc,9,NA,1.5901361000724137,324.7949869004078,326.4811263605952,2023-10-27 20:00:39.787912,2023-10-27 20:00:41.465367,FF019.jpg,0,10817,18-29,2023-10-27_19h55.28.875,Recall,2021.2.3,59.98940586009304,
,SD023.jpg,0,MF023.jpg,0,,,,,0,91,91,72,imgFunc,0,NA,1.0173047999851406,326.4876847001724,327.6069253603928,2023-10-27 20:00:41.472350,2023-10-27 20:00:42.582994,MF023.jpg,0,10817,18-29,2023-10-27_19h55.28.875,Recall,2021.2.3,59.98940586009304,
,DD004.jpg,0,FF004.jpg,0,,,,,0,92,92,3,imgFunc,0,NA,2.0587360998615623,327.598298500292,329.75151506019756,2023-10-27 20:00:42.589977,2023-10-27 20:00:44.734248,FF004.jpg,0,10817,18-29,2023-10-27_19h55.28.875,Recall,2021.2.3,59.98940586009304,
,SD014.jpg,0,MF014.jpg,0,,,,,0,93,93,63,imgFunc,9,NA,1.6052952003665268,329.74775160010904,331.45056185964495,2023-10-27 20:00:44.741232,2023-10-27 20:00:46.435598,MF014.jpg,0,10817,18-29,2023-10-27_19h55.28.875,Recall,2021.2.3,59.98940586009304,
,DD010.jpg,0,FF010.jpg,0,,,,,0,94,94,9,imgFunc,9,NA,1.5983219998888671,331.4507580003701,333.1368843601085,2023-10-27 20:00:46.442581,2023-10-27 20:00:48.120280,FF010.jpg,0,10817,18-29,2023-10-27_19h55.28.875,Recall,2021.2.3,59.98940586009304,
,SD038.jpg,0,MF038.jpg,0,,,,,0,95,95,87,imgFunc,0,NA,1.5995430001057684,333.1374900001101,334.8400654597208,2023-10-27 20:00:48.127283,2023-10-27 20:00:49.821248,MF038.jpg,0,10817,18-29,2023-10-27_19h55.28.875,Recall,2021.2.3,59.98940586009304,
,SD027.jpg,0,MF027.jpg,0,,,,,0,96,96,76,imgFunc,9,NA,1.0893678003922105,334.84772500023246,336.0341336601414,2023-10-27 20:00:49.836212,2023-10-27 20:00:51.022327,MF027.jpg,0,10817,18-29,2023-10-27_19h55.28.875,Recall,2021.2.3,59.98940586009304,
,DD028.jpg,0,FF028.jpg,0,,,,,0,97,97,27,imgFunc,0,NA,5.662602700293064,336.0345426001586,341.79028996033594,2023-10-27 20:00:51.029310,2023-10-27 20:00:56.776432,FF028.jpg,0,10817,18-29,2023-10-27_19h55.28.875,Recall,2021.2.3,59.98940586009304,
,L_DD506.jpg,1,L_FF506.jpg,1,,,,,0,98,98,45,imgFunc,0,NA,1.7814601003192365,341.79558140039444,343.6781436605379,2023-10-27 20:00:56.785410,2023-10-27 20:00:58.660997,L_FF506.jpg,1,10817,18-29,2023-10-27_19h55.28.875,Recall,2021.2.3,59.98940586009304,
,DD001.jpg,0,FF001.jpg,0,,,,,0,99,99,0,imgFunc,9,NA,1.2192909996956587,343.6776563003659,344.9971471601166,2023-10-27 20:00:58.667980,2023-10-27 20:00:59.978379,FF001.jpg,0,10817,18-29,2023-10-27_19h55.28.875,Recall,2021.2.3,59.98940586009304,
,,,,,,,,,,,,,instrFunc,space,"Great work! 

 Now you will switch to the other image type.

 Press the spacebar whenever you are ready to start.",2.327428499702364,344.9296004003845,347.2942564599216,2023-10-27 20:00:59.979375,2023-10-27 20:01:02.329254,,,10817,18-29,2023-10-27_19h55.28.875,Recall,2021.2.3,59.98940586009304,
,L_DD504.jpg,1,L_FF504.jpg,1,,,,,0,0,0,43,imgFunc,1,NA,17.459474199917167,347.3656342001632,364.9226000197232,2023-10-27 20:01:02.357181,2023-10-27 20:01:19.909658,L_DD504.jpg,1,10817,18-29,2023-10-27_19h55.28.875,Recall,2021.2.3,59.98940586009304,
,SD010.jpg,0,MF010.jpg,0,,,,,0,1,1,59,imgFunc,0,NA,2.4668489997275174,364.9342515002936,367.49440205981955,2023-10-27 20:01:19.921628,2023-10-27 20:01:22.478102,SD010.jpg,0,10817,18-29,2023-10-27_19h55.28.875,Recall,2021.2.3,59.98940586009304,
,SD040.jpg,0,MF040.jpg,0,,,,,0,2,2,89,imgFunc,9,NA,2.9483743999153376,367.4925486003049,370.52965706028044,2023-10-27 20:01:22.485085,2023-10-27 20:01:25.513653,SD040.jpg,0,10817,18-29,2023-10-27_19h55.28.875,Recall,2021.2.3,59.98940586009304,
,DD033.jpg,0,FF033.jpg,0,,,,,0,3,3,32,imgFunc,0,NA,2.332501099910587,370.5325769004412,372.9600220597349,2023-10-27 20:01:25.525623,2023-10-27 20:01:27.948745,DD033.jpg,0,10817,18-29,2023-10-27_19h55.28.875,Recall,2021.2.3,59.98940586009304,
,DD039.jpg,0,FF039.jpg,0,,,,,0,4,4,38,imgFunc,1,NA,1.9383342997170985,372.95851090038195,374.9946379601024,2023-10-27 20:01:27.955622,2023-10-27 20:01:29.983518,DD039.jpg,0,10817,18-29,2023-10-27_19h55.28.875,Recall,2021.2.3,59.98940586009304,
,DD040.jpg,0,FF040.jpg,0,,,,,0,5,5,39,imgFunc,1,NA,0.8701379997655749,374.99492220021784,375.9639415596612,2023-10-27 20:01:29.990501,2023-10-27 20:01:30.950968,DD040.jpg,0,10817,18-29,2023-10-27_19h55.28.875,Recall,2021.2.3,59.98940586009304,
,DD034.jpg,0,FF034.jpg,0,,,,,0,6,6,33,imgFunc,2,NA,2.4038991001434624,375.9651259002276,378.4683878598735,2023-10-27 20:01:30.957951,2023-10-27 20:01:33.452760,DD034.jpg,0,10817,18-29,2023-10-27_19h55.28.875,Recall,2021.2.3,59.98940586009304,
,L_SD506.jpg,1,L_MF506.jpg,1,,,,,0,7,7,95,imgFunc,0,NA,1.2528368001803756,378.4764580000192,379.8291722596623,2023-10-27 20:01:33.459743,2023-10-27 20:01:34.803742,L_SD506.jpg,1,10817,18-29,2023-10-27_19h55.28.875,Recall,2021.2.3,59.98940586009304,
,SD031.jpg,0,MF031.jpg,0,,,,,0,8,8,80,imgFunc,0,NA,1.1416600998491049,379.81149430014193,381.0474002598785,2023-10-27 20:01:34.810725,2023-10-27 20:01:36.037944,SD031.jpg,0,10817,18-29,2023-10-27_19h55.28.875,Recall,2021.2.3,59.98940586009304,
,DD029.jpg,0,FF029.jpg,0,,,,,0,9,9,28,imgFunc,9,NA,4.1051314999349415,381.0477852001786,385.2358949603513,2023-10-27 20:01:36.044927,2023-10-27 20:01:40.223741,DD029.jpg,0,10817,18-29,2023-10-27_19h55.28.875,Recall,2021.2.3,59.98940586009304,
,SD028.jpg,0,MF028.jpg,0,,,,,0,10,10,77,imgFunc,2,NA,1.9895353997126222,385.23562330007553,387.32139446027577,2023-10-27 20:01:40.231722,2023-10-27 20:01:42.309277,SD028.jpg,0,10817,18-29,2023-10-27_19h55.28.875,Recall,2021.2.3,59.98940586009304,
,DD016.jpg,0,FF016.jpg,0,,,,,0,11,11,15,imgFunc,9,NA,6.146616000216454,387.3264557002112,393.5657579600811,2023-10-27 20:01:42.316260,2023-10-27 20:01:48.546998,DD016.jpg,0,10817,18-29,2023-10-27_19h55.28.875,Recall,2021.2.3,59.98940586009304,
,L_DD506.jpg,1,L_FF506.jpg,1,,,,,0,12,12,45,imgFunc,1,NA,10.12231560004875,393.5827586003579,403.8101050606929,2023-10-27 20:01:48.561960,2023-10-27 20:01:58.786906,L_DD506.jpg,1,10817,18-29,2023-10-27_19h55.28.875,Recall,2021.2.3,59.98940586009304,
,DD036.jpg,0,FF036.jpg,0,,,,,0,13,13,35,imgFunc,2,NA,1.621766499709338,403.8032030002214,405.5196504602209,2023-10-27 20:01:58.795885,2023-10-27 20:02:00.505595,DD036.jpg,0,10817,18-29,2023-10-27_19h55.28.875,Recall,2021.2.3,59.98940586009304,
,L_DD508.jpg,1,L_FF508.jpg,1,,,,,0,14,14,47,imgFunc,0,NA,1.9136668001301587,405.51935550011694,407.522479460109,2023-10-27 20:02:00.512579,2023-10-27 20:02:02.507097,L_DD508.jpg,1,10817,18-29,2023-10-27_19h55.28.875,Recall,2021.2.3,59.98940586009304,
,L_SD508.jpg,1,L_MF508.jpg,1,,,,,0,15,15,97,imgFunc,0,NA,1.066011100076139,407.5191091001034,408.67146546021104,2023-10-27 20:02:02.514080,2023-10-27 20:02:03.657899,L_SD508.jpg,1,10817,18-29,2023-10-27_19h55.28.875,Recall,2021.2.3,59.98940586009304,
,DD013.jpg,0,FF013.jpg,0,,,,,0,16,16,12,imgFunc,0,NA,5.559605000074953,408.6735082003288,414.3285359595902,2023-10-27 20:02:03.664882,2023-10-27 20:02:09.311699,DD013.jpg,0,10817,18-29,2023-10-27_19h55.28.875,Recall,2021.2.3,59.98940586009304,
,SD030.jpg,0,MF030.jpg,0,,,,,0,17,17,79,imgFunc,9,NA,2.910137899685651,414.3549728002399,417.3908418202773,2023-10-27 20:02:09.327658,2023-10-27 20:02:12.347470,SD030.jpg,0,10817,18-29,2023-10-27_19h55.28.875,Recall,2021.2.3,59.98940586009304,
,DD038.jpg,0,FF038.jpg,0,,,,,0,18,18,37,imgFunc,9,NA,4.607586800120771,417.36143869999796,422.0663055595942,2023-10-27 20:02:12.354453,2023-10-27 20:02:17.050641,DD038.jpg,0,10817,18-29,2023-10-27_19h55.28.875,Recall,2021.2.3,59.98940586009304,
,L_DD502.jpg,1,L_FF502.jpg,1,,,,,0,19,19,41,imgFunc,9,NA,2.594254700001329,422.06286040041596,424.74628305993974,2023-10-27 20:02:17.059619,2023-10-27 20:02:19.735947,L_DD502.jpg,1,10817,18-29,2023-10-27_19h55.28.875,Recall,2021.2.3,59.98940586009304,
,SD034.jpg,0,MF034.jpg,0,,,,,0,20,20,83,imgFunc,1,NA,5.117472300305963,424.7476898999885,429.95307496003807,2023-10-27 20:02:19.742930,2023-10-27 20:02:24.939809,SD034.jpg,0,10817,18-29,2023-10-27_19h55.28.875,Recall,2021.2.3,59.98940586009304,
,L_DD501.jpg,1,L_FF501.jpg,1,,,,,0,21,21,40,imgFunc,0,NA,1.9977557002566755,429.9553322000429,432.0387287600897,2023-10-27 20:02:24.948787,2023-10-27 20:02:27.025010,L_DD501.jpg,1,10817,18-29,2023-10-27_19h55.28.875,Recall,2021.2.3,59.98940586009304,
,SD022.jpg,0,MF022.jpg,0,,,,,0,22,22,71,imgFunc,9,NA,2.011803100351244,432.04533110000193,434.1501196594909,2023-10-27 20:02:27.038974,2023-10-27 20:02:29.142703,SD022.jpg,0,10817,18-29,2023-10-27_19h55.28.875,Recall,2021.2.3,59.98940586009304,
,SD017.jpg,0,MF017.jpg,0,,,,,0,23,23,66,imgFunc,9,NA,3.8320212000980973,434.1531990002841,438.0740942596458,2023-10-27 20:02:29.149686,2023-10-27 20:02:33.062211,SD017.jpg,0,10817,18-29,2023-10-27_19h55.28.875,Recall,2021.2.3,59.98940586009304,
,L_SD509.jpg,1,L_MF509.jpg,1,,,,,0,24,24,98,imgFunc,1,NA,1.662492800038308,438.07444540038705,439.8274266603403,2023-10-27 20:02:33.069194,2023-10-27 20:02:34.813229,L_SD509.jpg,1,10817,18-29,2023-10-27_19h55.28.875,Recall,2021.2.3,59.98940586009304,
,SD038.jpg,0,MF038.jpg,0,,,,,0,25,25,87,imgFunc,0,NA,1.8738607000559568,439.8232462001033,441.7925976603292,2023-10-27 20:02:34.821210,2023-10-27 20:02:36.781778,SD038.jpg,0,10817,18-29,2023-10-27_19h55.28.875,Recall,2021.2.3,59.98940586009304,
,L_DD505.jpg,1,L_FF505.jpg,1,,,,,0,26,26,44,imgFunc,0,NA,1.8097771001048386,441.7994016003795,443.70225046016276,2023-10-27 20:02:36.788761,2023-10-27 20:02:38.683153,L_DD505.jpg,1,10817,18-29,2023-10-27_19h55.28.875,Recall,2021.2.3,59.98940586009304,
,SD037.jpg,0,MF037.jpg,0,,,,,0,27,27,86,imgFunc,9,NA,1.962770799640566,443.6943211001344,445.7473624595441,2023-10-27 20:02:38.690136,2023-10-27 20:02:40.734283,SD037.jpg,0,10817,18-29,2023-10-27_19h55.28.875,Recall,2021.2.3,59.98940586009304,
,DD015.jpg,0,FF015.jpg,0,,,,,0,28,28,14,imgFunc,0,NA,3.2188647999428213,445.742289500311,449.0460061603226,2023-10-27 20:02:40.742292,2023-10-27 20:02:44.037082,DD015.jpg,0,10817,18-29,2023-10-27_19h55.28.875,Recall,2021.2.3,59.98940586009304,
,DD020.jpg,0,FF020.jpg,0,,,,,0,29,29,19,imgFunc,9,NA,2.9489759001880884,449.05217030039057,452.10550726018846,2023-10-27 20:02:44.044065,2023-10-27 20:02:47.089197,DD020.jpg,0,10817,18-29,2023-10-27_19h55.28.875,Recall,2021.2.3,59.98940586009304,
,SD026.jpg,0,MF026.jpg,0,,,,,0,30,30,75,imgFunc,0,NA,1.035853300243616,452.10128770023584,453.23688586009666,2023-10-27 20:02:47.096180,2023-10-27 20:02:48.223202,SD026.jpg,0,10817,18-29,2023-10-27_19h55.28.875,Recall,2021.2.3,59.98940586009304,
,SD019.jpg,0,MF019.jpg,0,,,,,0,31,31,68,imgFunc,9,NA,2.254202099982649,453.24299160018563,455.5841773604043,2023-10-27 20:02:48.236207,2023-10-27 20:02:50.574778,SD019.jpg,0,10817,18-29,2023-10-27_19h55.28.875,Recall,2021.2.3,59.98940586009304,
,SD007.jpg,0,MF007.jpg,0,,,,,0,32,32,56,imgFunc,9,NA,1.2361139999702573,455.5811654003337,456.90068066027015,2023-10-27 20:02:50.581761,2023-10-27 20:02:51.892752,SD007.jpg,0,10817,18-29,2023-10-27_19h55.28.875,Recall,2021.2.3,59.98940586009304,
,SD009.jpg,0,MF009.jpg,0,,,,,0,33,33,58,imgFunc,1,NA,1.8740245001390576,456.9030862003565,458.87273456016555,2023-10-27 20:02:51.899735,2023-10-27 20:02:53.860847,SD009.jpg,0,10817,18-29,2023-10-27_19h55.28.875,Recall,2021.2.3,59.98940586009304,
,DD010.jpg,0,FF010.jpg,0,,,,,0,34,34,9,imgFunc,1,NA,1.432975399773568,458.8719742000103,460.39131216006353,2023-10-27 20:02:53.867830,2023-10-27 20:02:55.378370,DD010.jpg,0,10817,18-29,2023-10-27_19h55.28.875,Recall,2021.2.3,59.98940586009304,
,DD005.jpg,0,FF005.jpg,0,,,,,0,35,35,4,imgFunc,9,NA,1.3852818999439478,460.39188710041344,461.87782995961607,2023-10-27 20:02:55.385354,2023-10-27 20:02:56.862846,DD005.jpg,0,10817,18-29,2023-10-27_19h55.28.875,Recall,2021.2.3,59.98940586009304,
,DD026.jpg,0,FF026.jpg,0,,,,,0,36,36,25,imgFunc,0,NA,1.542422499973327,461.8826597002335,463.5043928604573,2023-10-27 20:02:56.876810,2023-10-27 20:02:58.497325,DD026.jpg,0,10817,18-29,2023-10-27_19h55.28.875,Recall,2021.2.3,59.98940586009304,
,SD039.jpg,0,MF039.jpg,0,,,,,0,37,37,88,imgFunc,0,NA,1.8053552997298539,463.50778890028596,465.41090025985613,2023-10-27 20:02:58.504308,2023-10-27 20:03:00.398458,SD039.jpg,0,10817,18-29,2023-10-27_19h55.28.875,Recall,2021.2.3,59.98940586009304,
,SD027.jpg,0,MF027.jpg,0,,,,,0,38,38,76,imgFunc,0,NA,1.990549299865961,465.4106556000188,467.49700136017054,2023-10-27 20:03:00.405439,2023-10-27 20:03:02.483339,SD027.jpg,0,10817,18-29,2023-10-27_19h55.28.875,Recall,2021.2.3,59.98940586009304,
,SD029.jpg,0,MF029.jpg,0,,,,,0,39,39,78,imgFunc,9,NA,2.540994899813086,467.49218920012936,470.12926705973223,2023-10-27 20:03:02.490323,2023-10-27 20:03:05.118826,SD029.jpg,0,10817,18-29,2023-10-27_19h55.28.875,Recall,2021.2.3,59.98940586009304,
,DD025.jpg,0,FF025.jpg,0,,,,,0,40,40,24,imgFunc,2,NA,2.127176800277084,470.12995890015736,472.34965415950865,2023-10-27 20:03:05.125809,2023-10-27 20:03:07.336954,DD025.jpg,0,10817,18-29,2023-10-27_19h55.28.875,Recall,2021.2.3,59.98940586009304,
,DD002.jpg,0,FF002.jpg,0,,,,,0,41,41,1,imgFunc,2,NA,1.4147425000555813,472.3543778001331,473.8573496597819,2023-10-27 20:03:07.351916,2023-10-27 20:03:08.854625,DD002.jpg,0,10817,18-29,2023-10-27_19h55.28.875,Recall,2021.2.3,59.98940586009304,
,DD004.jpg,0,FF004.jpg,0,,,,,0,42,42,3,imgFunc,1,NA,1.9382046000100672,473.8628472001292,475.89891246007755,2023-10-27 20:03:08.861608,2023-10-27 20:03:10.889364,DD004.jpg,0,10817,18-29,2023-10-27_19h55.28.875,Recall,2021.2.3,59.98940586009304,
,DD037.jpg,0,FF037.jpg,0,,,,,0,43,43,36,imgFunc,0,NA,1.6143110999837518,475.89883810002357,477.60140646016225,2023-10-27 20:03:10.896362,2023-10-27 20:03:12.590469,DD037.jpg,0,10817,18-29,2023-10-27_19h55.28.875,Recall,2021.2.3,59.98940586009304,
,SD025.jpg,0,MF025.jpg,0,,,,,0,44,44,74,imgFunc,0,NA,0.5944146001711488,477.5984893999994,478.28343575960025,2023-10-27 20:03:12.597473,2023-10-27 20:03:13.273932,SD025.jpg,0,10817,18-29,2023-10-27_19h55.28.875,Recall,2021.2.3,59.98940586009304,
,DD028.jpg,0,FF028.jpg,0,,,,,0,45,45,27,imgFunc,9,NA,0.9516324000433087,478.28950910037383,479.341564160306,2023-10-27 20:03:13.281910,2023-10-27 20:03:14.324999,DD028.jpg,0,10817,18-29,2023-10-27_19h55.28.875,Recall,2021.2.3,59.98940586009304,
,L_SD510.jpg,1,L_MF510.jpg,1,,,,,0,46,46,99,imgFunc,0,NA,1.1383315999992192,479.3348569003865,480.57067626016214,2023-10-27 20:03:14.332593,2023-10-27 20:03:15.559455,L_SD510.jpg,1,10817,18-29,2023-10-27_19h55.28.875,Recall,2021.2.3,59.98940586009304,
,SD032.jpg,0,MF032.jpg,0,,,,,0,47,47,81,imgFunc,0,NA,1.1272005001083016,480.5699271000922,481.7889657597989,2023-10-27 20:03:15.566438,2023-10-27 20:03:16.776949,SD032.jpg,0,10817,18-29,2023-10-27_19h55.28.875,Recall,2021.2.3,59.98940586009304,
,SD024.jpg,0,MF024.jpg,0,,,,,0,48,48,73,imgFunc,0,NA,1.160659700166434,481.7846092004329,483.037464460358,2023-10-27 20:03:16.783932,2023-10-27 20:03:18.028062,SD024.jpg,0,10817,18-29,2023-10-27_19h55.28.875,Recall,2021.2.3,59.98940586009304,
,SD008.jpg,0,MF008.jpg,0,,,,,0,49,49,57,imgFunc,9,NA,2.2018915000371635,483.0390600003302,485.32550506014377,2023-10-27 20:03:18.035045,2023-10-27 20:03:20.312642,SD008.jpg,0,10817,18-29,2023-10-27_19h55.28.875,Recall,2021.2.3,59.98940586009304,
,DD024.jpg,0,FF024.jpg,0,,,,,0,50,50,23,imgFunc,9,NA,1.382406400050968,485.3306495002471,486.8044873601757,2023-10-27 20:03:20.326607,2023-10-27 20:03:21.797374,DD024.jpg,0,10817,18-29,2023-10-27_19h55.28.875,Recall,2021.2.3,59.98940586009304,
,SD013.jpg,0,MF013.jpg,0,,,,,0,51,51,62,imgFunc,0,NA,1.2430711002089083,486.806114200037,488.1423675599508,2023-10-27 20:03:21.804357,2023-10-27 20:03:23.131766,SD013.jpg,0,10817,18-29,2023-10-27_19h55.28.875,Recall,2021.2.3,59.98940586009304,
,DD023.jpg,0,FF023.jpg,0,,,,,0,52,52,22,imgFunc,9,NA,3.2845175000838935,488.1408000001684,491.51162526011467,2023-10-27 20:03:23.138749,2023-10-27 20:03:26.500925,DD023.jpg,0,10817,18-29,2023-10-27_19h55.28.875,Recall,2021.2.3,59.98940586009304,
,SD014.jpg,0,MF014.jpg,0,,,,,0,53,53,63,imgFunc,2,NA,2.234809899702668,491.5101337004453,493.8299778602086,2023-10-27 20:03:26.507908,2023-10-27 20:03:28.819218,SD014.jpg,0,10817,18-29,2023-10-27_19h55.28.875,Recall,2021.2.3,59.98940586009304,
,DD018.jpg,0,FF018.jpg,0,,,,,0,54,54,17,imgFunc,0,NA,1.2349232002161443,493.8301760000177,495.16568665998057,2023-10-27 20:03:28.826201,2023-10-27 20:03:30.153303,DD018.jpg,0,10817,18-29,2023-10-27_19h55.28.875,Recall,2021.2.3,59.98940586009304,
,DD014.jpg,0,FF014.jpg,0,,,,,0,55,55,13,imgFunc,9,NA,2.5632692999206483,495.1738627003506,497.8299284600653,2023-10-27 20:03:30.167267,2023-10-27 20:03:32.822266,DD014.jpg,0,10817,18-29,2023-10-27_19h55.28.875,Recall,2021.2.3,59.98940586009304,
,L_SD502.jpg,1,L_MF502.jpg,1,,,,,0,56,56,91,imgFunc,2,NA,5.04263240005821,497.83051940007135,502.96892766002566,2023-10-27 20:03:32.829249,2023-10-27 20:03:37.958880,L_SD502.jpg,1,10817,18-29,2023-10-27_19h55.28.875,Recall,2021.2.3,59.98940586009304,
,DD032.jpg,0,FF032.jpg,0,,,,,0,57,57,31,imgFunc,9,NA,1.6266153999604285,502.974457600154,504.6908935601823,2023-10-27 20:03:37.967858,2023-10-27 20:03:39.677063,DD032.jpg,0,10817,18-29,2023-10-27_19h55.28.875,Recall,2021.2.3,59.98940586009304,
,SD016.jpg,0,MF016.jpg,0,,,,,0,58,58,65,imgFunc,0,NA,1.4994835001416504,504.68563350010663,506.27151565952227,2023-10-27 20:03:39.684046,2023-10-27 20:03:41.261425,SD016.jpg,0,10817,18-29,2023-10-27_19h55.28.875,Recall,2021.2.3,59.98940586009304,
,DD008.jpg,0,FF008.jpg,0,,,,,0,59,59,7,imgFunc,0,NA,4.912051599938422,506.27312310039997,511.27785415994003,2023-10-27 20:03:41.268408,2023-10-27 20:03:46.264857,DD008.jpg,0,10817,18-29,2023-10-27_19h55.28.875,Recall,2021.2.3,59.98940586009304,
,SD006.jpg,0,MF006.jpg,0,,,,,0,60,60,55,imgFunc,0,NA,1.3815870000980794,511.2914833002724,512.7598513602279,2023-10-27 20:03:46.280816,2023-10-27 20:03:47.749333,SD006.jpg,0,10817,18-29,2023-10-27_19h55.28.875,Recall,2021.2.3,59.98940586009304,
,SD002.jpg,0,MF002.jpg,0,,,,,0,61,61,51,imgFunc,9,NA,1.7004154999740422,512.7565121003427,514.5428105606697,2023-10-27 20:03:47.756316,2023-10-27 20:03:49.533995,SD002.jpg,0,10817,18-29,2023-10-27_19h55.28.875,Recall,2021.2.3,59.98940586009304,
,DD021.jpg,0,FF021.jpg,0,,,,,0,62,62,20,imgFunc,0,NA,1.8176385997794569,514.5435096002184,516.4467215603217,2023-10-27 20:03:49.540978,2023-10-27 20:03:51.435536,DD021.jpg,0,10817,18-29,2023-10-27_19h55.28.875,Recall,2021.2.3,59.98940586009304,
,DD027.jpg,0,FF027.jpg,0,,,,,0,63,63,26,imgFunc,9,NA,1.86828269995749,516.4448705003597,518.3978210599162,2023-10-27 20:03:51.442519,2023-10-27 20:03:53.386792,DD027.jpg,0,10817,18-29,2023-10-27_19h55.28.875,Recall,2021.2.3,59.98940586009304,
,DD003.jpg,0,FF003.jpg,0,,,,,0,64,64,2,imgFunc,9,NA,1.6451742998324335,518.4039435000159,520.1568131600507,2023-10-27 20:03:53.393775,2023-10-27 20:03:55.137835,DD003.jpg,0,10817,18-29,2023-10-27_19h55.28.875,Recall,2021.2.3,59.98940586009304,
,DD001.jpg,0,FF001.jpg,0,,,,,0,65,65,0,imgFunc,0,NA,1.3683404996991158,520.1450673001818,521.5979824601673,2023-10-27 20:03:55.144818,2023-10-27 20:03:56.589045,DD001.jpg,0,10817,18-29,2023-10-27_19h55.28.875,Recall,2021.2.3,59.98940586009304,
,L_SD505.jpg,1,L_MF505.jpg,1,,,,,0,66,66,94,imgFunc,1,NA,2.6266415999270976,521.5985306003131,524.3190808598883,2023-10-27 20:03:56.596028,2023-10-27 20:03:59.307658,L_SD505.jpg,1,10817,18-29,2023-10-27_19h55.28.875,Recall,2021.2.3,59.98940586009304,
,DD035.jpg,0,FF035.jpg,0,,,,,0,67,67,34,imgFunc,0,NA,2.1342138000763953,524.3229949004017,526.5594350602478,2023-10-27 20:03:59.314641,2023-10-27 20:04:01.542475,DD035.jpg,0,10817,18-29,2023-10-27_19h55.28.875,Recall,2021.2.3,59.98940586009304,
,DD030.jpg,0,FF030.jpg,0,,,,,0,68,68,29,imgFunc,9,NA,1.630957200191915,526.5542051000521,528.2734636599198,2023-10-27 20:04:01.549458,2023-10-27 20:04:03.260564,DD030.jpg,0,10817,18-29,2023-10-27_19h55.28.875,Recall,2021.2.3,59.98940586009304,
,SD003.jpg,0,MF003.jpg,0,,,,,0,69,69,52,imgFunc,9,NA,1.3777346001006663,528.2790945000015,529.7533563603647,2023-10-27 20:04:03.273532,2023-10-27 20:04:04.745038,SD003.jpg,0,10817,18-29,2023-10-27_19h55.28.875,Recall,2021.2.3,59.98940586009304,
,L_SD503.jpg,1,L_MF503.jpg,1,,,,,0,70,70,92,imgFunc,2,NA,2.0728839999064803,529.7520860000513,531.9217203599401,2023-10-27 20:04:04.752018,2023-10-27 20:04:06.913063,L_SD503.jpg,1,10817,18-29,2023-10-27_19h55.28.875,Recall,2021.2.3,59.98940586009304,
,DD011.jpg,0,FF011.jpg,0,,,,,0,71,71,10,imgFunc,9,NA,2.275404400192201,531.925796800293,534.295833659824,2023-10-27 20:04:06.920046,2023-10-27 20:04:09.281372,DD011.jpg,0,10817,18-29,2023-10-27_19h55.28.875,Recall,2021.2.3,59.98940586009304,
,L_SD501.jpg,1,L_MF501.jpg,1,,,,,0,72,72,90,imgFunc,0,NA,1.1041874000802636,534.2888113004155,535.4745541606098,2023-10-27 20:04:09.288355,2023-10-27 20:04:10.465805,L_SD501.jpg,1,10817,18-29,2023-10-27_19h55.28.875,Recall,2021.2.3,59.98940586009304,
,DD009.jpg,0,FF009.jpg,0,,,,,0,73,73,8,imgFunc,2,NA,2.0774184996262193,535.4757634000853,537.6455544596538,2023-10-27 20:04:10.472788,2023-10-27 20:04:12.633894,DD009.jpg,0,10817,18-29,2023-10-27_19h55.28.875,Recall,2021.2.3,59.98940586009304,
,SD004.jpg,0,MF004.jpg,0,,,,,0,74,74,53,imgFunc,0,NA,3.651476399973035,537.6533998004161,541.3927435600199,2023-10-27 20:04:12.647858,2023-10-27 20:04:16.386060,SD004.jpg,0,10817,18-29,2023-10-27_19h55.28.875,Recall,2021.2.3,59.98940586009304,
,DD031.jpg,0,FF031.jpg,0,,,,,0,75,75,30,imgFunc,9,NA,1.3388442997820675,541.398105500266,542.8331609605812,2023-10-27 20:04:16.394066,2023-10-27 20:04:17.820337,DD031.jpg,0,10817,18-29,2023-10-27_19h55.28.875,Recall,2021.2.3,59.98940586009304,
,L_SD507.jpg,1,L_MF507.jpg,1,,,,,0,76,76,96,imgFunc,0,NA,2.275455200113356,542.8375942003913,545.2024424602278,2023-10-27 20:04:17.830309,2023-10-27 20:04:20.189281,L_SD507.jpg,1,10817,18-29,2023-10-27_19h55.28.875,Recall,2021.2.3,59.98940586009304,
,SD023.jpg,0,MF023.jpg,0,,,,,0,77,77,72,imgFunc,9,NA,2.4593567000702024,545.197864100337,547.7509791599587,2023-10-27 20:04:20.196264,2023-10-27 20:04:22.741012,SD023.jpg,0,10817,18-29,2023-10-27_19h55.28.875,Recall,2021.2.3,59.98940586009304,
,DD007.jpg,0,FF007.jpg,0,,,,,0,78,78,6,imgFunc,9,NA,1.179609699640423,547.7573706000112,549.0399014600553,2023-10-27 20:04:22.750022,2023-10-27 20:04:24.025368,DD007.jpg,0,10817,18-29,2023-10-27_19h55.28.875,Recall,2021.2.3,59.98940586009304,
,SD012.jpg,0,MF012.jpg,0,,,,,0,79,79,61,imgFunc,0,NA,2.4426475996151567,549.04652430024,551.5851962598972,2023-10-27 20:04:24.040330,2023-10-27 20:04:26.577201,SD012.jpg,0,10817,18-29,2023-10-27_19h55.28.875,Recall,2021.2.3,59.98940586009304,
,L_DD509.jpg,1,L_FF509.jpg,1,,,,,0,80,80,48,imgFunc,1,NA,3.2167644002474844,551.5844748001546,554.8886220604181,2023-10-27 20:04:26.584185,2023-10-27 20:04:29.879641,L_DD509.jpg,1,10817,18-29,2023-10-27_19h55.28.875,Recall,2021.2.3,59.98940586009304,
,L_DD510.jpg,1,L_FF510.jpg,1,,,,,0,81,81,49,imgFunc,9,NA,2.712163500022143,554.8890972002409,557.692253460642,2023-10-27 20:04:29.886624,2023-10-27 20:04:32.681631,L_DD510.jpg,1,10817,18-29,2023-10-27_19h55.28.875,Recall,2021.2.3,59.98940586009304,
,SD015.jpg,0,MF015.jpg,0,,,,,0,82,82,64,imgFunc,0,NA,1.0867769001051784,557.6903015002608,558.8758760602213,2023-10-27 20:04:32.688615,2023-10-27 20:04:33.865758,SD015.jpg,0,10817,18-29,2023-10-27_19h55.28.875,Recall,2021.2.3,59.98940586009304,
,SD011.jpg,0,MF011.jpg,0,,,,,0,83,83,60,imgFunc,9,NA,1.8623997000977397,558.8826083000749,560.8509740601294,2023-10-27 20:04:33.873761,2023-10-27 20:04:35.833809,SD011.jpg,0,10817,18-29,2023-10-27_19h55.28.875,Recall,2021.2.3,59.98940586009304,
,SD005.jpg,0,MF005.jpg,0,,,,,0,84,84,54,imgFunc,0,NA,2.40192580036819,560.839361499995,563.3261913601309,2023-10-27 20:04:35.840793,2023-10-27 20:04:38.319061,SD005.jpg,0,10817,18-29,2023-10-27_19h55.28.875,Recall,2021.2.3,59.98940586009304,
,DD012.jpg,0,FF012.jpg,0,,,,,0,85,85,11,imgFunc,9,NA,2.633575700223446,563.3276724000461,566.0475420597941,2023-10-27 20:04:38.326044,2023-10-27 20:04:41.037475,DD012.jpg,0,10817,18-29,2023-10-27_19h55.28.875,Recall,2021.2.3,59.98940586009304,
,L_SD504.jpg,1,L_MF504.jpg,1,,,,,0,86,86,93,imgFunc,9,NA,1.2802761001512408,566.0490462002344,567.417838559486,2023-10-27 20:04:41.045357,2023-10-27 20:04:42.405257,L_SD504.jpg,1,10817,18-29,2023-10-27_19h55.28.875,Recall,2021.2.3,59.98940586009304,
,SD033.jpg,0,MF033.jpg,0,,,,,0,87,87,82,imgFunc,9,NA,0.7272833003662527,567.4176361002028,568.235975060612,2023-10-27 20:04:42.412240,2023-10-27 20:04:43.221715,SD033.jpg,0,10817,18-29,2023-10-27_19h55.28.875,Recall,2021.2.3,59.98940586009304,
,SD018.jpg,0,MF018.jpg,0,,,,,0,88,88,67,imgFunc,1,NA,1.379708600230515,568.2375256000087,569.69514245959,2023-10-27 20:04:43.235679,2023-10-27 20:04:44.690260,SD018.jpg,0,10817,18-29,2023-10-27_19h55.28.875,Recall,2021.2.3,59.98940586009304,
,L_DD507.jpg,1,L_FF507.jpg,1,,,,,0,89,89,46,imgFunc,2,NA,2.055722000077367,569.6971909003332,571.849689560011,2023-10-27 20:04:44.697243,2023-10-27 20:04:46.841483,L_DD507.jpg,1,10817,18-29,2023-10-27_19h55.28.875,Recall,2021.2.3,59.98940586009304,
,L_DD503.jpg,1,L_FF503.jpg,1,,,,,0,90,90,42,imgFunc,0,NA,2.0570859001018107,571.8479570001364,574.001111259684,2023-10-27 20:04:46.848464,2023-10-27 20:04:48.992545,L_DD503.jpg,1,10817,18-29,2023-10-27_19h55.28.875,Recall,2021.2.3,59.98940586009304,
,SD001.jpg,0,MF001.jpg,0,,,,,0,91,91,50,imgFunc,9,NA,1.1041365000419319,574.0010559000075,575.2035474595614,2023-10-27 20:04:49.000485,2023-10-27 20:04:50.194141,SD001.jpg,0,10817,18-29,2023-10-27_19h55.28.875,Recall,2021.2.3,59.98940586009304,
,DD022.jpg,0,FF022.jpg,0,,,,,0,92,92,21,imgFunc,0,NA,2.3893602997995913,575.2038799002767,577.6902301600203,2023-10-27 20:04:50.201124,2023-10-27 20:04:52.679184,DD022.jpg,0,10817,18-29,2023-10-27_19h55.28.875,Recall,2021.2.3,59.98940586009304,
,SD035.jpg,0,MF035.jpg,0,,,,,0,93,93,84,imgFunc,0,NA,1.0245369002223015,577.6965752001852,578.801308860071,2023-10-27 20:04:52.694146,2023-10-27 20:04:53.796886,SD035.jpg,0,10817,18-29,2023-10-27_19h55.28.875,Recall,2021.2.3,59.98940586009304,
,DD017.jpg,0,FF017.jpg,0,,,,,0,94,94,16,imgFunc,0,NA,0.7089049997739494,578.8042880999856,579.6065778597258,2023-10-27 20:04:53.803869,2023-10-27 20:04:54.597537,DD017.jpg,0,10817,18-29,2023-10-27_19h55.28.875,Recall,2021.2.3,59.98940586009304,
,SD020.jpg,0,MF020.jpg,0,,,,,0,95,95,69,imgFunc,9,NA,0.98730059992522,579.6139314002357,580.6993187600747,2023-10-27 20:04:54.604521,2023-10-27 20:04:55.681337,SD020.jpg,0,10817,18-29,2023-10-27_19h55.28.875,Recall,2021.2.3,59.98940586009304,
,DD006.jpg,0,FF006.jpg,0,,,,,0,96,96,5,imgFunc,2,NA,1.957973700016737,580.6911952001974,582.7439867598005,2023-10-27 20:04:55.688320,2023-10-27 20:04:57.732863,DD006.jpg,0,10817,18-29,2023-10-27_19h55.28.875,Recall,2021.2.3,59.98940586009304,
,SD021.jpg,0,MF021.jpg,0,,,,,0,97,97,70,imgFunc,0,NA,3.653427400160581,582.7398475003429,586.4775799605995,2023-10-27 20:04:57.739846,2023-10-27 20:05:01.469147,SD021.jpg,0,10817,18-29,2023-10-27_19h55.28.875,Recall,2021.2.3,59.98940586009304,
,SD036.jpg,0,MF036.jpg,0,,,,,0,98,98,85,imgFunc,2,NA,1.6649129996076226,586.4883473003283,588.24198756041,2023-10-27 20:05:01.484109,2023-10-27 20:05:03.236717,SD036.jpg,0,10817,18-29,2023-10-27_19h55.28.875,Recall,2021.2.3,59.98940586009304,
,DD019.jpg,0,FF019.jpg,0,,,,,0,99,99,18,imgFunc,9,NA,2.5364832999184728,588.2487384001724,590.8853894602507,2023-10-27 20:05:03.243722,2023-10-27 20:05:05.872190,DD019.jpg,0,10817,18-29,2023-10-27_19h55.28.875,Recall,2021.2.3,59.98940586009304,
