instrText,stimDoor,stimDoorLure,stimFace,stimFaceLure,Instructions.thisRepN,Instructions.thisTrialN,Instructions.thisN,Instructions.thisIndex,Trials.thisRepN,Trials.thisTrialN,Trials.thisN,Trials.thisIndex,Func,Keys,Text,RespTime,Onset,Offset,SystemTime_Start,SystemTime_Stop,Stim,Lure,Participant*,Age,date,expName,psychopyVersion,frameRate,
"In the earlier Feedback Games, you chose which doors contained a prize, and which peers liked you. 

You then saw positive or negative feedback (green check mark or red X) from the door or peer you selected.

You will now see a series of doors and peers, some of which you saw during the earlier Feedback Games, and some that you have never seen before.

Please press the spacebar to continue.",,,,,0,0,0,0,,,,,instrFunc,space,"In the earlier Feedback Games, you chose which doors contained a prize, and which peers liked you. 

You then saw positive or negative feedback (green check mark or red X) from the door or peer you selected.

You will now see a series of doors and peers, some of which you saw during the earlier Feedback Games, and some that you have never seen before.

Please press the spacebar to continue.",20.57353560003685,14.250480999995489,34.881301359971985,2023-03-29 14:55:38.452043,2023-03-29 14:55:59.066672,,,10529,40-69,2023-03-29_14h55.36.173,Recall,2021.2.3,59.95103200804632,
"For doors/peers that you remember selecting and getting feedback from, your job is to RECALL what feedback you received. 

Press '1' if you recall positive feedback. 

Press '2' if you recall negative feedback

Press the spacebar to continue.",,,,,0,1,1,1,,,,,instrFunc,space,"For doors/peers that you remember selecting and getting feedback from, your job is to RECALL what feedback you received. 

Press '1' if you recall positive feedback. 

Press '2' if you recall negative feedback

Press the spacebar to continue.",15.591645199980121,34.84810000000289,50.49033200996928,2023-03-29 14:55:59.067672,2023-03-29 14:56:14.694313,,,10529,40-69,2023-03-29_14h55.36.173,Recall,2021.2.3,59.95103200804632,
"For doors/peers that you don't remember getting feedback from, your job is to PREDICT what feedback you WOULD HAVE received.

Press '9' if you predict positive feedback.

Press '0' if you predict negative feedback. 

Please press the spacebar to continue.",,,,,0,2,2,2,,,,,instrFunc,space,"For doors/peers that you don't remember getting feedback from, your job is to PREDICT what feedback you WOULD HAVE received.

Press '9' if you predict positive feedback.

Press '0' if you predict negative feedback. 

Please press the spacebar to continue.",33.90870410000207,50.47513670002809,84.43074171006447,2023-03-29 14:56:14.695314,2023-03-29 14:56:48.635392,,,10529,40-69,2023-03-29_14h55.36.173,Recall,2021.2.3,59.95103200804632,
"This task is self-paced, and the prompts will always stay on the screen so that you know which buttons to press.

On the next screen we will show you what those prompts look like, so that you know exactly what to expect. 

You will start with either doors or peers, and then switch halfway through. 

Please press the spacebar to continue.",,,,,0,3,3,3,,,,,instrFunc,space,"This task is self-paced, and the prompts will always stay on the screen so that you know which buttons to press.

On the next screen we will show you what those prompts look like, so that you know exactly what to expect. 

You will start with either doors or peers, and then switch halfway through. 

Please press the spacebar to continue.",14.192278599948622,84.41535650001606,98.65679761004867,2023-03-29 14:56:48.636392,2023-03-29 14:57:02.862203,,,10529,40-69,2023-03-29_14h55.36.173,Recall,2021.2.3,59.95103200804632,
,,,,,,,,,,,,,imgtextFunc,space,"Here is what the screen will look like while you make your ratings.
The green circles remind you to press 1 or 9 for positive feedback.
The red circles remind you to press 2 or 0 for positive feedback.









Please let the experimenter know if you have any questions.

Whenever you're ready, press the spacebar to start the task.",0.18041979998815805,98.77134680002928,99.10652971005766,2023-03-29 14:57:02.869186,2023-03-29 14:57:03.196192,,,10529,40-69,2023-03-29_14h55.36.173,Recall,2021.2.3,59.95103200804632,
,DD008.jpg,0,FF008.jpg,0,,,,,0,0,0,7,imgFunc,1,NA,12.615224000008311,99.11261519999243,111.86240702995565,2023-03-29 14:57:03.233924,2023-03-29 14:57:15.971506,FF008.jpg,0,10529,40-69,2023-03-29_14h55.36.173,Recall,2021.2.3,59.95103200804632,
,L_SD502.jpg,1,L_MF502.jpg,1,,,,,0,1,1,91,imgFunc,9,NA,11.825963199953549,111.85389670002041,123.80782341008307,2023-03-29 14:57:15.981481,2023-03-29 14:57:27.930265,L_MF502.jpg,1,10529,40-69,2023-03-29_14h55.36.173,Recall,2021.2.3,59.95103200804632,
,DD001.jpg,0,FF001.jpg,0,,,,,0,2,2,0,imgFunc,2,NA,4.643177999998443,123.82847320003202,128.59974791004788,2023-03-29 14:57:27.946225,2023-03-29 14:57:32.717008,FF001.jpg,0,10529,40-69,2023-03-29_14h55.36.173,Recall,2021.2.3,59.95103200804632,
,SD013.jpg,0,MF013.jpg,0,,,,,0,3,3,62,imgFunc,1,NA,3.9449268999742344,128.56691809999757,132.60147041000891,2023-03-29 14:57:32.725997,2023-03-29 14:57:36.753198,MF013.jpg,0,10529,40-69,2023-03-29_14h55.36.173,Recall,2021.2.3,59.95103200804632,
,SD018.jpg,0,MF018.jpg,0,,,,,0,4,4,67,imgFunc,0,NA,5.513944600010291,132.60574199998518,138.2281123099965,2023-03-29 14:57:36.760181,2023-03-29 14:57:42.373940,MF018.jpg,0,10529,40-69,2023-03-29_14h55.36.173,Recall,2021.2.3,59.95103200804632,
,SD039.jpg,0,MF039.jpg,0,,,,,0,5,5,88,imgFunc,9,NA,4.057757699978538,138.25395330000902,142.43765800999245,2023-03-29 14:57:42.382918,2023-03-29 14:57:46.560164,MF039.jpg,0,10529,40-69,2023-03-29_14h55.36.173,Recall,2021.2.3,59.95103200804632,
,SD035.jpg,0,MF035.jpg,0,,,,,0,6,6,84,imgFunc,2,NA,6.1394966000225395,142.41230279998854,148.65132150996942,2023-03-29 14:57:46.568050,2023-03-29 14:57:52.798013,MF035.jpg,0,10529,40-69,2023-03-29_14h55.36.173,Recall,2021.2.3,59.95103200804632,
,SD016.jpg,0,MF016.jpg,0,,,,,0,7,7,65,imgFunc,9,NA,5.51342889998341,148.67837540002074,154.3141722200089,2023-03-29 14:57:52.815003,2023-03-29 14:57:58.435371,MF016.jpg,0,10529,40-69,2023-03-29_14h55.36.173,Recall,2021.2.3,59.95103200804632,
,SD017.jpg,0,MF017.jpg,0,,,,,0,8,8,66,imgFunc,2,NA,3.4892652000417,154.28650659997948,157.8703168099746,2023-03-29 14:57:58.443984,2023-03-29 14:58:02.021268,MF017.jpg,0,10529,40-69,2023-03-29_14h55.36.173,Recall,2021.2.3,59.95103200804632,
,SD038.jpg,0,MF038.jpg,0,,,,,0,9,9,87,imgFunc,1,NA,2.8042738999938592,157.86738740000874,160.77095751004526,2023-03-29 14:58:02.028251,2023-03-29 14:58:04.923272,MF038.jpg,0,10529,40-69,2023-03-29_14h55.36.173,Recall,2021.2.3,59.95103200804632,
,L_DD510.jpg,1,L_FF510.jpg,1,,,,,0,10,10,49,imgFunc,2,NA,2.822796200052835,160.78503720002482,163.72178941004677,2023-03-29 14:58:04.931187,2023-03-29 14:58:07.858773,L_FF510.jpg,1,10529,40-69,2023-03-29_14h55.36.173,Recall,2021.2.3,59.95103200804632,
,L_DD506.jpg,1,L_FF506.jpg,1,,,,,0,11,11,45,imgFunc,0,NA,3.287418299994897,163.7362479000003,167.15632911003195,2023-03-29 14:58:07.866753,2023-03-29 14:58:11.277873,L_FF506.jpg,1,10529,40-69,2023-03-29_14h55.36.173,Recall,2021.2.3,59.95103200804632,
,SD001.jpg,0,MF001.jpg,0,,,,,0,12,12,50,imgFunc,0,NA,7.161302599997725,167.12648219999392,174.38292080996325,2023-03-29 14:58:11.284856,2023-03-29 14:58:18.533045,MF001.jpg,0,10529,40-69,2023-03-29_14h55.36.173,Recall,2021.2.3,59.95103200804632,
,SD012.jpg,0,MF012.jpg,0,,,,,0,13,13,61,imgFunc,9,NA,7.599157000018749,174.38453849998768,182.08774211001582,2023-03-29 14:58:18.542022,2023-03-29 14:58:26.238563,MF012.jpg,0,10529,40-69,2023-03-29_14h55.36.173,Recall,2021.2.3,59.95103200804632,
,DD024.jpg,0,FF024.jpg,0,,,,,0,14,14,23,imgFunc,2,NA,3.9991299000103027,182.12041730002966,186.25392771000043,2023-03-29 14:58:26.247541,2023-03-29 14:58:30.374729,FF024.jpg,0,10529,40-69,2023-03-29_14h55.36.173,Recall,2021.2.3,59.95103200804632,
,L_SD510.jpg,1,L_MF510.jpg,1,,,,,0,15,15,99,imgFunc,9,NA,3.1923233999987133,186.23141280002892,189.53407141001662,2023-03-29 14:58:30.382669,2023-03-29 14:58:33.677127,L_MF510.jpg,1,10529,40-69,2023-03-29_14h55.36.173,Recall,2021.2.3,59.95103200804632,
,SD033.jpg,0,MF033.jpg,0,,,,,0,16,16,82,imgFunc,2,NA,6.594154599995818,189.53340610000305,196.22566620999714,2023-03-29 14:58:33.691092,2023-03-29 14:58:40.381929,MF033.jpg,0,10529,40-69,2023-03-29_14h55.36.173,Recall,2021.2.3,59.95103200804632,
,L_SD505.jpg,1,L_MF505.jpg,1,,,,,0,17,17,94,imgFunc,0,NA,2.0961475999793038,196.23127719998593,198.43027261004318,2023-03-29 14:58:40.391032,2023-03-29 14:58:42.583110,L_MF505.jpg,1,10529,40-69,2023-03-29_14h55.36.173,Recall,2021.2.3,59.95103200804632,
,DD011.jpg,0,FF011.jpg,0,,,,,0,18,18,10,imgFunc,2,NA,7.00207310001133,198.42955679999432,205.51983330998337,2023-03-29 14:58:42.590106,2023-03-29 14:58:49.672088,FF011.jpg,0,10529,40-69,2023-03-29_14h55.36.173,Recall,2021.2.3,59.95103200804632,
,SD004.jpg,0,MF004.jpg,0,,,,,0,19,19,53,imgFunc,9,NA,5.63727619999554,205.53039430000354,211.26626601000316,2023-03-29 14:58:49.681065,2023-03-29 14:58:55.409441,MF004.jpg,0,10529,40-69,2023-03-29_14h55.36.173,Recall,2021.2.3,59.95103200804632,
,DD021.jpg,0,FF021.jpg,0,,,,,0,20,20,20,imgFunc,2,NA,2.439209899981506,211.27214469999308,213.82168650999665,2023-03-29 14:58:55.418195,2023-03-29 14:58:57.961146,FF021.jpg,0,10529,40-69,2023-03-29_14h55.36.173,Recall,2021.2.3,59.95103200804632,
,DD038.jpg,0,FF038.jpg,0,,,,,0,21,21,37,imgFunc,0,NA,4.478790800028946,213.824788500031,218.3985532100196,2023-03-29 14:58:57.975110,2023-03-29 14:59:02.547779,FF038.jpg,0,10529,40-69,2023-03-29_14h55.36.173,Recall,2021.2.3,59.95103200804632,
,SD032.jpg,0,MF032.jpg,0,,,,,0,22,22,81,imgFunc,9,NA,3.099462800018955,218.3961580999894,221.59806310996646,2023-03-29 14:59:02.555759,2023-03-29 14:59:05.750047,MF032.jpg,0,10529,40-69,2023-03-29_14h55.36.173,Recall,2021.2.3,59.95103200804632,
,L_SD508.jpg,1,L_MF508.jpg,1,,,,,0,23,23,97,imgFunc,0,NA,3.0225716999848373,221.60078600002453,224.72121361002792,2023-03-29 14:59:05.757030,2023-03-29 14:59:08.868388,L_MF508.jpg,1,10529,40-69,2023-03-29_14h55.36.173,Recall,2021.2.3,59.95103200804632,
,DD033.jpg,0,FF033.jpg,0,,,,,0,24,24,32,imgFunc,2,NA,7.1736300000338815,224.72201209998457,231.99376170994947,2023-03-29 14:59:08.877367,2023-03-29 14:59:16.140753,FF033.jpg,0,10529,40-69,2023-03-29_14h55.36.173,Recall,2021.2.3,59.95103200804632,
,DD029.jpg,0,FF029.jpg,0,,,,,0,25,25,28,imgFunc,1,NA,4.706292700022459,232.02139110001735,236.85582311003236,2023-03-29 14:59:16.149731,2023-03-29 14:59:20.977614,FF029.jpg,0,10529,40-69,2023-03-29_14h55.36.173,Recall,2021.2.3,59.95103200804632,
,DD004.jpg,0,FF004.jpg,0,,,,,0,26,26,3,imgFunc,2,NA,1.5637554000131786,236.827793799981,238.49307100998703,2023-03-29 14:59:20.986592,2023-03-29 14:59:22.645430,FF004.jpg,0,10529,40-69,2023-03-29_14h55.36.173,Recall,2021.2.3,59.95103200804632,
,L_DD508.jpg,1,L_FF508.jpg,1,,,,,0,27,27,47,imgFunc,1,NA,1.5782692999928258,238.49316720000934,240.16143901000032,2023-03-29 14:59:22.653410,2023-03-29 14:59:24.313393,L_FF508.jpg,1,10529,40-69,2023-03-29_14h55.36.173,Recall,2021.2.3,59.95103200804632,
,SD034.jpg,0,MF034.jpg,0,,,,,0,28,28,83,imgFunc,2,NA,3.1175613999948837,240.16196340002352,243.38213201001054,2023-03-29 14:59:24.320376,2023-03-29 14:59:27.532261,MF034.jpg,0,10529,40-69,2023-03-29_14h55.36.173,Recall,2021.2.3,59.95103200804632,
,SD025.jpg,0,MF025.jpg,0,,,,,0,29,29,74,imgFunc,2,NA,1.2586185000254773,243.39685120002832,244.76517841004534,2023-03-29 14:59:27.540241,2023-03-29 14:59:28.899903,MF025.jpg,0,10529,40-69,2023-03-29_14h55.36.173,Recall,2021.2.3,59.95103200804632,
,DD023.jpg,0,FF023.jpg,0,,,,,0,30,30,22,imgFunc,0,NA,2.2018614999833517,244.75780640001176,247.04879731003894,2023-03-29 14:59:28.912870,2023-03-29 14:59:31.201626,FF023.jpg,0,10529,40-69,2023-03-29_14h55.36.173,Recall,2021.2.3,59.95103200804632,
,SD022.jpg,0,MF022.jpg,0,,,,,0,31,31,71,imgFunc,9,NA,3.9451133999973536,247.04645309998887,251.08370360999834,2023-03-29 14:59:31.208609,2023-03-29 14:59:35.237757,MF022.jpg,0,10529,40-69,2023-03-29_14h55.36.173,Recall,2021.2.3,59.95103200804632,
,DD028.jpg,0,FF028.jpg,0,,,,,0,32,32,27,imgFunc,1,NA,2.7409308000351302,251.09047519997694,253.92745000997093,2023-03-29 14:59:35.244739,2023-03-29 14:59:38.073168,FF028.jpg,0,10529,40-69,2023-03-29_14h55.36.173,Recall,2021.2.3,59.95103200804632,
,DD027.jpg,0,FF027.jpg,0,,,,,0,33,33,26,imgFunc,1,NA,2.4034276999882422,253.9240526999929,256.4275590099278,2023-03-29 14:59:38.080151,2023-03-29 14:59:40.574876,FF027.jpg,0,10529,40-69,2023-03-29_14h55.36.173,Recall,2021.2.3,59.95103200804632,
,DD025.jpg,0,FF025.jpg,0,,,,,0,34,34,24,imgFunc,1,NA,1.0715400000335649,256.4319851999753,257.616735610005,2023-03-29 14:59:40.582856,2023-03-29 14:59:41.759099,FF025.jpg,0,10529,40-69,2023-03-29_14h55.36.173,Recall,2021.2.3,59.95103200804632,
,SD028.jpg,0,MF028.jpg,0,,,,,0,35,35,77,imgFunc,1,NA,1.0973977000103332,257.63012270000763,258.8343208100414,2023-03-29 14:59:41.774061,2023-03-29 14:59:42.976634,MF028.jpg,0,10529,40-69,2023-03-29_14h55.36.173,Recall,2021.2.3,59.95103200804632,
,L_SD501.jpg,1,L_MF501.jpg,1,,,,,0,36,36,90,imgFunc,0,NA,3.162425299989991,258.82116849999875,262.0746713099652,2023-03-29 14:59:42.983617,2023-03-29 14:59:46.229070,L_MF501.jpg,1,10529,40-69,2023-03-29_14h55.36.173,Recall,2021.2.3,59.95103200804632,
,SD037.jpg,0,MF037.jpg,0,,,,,0,37,37,86,imgFunc,9,NA,3.9203559000161476,262.0711766000022,266.0750804099953,2023-03-29 14:59:46.236053,2023-03-29 14:59:50.231235,MF037.jpg,0,10529,40-69,2023-03-29_14h55.36.173,Recall,2021.2.3,59.95103200804632,
,SD026.jpg,0,MF026.jpg,0,,,,,0,38,38,75,imgFunc,0,NA,2.426173399959225,266.07751630002167,268.59722181002144,2023-03-29 14:59:50.239238,2023-03-29 14:59:52.750232,MF026.jpg,0,10529,40-69,2023-03-29_14h55.36.173,Recall,2021.2.3,59.95103200804632,
,L_DD509.jpg,1,L_FF509.jpg,1,,,,,0,39,39,48,imgFunc,2,NA,3.8296550000086427,268.61758449999616,272.5722343100351,2023-03-29 14:59:52.757214,2023-03-29 14:59:56.703067,L_FF509.jpg,1,10529,40-69,2023-03-29_14h55.36.173,Recall,2021.2.3,59.95103200804632,
,DD012.jpg,0,FF012.jpg,0,,,,,0,40,40,11,imgFunc,2,NA,3.4474122999818064,272.55182769999374,276.10554011003114,2023-03-29 14:59:56.710050,2023-03-29 15:00:00.255476,FF012.jpg,0,10529,40-69,2023-03-29_14h55.36.173,Recall,2021.2.3,59.95103200804632,
,L_SD503.jpg,1,L_MF503.jpg,1,,,,,0,41,41,92,imgFunc,1,NA,4.114414900017437,276.1010507000028,280.3054624100332,2023-03-29 15:00:00.262481,2023-03-29 15:00:04.458518,L_MF503.jpg,1,10529,40-69,2023-03-29_14h55.36.173,Recall,2021.2.3,59.95103200804632,
,DD014.jpg,0,FF014.jpg,0,,,,,0,42,42,13,imgFunc,0,NA,3.399989199999254,280.3115807999857,283.8154105099966,2023-03-29 15:00:04.465501,2023-03-29 15:00:07.961155,FF014.jpg,0,10529,40-69,2023-03-29_14h55.36.173,Recall,2021.2.3,59.95103200804632,
,L_DD502.jpg,1,L_FF502.jpg,1,,,,,0,43,43,41,imgFunc,1,NA,2.6860131999710575,283.81746300001396,286.6044386100839,2023-03-29 15:00:07.968138,2023-03-29 15:00:10.746412,L_FF502.jpg,1,10529,40-69,2023-03-29_14h55.36.173,Recall,2021.2.3,59.95103200804632,
,SD036.jpg,0,MF036.jpg,0,,,,,0,44,44,85,imgFunc,1,NA,1.593977700045798,286.60560270003043,288.2973658100236,2023-03-29 15:00:10.759379,2023-03-29 15:00:12.447645,MF036.jpg,0,10529,40-69,2023-03-29_14h55.36.173,Recall,2021.2.3,59.95103200804632,
,SD010.jpg,0,MF010.jpg,0,,,,,0,45,45,59,imgFunc,9,NA,0.9467928999802098,288.29276139999274,289.3286604099558,2023-03-29 15:00:12.454628,2023-03-29 15:00:13.481833,MF010.jpg,0,10529,40-69,2023-03-29_14h55.36.173,Recall,2021.2.3,59.95103200804632,
,DD019.jpg,0,FF019.jpg,0,,,,,0,46,46,18,imgFunc,9,NA,4.368079400039278,289.32733449997613,293.7985813099076,2023-03-29 15:00:13.488816,2023-03-29 15:00:17.951566,FF019.jpg,0,10529,40-69,2023-03-29_14h55.36.173,Recall,2021.2.3,59.95103200804632,
,SD027.jpg,0,MF027.jpg,0,,,,,0,47,47,76,imgFunc,0,NA,2.371743699943181,293.8040184000274,296.2718982100487,2023-03-29 15:00:17.959547,2023-03-29 15:00:20.419957,MF027.jpg,0,10529,40-69,2023-03-29_14h55.36.173,Recall,2021.2.3,59.95103200804632,
,L_DD501.jpg,1,L_FF501.jpg,1,,,,,0,48,48,40,imgFunc,2,NA,1.9077606999780983,296.2676826000097,298.27098960999865,2023-03-29 15:00:20.426940,2023-03-29 15:00:22.421425,L_FF501.jpg,1,10529,40-69,2023-03-29_14h55.36.173,Recall,2021.2.3,59.95103200804632,
,SD014.jpg,0,MF014.jpg,0,,,,,0,49,49,63,imgFunc,9,NA,1.8573709999909624,298.27791130001424,300.2332031100523,2023-03-29 15:00:22.435389,2023-03-29 15:00:24.389281,MF014.jpg,0,10529,40-69,2023-03-29_14h55.36.173,Recall,2021.2.3,59.95103200804632,
,SD029.jpg,0,MF029.jpg,0,,,,,0,50,50,78,imgFunc,9,NA,2.7771637000259943,300.2461202000268,303.1317717100028,2023-03-29 15:00:24.397243,2023-03-29 15:00:27.274834,MF029.jpg,0,10529,40-69,2023-03-29_14h55.36.173,Recall,2021.2.3,59.95103200804632,
,SD011.jpg,0,MF011.jpg,0,,,,,0,51,51,60,imgFunc,0,NA,3.5440546000027098,303.1274626000086,306.78179151006043,2023-03-29 15:00:27.281818,2023-03-29 15:00:30.927511,MF011.jpg,0,10529,40-69,2023-03-29_14h55.36.173,Recall,2021.2.3,59.95103200804632,
,SD006.jpg,0,MF006.jpg,0,,,,,0,52,52,55,imgFunc,0,NA,2.5647722000139765,306.77877979999175,309.44907591002993,2023-03-29 15:00:30.934494,2023-03-29 15:00:33.596038,MF006.jpg,0,10529,40-69,2023-03-29_14h55.36.173,Recall,2021.2.3,59.95103200804632,
,SD023.jpg,0,MF023.jpg,0,,,,,0,53,53,72,imgFunc,9,NA,1.8364511000108905,309.4590701999841,311.4118331100326,2023-03-29 15:00:33.603043,2023-03-29 15:00:35.547560,MF023.jpg,0,10529,40-69,2023-03-29_14h55.36.173,Recall,2021.2.3,59.95103200804632,
,DD031.jpg,0,FF031.jpg,0,,,,,0,54,54,30,imgFunc,9,NA,3.381470700027421,311.3939621000318,314.86386641004356,2023-03-29 15:00:35.555540,2023-03-29 15:00:39.016721,FF031.jpg,0,10529,40-69,2023-03-29_14h55.36.173,Recall,2021.2.3,59.95103200804632,
,SD020.jpg,0,MF020.jpg,0,,,,,0,55,55,69,imgFunc,1,NA,2.2465721999760717,314.8651490000193,317.21849251003005,2023-03-29 15:00:39.023704,2023-03-29 15:00:41.368208,MF020.jpg,0,10529,40-69,2023-03-29_14h55.36.173,Recall,2021.2.3,59.95103200804632,
,SD031.jpg,0,MF031.jpg,0,,,,,0,56,56,80,imgFunc,0,NA,2.4142264000256546,317.225214599981,319.7452918100171,2023-03-29 15:00:41.375077,2023-03-29 15:00:43.886692,MF031.jpg,0,10529,40-69,2023-03-29_14h55.36.173,Recall,2021.2.3,59.95103200804632,
,SD019.jpg,0,MF019.jpg,0,,,,,0,57,57,68,imgFunc,1,NA,2.749787100008689,319.7456162000308,322.59637780999765,2023-03-29 15:00:43.895669,2023-03-29 15:00:46.738719,MF019.jpg,0,10529,40-69,2023-03-29_14h55.36.173,Recall,2021.2.3,59.95103200804632,
,SD030.jpg,0,MF030.jpg,0,,,,,0,58,58,79,imgFunc,0,NA,1.0289152000332251,322.60248449997744,323.72662041004514,2023-03-29 15:00:46.751686,2023-03-29 15:00:47.873046,MF030.jpg,0,10529,40-69,2023-03-29_14h55.36.173,Recall,2021.2.3,59.95103200804632,
,SD024.jpg,0,MF024.jpg,0,,,,,0,59,59,73,imgFunc,9,NA,3.656355999992229,323.7269835000043,327.48118300997885,2023-03-29 15:00:47.880051,2023-03-29 15:00:51.625803,MF024.jpg,0,10529,40-69,2023-03-29_14h55.36.173,Recall,2021.2.3,59.95103200804632,
,SD021.jpg,0,MF021.jpg,0,,,,,0,60,60,70,imgFunc,9,NA,2.6757265999913216,327.475775400002,330.2453355100006,2023-03-29 15:00:51.632786,2023-03-29 15:00:54.394098,MF021.jpg,0,10529,40-69,2023-03-29_14h55.36.173,Recall,2021.2.3,59.95103200804632,
,DD035.jpg,0,FF035.jpg,0,,,,,0,61,61,34,imgFunc,2,NA,4.137026399956085,330.2463556000148,334.48455471004127,2023-03-29 15:00:54.401081,2023-03-29 15:00:58.630123,FF035.jpg,0,10529,40-69,2023-03-29_14h55.36.173,Recall,2021.2.3,59.95103200804632,
,SD002.jpg,0,MF002.jpg,0,,,,,0,62,62,51,imgFunc,9,NA,1.6390420999960043,334.488320000004,336.24046480993275,2023-03-29 15:00:58.638100,2023-03-29 15:01:00.381768,MF002.jpg,0,10529,40-69,2023-03-29_14h55.36.173,Recall,2021.2.3,59.95103200804632,
,L_SD509.jpg,1,L_MF509.jpg,1,,,,,0,63,63,98,imgFunc,0,NA,1.6326258999761194,336.2468143000151,337.9820245100418,2023-03-29 15:01:00.397727,2023-03-29 15:01:02.133107,L_MF509.jpg,1,10529,40-69,2023-03-29_14h55.36.173,Recall,2021.2.3,59.95103200804632,
,DD026.jpg,0,FF026.jpg,0,,,,,0,64,64,25,imgFunc,0,NA,2.3017937999684364,337.9776328000007,340.3842397099943,2023-03-29 15:01:02.140090,2023-03-29 15:01:04.537114,FF026.jpg,0,10529,40-69,2023-03-29_14h55.36.173,Recall,2021.2.3,59.95103200804632,
,L_SD506.jpg,1,L_MF506.jpg,1,,,,,0,65,65,95,imgFunc,0,NA,1.9321361999609508,340.38730880001094,342.41990830999566,2023-03-29 15:01:04.545094,2023-03-29 15:01:06.569613,L_MF506.jpg,1,10529,40-69,2023-03-29_14h55.36.173,Recall,2021.2.3,59.95103200804632,
,DD003.jpg,0,FF003.jpg,0,,,,,0,66,66,2,imgFunc,9,NA,3.4155683999997564,342.4157811999903,345.91979711002205,2023-03-29 15:01:06.576596,2023-03-29 15:01:10.072111,FF003.jpg,0,10529,40-69,2023-03-29_14h55.36.173,Recall,2021.2.3,59.95103200804632,
,SD008.jpg,0,MF008.jpg,0,,,,,0,67,67,57,imgFunc,2,NA,2.526514400029555,345.936939599982,348.57319570996333,2023-03-29 15:01:10.079094,2023-03-29 15:01:12.707255,MF008.jpg,0,10529,40-69,2023-03-29_14h55.36.173,Recall,2021.2.3,59.95103200804632,
,DD005.jpg,0,FF005.jpg,0,,,,,0,68,68,4,imgFunc,2,NA,3.4602454000269063,348.5471866999869,352.1014471100061,2023-03-29 15:01:12.714238,2023-03-29 15:01:16.259851,FF005.jpg,0,10529,40-69,2023-03-29_14h55.36.173,Recall,2021.2.3,59.95103200804632,
,DD020.jpg,0,FF020.jpg,0,,,,,0,69,69,19,imgFunc,1,NA,2.1573222000151873,352.1221325999941,354.39171490998706,2023-03-29 15:01:16.266834,2023-03-29 15:01:18.528238,FF020.jpg,0,10529,40-69,2023-03-29_14h55.36.173,Recall,2021.2.3,59.95103200804632,
,L_SD507.jpg,1,L_MF507.jpg,1,,,,,0,70,70,96,imgFunc,2,NA,1.3564083999954164,354.394999000011,355.8639827099978,2023-03-29 15:01:18.535221,2023-03-29 15:01:19.995812,L_MF507.jpg,1,10529,40-69,2023-03-29_14h55.36.173,Recall,2021.2.3,59.95103200804632,
,DD017.jpg,0,FF017.jpg,0,,,,,0,71,71,16,imgFunc,0,NA,1.3684222999727353,355.86302990000695,357.3490180100198,2023-03-29 15:01:20.002795,2023-03-29 15:01:21.480246,FF017.jpg,0,10529,40-69,2023-03-29_14h55.36.173,Recall,2021.2.3,59.95103200804632,
,SD015.jpg,0,MF015.jpg,0,,,,,0,72,72,64,imgFunc,9,NA,1.718644900014624,357.3447727999883,359.16748061002,2023-03-29 15:01:21.494210,2023-03-29 15:01:23.314869,MF015.jpg,0,10529,40-69,2023-03-29_14h55.36.173,Recall,2021.2.3,59.95103200804632,
,L_DD503.jpg,1,L_FF503.jpg,1,,,,,0,73,73,42,imgFunc,0,NA,3.7333343999926,359.1700076999841,363.00513640994905,2023-03-29 15:01:23.323847,2023-03-29 15:01:27.150353,L_FF503.jpg,1,10529,40-69,2023-03-29_14h55.36.173,Recall,2021.2.3,59.95103200804632,
,DD018.jpg,0,FF018.jpg,0,,,,,0,74,74,17,imgFunc,2,NA,2.062750400044024,362.99258239998017,365.1453269100166,2023-03-29 15:01:27.158335,2023-03-29 15:01:29.302513,FF018.jpg,0,10529,40-69,2023-03-29_14h55.36.173,Recall,2021.2.3,59.95103200804632,
,DD016.jpg,0,FF016.jpg,0,,,,,0,75,75,15,imgFunc,0,NA,5.958464000024833,365.14494070003275,371.20068851008546,2023-03-29 15:01:29.309496,2023-03-29 15:01:35.356721,FF016.jpg,0,10529,40-69,2023-03-29_14h55.36.173,Recall,2021.2.3,59.95103200804632,
,DD040.jpg,0,FF040.jpg,0,,,,,0,76,76,39,imgFunc,1,NA,3.523385100008454,371.2278398000053,374.8604014100274,2023-03-29 15:01:35.366719,2023-03-29 15:01:38.992806,FF040.jpg,0,10529,40-69,2023-03-29_14h55.36.173,Recall,2021.2.3,59.95103200804632,
,DD034.jpg,0,FF034.jpg,0,,,,,0,77,77,33,imgFunc,9,NA,2.0618486999883316,374.84954299998935,377.00386241002707,2023-03-29 15:01:39.007646,2023-03-29 15:01:41.160796,FF034.jpg,0,10529,40-69,2023-03-29_14h55.36.173,Recall,2021.2.3,59.95103200804632,
,SD003.jpg,0,MF003.jpg,0,,,,,0,78,78,52,imgFunc,0,NA,1.8946968999807723,377.0084337000153,378.9937063099933,2023-03-29 15:01:41.169802,2023-03-29 15:01:43.147383,MF003.jpg,0,10529,40-69,2023-03-29_14h55.36.173,Recall,2021.2.3,59.95103200804632,
,DD022.jpg,0,FF022.jpg,0,,,,,0,79,79,21,imgFunc,9,NA,2.0439345999620855,378.9952769000083,381.12807441002224,2023-03-29 15:01:43.155363,2023-03-29 15:01:45.280703,FF022.jpg,0,10529,40-69,2023-03-29_14h55.36.173,Recall,2021.2.3,59.95103200804632,
,DD006.jpg,0,FF006.jpg,0,,,,,0,80,80,5,imgFunc,9,NA,2.7121728000347503,381.1273800000199,383.9307802100084,2023-03-29 15:01:45.287686,2023-03-29 15:01:48.082288,FF006.jpg,0,10529,40-69,2023-03-29_14h55.36.173,Recall,2021.2.3,59.95103200804632,
,L_SD504.jpg,1,L_MF504.jpg,1,,,,,0,81,81,93,imgFunc,1,NA,3.810538399964571,383.93268570001237,387.8371458099573,2023-03-29 15:01:48.089293,2023-03-29 15:01:51.985543,L_MF504.jpg,1,10529,40-69,2023-03-29_14h55.36.173,Recall,2021.2.3,59.95103200804632,
,DD010.jpg,0,FF010.jpg,0,,,,,0,82,82,9,imgFunc,0,NA,1.5871365999919362,387.8358984999941,389.5204034099588,2023-03-29 15:01:51.993523,2023-03-29 15:01:53.669663,FF010.jpg,0,10529,40-69,2023-03-29_14h55.36.173,Recall,2021.2.3,59.95103200804632,
,DD030.jpg,0,FF030.jpg,0,,,,,0,83,83,29,imgFunc,2,NA,1.9632426999742165,389.5081432000152,391.56039131002035,2023-03-29 15:01:53.677642,2023-03-29 15:01:55.721314,FF030.jpg,0,10529,40-69,2023-03-29_14h55.36.173,Recall,2021.2.3,59.95103200804632,
,SD005.jpg,0,MF005.jpg,0,,,,,0,84,84,54,imgFunc,0,NA,3.1862915999954566,391.56503019999946,394.85213240998564,2023-03-29 15:01:55.728297,2023-03-29 15:01:59.006993,MF005.jpg,0,10529,40-69,2023-03-29_14h55.36.173,Recall,2021.2.3,59.95103200804632,
,DD032.jpg,0,FF032.jpg,0,,,,,0,85,85,31,imgFunc,2,NA,1.854966200015042,394.85637549997773,396.80838640994625,2023-03-29 15:01:59.014973,2023-03-29 15:02:00.958323,FF032.jpg,0,10529,40-69,2023-03-29_14h55.36.173,Recall,2021.2.3,59.95103200804632,
,DD015.jpg,0,FF015.jpg,0,,,,,0,86,86,14,imgFunc,0,NA,13.280318999954034,396.81500180001603,410.1982556099538,2023-03-29 15:02:00.971290,2023-03-29 15:02:14.351222,FF015.jpg,0,10529,40-69,2023-03-29_14h55.36.173,Recall,2021.2.3,59.95103200804632,
,DD037.jpg,0,FF037.jpg,0,,,,,0,87,87,36,imgFunc,0,NA,2.805119599972386,410.23421730002156,413.1612611100427,2023-03-29 15:02:14.363155,2023-03-29 15:02:17.286722,FF037.jpg,0,10529,40-69,2023-03-29_14h55.36.173,Recall,2021.2.3,59.95103200804632,
,L_DD505.jpg,1,L_FF505.jpg,1,,,,,0,88,88,44,imgFunc,1,NA,1.250708699983079,413.15655259997584,414.5250760099734,2023-03-29 15:02:17.294703,2023-03-29 15:02:18.654356,L_FF505.jpg,1,10529,40-69,2023-03-29_14h55.36.173,Recall,2021.2.3,59.95103200804632,
,DD007.jpg,0,FF007.jpg,0,,,,,0,89,89,6,imgFunc,1,NA,1.36818819999462,414.52727349998895,416.0109571099747,2023-03-29 15:02:18.662337,2023-03-29 15:02:20.138530,FF007.jpg,0,10529,40-69,2023-03-29_14h55.36.173,Recall,2021.2.3,59.95103200804632,
,DD036.jpg,0,FF036.jpg,0,,,,,0,90,90,35,imgFunc,9,NA,2.983070600021165,415.9839818000328,419.0708132100408,2023-03-29 15:02:20.145513,2023-03-29 15:02:23.224287,FF036.jpg,0,10529,40-69,2023-03-29_14h55.36.173,Recall,2021.2.3,59.95103200804632,
,SD007.jpg,0,MF007.jpg,0,,,,,0,91,91,56,imgFunc,0,NA,2.7976884999661706,419.0815973000135,421.9706341100973,2023-03-29 15:02:23.239248,2023-03-29 15:02:26.126373,MF007.jpg,0,10529,40-69,2023-03-29_14h55.36.173,Recall,2021.2.3,59.95103200804632,
,DD039.jpg,0,FF039.jpg,0,,,,,0,92,92,38,imgFunc,0,NA,1.7732329000136815,421.9701084999833,423.8394819099922,2023-03-29 15:02:26.133356,2023-03-29 15:02:27.994343,FF039.jpg,0,10529,40-69,2023-03-29_14h55.36.173,Recall,2021.2.3,59.95103200804632,
,L_DD504.jpg,1,L_FF504.jpg,1,,,,,0,93,93,43,imgFunc,0,NA,0.8002797999652103,423.8389589000144,424.7413845099509,2023-03-29 15:02:28.001326,2023-03-29 15:02:28.894978,L_FF504.jpg,1,10529,40-69,2023-03-29_14h55.36.173,Recall,2021.2.3,59.95103200804632,
,L_DD507.jpg,1,L_FF507.jpg,1,,,,,0,94,94,46,imgFunc,2,NA,2.6848785000038333,424.73832900001435,427.5253994099912,2023-03-29 15:02:28.901962,2023-03-29 15:02:31.680264,L_FF507.jpg,1,10529,40-69,2023-03-29_14h55.36.173,Recall,2021.2.3,59.95103200804632,
,DD002.jpg,0,FF002.jpg,0,,,,,0,95,95,1,imgFunc,1,NA,2.516241099976469,427.5390636000084,430.15833141002804,2023-03-29 15:02:31.688161,2023-03-29 15:02:34.298635,FF002.jpg,0,10529,40-69,2023-03-29_14h55.36.173,Recall,2021.2.3,59.95103200804632,
,SD009.jpg,0,MF009.jpg,0,,,,,0,96,96,58,imgFunc,9,NA,1.6227117999806069,430.13640429999214,431.8395590099972,2023-03-29 15:02:34.305618,2023-03-29 15:02:35.999834,MF009.jpg,0,10529,40-69,2023-03-29_14h55.36.173,Recall,2021.2.3,59.95103200804632,
,SD040.jpg,0,MF040.jpg,0,,,,,0,97,97,89,imgFunc,9,NA,1.7981921999598853,431.8491036000196,433.7517760100309,2023-03-29 15:02:36.007849,2023-03-29 15:02:37.901472,MF040.jpg,0,10529,40-69,2023-03-29_14h55.36.173,Recall,2021.2.3,59.95103200804632,
,DD009.jpg,0,FF009.jpg,0,,,,,0,98,98,8,imgFunc,1,NA,3.303648200002499,433.7516937999753,437.154662809975,2023-03-29 15:02:37.909453,2023-03-29 15:02:41.303859,FF009.jpg,0,10529,40-69,2023-03-29_14h55.36.173,Recall,2021.2.3,59.95103200804632,
,DD013.jpg,0,FF013.jpg,0,,,,,0,99,99,12,imgFunc,0,NA,2.7223859000368975,437.15698079997674,439.97668220999185,2023-03-29 15:02:41.310842,2023-03-29 15:02:44.122388,FF013.jpg,0,10529,40-69,2023-03-29_14h55.36.173,Recall,2021.2.3,59.95103200804632,
,,,,,,,,,,,,,instrFunc,space,"Great work! 

 Now you will switch to the other image type.

 Press the spacebar whenever you are ready to start.",8.477796600025613,439.8973895999952,448.41799121000804,2023-03-29 15:02:44.123388,2023-03-29 15:02:52.628041,,,10529,40-69,2023-03-29_14h55.36.173,Recall,2021.2.3,59.95103200804632,
,DD003.jpg,0,FF003.jpg,0,,,,,0,0,0,2,imgFunc,0,NA,9.323060699971393,448.48417770001106,457.8841075199889,2023-03-29 15:02:52.655968,2023-03-29 15:03:02.051949,DD003.jpg,0,10529,40-69,2023-03-29_14h55.36.173,Recall,2021.2.3,59.95103200804632,
,DD002.jpg,0,FF002.jpg,0,,,,,0,1,1,1,imgFunc,2,NA,5.937252399977297,457.9097309000208,463.94620681001106,2023-03-29 15:03:02.060927,2023-03-29 15:03:08.089512,DD002.jpg,0,10529,40-69,2023-03-29_14h55.36.173,Recall,2021.2.3,59.95103200804632,
,L_SD502.jpg,1,L_MF502.jpg,1,,,,,0,2,2,91,imgFunc,2,NA,5.03327509999508,463.9497839999967,469.08221280999715,2023-03-29 15:03:08.100513,2023-03-29 15:03:13.226424,L_SD502.jpg,1,10529,40-69,2023-03-29_14h55.36.173,Recall,2021.2.3,59.95103200804632,
,SD004.jpg,0,MF004.jpg,0,,,,,0,3,3,53,imgFunc,9,NA,5.88735929998802,469.07952050003223,475.0562000100035,2023-03-29 15:03:13.240389,2023-03-29 15:03:19.214223,SD004.jpg,0,10529,40-69,2023-03-29_14h55.36.173,Recall,2021.2.3,59.95103200804632,
,SD024.jpg,0,MF024.jpg,0,,,,,0,4,4,73,imgFunc,2,NA,4.0318373999907635,475.0552389000077,479.17311531002633,2023-03-29 15:03:19.223201,2023-03-29 15:03:23.333846,SD024.jpg,0,10529,40-69,2023-03-29_14h55.36.173,Recall,2021.2.3,59.95103200804632,
,DD011.jpg,0,FF011.jpg,0,,,,,0,5,5,10,imgFunc,2,NA,1.9460303999949247,479.18103199999314,481.2169514099951,2023-03-29 15:03:23.340830,2023-03-29 15:03:25.367876,DD011.jpg,0,10529,40-69,2023-03-29_14h55.36.173,Recall,2021.2.3,59.95103200804632,
,L_SD505.jpg,1,L_MF505.jpg,1,,,,,0,6,6,94,imgFunc,0,NA,4.9079717000131495,481.2112176999799,486.2125064099673,2023-03-29 15:03:25.377847,2023-03-29 15:03:30.372156,L_SD505.jpg,1,10529,40-69,2023-03-29_14h55.36.173,Recall,2021.2.3,59.95103200804632,
,DD013.jpg,0,FF013.jpg,0,,,,,0,7,7,12,imgFunc,9,NA,2.4898572000092827,486.2212719999952,488.80452700995374,2023-03-29 15:03:30.381134,2023-03-29 15:03:32.957370,DD013.jpg,0,10529,40-69,2023-03-29_14h55.36.173,Recall,2021.2.3,59.95103200804632,
,DD022.jpg,0,FF022.jpg,0,,,,,0,8,8,21,imgFunc,9,NA,3.5812846000189893,488.80195450002793,492.4729756100569,2023-03-29 15:03:32.964353,2023-03-29 15:03:36.626443,DD022.jpg,0,10529,40-69,2023-03-29_14h55.36.173,Recall,2021.2.3,59.95103200804632,
,L_SD508.jpg,1,L_MF508.jpg,1,,,,,0,9,9,97,imgFunc,2,NA,3.114913399971556,492.4681835999945,495.67185010999674,2023-03-29 15:03:36.633426,2023-03-29 15:03:39.828933,L_SD508.jpg,1,10529,40-69,2023-03-29_14h55.36.173,Recall,2021.2.3,59.95103200804632,
,DD039.jpg,0,FF039.jpg,0,,,,,0,10,10,38,imgFunc,9,NA,2.469764799985569,495.6734219000209,498.243214510032,2023-03-29 15:03:39.835917,2023-03-29 15:03:42.397215,DD039.jpg,0,10529,40-69,2023-03-29_14h55.36.173,Recall,2021.2.3,59.95103200804632,
,SD001.jpg,0,MF001.jpg,0,,,,,0,11,11,50,imgFunc,1,NA,2.8585103999939747,498.236368199985,501.1903157099732,2023-03-29 15:03:42.404198,2023-03-29 15:03:45.349461,SD001.jpg,0,10529,40-69,2023-03-29_14h55.36.173,Recall,2021.2.3,59.95103200804632,
,SD040.jpg,0,MF040.jpg,0,,,,,0,12,12,89,imgFunc,2,NA,2.958549899980426,501.19262079999316,504.2356108100503,2023-03-29 15:03:45.362428,2023-03-29 15:03:48.401723,SD040.jpg,0,10529,40-69,2023-03-29_14h55.36.173,Recall,2021.2.3,59.95103200804632,
,L_SD504.jpg,1,L_MF504.jpg,1,,,,,0,13,13,93,imgFunc,9,NA,5.530963899975177,504.2441623000195,509.8667989100213,2023-03-29 15:03:48.408706,2023-03-29 15:03:54.022452,L_SD504.jpg,1,10529,40-69,2023-03-29_14h55.36.173,Recall,2021.2.3,59.95103200804632,
,SD034.jpg,0,MF034.jpg,0,,,,,0,14,14,83,imgFunc,9,NA,3.133377299993299,509.8656348999939,513.0827620099299,2023-03-29 15:03:54.031429,2023-03-29 15:03:57.241432,SD034.jpg,0,10529,40-69,2023-03-29_14h55.36.173,Recall,2021.2.3,59.95103200804632,
,DD021.jpg,0,FF021.jpg,0,,,,,0,15,15,20,imgFunc,2,NA,3.7148015999700874,513.084317300003,516.8887502100552,2023-03-29 15:03:57.248414,2023-03-29 15:04:01.044014,DD021.jpg,0,10529,40-69,2023-03-29_14h55.36.173,Recall,2021.2.3,59.95103200804632,
,DD034.jpg,0,FF034.jpg,0,,,,,0,16,16,33,imgFunc,2,NA,1.1193870999850333,516.8877879999927,518.1072325099958,2023-03-29 15:04:01.050997,2023-03-29 15:04:02.261580,DD034.jpg,0,10529,40-69,2023-03-29_14h55.36.173,Recall,2021.2.3,59.95103200804632,
,L_DD501.jpg,1,L_FF501.jpg,1,,,,,0,17,17,40,imgFunc,0,NA,3.27859320002608,518.1125280000269,521.4866774100228,2023-03-29 15:04:02.275544,2023-03-29 15:04:05.647345,L_DD501.jpg,1,10529,40-69,2023-03-29_14h55.36.173,Recall,2021.2.3,59.95103200804632,
,SD017.jpg,0,MF017.jpg,0,,,,,0,18,18,66,imgFunc,9,NA,7.635073200042825,521.4840428000316,529.2081883100909,2023-03-29 15:04:05.654328,2023-03-29 15:04:13.369603,SD017.jpg,0,10529,40-69,2023-03-29_14h55.36.173,Recall,2021.2.3,59.95103200804632,
,DD035.jpg,0,FF035.jpg,0,,,,,0,19,19,34,imgFunc,1,NA,3.6398524999967776,529.2311941999942,532.9818485099822,2023-03-29 15:04:13.378609,2023-03-29 15:04:17.122138,DD035.jpg,0,10529,40-69,2023-03-29_14h55.36.173,Recall,2021.2.3,59.95103200804632,
,L_DD509.jpg,1,L_FF509.jpg,1,,,,,0,20,20,48,imgFunc,0,NA,2.1095101999817416,532.9695211999933,535.1710515099694,2023-03-29 15:04:17.130057,2023-03-29 15:04:19.323918,L_DD509.jpg,1,10529,40-69,2023-03-29_14h55.36.173,Recall,2021.2.3,59.95103200804632,
,SD014.jpg,0,MF014.jpg,0,,,,,0,21,21,63,imgFunc,0,NA,1.7219596999930218,535.157166399993,536.9601411100011,2023-03-29 15:04:19.330901,2023-03-29 15:04:21.125044,SD014.jpg,0,10529,40-69,2023-03-29_14h55.36.173,Recall,2021.2.3,59.95103200804632,
,SD025.jpg,0,MF025.jpg,0,,,,,0,22,22,74,imgFunc,0,NA,1.0355778000084683,536.9715608999832,538.0938194100163,2023-03-29 15:04:21.139009,2023-03-29 15:04:22.259237,SD025.jpg,0,10529,40-69,2023-03-29_14h55.36.173,Recall,2021.2.3,59.95103200804632,
,SD006.jpg,0,MF006.jpg,0,,,,,0,23,23,55,imgFunc,9,NA,4.656763300008606,538.0942562000128,542.8327456100378,2023-03-29 15:04:22.266220,2023-03-29 15:04:26.995861,SD006.jpg,0,10529,40-69,2023-03-29_14h55.36.173,Recall,2021.2.3,59.95103200804632,
,DD017.jpg,0,FF017.jpg,0,,,,,0,24,24,16,imgFunc,2,NA,2.7753824000246823,542.839732900029,545.7068194100284,2023-03-29 15:04:27.004838,2023-03-29 15:04:29.864622,DD017.jpg,0,10529,40-69,2023-03-29_14h55.36.173,Recall,2021.2.3,59.95103200804632,
,L_SD507.jpg,1,L_MF507.jpg,1,,,,,0,25,25,96,imgFunc,0,NA,2.6380643000011332,545.6970594000304,548.4171748100198,2023-03-29 15:04:29.871605,2023-03-29 15:04:32.583072,L_SD507.jpg,1,10529,40-69,2023-03-29_14h55.36.173,Recall,2021.2.3,59.95103200804632,
,L_DD507.jpg,1,L_FF507.jpg,1,,,,,0,26,26,46,imgFunc,0,NA,3.8379406000021845,548.4249797000084,552.3628531100112,2023-03-29 15:04:32.590078,2023-03-29 15:04:36.519276,L_DD507.jpg,1,10529,40-69,2023-03-29_14h55.36.173,Recall,2021.2.3,59.95103200804632,
,SD007.jpg,0,MF007.jpg,0,,,,,0,27,27,56,imgFunc,2,NA,1.8990773999830708,552.3560335999937,554.3418816099875,2023-03-29 15:04:36.527279,2023-03-29 15:04:38.504137,SD007.jpg,0,10529,40-69,2023-03-29_14h55.36.173,Recall,2021.2.3,59.95103200804632,
,SD028.jpg,0,MF028.jpg,0,,,,,0,28,28,77,imgFunc,9,NA,2.631062300002668,554.3440262000076,557.0644759099814,2023-03-29 15:04:38.511121,2023-03-29 15:04:41.222693,SD028.jpg,0,10529,40-69,2023-03-29_14h55.36.173,Recall,2021.2.3,59.95103200804632,
,SD020.jpg,0,MF020.jpg,0,,,,,0,29,29,69,imgFunc,1,NA,1.9290669999900274,557.0699614000041,559.0898017100408,2023-03-29 15:04:41.229676,2023-03-29 15:04:43.240874,SD020.jpg,0,10529,40-69,2023-03-29_14h55.36.173,Recall,2021.2.3,59.95103200804632,
,DD012.jpg,0,FF012.jpg,0,,,,,0,30,30,11,imgFunc,9,NA,4.11493529996369,559.0757789000054,563.2803763099946,2023-03-29 15:04:43.247857,2023-03-29 15:04:47.443463,DD012.jpg,0,10529,40-69,2023-03-29_14h55.36.173,Recall,2021.2.3,59.95103200804632,
,DD023.jpg,0,FF023.jpg,0,,,,,0,31,31,22,imgFunc,9,NA,2.6396062999847345,563.2955231000087,566.0213315099827,2023-03-29 15:04:47.456428,2023-03-29 15:04:50.178969,DD023.jpg,0,10529,40-69,2023-03-29_14h55.36.173,Recall,2021.2.3,59.95103200804632,
,SD039.jpg,0,MF039.jpg,0,,,,,0,32,32,88,imgFunc,1,NA,4.380989000026602,566.0099368999945,570.4818182099261,2023-03-29 15:04:50.185953,2023-03-29 15:04:54.648818,SD039.jpg,0,10529,40-69,2023-03-29_14h55.36.173,Recall,2021.2.3,59.95103200804632,
,SD002.jpg,0,MF002.jpg,0,,,,,0,33,33,51,imgFunc,9,NA,4.053817700012587,570.4891274999827,574.6250375100062,2023-03-29 15:04:54.656790,2023-03-29 15:04:58.785189,SD002.jpg,0,10529,40-69,2023-03-29_14h55.36.173,Recall,2021.2.3,59.95103200804632,
,SD010.jpg,0,MF010.jpg,0,,,,,0,34,34,59,imgFunc,1,NA,2.9131875000311993,574.629555099993,577.632143809984,2023-03-29 15:04:58.793074,2023-03-29 15:05:01.787168,SD010.jpg,0,10529,40-69,2023-03-29_14h55.36.173,Recall,2021.2.3,59.95103200804632,
,SD033.jpg,0,MF033.jpg,0,,,,,0,35,35,82,imgFunc,2,NA,4.04138760000933,577.6296323999995,581.7676369099645,2023-03-29 15:05:01.794152,2023-03-29 15:05:05.923593,SD033.jpg,0,10529,40-69,2023-03-29_14h55.36.173,Recall,2021.2.3,59.95103200804632,
,L_SD506.jpg,1,L_MF506.jpg,1,,,,,0,36,36,95,imgFunc,9,NA,3.2011022999649867,581.7816862000036,585.0712025099783,2023-03-29 15:05:05.938577,2023-03-29 15:05:09.226160,L_SD506.jpg,1,10529,40-69,2023-03-29_14h55.36.173,Recall,2021.2.3,59.95103200804632,
,SD027.jpg,0,MF027.jpg,0,,,,,0,37,37,76,imgFunc,9,NA,4.5521046000067145,585.0629415999865,589.7016408099444,2023-03-29 15:05:09.233143,2023-03-29 15:05:13.862454,SD027.jpg,0,10529,40-69,2023-03-29_14h55.36.173,Recall,2021.2.3,59.95103200804632,
,DD020.jpg,0,FF020.jpg,0,,,,,0,38,38,19,imgFunc,2,NA,6.896055100020021,589.7109802999767,596.6955304099829,2023-03-29 15:05:13.872431,2023-03-29 15:05:20.850908,DD020.jpg,0,10529,40-69,2023-03-29_14h55.36.173,Recall,2021.2.3,59.95103200804632,
,DD036.jpg,0,FF036.jpg,0,,,,,0,39,39,35,imgFunc,0,NA,4.656566400022712,596.7025022000307,601.4545137100504,2023-03-29 15:05:20.859886,2023-03-29 15:05:25.604339,DD036.jpg,0,10529,40-69,2023-03-29_14h55.36.173,Recall,2021.2.3,59.95103200804632,
,DD026.jpg,0,FF026.jpg,0,,,,,0,40,40,25,imgFunc,9,NA,2.707920400018338,601.4670874000294,604.2846174099832,2023-03-29 15:05:25.613316,2023-03-29 15:05:28.423112,DD026.jpg,0,10529,40-69,2023-03-29_14h55.36.173,Recall,2021.2.3,59.95103200804632,
,SD037.jpg,0,MF037.jpg,0,,,,,0,41,41,86,imgFunc,2,NA,4.780288800015114,604.2826410999987,609.158058209985,2023-03-29 15:05:28.437077,2023-03-29 15:05:33.309936,SD037.jpg,0,10529,40-69,2023-03-29_14h55.36.173,Recall,2021.2.3,59.95103200804632,
,DD006.jpg,0,FF006.jpg,0,,,,,0,42,42,5,imgFunc,1,NA,5.669965400011279,609.152913500031,614.9218485100428,2023-03-29 15:05:33.318914,2023-03-29 15:05:39.080672,DD006.jpg,0,10529,40-69,2023-03-29_14h55.36.173,Recall,2021.2.3,59.95103200804632,
,SD013.jpg,0,MF013.jpg,0,,,,,0,43,43,62,imgFunc,9,NA,3.160548700019717,614.9184699999751,618.1685744099086,2023-03-29 15:05:39.089650,2023-03-29 15:05:42.332893,SD013.jpg,0,10529,40-69,2023-03-29_14h55.36.173,Recall,2021.2.3,59.95103200804632,
,DD016.jpg,0,FF016.jpg,0,,,,,0,44,44,15,imgFunc,2,NA,3.6988881999859586,618.1958767999895,622.0172673100024,2023-03-29 15:05:42.339876,2023-03-29 15:05:46.152346,DD016.jpg,0,10529,40-69,2023-03-29_14h55.36.173,Recall,2021.2.3,59.95103200804632,
,DD024.jpg,0,FF024.jpg,0,,,,,0,45,45,23,imgFunc,2,NA,1.0661636000149883,622.0047285000328,623.1709265100071,2023-03-29 15:05:46.161324,2023-03-29 15:05:47.319901,DD024.jpg,0,10529,40-69,2023-03-29_14h55.36.173,Recall,2021.2.3,59.95103200804632,
,SD036.jpg,0,MF036.jpg,0,,,,,0,46,46,85,imgFunc,9,NA,1.97936060000211,623.1635898000095,625.2338303099968,2023-03-29 15:05:47.326884,2023-03-29 15:05:49.387892,SD036.jpg,0,10529,40-69,2023-03-29_14h55.36.173,Recall,2021.2.3,59.95103200804632,
,SD016.jpg,0,MF016.jpg,0,,,,,0,47,47,65,imgFunc,0,NA,1.5297743999981321,625.2212205000105,626.8406810100423,2023-03-29 15:05:49.394897,2023-03-29 15:05:51.005811,SD016.jpg,0,10529,40-69,2023-03-29_14h55.36.173,Recall,2021.2.3,59.95103200804632,
,DD033.jpg,0,FF033.jpg,0,,,,,0,48,48,32,imgFunc,9,NA,2.6235222999821417,626.839292699995,629.5430479099741,2023-03-29 15:05:51.012794,2023-03-29 15:05:53.707651,DD033.jpg,0,10529,40-69,2023-03-29_14h55.36.173,Recall,2021.2.3,59.95103200804632,
,DD030.jpg,0,FF030.jpg,0,,,,,0,49,49,29,imgFunc,1,NA,2.950061499956064,629.5448210000177,632.5824678100762,2023-03-29 15:05:53.714635,2023-03-29 15:05:56.743220,DD030.jpg,0,10529,40-69,2023-03-29_14h55.36.173,Recall,2021.2.3,59.95103200804632,
,DD015.jpg,0,FF015.jpg,0,,,,,0,50,50,14,imgFunc,0,NA,4.404086499998812,632.5947881999891,637.0840452100383,2023-03-29 15:05:56.758127,2023-03-29 15:06:01.246393,DD015.jpg,0,10529,40-69,2023-03-29_14h55.36.173,Recall,2021.2.3,59.95103200804632,
,L_DD506.jpg,1,L_FF506.jpg,1,,,,,0,51,51,45,imgFunc,0,NA,3.1468959000194445,637.084068999975,640.3206933100009,2023-03-29 15:06:01.254396,2023-03-29 15:06:04.482128,L_DD506.jpg,1,10529,40-69,2023-03-29_14h55.36.173,Recall,2021.2.3,59.95103200804632,
,DD032.jpg,0,FF032.jpg,0,,,,,0,52,52,31,imgFunc,1,NA,3.2540065000066534,640.3208942000056,643.6572356100078,2023-03-29 15:06:04.490108,2023-03-29 15:06:07.818007,DD032.jpg,0,10529,40-69,2023-03-29_14h55.36.173,Recall,2021.2.3,59.95103200804632,
,DD029.jpg,0,FF029.jpg,0,,,,,0,53,53,28,imgFunc,9,NA,2.3887242000200786,643.6661175999907,646.1527431099676,2023-03-29 15:06:07.824990,2023-03-29 15:06:10.302933,DD029.jpg,0,10529,40-69,2023-03-29_14h55.36.173,Recall,2021.2.3,59.95103200804632,
,SD022.jpg,0,MF022.jpg,0,,,,,0,54,54,71,imgFunc,1,NA,2.2423678999766707,646.1404892000137,648.4773144100327,2023-03-29 15:06:10.309916,2023-03-29 15:06:12.637933,SD022.jpg,0,10529,40-69,2023-03-29_14h55.36.173,Recall,2021.2.3,59.95103200804632,
,SD018.jpg,0,MF018.jpg,0,,,,,0,55,55,67,imgFunc,9,NA,3.6242894000024535,648.4865607999964,652.1944181100116,2023-03-29 15:06:12.651897,2023-03-29 15:06:16.357240,SD018.jpg,0,10529,40-69,2023-03-29_14h55.36.173,Recall,2021.2.3,59.95103200804632,
,DD028.jpg,0,FF028.jpg,0,,,,,0,56,56,27,imgFunc,0,NA,4.281312000006437,652.1975357999909,656.5692890100181,2023-03-29 15:06:16.364223,2023-03-29 15:06:20.727074,DD028.jpg,0,10529,40-69,2023-03-29_14h55.36.173,Recall,2021.2.3,59.95103200804632,
,SD008.jpg,0,MF008.jpg,0,,,,,0,57,57,57,imgFunc,1,NA,2.631471499975305,656.5673310999991,659.2865290100453,2023-03-29 15:06:20.735054,2023-03-29 15:06:23.445609,SD008.jpg,0,10529,40-69,2023-03-29_14h55.36.173,Recall,2021.2.3,59.95103200804632,
,L_DD508.jpg,1,L_FF508.jpg,1,,,,,0,58,58,47,imgFunc,0,NA,2.906182100006845,659.2846464000177,662.2886893100222,2023-03-29 15:06:23.452592,2023-03-29 15:06:26.447803,L_DD508.jpg,1,10529,40-69,2023-03-29_14h55.36.173,Recall,2021.2.3,59.95103200804632,
,SD021.jpg,0,MF021.jpg,0,,,,,0,59,59,70,imgFunc,0,NA,1.1793737999978475,662.2833678000025,663.5524268099689,2023-03-29 15:06:26.454786,2023-03-29 15:06:27.715446,SD021.jpg,0,10529,40-69,2023-03-29_14h55.36.173,Recall,2021.2.3,59.95103200804632,
,DD018.jpg,0,FF018.jpg,0,,,,,0,60,60,17,imgFunc,2,NA,3.445886400004383,663.5610744000296,667.0852611099835,2023-03-29 15:06:27.729411,2023-03-29 15:06:31.251176,DD018.jpg,0,10529,40-69,2023-03-29_14h55.36.173,Recall,2021.2.3,59.95103200804632,
,DD027.jpg,0,FF027.jpg,0,,,,,0,61,61,26,imgFunc,0,NA,4.120755099982489,667.078147799999,671.2833585100016,2023-03-29 15:06:31.258159,2023-03-29 15:06:35.454228,DD027.jpg,0,10529,40-69,2023-03-29_14h55.36.173,Recall,2021.2.3,59.95103200804632,
,DD040.jpg,0,FF040.jpg,0,,,,,0,62,62,39,imgFunc,9,NA,1.3809813999687321,671.2898198000039,672.7585968100466,2023-03-29 15:06:35.462208,2023-03-29 15:06:36.922018,DD040.jpg,0,10529,40-69,2023-03-29_14h55.36.173,Recall,2021.2.3,59.95103200804632,
,DD010.jpg,0,FF010.jpg,0,,,,,0,63,63,9,imgFunc,0,NA,1.5176423999946564,672.7612147000036,674.3640495100408,2023-03-29 15:06:36.929001,2023-03-29 15:06:38.523090,DD010.jpg,0,10529,40-69,2023-03-29_14h55.36.173,Recall,2021.2.3,59.95103200804632,
,SD035.jpg,0,MF035.jpg,0,,,,,0,64,64,84,imgFunc,9,NA,1.0563707000110298,674.3661825000308,675.5178216099739,2023-03-29 15:06:38.531070,2023-03-29 15:06:39.673792,SD035.jpg,0,10529,40-69,2023-03-29_14h55.36.173,Recall,2021.2.3,59.95103200804632,
,SD029.jpg,0,MF029.jpg,0,,,,,0,65,65,78,imgFunc,1,NA,1.4982133999583311,675.5244473000057,677.1230885100085,2023-03-29 15:06:39.682767,2023-03-29 15:06:41.274828,SD029.jpg,0,10529,40-69,2023-03-29_14h55.36.173,Recall,2021.2.3,59.95103200804632,
,L_DD504.jpg,1,L_FF504.jpg,1,,,,,0,66,66,43,imgFunc,0,NA,3.155040799989365,677.1078656000318,680.3452685100492,2023-03-29 15:06:41.281811,2023-03-29 15:06:44.510602,L_DD504.jpg,1,10529,40-69,2023-03-29_14h55.36.173,Recall,2021.2.3,59.95103200804632,
,SD011.jpg,0,MF011.jpg,0,,,,,0,67,67,60,imgFunc,2,NA,3.229800100030843,680.3449423999991,683.6658121100045,2023-03-29 15:06:44.517585,2023-03-29 15:06:47.829660,SD011.jpg,0,10529,40-69,2023-03-29_14h55.36.173,Recall,2021.2.3,59.95103200804632,
,DD014.jpg,0,FF014.jpg,0,,,,,0,68,68,13,imgFunc,9,NA,0.9308195000048727,683.6680788000231,684.6867725100601,2023-03-29 15:06:47.837577,2023-03-29 15:06:48.847283,DD014.jpg,0,10529,40-69,2023-03-29_14h55.36.173,Recall,2021.2.3,59.95103200804632,
,DD008.jpg,0,FF008.jpg,0,,,,,0,69,69,7,imgFunc,0,NA,3.6040618999977596,684.6987862000242,688.3924611100229,2023-03-29 15:06:48.859252,2023-03-29 15:06:52.549790,DD008.jpg,0,10529,40-69,2023-03-29_14h55.36.173,Recall,2021.2.3,59.95103200804632,
,L_SD510.jpg,1,L_MF510.jpg,1,,,,,0,70,70,99,imgFunc,0,NA,2.656207100022584,688.3906160999904,691.1437515099533,2023-03-29 15:06:52.556772,2023-03-29 15:06:55.301721,L_SD510.jpg,1,10529,40-69,2023-03-29_14h55.36.173,Recall,2021.2.3,59.95103200804632,
,L_DD505.jpg,1,L_FF505.jpg,1,,,,,0,71,71,44,imgFunc,1,NA,3.1874892999767326,691.1314293000032,694.4018227099441,2023-03-29 15:06:55.308704,2023-03-29 15:06:58.570688,L_DD505.jpg,1,10529,40-69,2023-03-29_14h55.36.173,Recall,2021.2.3,59.95103200804632,
,SD009.jpg,0,MF009.jpg,0,,,,,0,72,72,58,imgFunc,1,NA,1.1832003999734297,694.4074115999974,695.6769006100367,2023-03-29 15:06:58.577671,2023-03-29 15:06:59.838188,SD009.jpg,0,10529,40-69,2023-03-29_14h55.36.173,Recall,2021.2.3,59.95103200804632,
,SD005.jpg,0,MF005.jpg,0,,,,,0,73,73,54,imgFunc,9,NA,2.3184603999834508,695.680185300007,698.1008160100318,2023-03-29 15:06:59.845171,2023-03-29 15:07:02.256737,SD005.jpg,0,10529,40-69,2023-03-29_14h55.36.173,Recall,2021.2.3,59.95103200804632,
,L_SD501.jpg,1,L_MF501.jpg,1,,,,,0,74,74,90,imgFunc,2,NA,2.0896232000086457,698.1011263999972,700.2742898100405,2023-03-29 15:07:02.270701,2023-03-29 15:07:04.441510,L_SD501.jpg,1,10529,40-69,2023-03-29_14h55.36.173,Recall,2021.2.3,59.95103200804632,
,SD015.jpg,0,MF015.jpg,0,,,,,0,75,75,64,imgFunc,0,NA,1.5781294999760576,700.2767846999923,701.9463967100601,2023-03-29 15:07:04.448404,2023-03-29 15:07:06.109552,SD015.jpg,0,10529,40-69,2023-03-29_14h55.36.173,Recall,2021.2.3,59.95103200804632,
,L_DD510.jpg,1,L_FF510.jpg,1,,,,,0,76,76,49,imgFunc,0,NA,2.201054400007706,701.9418247999856,704.228817909956,2023-03-29 15:07:06.116534,2023-03-29 15:07:08.394396,L_DD510.jpg,1,10529,40-69,2023-03-29_14h55.36.173,Recall,2021.2.3,59.95103200804632,
,DD037.jpg,0,FF037.jpg,0,,,,,0,77,77,36,imgFunc,9,NA,2.875016899954062,704.2357908000122,707.205799510004,2023-03-29 15:07:08.401379,2023-03-29 15:07:11.363314,DD037.jpg,0,10529,40-69,2023-03-29_14h55.36.173,Recall,2021.2.3,59.95103200804632,
,DD005.jpg,0,FF005.jpg,0,,,,,0,78,78,4,imgFunc,9,NA,2.910877700021956,707.199958799989,710.2034205099917,2023-03-29 15:07:11.370321,2023-03-29 15:07:14.365305,DD005.jpg,0,10529,40-69,2023-03-29_14h55.36.173,Recall,2021.2.3,59.95103200804632,
,DD007.jpg,0,FF007.jpg,0,,,,,0,79,79,6,imgFunc,0,NA,1.613333900051657,710.2175152000273,711.9237980100443,2023-03-29 15:07:14.379269,2023-03-29 15:07:16.083026,DD007.jpg,0,10529,40-69,2023-03-29_14h55.36.173,Recall,2021.2.3,59.95103200804632,
,L_DD502.jpg,1,L_FF502.jpg,1,,,,,0,80,80,41,imgFunc,9,NA,2.4101658000145108,711.9244725999888,714.4277411099756,2023-03-29 15:07:16.090015,2023-03-29 15:07:18.584969,L_DD502.jpg,1,10529,40-69,2023-03-29_14h55.36.173,Recall,2021.2.3,59.95103200804632,
,SD003.jpg,0,MF003.jpg,0,,,,,0,81,81,52,imgFunc,2,NA,4.768995999998879,714.4218008000171,719.2768082100083,2023-03-29 15:07:18.591953,2023-03-29 15:07:23.438563,SD003.jpg,0,10529,40-69,2023-03-29_14h55.36.173,Recall,2021.2.3,59.95103200804632,
,DD025.jpg,0,FF025.jpg,0,,,,,0,82,82,24,imgFunc,0,NA,1.3782760000322014,719.2764525000239,720.740700609982,2023-03-29 15:07:23.448560,2023-03-29 15:07:24.906101,DD025.jpg,0,10529,40-69,2023-03-29_14h55.36.173,Recall,2021.2.3,59.95103200804632,
,DD001.jpg,0,FF001.jpg,0,,,,,0,83,83,0,imgFunc,0,NA,2.6399942999705672,720.7426491000224,723.4799100100063,2023-03-29 15:07:24.913084,2023-03-29 15:07:27.641484,DD001.jpg,0,10529,40-69,2023-03-29_14h55.36.173,Recall,2021.2.3,59.95103200804632,
,SD038.jpg,0,MF038.jpg,0,,,,,0,84,84,87,imgFunc,2,NA,2.3790246000280604,723.4837155999849,725.9536330100382,2023-03-29 15:07:27.648467,2023-03-29 15:07:30.109881,SD038.jpg,0,10529,40-69,2023-03-29_14h55.36.173,Recall,2021.2.3,59.95103200804632,
,DD038.jpg,0,FF038.jpg,0,,,,,0,85,85,37,imgFunc,9,NA,2.196366499993019,725.946335399989,728.23254911002,2023-03-29 15:07:30.116864,2023-03-29 15:07:32.394773,DD038.jpg,0,10529,40-69,2023-03-29_14h55.36.173,Recall,2021.2.3,59.95103200804632,
,DD031.jpg,0,FF031.jpg,0,,,,,0,86,86,30,imgFunc,2,NA,2.4155706000165083,728.2312479999964,730.7350444100448,2023-03-29 15:07:32.401756,2023-03-29 15:07:34.896762,DD031.jpg,0,10529,40-69,2023-03-29_14h55.36.173,Recall,2021.2.3,59.95103200804632,
,L_SD503.jpg,1,L_MF503.jpg,1,,,,,0,87,87,92,imgFunc,0,NA,4.27311449998524,730.7335580000072,735.0885108099901,2023-03-29 15:07:34.903745,2023-03-29 15:07:39.249893,L_SD503.jpg,1,10529,40-69,2023-03-29_14h55.36.173,Recall,2021.2.3,59.95103200804632,
,DD019.jpg,0,FF019.jpg,0,,,,,0,88,88,18,imgFunc,9,NA,2.458995799999684,735.1077827999834,737.6661823099712,2023-03-29 15:07:39.262860,2023-03-29 15:07:41.818290,DD019.jpg,0,10529,40-69,2023-03-29_14h55.36.173,Recall,2021.2.3,59.95103200804632,
,SD019.jpg,0,MF019.jpg,0,,,,,0,89,89,68,imgFunc,0,NA,1.4911658000200987,737.6596114999847,739.2448981099878,2023-03-29 15:07:41.826271,2023-03-29 15:07:43.402614,SD019.jpg,0,10529,40-69,2023-03-29_14h55.36.173,Recall,2021.2.3,59.95103200804632,
,SD026.jpg,0,MF026.jpg,0,,,,,0,90,90,75,imgFunc,2,NA,4.875337500008754,739.2354922000086,744.1905047100154,2023-03-29 15:07:43.409619,2023-03-29 15:07:48.356133,SD026.jpg,0,10529,40-69,2023-03-29_14h55.36.173,Recall,2021.2.3,59.95103200804632,
,DD004.jpg,0,FF004.jpg,0,,,,,0,91,91,3,imgFunc,2,NA,3.023857499996666,744.1988806999871,747.3161137099378,2023-03-29 15:07:48.365111,2023-03-29 15:07:51.475116,DD004.jpg,0,10529,40-69,2023-03-29_14h55.36.173,Recall,2021.2.3,59.95103200804632,
,SD023.jpg,0,MF023.jpg,0,,,,,0,92,92,72,imgFunc,9,NA,2.1491199999582022,747.321614800021,749.5744700100622,2023-03-29 15:07:51.482099,2023-03-29 15:07:53.726597,SD023.jpg,0,10529,40-69,2023-03-29_14h55.36.173,Recall,2021.2.3,59.95103200804632,
,DD009.jpg,0,FF009.jpg,0,,,,,0,93,93,8,imgFunc,9,NA,4.659949299995787,749.5784220999922,754.3334605100099,2023-03-29 15:07:53.742556,2023-03-29 15:07:58.496957,DD009.jpg,0,10529,40-69,2023-03-29_14h55.36.173,Recall,2021.2.3,59.95103200804632,
,SD030.jpg,0,MF030.jpg,0,,,,,0,94,94,79,imgFunc,0,NA,4.417088899994269,754.3413272000034,758.8590576099814,2023-03-29 15:07:58.505935,2023-03-29 15:08:03.015765,SD030.jpg,0,10529,40-69,2023-03-29_14h55.36.173,Recall,2021.2.3,59.95103200804632,
,SD031.jpg,0,MF031.jpg,0,,,,,0,95,95,80,imgFunc,0,NA,2.2945710999774747,758.8640286999871,761.24726181,2023-03-29 15:08:03.025732,2023-03-29 15:08:05.401833,SD031.jpg,0,10529,40-69,2023-03-29_14h55.36.173,Recall,2021.2.3,59.95103200804632,
,L_DD503.jpg,1,L_FF503.jpg,1,,,,,0,96,96,42,imgFunc,0,NA,1.475487899966538,761.2510797000141,762.8202147100237,2023-03-29 15:08:05.408816,2023-03-29 15:08:06.969596,L_DD503.jpg,1,10529,40-69,2023-03-29_14h55.36.173,Recall,2021.2.3,59.95103200804632,
,SD012.jpg,0,MF012.jpg,0,,,,,0,97,97,61,imgFunc,9,NA,4.018951100006234,762.8197004999965,766.9408521099831,2023-03-29 15:08:06.976579,2023-03-29 15:08:11.089115,SD012.jpg,0,10529,40-69,2023-03-29_14h55.36.173,Recall,2021.2.3,59.95103200804632,
,SD032.jpg,0,MF032.jpg,0,,,,,0,98,98,81,imgFunc,0,NA,2.355712599994149,766.9309792999993,769.384074409958,2023-03-29 15:08:11.096098,2023-03-29 15:08:13.540915,SD032.jpg,0,10529,40-69,2023-03-29_14h55.36.173,Recall,2021.2.3,59.95103200804632,
,L_SD509.jpg,1,L_MF509.jpg,1,,,,,0,99,99,98,imgFunc,9,NA,4.26966359996004,769.3851001000148,773.7560379100614,2023-03-29 15:08:13.547898,2023-03-29 15:08:17.910589,L_SD509.jpg,1,10529,40-69,2023-03-29_14h55.36.173,Recall,2021.2.3,59.95103200804632,
