instrText,stimDoor,stimDoorLure,stimFace,stimFaceLure,Instructions.thisRepN,Instructions.thisTrialN,Instructions.thisN,Instructions.thisIndex,Trials.thisRepN,Trials.thisTrialN,Trials.thisN,Trials.thisIndex,Func,Keys,Text,RespTime,Onset,Offset,SystemTime_Start,SystemTime_Stop,Stim,Lure,Participant*,Age,date,expName,psychopyVersion,frameRate,
"In the earlier Feedback Games, you chose which doors contained a prize, and which peers liked you. 

You then saw positive or negative feedback (green check mark or red X) from the door or peer you selected.

You will now see a series of doors and peers, some of which you saw during the earlier Feedback Games, and some that you have never seen before.

Please press the spacebar to continue.",,,,,0,0,0,0,,,,,instrFunc,space,"In the earlier Feedback Games, you chose which doors contained a prize, and which peers liked you. 

You then saw positive or negative feedback (green check mark or red X) from the door or peer you selected.

You will now see a series of doors and peers, some of which you saw during the earlier Feedback Games, and some that you have never seen before.

Please press the spacebar to continue.",36.63582619978115,35.697607200127095,72.40910384058952,2023-04-19 13:59:41.652214,2023-04-19 14:00:18.356004,,,10584,30-49,2023-04-19_13h59.38.100,Recall,2021.2.3,59.98904607041855,
"For doors/peers that you remember selecting and getting feedback from, your job is to RECALL what feedback you received. 

Press '1' if you recall positive feedback. 

Press '2' if you recall negative feedback

Press the spacebar to continue.",,,,,0,1,1,1,,,,,instrFunc,space,"For doors/peers that you remember selecting and getting feedback from, your job is to RECALL what feedback you received. 

Press '1' if you recall positive feedback. 

Press '2' if you recall negative feedback

Press the spacebar to continue.",12.917645499575883,72.3757672002539,85.34863011958078,2023-04-19 14:00:18.357004,2023-04-19 14:00:31.314443,,,10584,30-49,2023-04-19_13h59.38.100,Recall,2021.2.3,59.98904607041855,
"For doors/peers that you don't remember getting feedback from, your job is to PREDICT what feedback you WOULD HAVE received.

Press '9' if you predict positive feedback.

Press '0' if you predict negative feedback. 

Please press the spacebar to continue.",,,,,0,2,2,2,,,,,instrFunc,space,"For doors/peers that you don't remember getting feedback from, your job is to PREDICT what feedback you WOULD HAVE received.

Press '9' if you predict positive feedback.

Press '0' if you predict negative feedback. 

Please press the spacebar to continue.",12.742010800167918,85.33549440000206,98.14285891968757,2023-04-19 14:00:31.315444,2023-04-19 14:00:44.107307,,,10584,30-49,2023-04-19_13h59.38.100,Recall,2021.2.3,59.98904607041855,
"This task is self-paced, and the prompts will always stay on the screen so that you know which buttons to press.

On the next screen we will show you what those prompts look like, so that you know exactly what to expect. 

You will start with either doors or peers, and then switch halfway through. 

Please press the spacebar to continue.",,,,,0,3,3,3,,,,,instrFunc,space,"This task is self-paced, and the prompts will always stay on the screen so that you know which buttons to press.

On the next screen we will show you what those prompts look like, so that you know exactly what to expect. 

You will start with either doors or peers, and then switch halfway through. 

Please press the spacebar to continue.",17.18754669977352,98.12181399995461,115.365487719886,2023-04-19 14:00:44.108308,2023-04-19 14:01:01.336526,,,10584,30-49,2023-04-19_13h59.38.100,Recall,2021.2.3,59.98904607041855,
,,,,,,,,,,,,,imgtextFunc,space,"Here is what the screen will look like while you make your ratings.
The green circles remind you to press 1 or 9 for positive feedback.
The red circles remind you to press 2 or 0 for positive feedback.









Please let the experimenter know if you have any questions.

Whenever you're ready, press the spacebar to start the task.",21.427528399974108,115.50561430025846,137.11737882019952,2023-04-19 14:01:01.346294,2023-04-19 14:01:22.952795,,,10584,30-49,2023-04-19_13h59.38.100,Recall,2021.2.3,59.98904607041855,
,L_DD510.jpg,1,L_FF510.jpg,1,,,,,0,0,0,49,imgFunc,9,NA,16.22245300002396,137.09483140008524,153.4591448600404,2023-04-19 14:01:22.992197,2023-04-19 14:01:39.347560,L_DD510.jpg,1,10584,30-49,2023-04-19_13h59.38.100,Recall,2021.2.3,59.98904607041855,
,SD002.jpg,0,MF002.jpg,0,,,,,0,1,1,51,imgFunc,9,NA,3.4685730999335647,153.4567179000005,157.05457251984626,2023-04-19 14:01:39.357538,2023-04-19 14:01:42.949900,SD002.jpg,0,10584,30-49,2023-04-19_13h59.38.100,Recall,2021.2.3,59.98904607041855,
,L_DD509.jpg,1,L_FF509.jpg,1,,,,,0,2,2,48,imgFunc,1,NA,2.3078099000267684,157.02535360027105,159.42810251982883,2023-04-19 14:01:42.957881,2023-04-19 14:01:45.351656,L_DD509.jpg,1,10584,30-49,2023-04-19_13h59.38.100,Recall,2021.2.3,59.98904607041855,
,DD013.jpg,0,FF013.jpg,0,,,,,0,3,3,12,imgFunc,2,NA,5.6315807001665235,159.42959630023688,165.1594994198531,2023-04-19 14:01:45.363625,2023-04-19 14:01:51.089259,DD013.jpg,0,10584,30-49,2023-04-19_13h59.38.100,Recall,2021.2.3,59.98904607041855,
,SD038.jpg,0,MF038.jpg,0,,,,,0,4,4,87,imgFunc,1,NA,1.798016999848187,165.15915070008487,167.04228211939335,2023-04-19 14:01:51.098237,2023-04-19 14:01:52.974112,SD038.jpg,0,10584,30-49,2023-04-19_13h59.38.100,Recall,2021.2.3,59.98904607041855,
,DD016.jpg,0,FF016.jpg,0,,,,,0,5,5,15,imgFunc,1,NA,1.3208671999163926,167.05221870029345,168.47153411991894,2023-04-19 14:01:52.981096,2023-04-19 14:01:54.391635,DD016.jpg,0,10584,30-49,2023-04-19_13h59.38.100,Recall,2021.2.3,59.98904607041855,
,DD028.jpg,0,FF028.jpg,0,,,,,0,6,6,27,imgFunc,1,NA,1.053436300251633,168.46383950021118,169.6162062198855,2023-04-19 14:01:54.398618,2023-04-19 14:01:55.542293,DD028.jpg,0,10584,30-49,2023-04-19_13h59.38.100,Recall,2021.2.3,59.98904607041855,
,SD017.jpg,0,MF017.jpg,0,,,,,0,7,7,66,imgFunc,1,NA,1.5952822999097407,169.62596879992634,171.31615381967276,2023-04-19 14:01:55.556258,2023-04-19 14:01:57.243414,SD017.jpg,0,10584,30-49,2023-04-19_13h59.38.100,Recall,2021.2.3,59.98904607041855,
,DD032.jpg,0,FF032.jpg,0,,,,,0,8,8,31,imgFunc,1,NA,2.6910569998435676,171.32190910028294,174.1078243199736,2023-04-19 14:01:57.251804,2023-04-19 14:02:00.028572,DD032.jpg,0,10584,30-49,2023-04-19_13h59.38.100,Recall,2021.2.3,59.98904607041855,
,DD006.jpg,0,FF006.jpg,0,,,,,0,9,9,5,imgFunc,1,NA,1.5457657999359071,174.1075079003349,175.75486832018942,2023-04-19 14:02:00.038545,2023-04-19 14:02:01.679942,DD006.jpg,0,10584,30-49,2023-04-19_13h59.38.100,Recall,2021.2.3,59.98904607041855,
,L_DD505.jpg,1,L_FF505.jpg,1,,,,,0,10,10,44,imgFunc,2,NA,1.1555374003946781,175.75371860014275,177.00509522017092,2023-04-19 14:02:01.687922,2023-04-19 14:02:02.930272,L_DD505.jpg,1,10584,30-49,2023-04-19_13h59.38.100,Recall,2021.2.3,59.98904607041855,
,DD036.jpg,0,FF036.jpg,0,,,,,0,11,11,35,imgFunc,0,NA,1.9002255001105368,177.00905100023374,179.0115984203294,2023-04-19 14:02:02.938275,2023-04-19 14:02:04.932384,DD036.jpg,0,10584,30-49,2023-04-19_13h59.38.100,Recall,2021.2.3,59.98904607041855,
,SD024.jpg,0,MF024.jpg,0,,,,,0,12,12,73,imgFunc,0,NA,3.240226599853486,179.01288790022954,182.33635742031038,2023-04-19 14:02:04.946348,2023-04-19 14:02:08.268164,SD024.jpg,0,10584,30-49,2023-04-19_13h59.38.100,Recall,2021.2.3,59.98904607041855,
,DD030.jpg,0,FF030.jpg,0,,,,,0,13,13,29,imgFunc,1,NA,1.2568459999747574,182.34042140003294,183.69271011976525,2023-04-19 14:02:08.275842,2023-04-19 14:02:09.619075,DD030.jpg,0,10584,30-49,2023-04-19_13h59.38.100,Recall,2021.2.3,59.98904607041855,
,SD040.jpg,0,MF040.jpg,0,,,,,0,14,14,89,imgFunc,1,NA,1.4769541998393834,183.68825790006667,185.25741792004555,2023-04-19 14:02:09.626058,2023-04-19 14:02:11.186865,SD040.jpg,0,10584,30-49,2023-04-19_13h59.38.100,Recall,2021.2.3,59.98904607041855,
,SD011.jpg,0,MF011.jpg,0,,,,,0,15,15,60,imgFunc,2,NA,1.1685297000221908,185.26061240024865,186.52903911983594,2023-04-19 14:02:11.194845,2023-04-19 14:02:12.454532,SD011.jpg,0,10584,30-49,2023-04-19_13h59.38.100,Recall,2021.2.3,59.98904607041855,
,DD007.jpg,0,FF007.jpg,0,,,,,0,16,16,6,imgFunc,1,NA,1.339095199946314,186.5380371999927,187.99070101976395,2023-04-19 14:02:12.461515,2023-04-19 14:02:13.905444,DD007.jpg,0,10584,30-49,2023-04-19_13h59.38.100,Recall,2021.2.3,59.98904607041855,
,SD036.jpg,0,MF036.jpg,0,,,,,0,17,17,85,imgFunc,0,NA,1.8485332997515798,187.98863149993122,189.92724801972508,2023-04-19 14:02:13.919408,2023-04-19 14:02:15.856599,SD036.jpg,0,10584,30-49,2023-04-19_13h59.38.100,Recall,2021.2.3,59.98904607041855,
,SD004.jpg,0,MF004.jpg,0,,,,,0,18,18,53,imgFunc,9,NA,2.236283900216222,189.92086920002475,192.24119861982763,2023-04-19 14:02:15.863582,2023-04-19 14:02:18.175584,SD004.jpg,0,10584,30-49,2023-04-19_13h59.38.100,Recall,2021.2.3,59.98904607041855,
,DD002.jpg,0,FF002.jpg,0,,,,,0,19,19,1,imgFunc,2,NA,2.0804499997757375,192.25277330027893,194.43863122025505,2023-04-19 14:02:18.182589,2023-04-19 14:02:20.360289,DD002.jpg,0,10584,30-49,2023-04-19_13h59.38.100,Recall,2021.2.3,59.98904607041855,
,SD016.jpg,0,MF016.jpg,0,,,,,0,20,20,65,imgFunc,9,NA,6.783866100013256,194.43732789997011,201.32705051917583,2023-04-19 14:02:20.367272,2023-04-19 14:02:27.248274,SD016.jpg,0,10584,30-49,2023-04-19_13h59.38.100,Recall,2021.2.3,59.98904607041855,
,SD003.jpg,0,MF003.jpg,0,,,,,0,21,21,52,imgFunc,9,NA,4.439008999615908,201.35811639996246,205.92613151995465,2023-04-19 14:02:27.257281,2023-04-19 14:02:31.818470,SD003.jpg,0,10584,30-49,2023-04-19_13h59.38.100,Recall,2021.2.3,59.98904607041855,
,L_DD503.jpg,1,L_FF503.jpg,1,,,,,0,22,22,42,imgFunc,9,NA,2.2444663997739553,205.8884711000137,208.22376861935481,2023-04-19 14:02:31.826451,2023-04-19 14:02:34.153324,L_DD503.jpg,1,10584,30-49,2023-04-19_13h59.38.100,Recall,2021.2.3,59.98904607041855,
,SD037.jpg,0,MF037.jpg,0,,,,,0,23,23,86,imgFunc,0,NA,1.598911799956113,208.23031570017338,209.93349951971322,2023-04-19 14:02:34.160306,2023-04-19 14:02:35.854752,SD037.jpg,0,10584,30-49,2023-04-19_13h59.38.100,Recall,2021.2.3,59.98904607041855,
,L_SD503.jpg,1,L_MF503.jpg,1,,,,,0,24,24,92,imgFunc,1,NA,1.3442337000742555,209.93295430019498,211.38513441942632,2023-04-19 14:02:35.861735,2023-04-19 14:02:37.305632,L_SD503.jpg,1,10584,30-49,2023-04-19_13h59.38.100,Recall,2021.2.3,59.98904607041855,
,L_SD501.jpg,1,L_MF501.jpg,1,,,,,0,25,25,90,imgFunc,1,NA,2.4239213997498155,211.38099700026214,213.9005351201631,2023-04-19 14:02:37.312631,2023-04-19 14:02:39.823110,L_SD501.jpg,1,10584,30-49,2023-04-19_13h59.38.100,Recall,2021.2.3,59.98904607041855,
,L_DD506.jpg,1,L_FF506.jpg,1,,,,,0,26,26,45,imgFunc,9,NA,2.6843180996365845,213.91281200014055,216.70482992008328,2023-04-19 14:02:39.837035,2023-04-19 14:02:42.626221,L_DD506.jpg,1,10584,30-49,2023-04-19_13h59.38.100,Recall,2021.2.3,59.98904607041855,
,DD029.jpg,0,FF029.jpg,0,,,,,0,27,27,28,imgFunc,1,NA,1.6188666000962257,216.69831410003826,218.41785671981052,2023-04-19 14:02:42.633204,2023-04-19 14:02:44.343951,DD029.jpg,0,10584,30-49,2023-04-19_13h59.38.100,Recall,2021.2.3,59.98904607041855,
,L_SD502.jpg,1,L_MF502.jpg,1,,,,,0,28,28,91,imgFunc,1,NA,1.8200789000838995,218.41713230032474,220.33677112031728,2023-04-19 14:02:44.350934,2023-04-19 14:02:46.261822,L_SD502.jpg,1,10584,30-49,2023-04-19_13h59.38.100,Recall,2021.2.3,59.98904607041855,
,DD015.jpg,0,FF015.jpg,0,,,,,0,29,29,14,imgFunc,1,NA,1.585773800034076,220.33932649996132,222.02497311960906,2023-04-19 14:02:46.269702,2023-04-19 14:02:47.946579,DD015.jpg,0,10584,30-49,2023-04-19_13h59.38.100,Recall,2021.2.3,59.98904607041855,
,SD025.jpg,0,MF025.jpg,0,,,,,0,30,30,74,imgFunc,2,NA,2.0895907999947667,222.01957700029016,224.20608191983774,2023-04-19 14:02:47.953562,2023-04-19 14:02:50.131334,SD025.jpg,0,10584,30-49,2023-04-19_13h59.38.100,Recall,2021.2.3,59.98904607041855,
,L_SD508.jpg,1,L_MF508.jpg,1,,,,,0,31,31,97,imgFunc,9,NA,2.4515952998772264,224.2174916001968,226.77267001988366,2023-04-19 14:02:50.146296,2023-04-19 14:02:52.699984,L_SD508.jpg,1,10584,30-49,2023-04-19_13h59.38.100,Recall,2021.2.3,59.98904607041855,
,SD026.jpg,0,MF026.jpg,0,,,,,0,32,32,75,imgFunc,9,NA,3.2712534996680915,226.77386710001156,230.14434832008556,2023-04-19 14:02:52.706967,2023-04-19 14:02:56.068934,SD026.jpg,0,10584,30-49,2023-04-19_13h59.38.100,Recall,2021.2.3,59.98904607041855,
,DD024.jpg,0,FF024.jpg,0,,,,,0,33,33,23,imgFunc,2,NA,1.587278800085187,230.14578620018438,231.83168161986396,2023-04-19 14:02:56.075916,2023-04-19 14:02:57.753605,DD024.jpg,0,10584,30-49,2023-04-19_13h59.38.100,Recall,2021.2.3,59.98904607041855,
,DD022.jpg,0,FF022.jpg,0,,,,,0,34,34,21,imgFunc,1,NA,1.303075599949807,231.82999210013077,233.23272552061826,2023-04-19 14:02:57.760588,2023-04-19 14:02:59.154672,DD022.jpg,0,10584,30-49,2023-04-19_13h59.38.100,Recall,2021.2.3,59.98904607041855,
,SD030.jpg,0,MF030.jpg,0,,,,,0,35,35,79,imgFunc,1,NA,1.2773369001224637,233.23159060021862,234.61742102028802,2023-04-19 14:02:59.161655,2023-04-19 14:03:00.538826,SD030.jpg,0,10584,30-49,2023-04-19_13h59.38.100,Recall,2021.2.3,59.98904607041855,
,DD020.jpg,0,FF020.jpg,0,,,,,0,36,36,19,imgFunc,1,NA,1.9760791002772748,234.62883820012212,236.70097351958975,2023-04-19 14:03:00.553788,2023-04-19 14:03:02.624287,DD020.jpg,0,10584,30-49,2023-04-19_13h59.38.100,Recall,2021.2.3,59.98904607041855,
,DD009.jpg,0,FF009.jpg,0,,,,,0,37,37,8,imgFunc,1,NA,1.2900613001547754,236.6909900000319,238.07635462051257,2023-04-19 14:03:02.631292,2023-04-19 14:03:04.007777,DD009.jpg,0,10584,30-49,2023-04-19_13h59.38.100,Recall,2021.2.3,59.98904607041855,
,DD017.jpg,0,FF017.jpg,0,,,,,0,38,38,16,imgFunc,1,NA,1.132996500004083,238.08006560010836,239.31566681992263,2023-04-19 14:03:04.014787,2023-04-19 14:03:05.242173,DD017.jpg,0,10584,30-49,2023-04-19_13h59.38.100,Recall,2021.2.3,59.98904607041855,
,DD008.jpg,0,FF008.jpg,0,,,,,0,39,39,7,imgFunc,1,NA,2.41401100018993,239.31083060009405,241.81455211993307,2023-04-19 14:03:05.249156,2023-04-19 14:03:07.744097,DD008.jpg,0,10584,30-49,2023-04-19_13h59.38.100,Recall,2021.2.3,59.98904607041855,
,SD035.jpg,0,MF035.jpg,0,,,,,0,40,40,84,imgFunc,9,NA,1.8192102001048625,241.8259414001368,243.74602712038904,2023-04-19 14:03:07.751080,2023-04-19 14:03:09.662215,SD035.jpg,0,10584,30-49,2023-04-19_13h59.38.100,Recall,2021.2.3,59.98904607041855,
,DD003.jpg,0,FF003.jpg,0,,,,,0,41,41,2,imgFunc,9,NA,1.275301500223577,243.72986950026825,245.0977042200975,2023-04-19 14:03:09.670196,2023-04-19 14:03:11.029626,DD003.jpg,0,10584,30-49,2023-04-19_13h59.38.100,Recall,2021.2.3,59.98904607041855,
,SD039.jpg,0,MF039.jpg,0,,,,,0,42,42,88,imgFunc,0,NA,4.6362580000422895,245.09673510026187,249.81856332020834,2023-04-19 14:03:11.036609,2023-04-19 14:03:15.749951,SD039.jpg,0,10584,30-49,2023-04-19_13h59.38.100,Recall,2021.2.3,59.98904607041855,
,SD001.jpg,0,MF001.jpg,0,,,,,0,43,43,50,imgFunc,1,NA,4.331703499890864,249.82534500025213,254.2598792198114,2023-04-19 14:03:15.758929,2023-04-19 14:03:20.186231,SD001.jpg,0,10584,30-49,2023-04-19_13h59.38.100,Recall,2021.2.3,59.98904607041855,
,DD001.jpg,0,FF001.jpg,0,,,,,0,44,44,0,imgFunc,1,NA,1.1409262996166945,254.27210600022227,255.52352522034198,2023-04-19 14:03:20.194212,2023-04-19 14:03:21.437286,DD001.jpg,0,10584,30-49,2023-04-19_13h59.38.100,Recall,2021.2.3,59.98904607041855,
,SD005.jpg,0,MF005.jpg,0,,,,,0,45,45,54,imgFunc,0,NA,3.3697842000983655,255.52311430033296,258.9989965199493,2023-04-19 14:03:21.450253,2023-04-19 14:03:24.923070,SD005.jpg,0,10584,30-49,2023-04-19_13h59.38.100,Recall,2021.2.3,59.98904607041855,
,SD021.jpg,0,MF021.jpg,0,,,,,0,46,46,70,imgFunc,9,NA,2.0545108998194337,258.99054859997705,261.1434963196516,2023-04-19 14:03:24.930053,2023-04-19 14:03:27.074424,SD021.jpg,0,10584,30-49,2023-04-19_13h59.38.100,Recall,2021.2.3,59.98904607041855,
,DD010.jpg,0,FF010.jpg,0,,,,,0,47,47,9,imgFunc,1,NA,1.9044391997158527,261.1484735002741,263.15100741991773,2023-04-19 14:03:27.082272,2023-04-19 14:03:29.075835,DD010.jpg,0,10584,30-49,2023-04-19_13h59.38.100,Recall,2021.2.3,59.98904607041855,
,SD022.jpg,0,MF022.jpg,0,,,,,0,48,48,71,imgFunc,1,NA,1.0104359998367727,263.15458220010623,264.2732753199525,2023-04-19 14:03:29.082846,2023-04-19 14:03:30.193490,SD022.jpg,0,10584,30-49,2023-04-19_13h59.38.100,Recall,2021.2.3,59.98904607041855,
,L_SD506.jpg,1,L_MF506.jpg,1,,,,,0,49,49,95,imgFunc,1,NA,2.944325099699199,264.27669840026647,267.3302226201631,2023-04-19 14:03:30.200495,2023-04-19 14:03:33.245614,L_SD506.jpg,1,10584,30-49,2023-04-19_13h59.38.100,Recall,2021.2.3,59.98904607041855,
,SD023.jpg,0,MF023.jpg,0,,,,,0,50,50,72,imgFunc,9,NA,3.0768241002224386,267.33639759989455,270.50871041975915,2023-04-19 14:03:33.260596,2023-04-19 14:03:36.431508,SD023.jpg,0,10584,30-49,2023-04-19_13h59.38.100,Recall,2021.2.3,59.98904607041855,
,SD013.jpg,0,MF013.jpg,0,,,,,0,51,51,62,imgFunc,9,NA,1.1727828001603484,270.50421020016074,271.7719332203269,2023-04-19 14:03:36.439489,2023-04-19 14:03:37.698738,SD013.jpg,0,10584,30-49,2023-04-19_13h59.38.100,Recall,2021.2.3,59.98904607041855,
,DD014.jpg,0,FF014.jpg,0,,,,,0,52,52,13,imgFunc,9,NA,1.2307461998425424,271.7742611002177,273.1099819201045,2023-04-19 14:03:37.705721,2023-04-19 14:03:39.033230,DD014.jpg,0,10584,30-49,2023-04-19_13h59.38.100,Recall,2021.2.3,59.98904607041855,
,SD031.jpg,0,MF031.jpg,0,,,,,0,53,53,80,imgFunc,0,NA,1.827289699576795,273.10587430000305,275.0253493199125,2023-04-19 14:03:39.040235,2023-04-19 14:03:40.951368,SD031.jpg,0,10584,30-49,2023-04-19_13h59.38.100,Recall,2021.2.3,59.98904607041855,
,DD019.jpg,0,FF019.jpg,0,,,,,0,54,54,18,imgFunc,1,NA,1.1579997995868325,275.0310209002346,276.2999940197915,2023-04-19 14:03:40.958352,2023-04-19 14:03:42.218897,DD019.jpg,0,10584,30-49,2023-04-19_13h59.38.100,Recall,2021.2.3,59.98904607041855,
,SD027.jpg,0,MF027.jpg,0,,,,,0,55,55,76,imgFunc,1,NA,1.9821557998657227,276.30290820030496,278.37294251983985,2023-04-19 14:03:42.233859,2023-04-19 14:03:44.303703,SD027.jpg,0,10584,30-49,2023-04-19_13h59.38.100,Recall,2021.2.3,59.98904607041855,
,DD027.jpg,0,FF027.jpg,0,,,,,0,56,56,26,imgFunc,1,NA,0.9239059002138674,278.37716750008985,279.39643721980974,2023-04-19 14:03:44.310687,2023-04-19 14:03:45.320993,DD027.jpg,0,10584,30-49,2023-04-19_13h59.38.100,Recall,2021.2.3,59.98904607041855,
,SD034.jpg,0,MF034.jpg,0,,,,,0,57,57,83,imgFunc,1,NA,1.0445257001556456,279.39261810015887,280.52892581932247,2023-04-19 14:03:45.327976,2023-04-19 14:03:46.455299,SD034.jpg,0,10584,30-49,2023-04-19_13h59.38.100,Recall,2021.2.3,59.98904607041855,
,L_SD510.jpg,1,L_MF510.jpg,1,,,,,0,58,58,99,imgFunc,0,NA,3.0461492999456823,280.52682160027325,283.6638253200799,2023-04-19 14:03:46.462304,2023-04-19 14:03:49.590627,L_SD510.jpg,1,10584,30-49,2023-04-19_13h59.38.100,Recall,2021.2.3,59.98904607041855,
,SD018.jpg,0,MF018.jpg,0,,,,,0,59,59,67,imgFunc,2,NA,1.3924934002570808,283.67661680001765,285.17890221998096,2023-04-19 14:03:49.598507,2023-04-19 14:03:51.091689,SD018.jpg,0,10584,30-49,2023-04-19_13h59.38.100,Recall,2021.2.3,59.98904607041855,
,SD032.jpg,0,MF032.jpg,0,,,,,0,60,60,81,imgFunc,9,NA,2.587622799910605,285.1614445000887,287.84879921982065,2023-04-19 14:03:51.098672,2023-04-19 14:03:53.777029,SD032.jpg,0,10584,30-49,2023-04-19_13h59.38.100,Recall,2021.2.3,59.98904607041855,
,DD034.jpg,0,FF034.jpg,0,,,,,0,61,61,33,imgFunc,9,NA,1.6050217999145389,287.84799870010465,289.55086282035336,2023-04-19 14:03:53.784012,2023-04-19 14:03:55.478310,DD034.jpg,0,10584,30-49,2023-04-19_13h59.38.100,Recall,2021.2.3,59.98904607041855,
,L_DD508.jpg,1,L_FF508.jpg,1,,,,,0,62,62,47,imgFunc,1,NA,1.754696000367403,289.56235420005396,291.4310219204053,2023-04-19 14:03:55.486290,2023-04-19 14:03:57.346220,L_DD508.jpg,1,10584,30-49,2023-04-19_13h59.38.100,Recall,2021.2.3,59.98904607041855,
,DD023.jpg,0,FF023.jpg,0,,,,,0,63,63,22,imgFunc,9,NA,2.7427566000260413,291.4139487002976,294.2503234203905,2023-04-19 14:03:57.353210,2023-04-19 14:04:00.180769,DD023.jpg,0,10584,30-49,2023-04-19_13h59.38.100,Recall,2021.2.3,59.98904607041855,
,L_DD501.jpg,1,L_FF501.jpg,1,,,,,0,64,64,40,imgFunc,0,NA,3.3469190998002887,294.26613850006834,297.7086328198202,2023-04-19 14:04:00.194730,2023-04-19 14:04:03.634057,L_DD501.jpg,1,10584,30-49,2023-04-19_13h59.38.100,Recall,2021.2.3,59.98904607041855,
,L_DD502.jpg,1,L_FF502.jpg,1,,,,,0,65,65,41,imgFunc,1,NA,2.2359819002449512,297.7050373000093,300.04124582000077,2023-04-19 14:04:03.641039,2023-04-19 14:04:05.969151,L_DD502.jpg,1,10584,30-49,2023-04-19_13h59.38.100,Recall,2021.2.3,59.98904607041855,
,SD008.jpg,0,MF008.jpg,0,,,,,0,66,66,57,imgFunc,1,NA,0.800278399605304,300.0367010002956,300.9217373197898,2023-04-19 14:04:05.976147,2023-04-19 14:04:06.853142,SD008.jpg,0,10584,30-49,2023-04-19_13h59.38.100,Recall,2021.2.3,59.98904607041855,
,L_SD509.jpg,1,L_MF509.jpg,1,,,,,0,67,67,98,imgFunc,1,NA,1.3681332999840379,300.91668300004676,302.3693259200081,2023-04-19 14:04:06.860125,2023-04-19 14:04:08.304089,L_SD509.jpg,1,10584,30-49,2023-04-19_13h59.38.100,Recall,2021.2.3,59.98904607041855,
,DD005.jpg,0,FF005.jpg,0,,,,,0,68,68,4,imgFunc,9,NA,3.395615099929273,302.3771620001644,305.8639041199349,2023-04-19 14:04:08.312029,2023-04-19 14:04:11.789758,DD005.jpg,0,10584,30-49,2023-04-19_13h59.38.100,Recall,2021.2.3,59.98904607041855,
,DD026.jpg,0,FF026.jpg,0,,,,,0,69,69,25,imgFunc,0,NA,1.5549255996011198,305.8740143002942,307.5278149195947,2023-04-19 14:04:11.804715,2023-04-19 14:04:13.457742,DD026.jpg,0,10584,30-49,2023-04-19_13h59.38.100,Recall,2021.2.3,59.98904607041855,
,SD010.jpg,0,MF010.jpg,0,,,,,0,70,70,59,imgFunc,1,NA,0.9053725004196167,307.53156160004437,308.5327515201643,2023-04-19 14:04:13.465722,2023-04-19 14:04:14.458418,SD010.jpg,0,10584,30-49,2023-04-19_13h59.38.100,Recall,2021.2.3,59.98904607041855,
,SD007.jpg,0,MF007.jpg,0,,,,,0,71,71,56,imgFunc,1,NA,1.200474299956113,308.5244737002067,309.81042082002386,2023-04-19 14:04:14.465401,2023-04-19 14:04:15.742918,SD007.jpg,0,10584,30-49,2023-04-19_13h59.38.100,Recall,2021.2.3,59.98904607041855,
,DD025.jpg,0,FF025.jpg,0,,,,,0,72,72,24,imgFunc,1,NA,1.2503002998419106,309.81042030034587,311.14634591992944,2023-04-19 14:04:15.749901,2023-04-19 14:04:17.076742,DD025.jpg,0,10584,30-49,2023-04-19_13h59.38.100,Recall,2021.2.3,59.98904607041855,
,DD004.jpg,0,FF004.jpg,0,,,,,0,73,73,3,imgFunc,1,NA,1.2548386002890766,311.14182860031724,312.4950000201352,2023-04-19 14:04:17.083724,2023-04-19 14:04:18.428446,DD004.jpg,0,10584,30-49,2023-04-19_13h59.38.100,Recall,2021.2.3,59.98904607041855,
,SD014.jpg,0,MF014.jpg,0,,,,,0,74,74,63,imgFunc,1,NA,1.030558600090444,312.52612620033324,313.6678184401244,2023-04-19 14:04:18.449389,2023-04-19 14:04:19.578564,SD014.jpg,0,10584,30-49,2023-04-19_13h59.38.100,Recall,2021.2.3,59.98904607041855,
,SD028.jpg,0,MF028.jpg,0,,,,,0,75,75,77,imgFunc,9,NA,2.4889945997856557,313.64380390010774,316.2296077203937,2023-04-19 14:04:19.586545,2023-04-19 14:04:22.163986,SD028.jpg,0,10584,30-49,2023-04-19_13h59.38.100,Recall,2021.2.3,59.98904607041855,
,DD031.jpg,0,FF031.jpg,0,,,,,0,76,76,30,imgFunc,2,NA,1.9158649002201855,316.23304220009595,318.2362618204206,2023-04-19 14:04:22.170969,2023-04-19 14:04:24.165654,DD031.jpg,0,10584,30-49,2023-04-19_13h59.38.100,Recall,2021.2.3,59.98904607041855,
,L_SD507.jpg,1,L_MF507.jpg,1,,,,,0,77,77,96,imgFunc,9,NA,1.7891383999958634,318.23187769996,320.117605519481,2023-04-19 14:04:24.172637,2023-04-19 14:04:26.049944,L_SD507.jpg,1,10584,30-49,2023-04-19_13h59.38.100,Recall,2021.2.3,59.98904607041855,
,SD019.jpg,0,MF019.jpg,0,,,,,0,78,78,68,imgFunc,9,NA,0.8886415003798902,320.124392000027,321.1101805199869,2023-04-19 14:04:26.056927,2023-04-19 14:04:27.034031,SD019.jpg,0,10584,30-49,2023-04-19_13h59.38.100,Recall,2021.2.3,59.98904607041855,
,DD012.jpg,0,FF012.jpg,0,,,,,0,79,79,11,imgFunc,9,NA,1.4413443999364972,321.09970400016755,322.63582421978936,2023-04-19 14:04:27.041014,2023-04-19 14:04:28.568449,DD012.jpg,0,10584,30-49,2023-04-19_13h59.38.100,Recall,2021.2.3,59.98904607041855,
,L_SD504.jpg,1,L_MF504.jpg,1,,,,,0,80,80,93,imgFunc,9,NA,0.8971631000749767,322.6356263002381,323.6218417198397,2023-04-19 14:04:28.575432,2023-04-19 14:04:29.552645,L_SD504.jpg,1,10584,30-49,2023-04-19_13h59.38.100,Recall,2021.2.3,59.98904607041855,
,DD037.jpg,0,FF037.jpg,0,,,,,0,81,81,36,imgFunc,9,NA,2.2483847001567483,323.6205891002901,325.9576355200261,2023-04-19 14:04:29.559628,2023-04-19 14:04:31.887924,DD037.jpg,0,10584,30-49,2023-04-19_13h59.38.100,Recall,2021.2.3,59.98904607041855,
,L_SD505.jpg,1,L_MF505.jpg,1,,,,,0,82,82,94,imgFunc,1,NA,2.0649477997794747,325.96411349996924,328.13407291984186,2023-04-19 14:04:31.894907,2023-04-19 14:04:34.055983,L_SD505.jpg,1,10584,30-49,2023-04-19_13h59.38.100,Recall,2021.2.3,59.98904607041855,
,SD012.jpg,0,MF012.jpg,0,,,,,0,83,83,61,imgFunc,0,NA,2.6415091999806464,328.14730990026146,330.88929401990026,2023-04-19 14:04:34.068949,2023-04-19 14:04:36.807901,SD012.jpg,0,10584,30-49,2023-04-19_13h59.38.100,Recall,2021.2.3,59.98904607041855,
,SD009.jpg,0,MF009.jpg,0,,,,,0,84,84,58,imgFunc,1,NA,1.0777091002091765,330.87121220026165,332.0403155195527,2023-04-19 14:04:36.814884,2023-04-19 14:04:37.975542,SD009.jpg,0,10584,30-49,2023-04-19_13h59.38.100,Recall,2021.2.3,59.98904607041855,
,DD033.jpg,0,FF033.jpg,0,,,,,0,85,85,32,imgFunc,2,NA,2.25174540001899,332.04890960035846,334.40203271992505,2023-04-19 14:04:37.982543,2023-04-19 14:04:40.326853,DD033.jpg,0,10584,30-49,2023-04-19_13h59.38.100,Recall,2021.2.3,59.98904607041855,
,SD015.jpg,0,MF015.jpg,0,,,,,0,86,86,64,imgFunc,1,NA,1.1394311003386974,334.39358519995585,335.62991341995075,2023-04-19 14:04:40.333848,2023-04-19 14:04:41.561176,SD015.jpg,0,10584,30-49,2023-04-19_13h59.38.100,Recall,2021.2.3,59.98904607041855,
,L_DD507.jpg,1,L_FF507.jpg,1,,,,,0,87,87,46,imgFunc,9,NA,1.5436481996439397,335.6370578003116,337.2901363200508,2023-04-19 14:04:41.568159,2023-04-19 14:04:43.212424,L_DD507.jpg,1,10584,30-49,2023-04-19_13h59.38.100,Recall,2021.2.3,59.98904607041855,
,DD038.jpg,0,FF038.jpg,0,,,,,0,88,88,37,imgFunc,9,NA,1.604210099671036,337.28883370012045,338.97474831994623,2023-04-19 14:04:43.227939,2023-04-19 14:04:44.913623,DD038.jpg,0,10584,30-49,2023-04-19_13h59.38.100,Recall,2021.2.3,59.98904607041855,
,DD040.jpg,0,FF040.jpg,0,,,,,0,89,89,39,imgFunc,1,NA,1.1486614001914859,338.98416030034423,340.2369229197502,2023-04-19 14:04:44.920606,2023-04-19 14:04:46.164475,DD040.jpg,0,10584,30-49,2023-04-19_13h59.38.100,Recall,2021.2.3,59.98904607041855,
,DD011.jpg,0,FF011.jpg,0,,,,,0,90,90,10,imgFunc,1,NA,1.8665270996280015,340.23452439997345,342.2046069195494,2023-04-19 14:04:46.171458,2023-04-19 14:04:48.132219,DD011.jpg,0,10584,30-49,2023-04-19_13h59.38.100,Recall,2021.2.3,59.98904607041855,
,DD039.jpg,0,FF039.jpg,0,,,,,0,91,91,38,imgFunc,2,NA,1.0101242000237107,342.2028963002376,343.30331472028047,2023-04-19 14:04:48.141218,2023-04-19 14:04:49.233423,DD039.jpg,0,10584,30-49,2023-04-19_13h59.38.100,Recall,2021.2.3,59.98904607041855,
,DD018.jpg,0,FF018.jpg,0,,,,,0,92,92,17,imgFunc,9,NA,3.32411319995299,343.30490280035883,346.725905419793,2023-04-19 14:04:49.240406,2023-04-19 14:04:52.652491,DD018.jpg,0,10584,30-49,2023-04-19_13h59.38.100,Recall,2021.2.3,59.98904607041855,
,L_DD504.jpg,1,L_FF504.jpg,1,,,,,0,93,93,43,imgFunc,0,NA,1.298435800243169,346.7383253001608,348.12610631994903,2023-04-19 14:04:52.667185,2023-04-19 14:04:54.053555,L_DD504.jpg,1,10584,30-49,2023-04-19_13h59.38.100,Recall,2021.2.3,59.98904607041855,
,SD006.jpg,0,MF006.jpg,0,,,,,0,94,94,55,imgFunc,1,NA,0.9588672001846135,348.11802710033953,349.1707980199717,2023-04-19 14:04:54.060537,2023-04-19 14:04:55.104208,SD006.jpg,0,10584,30-49,2023-04-19_13h59.38.100,Recall,2021.2.3,59.98904607041855,
,SD029.jpg,0,MF029.jpg,0,,,,,0,95,95,78,imgFunc,9,NA,4.204024999868125,349.16879829997197,353.45715941954404,2023-04-19 14:04:55.111191,2023-04-19 14:04:59.390767,SD029.jpg,0,10584,30-49,2023-04-19_13h59.38.100,Recall,2021.2.3,59.98904607041855,
,SD033.jpg,0,MF033.jpg,0,,,,,0,96,96,82,imgFunc,9,NA,1.585356400348246,353.4675000999123,355.15273221954703,2023-04-19 14:04:59.398748,2023-04-19 14:05:01.075131,SD033.jpg,0,10584,30-49,2023-04-19_13h59.38.100,Recall,2021.2.3,59.98904607041855,
,DD035.jpg,0,FF035.jpg,0,,,,,0,97,97,34,imgFunc,9,NA,2.3060445999726653,355.15481630014256,357.5581946200691,2023-04-19 14:05:01.082114,2023-04-19 14:05:03.477002,DD035.jpg,0,10584,30-49,2023-04-19_13h59.38.100,Recall,2021.2.3,59.98904607041855,
,SD020.jpg,0,MF020.jpg,0,,,,,0,98,98,69,imgFunc,9,NA,0.9027741998434067,357.55026350030676,358.55189492041245,2023-04-19 14:05:03.485004,2023-04-19 14:05:04.477732,SD020.jpg,0,10584,30-49,2023-04-19_13h59.38.100,Recall,2021.2.3,59.98904607041855,
,DD021.jpg,0,FF021.jpg,0,,,,,0,99,99,20,imgFunc,9,NA,1.3788846000097692,358.54598719999194,360.015253120102,2023-04-19 14:05:04.484715,2023-04-19 14:05:05.945560,DD021.jpg,0,10584,30-49,2023-04-19_13h59.38.100,Recall,2021.2.3,59.98904607041855,
,,,,,,,,,,,,,instrFunc,space,"Great work! 

 Now you will switch to the other image type.

 Press the spacebar whenever you are ready to start.",3.008629699703306,359.9482523999177,362.9971536202356,2023-04-19 14:05:05.946560,2023-04-19 14:05:08.979599,,,10584,30-49,2023-04-19_13h59.38.100,Recall,2021.2.3,59.98904607041855,
,SD005.jpg,0,MF005.jpg,0,,,,,0,0,0,54,imgFunc,1,NA,4.45950540015474,363.0733147999272,367.6193099399097,2023-04-19 14:05:09.008523,2023-04-19 14:05:13.551047,MF005.jpg,0,10584,30-49,2023-04-19_13h59.38.100,Recall,2021.2.3,59.98904607041855,
,DD040.jpg,0,FF040.jpg,0,,,,,0,1,1,39,imgFunc,1,NA,1.248624200001359,367.62798679992557,368.9782710201107,2023-04-19 14:05:13.559027,2023-04-19 14:05:14.900894,FF040.jpg,0,10584,30-49,2023-04-19_13h59.38.100,Recall,2021.2.3,59.98904607041855,
,SD016.jpg,0,MF016.jpg,0,,,,,0,2,2,65,imgFunc,1,NA,0.9908292996697128,368.99012210033834,370.091436419636,2023-04-19 14:05:14.909865,2023-04-19 14:05:16.002492,MF016.jpg,0,10584,30-49,2023-04-19_13h59.38.100,Recall,2021.2.3,59.98904607041855,
,DD029.jpg,0,FF029.jpg,0,,,,,0,3,3,28,imgFunc,1,NA,1.2734139999374747,370.09156680013984,371.4689553193748,2023-04-19 14:05:16.014462,2023-04-19 14:05:17.386864,FF029.jpg,0,10584,30-49,2023-04-19_13h59.38.100,Recall,2021.2.3,59.98904607041855,
,L_DD506.jpg,1,L_FF506.jpg,1,,,,,0,4,4,45,imgFunc,1,NA,1.9378438000567257,371.46689600031823,373.5034913206473,2023-04-19 14:05:17.394370,2023-04-19 14:05:19.421896,L_FF506.jpg,1,10584,30-49,2023-04-19_13h59.38.100,Recall,2021.2.3,59.98904607041855,
,SD017.jpg,0,MF017.jpg,0,,,,,0,5,5,66,imgFunc,1,NA,1.2573182000778615,373.4994556000456,374.85260752029717,2023-04-19 14:05:19.428879,2023-04-19 14:05:20.772947,MF017.jpg,0,10584,30-49,2023-04-19_13h59.38.100,Recall,2021.2.3,59.98904607041855,
,SD023.jpg,0,MF023.jpg,0,,,,,0,6,6,72,imgFunc,9,NA,2.843904699664563,374.85701750032604,377.8107924195938,2023-04-19 14:05:20.779930,2023-04-19 14:05:23.724713,MF023.jpg,0,10584,30-49,2023-04-19_13h59.38.100,Recall,2021.2.3,59.98904607041855,
,SD029.jpg,0,MF029.jpg,0,,,,,0,7,7,78,imgFunc,1,NA,4.43925439985469,377.8215195001103,382.37467361986637,2023-04-19 14:05:23.732694,2023-04-19 14:05:28.278258,MF029.jpg,0,10584,30-49,2023-04-19_13h59.38.100,Recall,2021.2.3,59.98904607041855,
,L_SD509.jpg,1,L_MF509.jpg,1,,,,,0,8,8,98,imgFunc,2,NA,1.3340871003456414,382.35071319993585,383.78542081965134,2023-04-19 14:05:28.286261,2023-04-19 14:05:29.712357,L_MF509.jpg,1,10584,30-49,2023-04-19_13h59.38.100,Recall,2021.2.3,59.98904607041855,
,L_DD503.jpg,1,L_FF503.jpg,1,,,,,0,9,9,42,imgFunc,2,NA,0.9567386000417173,383.7840801002458,384.8357864203863,2023-04-19 14:05:29.720135,2023-04-19 14:05:30.763017,L_FF503.jpg,1,10584,30-49,2023-04-19_13h59.38.100,Recall,2021.2.3,59.98904607041855,
,DD030.jpg,0,FF030.jpg,0,,,,,0,10,10,29,imgFunc,2,NA,3.3758526002056897,384.8450442003086,388.332948920317,2023-04-19 14:05:30.770001,2023-04-19 14:05:34.249003,FF030.jpg,0,10584,30-49,2023-04-19_13h59.38.100,Recall,2021.2.3,59.98904607041855,
,SD019.jpg,0,MF019.jpg,0,,,,,0,11,11,68,imgFunc,2,NA,0.916104500181973,388.32870130008087,389.34783352026716,2023-04-19 14:05:34.255986,2023-04-19 14:05:35.265703,MF019.jpg,0,10584,30-49,2023-04-19_13h59.38.100,Recall,2021.2.3,59.98904607041855,
,DD003.jpg,0,FF003.jpg,0,,,,,0,12,12,2,imgFunc,1,NA,1.5140456999652088,389.35473849996924,390.97950521996245,2023-04-19 14:05:35.278671,2023-04-19 14:05:36.900825,FF003.jpg,0,10584,30-49,2023-04-19_13h59.38.100,Recall,2021.2.3,59.98904607041855,
,DD012.jpg,0,FF012.jpg,0,,,,,0,13,13,11,imgFunc,1,NA,0.7258084998466074,390.9670898001641,391.7861762200482,2023-04-19 14:05:36.907808,2023-04-19 14:05:37.718057,FF012.jpg,0,10584,30-49,2023-04-19_13h59.38.100,Recall,2021.2.3,59.98904607041855,
,DD032.jpg,0,FF032.jpg,0,,,,,0,14,14,31,imgFunc,2,NA,1.5728504001162946,391.7921269000508,393.4614480198361,2023-04-19 14:05:37.725013,2023-04-19 14:05:39.385746,FF032.jpg,0,10584,30-49,2023-04-19_13h59.38.100,Recall,2021.2.3,59.98904607041855,
,SD031.jpg,0,MF031.jpg,0,,,,,0,15,15,80,imgFunc,9,NA,3.109730999916792,393.4627473000437,396.68304671999067,2023-04-19 14:05:39.392753,2023-04-19 14:05:42.604572,MF031.jpg,0,10584,30-49,2023-04-19_13h59.38.100,Recall,2021.2.3,59.98904607041855,
,SD025.jpg,0,MF025.jpg,0,,,,,0,16,16,74,imgFunc,9,NA,1.4233980001881719,396.7011572001502,398.251952520106,2023-04-19 14:05:42.612519,2023-04-19 14:05:44.156103,MF025.jpg,0,10584,30-49,2023-04-19_13h59.38.100,Recall,2021.2.3,59.98904607041855,
,DD034.jpg,0,FF034.jpg,0,,,,,0,17,17,33,imgFunc,1,NA,1.381708299741149,398.2391066001728,399.7109563197009,2023-04-19 14:05:44.170067,2023-04-19 14:05:45.640635,FF034.jpg,0,10584,30-49,2023-04-19_13h59.38.100,Recall,2021.2.3,59.98904607041855,
,DD004.jpg,0,FF004.jpg,0,,,,,0,18,18,3,imgFunc,1,NA,1.6552724000066519,399.7176668001339,401.47104771994054,2023-04-19 14:05:45.647618,2023-04-19 14:05:47.391849,FF004.jpg,0,10584,30-49,2023-04-19_13h59.38.100,Recall,2021.2.3,59.98904607041855,
,SD032.jpg,0,MF032.jpg,0,,,,,0,19,19,81,imgFunc,1,NA,0.929872200358659,401.4670061999932,402.5022661196999,2023-04-19 14:05:47.398843,2023-04-19 14:05:48.425796,MF032.jpg,0,10584,30-49,2023-04-19_13h59.38.100,Recall,2021.2.3,59.98904607041855,
,DD011.jpg,0,FF011.jpg,0,,,,,0,20,20,10,imgFunc,1,NA,1.9320000000298023,402.5048853000626,404.54058911977336,2023-04-19 14:05:48.433777,2023-04-19 14:05:50.460550,FF011.jpg,0,10584,30-49,2023-04-19_13h59.38.100,Recall,2021.2.3,59.98904607041855,
,SD024.jpg,0,MF024.jpg,0,,,,,0,21,21,73,imgFunc,1,NA,1.222876399755478,404.53384370030835,405.852351219859,2023-04-19 14:05:50.467533,2023-04-19 14:05:51.777848,MF024.jpg,0,10584,30-49,2023-04-19_13h59.38.100,Recall,2021.2.3,59.98904607041855,
,DD028.jpg,0,FF028.jpg,0,,,,,0,22,22,27,imgFunc,9,NA,2.3387552998028696,405.8661080002785,408.30259992042556,2023-04-19 14:05:51.793329,2023-04-19 14:05:54.229923,FF028.jpg,0,10584,30-49,2023-04-19_13h59.38.100,Recall,2021.2.3,59.98904607041855,
,DD016.jpg,0,FF016.jpg,0,,,,,0,23,23,15,imgFunc,1,NA,0.9273447003215551,408.3014497002587,409.3208334199153,2023-04-19 14:05:54.236907,2023-04-19 14:05:55.247626,FF016.jpg,0,10584,30-49,2023-04-19_13h59.38.100,Recall,2021.2.3,59.98904607041855,
,SD040.jpg,0,MF040.jpg,0,,,,,0,24,24,89,imgFunc,2,NA,1.4370122998952866,409.3194738999009,410.85504801990464,2023-04-19 14:05:55.254609,2023-04-19 14:05:56.781049,MF040.jpg,0,10584,30-49,2023-04-19_13h59.38.100,Recall,2021.2.3,59.98904607041855,
,DD027.jpg,0,FF027.jpg,0,,,,,0,25,25,26,imgFunc,1,NA,0.9434822001494467,410.85335340024903,411.88954742019996,2023-04-19 14:05:56.789018,2023-04-19 14:05:57.816005,FF027.jpg,0,10584,30-49,2023-04-19_13h59.38.100,Recall,2021.2.3,59.98904607041855,
,DD033.jpg,0,FF033.jpg,0,,,,,0,26,26,32,imgFunc,1,NA,3.5482780002057552,411.89657999994233,415.55103311967105,2023-04-19 14:05:57.822988,2023-04-19 14:06:01.468770,FF033.jpg,0,10584,30-49,2023-04-19_13h59.38.100,Recall,2021.2.3,59.98904607041855,
,L_SD502.jpg,1,L_MF502.jpg,1,,,,,0,27,27,91,imgFunc,2,NA,2.140853499993682,415.5438950001262,417.77929031988606,2023-04-19 14:06:01.476781,2023-04-19 14:06:03.703380,L_MF502.jpg,1,10584,30-49,2023-04-19_13h59.38.100,Recall,2021.2.3,59.98904607041855,
,L_SD507.jpg,1,L_MF507.jpg,1,,,,,0,28,28,96,imgFunc,2,NA,0.9917240999639034,417.77309529995546,418.8587545203045,2023-04-19 14:06:03.710364,2023-04-19 14:06:04.787599,L_MF507.jpg,1,10584,30-49,2023-04-19_13h59.38.100,Recall,2021.2.3,59.98904607041855,
,L_SD503.jpg,1,L_MF503.jpg,1,,,,,0,29,29,92,imgFunc,2,NA,2.0701728998683393,418.87033380009234,421.0564094199799,2023-04-19 14:06:04.794582,2023-04-19 14:06:06.972446,L_MF503.jpg,1,10584,30-49,2023-04-19_13h59.38.100,Recall,2021.2.3,59.98904607041855,
,SD037.jpg,0,MF037.jpg,0,,,,,0,30,30,86,imgFunc,1,NA,1.5110039003193378,421.0538511001505,422.6733251204714,2023-04-19 14:06:06.979429,2023-04-19 14:06:08.590260,MF037.jpg,0,10584,30-49,2023-04-19_13h59.38.100,Recall,2021.2.3,59.98904607041855,
,SD030.jpg,0,MF030.jpg,0,,,,,0,31,31,79,imgFunc,9,NA,1.669561999849975,422.67906570015475,424.45030531985685,2023-04-19 14:06:08.604697,2023-04-19 14:06:10.374851,MF030.jpg,0,10584,30-49,2023-04-19_13h59.38.100,Recall,2021.2.3,59.98904607041855,
,DD008.jpg,0,FF008.jpg,0,,,,,0,32,32,7,imgFunc,9,NA,2.565066899638623,424.44743780000135,427.11636761948466,2023-04-19 14:06:10.382831,2023-04-19 14:06:13.042544,FF008.jpg,0,10584,30-49,2023-04-19_13h59.38.100,Recall,2021.2.3,59.98904607041855,
,L_SD504.jpg,1,L_MF504.jpg,1,,,,,0,33,33,93,imgFunc,0,NA,1.5715247998014092,427.1133468002081,428.78298912011087,2023-04-19 14:06:13.050520,2023-04-19 14:06:14.711372,L_MF504.jpg,1,10584,30-49,2023-04-19_13h59.38.100,Recall,2021.2.3,59.98904607041855,
,L_DD507.jpg,1,L_FF507.jpg,1,,,,,0,34,34,46,imgFunc,0,NA,2.7964725997298956,428.7841806001961,431.68794711958617,2023-04-19 14:06:14.718355,2023-04-19 14:06:17.613277,L_FF507.jpg,1,10584,30-49,2023-04-19_13h59.38.100,Recall,2021.2.3,59.98904607041855,
,SD012.jpg,0,MF012.jpg,0,,,,,0,35,35,61,imgFunc,0,NA,1.0801126002334058,431.69270580029115,432.87796022044495,2023-04-19 14:06:17.621120,2023-04-19 14:06:18.797303,MF012.jpg,0,10584,30-49,2023-04-19_13h59.38.100,Recall,2021.2.3,59.98904607041855,
,SD011.jpg,0,MF011.jpg,0,,,,,0,36,36,60,imgFunc,0,NA,1.072199100162834,432.8846578001976,434.05585352005437,2023-04-19 14:06:18.812265,2023-04-19 14:06:19.981660,MF011.jpg,0,10584,30-49,2023-04-19_13h59.38.100,Recall,2021.2.3,59.98904607041855,
,DD022.jpg,0,FF022.jpg,0,,,,,0,37,37,21,imgFunc,9,NA,3.1924986001104116,434.05228180019185,437.33998181996867,2023-04-19 14:06:19.988643,2023-04-19 14:06:23.267372,FF022.jpg,0,10584,30-49,2023-04-19_13h59.38.100,Recall,2021.2.3,59.98904607041855,
,DD013.jpg,0,FF013.jpg,0,,,,,0,38,38,12,imgFunc,9,NA,1.082746600266546,437.34595140023157,438.53168661985546,2023-04-19 14:06:23.274356,2023-04-19 14:06:24.451354,FF013.jpg,0,10584,30-49,2023-04-19_13h59.38.100,Recall,2021.2.3,59.98904607041855,
,SD006.jpg,0,MF006.jpg,0,,,,,0,39,39,55,imgFunc,9,NA,2.710518699605018,438.53428430017084,441.35441951965913,2023-04-19 14:06:24.458337,2023-04-19 14:06:27.270256,MF006.jpg,0,10584,30-49,2023-04-19_13h59.38.100,Recall,2021.2.3,59.98904607041855,
,SD034.jpg,0,MF034.jpg,0,,,,,0,40,40,83,imgFunc,2,NA,1.6678643999621272,441.3528124000877,443.12272361991927,2023-04-19 14:06:27.277239,2023-04-19 14:06:29.038445,MF034.jpg,0,10584,30-49,2023-04-19_13h59.38.100,Recall,2021.2.3,59.98904607041855,
,DD021.jpg,0,FF021.jpg,0,,,,,0,41,41,20,imgFunc,1,NA,2.6196252000518143,443.11312479991466,445.8334659198299,2023-04-19 14:06:29.045428,2023-04-19 14:06:31.756916,FF021.jpg,0,10584,30-49,2023-04-19_13h59.38.100,Recall,2021.2.3,59.98904607041855,
,DD017.jpg,0,FF017.jpg,0,,,,,0,42,42,16,imgFunc,2,NA,2.143001400399953,445.8378824000247,448.09118761960417,2023-04-19 14:06:31.763921,2023-04-19 14:06:34.008533,FF017.jpg,0,10584,30-49,2023-04-19_13h59.38.100,Recall,2021.2.3,59.98904607041855,
,L_DD504.jpg,1,L_FF504.jpg,1,,,,,0,43,43,43,imgFunc,2,NA,1.1296016997657716,448.09110340010375,449.3269147197716,2023-04-19 14:06:34.015516,2023-04-19 14:06:35.242422,L_FF504.jpg,1,10584,30-49,2023-04-19_13h59.38.100,Recall,2021.2.3,59.98904607041855,
,L_DD501.jpg,1,L_FF501.jpg,1,,,,,0,44,44,40,imgFunc,9,NA,1.9315285999327898,449.32130570011213,451.35668832063675,2023-04-19 14:06:35.250403,2023-04-19 14:06:37.277208,L_FF501.jpg,1,10584,30-49,2023-04-19_13h59.38.100,Recall,2021.2.3,59.98904607041855,
,SD015.jpg,0,MF015.jpg,0,,,,,0,45,45,64,imgFunc,1,NA,1.4478552001528442,451.36462190002203,452.9031628202647,2023-04-19 14:06:37.292170,2023-04-19 14:06:38.828699,MF015.jpg,0,10584,30-49,2023-04-19_13h59.38.100,Recall,2021.2.3,59.98904607041855,
,SD002.jpg,0,MF002.jpg,0,,,,,0,46,46,51,imgFunc,1,NA,0.9962567999027669,452.896603200119,453.982311419677,2023-04-19 14:06:38.835679,2023-04-19 14:06:39.912741,MF002.jpg,0,10584,30-49,2023-04-19_13h59.38.100,Recall,2021.2.3,59.98904607041855,
,SD001.jpg,0,MF001.jpg,0,,,,,0,47,47,50,imgFunc,2,NA,1.4050325998105109,453.99974250001833,455.5191243197769,2023-04-19 14:06:39.919746,2023-04-19 14:06:41.430436,MF001.jpg,0,10584,30-49,2023-04-19_13h59.38.100,Recall,2021.2.3,59.98904607041855,
,DD039.jpg,0,FF039.jpg,0,,,,,0,48,48,38,imgFunc,9,NA,3.6062155002728105,455.5264515001327,459.2474646200426,2023-04-19 14:06:41.437419,2023-04-19 14:06:45.149926,FF039.jpg,0,10584,30-49,2023-04-19_13h59.38.100,Recall,2021.2.3,59.98904607041855,
,DD007.jpg,0,FF007.jpg,0,,,,,0,49,49,6,imgFunc,1,NA,1.5423376997932792,459.2303539002314,460.8826562203467,2023-04-19 14:06:45.156931,2023-04-19 14:06:46.800797,FF007.jpg,0,10584,30-49,2023-04-19_13h59.38.100,Recall,2021.2.3,59.98904607041855,
,L_SD510.jpg,1,L_MF510.jpg,1,,,,,0,50,50,99,imgFunc,0,NA,2.3245161999948323,460.8801661999896,463.30238802032545,2023-04-19 14:06:46.815759,2023-04-19 14:06:49.236149,L_MF510.jpg,1,10584,30-49,2023-04-19_13h59.38.100,Recall,2021.2.3,59.98904607041855,
,DD038.jpg,0,FF038.jpg,0,,,,,0,51,51,37,imgFunc,9,NA,2.0137005001306534,463.31104040006176,465.43138771969825,2023-04-19 14:06:49.243132,2023-04-19 14:06:51.354402,FF038.jpg,0,10584,30-49,2023-04-19_13h59.38.100,Recall,2021.2.3,59.98904607041855,
,SD007.jpg,0,MF007.jpg,0,,,,,0,52,52,56,imgFunc,9,NA,0.8402408002875745,465.4284165003337,466.3642824203707,2023-04-19 14:06:51.361385,2023-04-19 14:06:52.288278,MF007.jpg,0,10584,30-49,2023-04-19_13h59.38.100,Recall,2021.2.3,59.98904607041855,
,SD033.jpg,0,MF033.jpg,0,,,,,0,53,53,82,imgFunc,9,NA,1.826032499782741,466.3626001002267,468.28244911972433,2023-04-19 14:06:52.295261,2023-04-19 14:06:54.206223,MF033.jpg,0,10584,30-49,2023-04-19_13h59.38.100,Recall,2021.2.3,59.98904607041855,
,DD014.jpg,0,FF014.jpg,0,,,,,0,54,54,13,imgFunc,9,NA,3.7837604000233114,468.2849846002646,472.17287721997127,2023-04-19 14:06:54.213206,2023-04-19 14:06:58.092452,FF014.jpg,0,10584,30-49,2023-04-19_13h59.38.100,Recall,2021.2.3,59.98904607041855,
,SD009.jpg,0,MF009.jpg,0,,,,,0,55,55,58,imgFunc,9,NA,1.8094093999825418,472.17128350026906,474.0872374204919,2023-04-19 14:06:58.101429,2023-04-19 14:07:00.010173,MF009.jpg,0,10584,30-49,2023-04-19_13h59.38.100,Recall,2021.2.3,59.98904607041855,
,L_SD508.jpg,1,L_MF508.jpg,1,,,,,0,56,56,97,imgFunc,9,NA,1.0737113999202847,474.0827514003031,475.2515277196653,2023-04-19 14:07:00.018145,2023-04-19 14:07:01.177996,L_MF508.jpg,1,10584,30-49,2023-04-19_13h59.38.100,Recall,2021.2.3,59.98904607041855,
,L_DD509.jpg,1,L_FF509.jpg,1,,,,,0,57,57,48,imgFunc,9,NA,0.9996862998232245,475.2448794003576,476.3309893202968,2023-04-19 14:07:01.184979,2023-04-19 14:07:02.262441,L_FF509.jpg,1,10584,30-49,2023-04-19_13h59.38.100,Recall,2021.2.3,59.98904607041855,
,SD038.jpg,0,MF038.jpg,0,,,,,0,58,58,87,imgFunc,1,NA,3.2764266999438405,476.3442258001305,479.73167181992903,2023-04-19 14:07:02.269424,2023-04-19 14:07:05.647918,MF038.jpg,0,10584,30-49,2023-04-19_13h59.38.100,Recall,2021.2.3,59.98904607041855,
,L_SD506.jpg,1,L_MF506.jpg,1,,,,,0,59,59,95,imgFunc,9,NA,2.9721531001850963,479.7366141001694,482.82158933999017,2023-04-19 14:07:05.664875,2023-04-19 14:07:08.733294,L_MF506.jpg,1,10584,30-49,2023-04-19_13h59.38.100,Recall,2021.2.3,59.98904607041855,
,SD013.jpg,0,MF013.jpg,0,,,,,0,60,60,62,imgFunc,0,NA,1.4220874002203345,482.8066225000657,484.32536381995305,2023-04-19 14:07:08.740277,2023-04-19 14:07:10.250945,MF013.jpg,0,10584,30-49,2023-04-19_13h59.38.100,Recall,2021.2.3,59.98904607041855,
,DD036.jpg,0,FF036.jpg,0,,,,,0,61,61,35,imgFunc,9,NA,1.36426190007478,484.3284081001766,485.7971196202561,2023-04-19 14:07:10.258926,2023-04-19 14:07:11.719024,FF036.jpg,0,10584,30-49,2023-04-19_13h59.38.100,Recall,2021.2.3,59.98904607041855,
,SD036.jpg,0,MF036.jpg,0,,,,,0,62,62,85,imgFunc,2,NA,2.6172806001268327,485.7871999000199,488.50686832051724,2023-04-19 14:07:11.726031,2023-04-19 14:07:14.437373,MF036.jpg,0,10584,30-49,2023-04-19_13h59.38.100,Recall,2021.2.3,59.98904607041855,
,SD039.jpg,0,MF039.jpg,0,,,,,0,63,63,88,imgFunc,9,NA,3.010460500139743,488.5141642000526,491.6344738197513,2023-04-19 14:07:14.444356,2023-04-19 14:07:17.556099,MF039.jpg,0,10584,30-49,2023-04-19_13h59.38.100,Recall,2021.2.3,59.98904607041855,
,SD021.jpg,0,MF021.jpg,0,,,,,0,64,64,70,imgFunc,9,NA,3.075384800322354,491.64911970030516,494.81905081961304,2023-04-19 14:07:17.572058,2023-04-19 14:07:20.742093,MF021.jpg,0,10584,30-49,2023-04-19_13h59.38.100,Recall,2021.2.3,59.98904607041855,
,L_DD502.jpg,1,L_FF502.jpg,1,,,,,0,65,65,41,imgFunc,9,NA,1.632451799698174,494.8203465002589,496.5564855202101,2023-04-19 14:07:20.749076,2023-04-19 14:07:22.476540,L_FF502.jpg,1,10584,30-49,2023-04-19_13h59.38.100,Recall,2021.2.3,59.98904607041855,
,DD002.jpg,0,FF002.jpg,0,,,,,0,66,66,1,imgFunc,9,NA,1.2663015997968614,496.54604780022055,497.914979419671,2023-04-19 14:07:22.483524,2023-04-19 14:07:23.843954,FF002.jpg,0,10584,30-49,2023-04-19_13h59.38.100,Recall,2021.2.3,59.98904607041855,
,SD004.jpg,0,MF004.jpg,0,,,,,0,67,67,53,imgFunc,9,NA,1.5758771998807788,497.92485979991034,499.611212419346,2023-04-19 14:07:23.850960,2023-04-19 14:07:25.528813,MF004.jpg,0,10584,30-49,2023-04-19_13h59.38.100,Recall,2021.2.3,59.98904607041855,
,DD018.jpg,0,FF018.jpg,0,,,,,0,68,68,17,imgFunc,9,NA,1.184531600214541,499.61213500006124,500.91471951967105,2023-04-19 14:07:25.535796,2023-04-19 14:07:26.829450,FF018.jpg,0,10584,30-49,2023-04-19_13h59.38.100,Recall,2021.2.3,59.98904607041855,
,DD023.jpg,0,FF023.jpg,0,,,,,0,69,69,22,imgFunc,9,NA,7.304448599927127,500.9001982999034,508.306943919044,2023-04-19 14:07:26.836456,2023-04-19 14:07:34.234842,FF023.jpg,0,10584,30-49,2023-04-19_13h59.38.100,Recall,2021.2.3,59.98904607041855,
,DD024.jpg,0,FF024.jpg,0,,,,,0,70,70,23,imgFunc,9,NA,1.077022499870509,508.3115885001607,509.4934385200031,2023-04-19 14:07:34.243704,2023-04-19 14:07:35.418780,FF024.jpg,0,10584,30-49,2023-04-19_13h59.38.100,Recall,2021.2.3,59.98904607041855,
,DD037.jpg,0,FF037.jpg,0,,,,,0,71,71,36,imgFunc,9,NA,2.012617399916053,509.4960946002975,511.615256620571,2023-04-19 14:07:35.426668,2023-04-19 14:07:37.537167,FF037.jpg,0,10584,30-49,2023-04-19_13h59.38.100,Recall,2021.2.3,59.98904607041855,
,DD010.jpg,0,FF010.jpg,0,,,,,0,72,72,9,imgFunc,1,NA,1.548833499662578,511.6158736003563,513.268117220141,2023-04-19 14:07:37.545043,2023-04-19 14:07:39.188329,FF010.jpg,0,10584,30-49,2023-04-19_13h59.38.100,Recall,2021.2.3,59.98904607041855,
,SD022.jpg,0,MF022.jpg,0,,,,,0,73,73,71,imgFunc,0,NA,3.099066300317645,513.2816289002076,516.4867728198878,2023-04-19 14:07:39.203175,2023-04-19 14:07:42.407080,MF022.jpg,0,10584,30-49,2023-04-19_13h59.38.100,Recall,2021.2.3,59.98904607041855,
,DD035.jpg,0,FF035.jpg,0,,,,,0,74,74,34,imgFunc,9,NA,1.0538164000026882,516.4785786001012,517.6298973201774,2023-04-19 14:07:42.415062,2023-04-19 14:07:43.558114,FF035.jpg,0,10584,30-49,2023-04-19_13h59.38.100,Recall,2021.2.3,59.98904607041855,
,L_SD505.jpg,1,L_MF505.jpg,1,,,,,0,75,75,94,imgFunc,0,NA,1.338045199867338,517.6346110999584,519.0708267204463,2023-04-19 14:07:43.565119,2023-04-19 14:07:44.993022,L_MF505.jpg,1,10584,30-49,2023-04-19_13h59.38.100,Recall,2021.2.3,59.98904607041855,
,L_SD501.jpg,1,L_MF501.jpg,1,,,,,0,76,76,90,imgFunc,9,NA,1.8978205998428166,519.0668991003186,521.0695924200118,2023-04-19 14:07:45.000025,2023-04-19 14:07:46.994069,L_MF501.jpg,1,10584,30-49,2023-04-19_13h59.38.100,Recall,2021.2.3,59.98904607041855,
,DD020.jpg,0,FF020.jpg,0,,,,,0,77,77,19,imgFunc,9,NA,0.9555442002601922,521.0729074003175,522.1416636197828,2023-04-19 14:07:47.001052,2023-04-19 14:07:48.061535,FF020.jpg,0,10584,30-49,2023-04-19_13h59.38.100,Recall,2021.2.3,59.98904607041855,
,SD018.jpg,0,MF018.jpg,0,,,,,0,78,78,67,imgFunc,1,NA,1.533078399952501,522.1433916999958,523.7650511199608,2023-04-19 14:07:48.076496,2023-04-19 14:07:49.696250,MF018.jpg,0,10584,30-49,2023-04-19_13h59.38.100,Recall,2021.2.3,59.98904607041855,
,SD010.jpg,0,MF010.jpg,0,,,,,0,79,79,59,imgFunc,2,NA,1.4753026999533176,523.7851374000311,525.3711772197857,2023-04-19 14:07:49.703233,2023-04-19 14:07:51.280713,MF010.jpg,0,10584,30-49,2023-04-19_13h59.38.100,Recall,2021.2.3,59.98904607041855,
,SD014.jpg,0,MF014.jpg,0,,,,,0,80,80,63,imgFunc,2,NA,1.0972335999831557,525.3631740999408,526.5640658196062,2023-04-19 14:07:51.288691,2023-04-19 14:07:52.481298,MF014.jpg,0,10584,30-49,2023-04-19_13h59.38.100,Recall,2021.2.3,59.98904607041855,
,SD027.jpg,0,MF027.jpg,0,,,,,0,81,81,76,imgFunc,9,NA,1.1437741997651756,526.5568739003502,527.8085317201912,2023-04-19 14:07:52.489298,2023-04-19 14:07:53.732153,MF027.jpg,0,10584,30-49,2023-04-19_13h59.38.100,Recall,2021.2.3,59.98904607041855,
,SD003.jpg,0,MF003.jpg,0,,,,,0,82,82,52,imgFunc,2,NA,1.7001574002206326,527.8163829003461,529.6197140202858,2023-04-19 14:07:53.739136,2023-04-19 14:07:55.533652,MF003.jpg,0,10584,30-49,2023-04-19_13h59.38.100,Recall,2021.2.3,59.98904607041855,
,L_DD510.jpg,1,L_FF510.jpg,1,,,,,0,83,83,49,imgFunc,9,NA,1.343518900219351,529.6131893000565,531.0659814202227,2023-04-19 14:07:55.540635,2023-04-19 14:07:56.984469,L_FF510.jpg,1,10584,30-49,2023-04-19_13h59.38.100,Recall,2021.2.3,59.98904607041855,
,DD015.jpg,0,FF015.jpg,0,,,,,0,84,84,14,imgFunc,9,NA,1.069418499711901,531.0552332000807,532.2242213198915,2023-04-19 14:07:56.991475,2023-04-19 14:07:58.151895,FF015.jpg,0,10584,30-49,2023-04-19_13h59.38.100,Recall,2021.2.3,59.98904607041855,
,L_DD508.jpg,1,L_FF508.jpg,1,,,,,0,85,85,47,imgFunc,9,NA,0.8746342002414167,532.2258040001616,533.1955720200203,2023-04-19 14:07:58.158878,2023-04-19 14:07:59.119642,L_FF508.jpg,1,10584,30-49,2023-04-19_13h59.38.100,Recall,2021.2.3,59.98904607041855,
,SD035.jpg,0,MF035.jpg,0,,,,,0,86,86,84,imgFunc,9,NA,1.4929343997500837,533.1997468001209,534.8021300202236,2023-04-19 14:07:59.126647,2023-04-19 14:08:00.720608,MF035.jpg,0,10584,30-49,2023-04-19_13h59.38.100,Recall,2021.2.3,59.98904607041855,
,DD031.jpg,0,FF031.jpg,0,,,,,0,87,87,30,imgFunc,0,NA,1.354573399759829,534.8019626000896,536.2572313197888,2023-04-19 14:08:00.734572,2023-04-19 14:08:02.188370,FF031.jpg,0,10584,30-49,2023-04-19_13h59.38.100,Recall,2021.2.3,59.98904607041855,
,DD005.jpg,0,FF005.jpg,0,,,,,0,88,88,4,imgFunc,2,NA,2.097138599958271,536.2594073000364,538.4627420199104,2023-04-19 14:08:02.195352,2023-04-19 14:08:04.389820,FF005.jpg,0,10584,30-49,2023-04-19_13h59.38.100,Recall,2021.2.3,59.98904607041855,
,DD001.jpg,0,FF001.jpg,0,,,,,0,89,89,0,imgFunc,9,NA,1.357263599988073,538.4633607999422,539.9159433194436,2023-04-19 14:08:04.396803,2023-04-19 14:08:05.841281,FF001.jpg,0,10584,30-49,2023-04-19_13h59.38.100,Recall,2021.2.3,59.98904607041855,
,SD020.jpg,0,MF020.jpg,0,,,,,0,90,90,69,imgFunc,2,NA,2.895152300130576,539.9172029001638,542.9210719200782,2023-04-19 14:08:05.848264,2023-04-19 14:08:08.843089,MF020.jpg,0,10584,30-49,2023-04-19_13h59.38.100,Recall,2021.2.3,59.98904607041855,
,SD026.jpg,0,MF026.jpg,0,,,,,0,91,91,75,imgFunc,9,NA,1.3619385003112257,542.9304947000928,544.3993432200514,2023-04-19 14:08:08.850095,2023-04-19 14:08:10.310789,MF026.jpg,0,10584,30-49,2023-04-19_13h59.38.100,Recall,2021.2.3,59.98904607041855,
,L_DD505.jpg,1,L_FF505.jpg,1,,,,,0,92,92,44,imgFunc,1,NA,1.3203908000141382,544.3962730001658,545.8177931201644,2023-04-19 14:08:10.324753,2023-04-19 14:08:11.745104,L_FF505.jpg,1,10584,30-49,2023-04-19_13h59.38.100,Recall,2021.2.3,59.98904607041855,
,DD025.jpg,0,FF025.jpg,0,,,,,0,93,93,24,imgFunc,0,NA,1.8353920001536608,545.8171328003518,547.7527631199919,2023-04-19 14:08:11.753085,2023-04-19 14:08:13.679695,FF025.jpg,0,10584,30-49,2023-04-19_13h59.38.100,Recall,2021.2.3,59.98904607041855,
,DD006.jpg,0,FF006.jpg,0,,,,,0,94,94,5,imgFunc,0,NA,3.949183600023389,547.7512632003054,551.8057833202183,2023-04-19 14:08:13.686700,2023-04-19 14:08:17.732714,FF006.jpg,0,10584,30-49,2023-04-19_13h59.38.100,Recall,2021.2.3,59.98904607041855,
,SD008.jpg,0,MF008.jpg,0,,,,,0,95,95,57,imgFunc,9,NA,1.5694706998765469,551.81110620033,553.4805931202136,2023-04-19 14:08:17.739704,2023-04-19 14:08:19.400675,MF008.jpg,0,10584,30-49,2023-04-19_13h59.38.100,Recall,2021.2.3,59.98904607041855,
,DD009.jpg,0,FF009.jpg,0,,,,,0,96,96,8,imgFunc,1,NA,1.4069058001041412,553.4857995999046,555.0044357199222,2023-04-19 14:08:19.408695,2023-04-19 14:08:20.918409,FF009.jpg,0,10584,30-49,2023-04-19_13h59.38.100,Recall,2021.2.3,59.98904607041855,
,SD028.jpg,0,MF028.jpg,0,,,,,0,97,97,77,imgFunc,2,NA,1.4930632999166846,554.99133790005,556.5782169201411,2023-04-19 14:08:20.925393,2023-04-19 14:08:22.503109,MF028.jpg,0,10584,30-49,2023-04-19_13h59.38.100,Recall,2021.2.3,59.98904607041855,
,DD019.jpg,0,FF019.jpg,0,,,,,0,98,98,18,imgFunc,9,NA,1.7434692000970244,556.581139900256,558.4338902202435,2023-04-19 14:08:22.510092,2023-04-19 14:08:24.354193,FF019.jpg,0,10584,30-49,2023-04-19_13h59.38.100,Recall,2021.2.3,59.98904607041855,
,DD026.jpg,0,FF026.jpg,0,,,,,0,99,99,25,imgFunc,1,NA,1.1613117000088096,558.4352287999354,559.7047632196918,2023-04-19 14:08:24.361176,2023-04-19 14:08:25.621533,FF026.jpg,0,10584,30-49,2023-04-19_13h59.38.100,Recall,2021.2.3,59.98904607041855,
