onset	duration	trial_type	rt	resp
0.000403400044888258	0.6021013001445681	fixation_1	999	999
0.6025482001714408	3.0008214998524636	face	1.2832195998635143	1
3.603406800189987	0.6021013001445681	fixation_2	999	999
4.152502400102094	1.016653799917549	feedback win	999	999
5.1691583001520485	5.316573299933225	ITI	999	999
10.490945200202987	0.5948381999041885	fixation_1	999	999
11.085826800204813	3.0007350998930633	face	2.0330550000071526	2
14.08660120004788	0.5948381999041885	fixation_2	999	999
14.635721200145781	1.0166951999999583	feedback loss	999	999
15.652418400160968	1.117549599846825	ITI	999	999
16.77305190009065	0.5960222999565303	fixation_1	999	999
17.369118900038302	3.000770900165662	face	1.7825615999754518	2
20.369929200038314	0.5960222999565303	fixation_2	999	999
20.9191020000726	1.0000082000624388	feedback win	999	999
21.919112300034612	1.1179009000770748	ITI	999	999
23.0401453000959	0.5955662000924349	fixation_1	999	999
23.635755500057712	3.001169699942693	face	1.2826891001313925	1
26.636963500175625	0.5955662000924349	fixation_2	999	999
27.185705400072038	1.0000922000035644	feedback win	999	999
28.18579970020801	3.2170906998217106	ITI	999	999
31.40613070013933	0.5963059000205249	fixation_1	999	999
32.00248110014945	3.001367500051856	face	1.2835237998515368	2
35.003886700142175	0.5963059000205249	fixation_2	999	999
35.55240220017731	1.000618599820882	feedback loss	999	999
36.55302310013212	5.315981900086626	ITI	999	999
41.872264800127596	0.5968194999732077	fixation_1	999	999
42.46913310000673	3.0014476000797004	face	1.7832679999992251	2
45.47061780001968	0.5968194999732077	fixation_2	999	999
46.01905170013197	1.0166011999826878	feedback loss	999	999
47.03565500001423	3.2172511001117527	ITI	999	999
50.25622750003822	0.612795100081712	fixation_1	999	999
50.86906820000149	3.001399400178343	face	2.5347844001371413	1
53.870508400024846	0.612795100081712	fixation_2	999	999
54.419052600162104	1.0000113998539746	feedback win	999	999
55.419066100148484	3.215812699869275	ITI	999	999
58.638126000063494	0.6142361999955028	fixation_1	999	999
59.25241030007601	3.0013884999789298	face	2.533339000074193	2
62.253838300006464	0.6142361999955028	fixation_2	999	999
62.80238880007528	1.0166182001121342	feedback loss	999	999
63.81900910008699	1.1170248000416905	ITI	999	999
64.9393072000239	0.6129718001466244	fixation_1	999	999
65.55235160002485	3.0013001000043005	face	2.033667800016701	1
68.55369140021503	0.6129718001466244	fixation_2	999	999
69.10240920004435	1.016463200096041	feedback win	999	999
70.11887490004301	1.1180084000807256	ITI	999	999
71.2402983000502	0.5953154000453651	fixation_1	999	999
71.8356620001141	3.0011891000904143	face	2.2826706001069397	2
74.83688960014842	0.5953154000453651	fixation_2	999	999
75.38557200017385	1.0166447998490185	feedback win	999	999
76.40221890015528	1.1176432999782264	ITI	999	999
77.52314180019312	0.5958685998339206	fixation_1	999	999
78.11906150006689	3.001295499969274	face	2.7997388001531363	2
81.12038650014438	0.5958685998339206	fixation_2	999	999
81.66901990002953	1.0002616001293063	feedback loss	999	999
82.6692836000584	3.2176055000163615	ITI	999	999
85.8904610001482	0.611852299887687	fixation_1	999	999
86.50236520008184	3.0011946000158787	face	2.0324908001348376	1
89.50359750003554	0.611852299887687	fixation_2	999	999
90.05225390009582	1.0000720999669284	feedback loss	999	999
91.05232810019515	1.118543499847874	ITI	999	999
92.17431790009141	0.5946259000338614	fixation_1	999	999
92.76899490016513	3.0018217999022454	face	2.282581399893388	2
95.77085350011475	0.5946259000338614	fixation_2	999	999
96.31896000006236	1.0166098999325186	feedback win	999	999
97.33557190001011	5.316316300071776	ITI	999	999
102.655224500224	0.597388599999249	fixation_1	999	999
103.25269300001673	3.001023600110784	face	2.0324807001743466	1
106.25375630008057	0.597388599999249	fixation_2	999	999
106.8022840002086	1.0166652998887002	feedback win	999	999
107.81895130011253	1.1169163000304252	ITI	999	999
108.93932950007729	0.5962094001006335	fixation_1	999	999
109.53559280000627	3.0011196001432836	face	2.282189700054005	2
112.53675260022283	0.5962094001006335	fixation_2	999	999
113.0855590000283	1.016790100140497	feedback win	999	999
114.10235130018555	5.31663789995946	ITI	999	999
119.4225679000374	0.5963659000117332	fixation_1	999	999
120.0189885001164	3.0018680000212044	face	2.0327828999143094	2
123.02089390018955	0.5963659000117332	fixation_2	999	999
123.56885540019721	1.0000312998890877	feedback win	999	999
124.56888999999501	3.216858700150624	ITI	999	999
127.7891562001314	0.6130649000406265	fixation_1	999	999
128.40227830014192	3.001115999883041	face	2.2832305999472737	2
131.40343300020322	0.6130649000406265	fixation_2	999	999
131.95225070021115	1.0166482999920845	feedback win	999	999
132.96890120022	3.2160032999236137	ITI	999	999
136.1884972001426	0.6303747000638396	fixation_1	999	999
136.8189294000622	3.0016652999911457	face	2.0329279000870883	1
139.82063120021485	0.6303747000638396	fixation_2	999	999
140.36887170001864	1.0166040000040084	feedback win	999	999
141.38547780015506	3.217394199920818	ITI	999	999
144.60647660004906	0.5956072001717985	fixation_1	999	999
145.20214390009642	3.0007581000681967	face	2.032599499914795	1
148.20294280000962	0.5956072001717985	fixation_2	999	999
148.75221690000035	1.0167469000443816	feedback win	999	999
149.76896630018018	11.615938700037077	ITI	999	999
161.38859910005704	0.5969225999433547	fixation_1	999	999
161.98558260011487	3.0012833001092076	face	1.7833708000835031	2
164.98690380016342	0.5969225999433547	fixation_2	999	999
165.53552620019764	1.0002699999604374	feedback loss	999	999
166.5357982001733	5.316137399990112	ITI	999	999
171.85575540014543	0.5963890000712126	fixation_1	999	999
172.45220800000243	3.0010234999936074	face	1.782425100216642	1
175.45327790011652	0.5963890000712126	fixation_2	999	999
176.0020657000132	1.0000675001647323	feedback win	999	999
177.00213520019315	5.316755599807948	ITI	999	999
182.32244240003638	0.5965756000950933	fixation_1	999	999
182.91910030017607	3.001948099816218	face	2.283664299873635	1
185.92108650016598	0.5965756000950933	fixation_2	999	999
186.46867600013502	1.01672190008685	feedback loss	999	999
187.4854001000058	3.2174702000338584	ITI	999	999
190.70653590001166	0.5955730001442134	fixation_1	999	999
191.30217420007102	3.001596299931407	face	2.0329708999488503	2
194.30380750005133	0.5955730001442134	fixation_2	999	999
194.85206430009566	1.0000259999651462	feedback loss	999	999
195.85209250007756	1.1170912999659777	ITI	999	999
196.97284320020117	0.6125791999511421	fixation_1	999	999
197.58548950008117	3.001302700024098	face	2.033359399996698	2
200.5868294001557	0.6125791999511421	fixation_2	999	999
201.13549990020692	1.016385099850595	feedback loss	999	999
202.15188710018992	1.1180016999132931	ITI	999	999
203.27368470001966	0.5949769001454115	fixation_1	999	999
203.86872920021415	3.001143299974501	face	2.033133699791506	1
206.8699114001356	0.5949769001454115	fixation_2	999	999
207.4187064000871	1.0165897000115365	feedback win	999	999
208.43529819999821	5.317580200033262	ITI	999	999
213.7566646002233	0.5953604998067021	fixation_1	999	999
214.35209210007451	3.0012602999340743	face	2.032532300101593	1
217.35339030018076	0.5953604998067021	fixation_2	999	999
217.9029171001166	1.015748200006783	feedback loss	999	999
218.91866750014015	5.31620360002853	ITI	999	999
224.2387335000094	0.5965874001849443	fixation_1	999	999
224.83538870001212	3.0014737001620233	face	2.0325341999996454	2
227.83690010011196	0.5965874001849443	fixation_2	999	999
228.38531230017543	1.0000322998967022	feedback win	999	999
229.38534680008888	3.217509600101039	ITI	999	999
232.60657180007547	0.5955737000331283	fixation_1	999	999
233.2022353000939	3.0006572999991477	face	2.0321502999868244	1
236.202930000145	0.5955737000331283	fixation_2	999	999
236.75196800008416	1.0165518999565393	feedback loss	999	999
237.76852190005593	1.1174268999602646	ITI	999	999
238.88971320004202	0.595564299961552	fixation_1	999	999
239.48535030009225	3.0005083999130875	face	2.0331357000395656	1
242.48589700018056	0.595564299961552	fixation_2	999	999
243.03528970014304	1.0000171998981386	feedback win	999	999
244.03530900017358	3.2165667000226676	ITI	999	999
247.25579000008292	0.5965108000673354	fixation_1	999	999
247.85238820011728	3.0004936999175698	face	2.2821577000431716	1
250.8529201000929	0.5965108000673354	fixation_2	999	999
251.40168160013855	1.0003791998606175	feedback loss	999	999
252.40206290013157	1.1178111000917852	ITI	999	999
253.5238029002212	0.5947588998824358	fixation_1	999	999
254.11863320018165	3.001226899912581	face	2.0326088999863714	1
257.11989940004423	0.5947588998824358	fixation_2	999	999
257.6685168000404	1.000037700170651	feedback loss	999	999
258.66855669999495	1.1174350001383573	ITI	999	999
259.78990100021474	0.6120431998278946	fixation_1	999	999
260.40201630000956	3.0008669001981616	face	2.0333434001076967	2
263.40292350016534	0.6120431998278946	fixation_2	999	999
263.9518829002045	1.000074699986726	feedback loss	999	999
264.9519597000908	1.1177759999409318	ITI	999	999
266.0736584002152	0.5951213999651372	fixation_1	999	999
266.66885330015793	3.0008996999822557	face	2.0321946998592466	2
269.66979450010695	0.5951213999651372	fixation_2	999	999
270.2185097001493	1.000048300018534	feedback win	999	999
271.2185602001846	5.316319099860266	ITI	999	999
276.53886319999583	0.5966723000165075	fixation_1	999	999
277.13560640020296	3.000881299842149	face	2.532278899801895	2
280.13652739999816	0.5966723000165075	fixation_2	999	999
280.68536390014924	1.016516099916771	feedback loss	999	999
281.7018821001984	1.1171591999009252	ITI	999	999
282.82310610008426	0.6120309999678284	fixation_1	999	999
283.435211900156	3.0016437999438494	face	1.532603699946776	1
286.4368933001533	0.6120309999678284	fixation_2	999	999
286.98517070012167	1.0000467000063509	feedback loss	999	999
287.9852195000276	3.216083100065589	ITI	999	999
291.2054011002183	0.5964481998234987	fixation_1	999	999
291.8019217001274	3.0019608999136835	face	2.2829499999061227	1
294.80392390000634	0.5964481998234987	fixation_2	999	999
295.35176520003006	1.0000334000214934	feedback win	999	999
296.351801100187	5.316987599944696	ITI	999	999
301.67291220021434	0.5955654999706894	fixation_1	999	999
302.26855580019765	3.0012945998460054	face	1.5326703998725861	2
305.26988949999213	0.5955654999706894	fixation_2	999	999
305.8184857000597	1.0000363001599908	feedback loss	999	999
306.81852410011925	5.316201099893078	ITI	999	999
312.13874580012634	0.6130041000433266	fixation_1	999	999
312.7518279000651	3.0016453000716865	face	2.2838952001184225	2
315.75351310009137	0.6130041000433266	fixation_2	999	999
316.30200910009444	1.0162740999367088	feedback win	999	999
317.31828530016355	1.117206099908799	ITI	999	999
318.4398066001013	0.5953452999237925	fixation_1	999	999
319.0352305001579	3.000699199968949	face	2.0333121998701245	1
322.03596730018035	0.5953452999237925	fixation_2	999	999
322.5851244002115	1.0165958998259157	feedback loss	999	999
323.6017224001698	1.11725869984366	ITI	999	999
324.72304420010187	0.5953625000547618	fixation_1	999	999
325.31848580017686	3.0010452000424266	face	2.0333034999202937	2
328.31956880004145	0.5953625000547618	fixation_2	999	999
328.86841840017587	1.0166340998839587	feedback loss	999	999
329.88505460019223	5.316870799986646	ITI	999	999
