onset	duration	trial_type	rt	resp
0.00037809996865689754	0.626167600043118	fixation_1	999	999
0.6265846001915634	3.001280899858102	face	1.7833761998917907	2
3.627902900101617	0.626167600043118	fixation_2	999	999
4.176512400154024	1.0167002000380307	feedback win	999	999
5.19321470009163	5.31657849997282	ITI	999	999
10.525674700038508	0.6340960001107305	fixation_1	999	999
11.159813400125131	3.0018517998978496	face	1.7835295998957008	1
14.161705699982122	0.6340960001107305	fixation_2	999	999
14.709926600102335	1.0166829999070615	feedback loss	999	999
15.726611700141802	1.1172859999351203	ITI	999	999
16.84710290003568	0.629434600006789	fixation_1	999	999
17.476579000009224	3.0002936001401395	face	2.0324228000827134	2
20.476912999991328	0.629434600006789	fixation_2	999	999
21.026481700129807	1.0000393998343498	feedback win	999	999
22.026523200096563	1.117369499988854	ITI	999	999
23.14713599998504	0.629399900091812	fixation_1	999	999
23.776579400058836	3.0003830001223832	face	2.0331641999073327	2
26.776999100111425	0.629399900091812	fixation_2	999	999
27.32649190002121	1.000010000076145	feedback win	999	999
28.32650399999693	3.2169878999702632	ITI	999	999
31.546707900008187	0.6303260000422597	fixation_1	999	999
32.17709440016188	3.0022658999077976	face	2.032680399948731	2
35.179402500158176	0.6303260000422597	fixation_2	999	999
35.7263664000202	1.0002473001368344	feedback loss	999	999
36.72661580005661	5.316035799914971	ITI	999	999
42.04580480000004	0.630519500002265	fixation_1	999	999
42.676370200002566	3.001509200083092	face	2.28250790014863	1
45.677916600136086	0.630519500002265	fixation_2	999	999
46.22644290002063	1.0169291000347584	feedback loss	999	999
47.243374300189316	3.21649709995836	ITI	999	999
50.46310429996811	0.6297963000833988	fixation_1	999	999
51.092959800036624	3.001532700145617	face	2.282834199955687	1
54.094534900039434	0.6297963000833988	fixation_2	999	999
54.64309990010224	1.0165355999488384	feedback win	999	999
55.65963760018349	3.216915499884635	ITI	999	999
58.8797006001696	0.6299215999897569	fixation_1	999	999
59.50966990017332	3.0014860997907817	face	2.2827702998183668	1
62.51119550014846	0.6299215999897569	fixation_2	999	999
63.05963749997318	1.0000047001522034	feedback loss	999	999
64.05964430002496	1.117225900059566	ITI	999	999
65.18022300000302	0.6292852000333369	fixation_1	999	999
65.80955700017512	3.001790100010112	face	1.7828327999450266	2
68.81138380011544	0.6292852000333369	fixation_2	999	999
69.3596326999832	1.0000116000883281	feedback win	999	999
70.3596463999711	1.1171164000406861	ITI	999	999
71.48011380014941	0.6295584000181407	fixation_1	999	999
72.10972220008262	3.001040699891746	face	2.7845099999103695	2
75.1107993000187	0.6295584000181407	fixation_2	999	999
75.65970810013823	1.0166821999009699	feedback win	999	999
76.67639250005595	1.1169545999728143	ITI	999	999
77.7965783001855	0.629796699853614	fixation_1	999	999
78.42642610007897	3.0011807000264525	face	2.283470300026238	2
81.42764280014671	0.629796699853614	fixation_2	999	999
81.97692180005834	1.0158649999648333	feedback loss	999	999
82.99278900003992	3.2171724000945687	ITI	999	999
86.2133160000667	0.6297021999489516	fixation_1	999	999
86.8430693000555	3.0014009000733495	face	2.7828249000012875	1
89.84450190002099	0.6297021999489516	fixation_2	999	999
90.3930061000865	1.01662310003303	feedback loss	999	999
91.4096313000191	1.1172120000701398	ITI	999	999
92.53030740004033	0.6295733000151813	fixation_1	999	999
93.15994570008479	3.000843199901283	face	2.0333336999174207	2
96.16082950006239	0.6295733000151813	fixation_2	999	999
96.70956460013986	1.0002130998764187	feedback win	999	999
97.70977990003303	5.317144300090149	ITI	999	999
103.03029919997789	0.6293137001339346	fixation_1	999	999
103.65966610005125	3.0007218001410365	face	2.2830513999797404	2
106.66042360011488	0.6293137001339346	fixation_2	999	999
107.20956520014443	1.0000014000106603	feedback win	999	999
108.20956870005466	1.1182184000499547	ITI	999	999
109.33127920003608	0.6281910999678075	fixation_1	999	999
109.95954279997386	3.000888500129804	face	2.784209600184113	1
112.96047250018455	0.6281910999678075	fixation_2	999	999
113.50953799998388	1.00035720015876	feedback win	999	999
114.50989740015939	5.317029600031674	ITI	999	999
119.83035459998064	0.6292267001699656	fixation_1	999	999
120.45963630010374	3.0012497999705374	face	2.282635699957609	2
123.46092630014755	0.6292267001699656	fixation_2	999	999
124.00955680012703	1.016699899919331	feedback win	999	999
125.02625880017877	3.2166504999622703	ITI	999	999
128.24653380014934	0.6297347999643534	fixation_1	999	999
128.87632609996945	3.0009502000175416	face	2.534459200222045	2
131.87731260014698	0.6297347999643534	fixation_2	999	999
132.42628410016187	1.0166072000283748	feedback win	999	999
133.44289349997416	3.216065200045705	ITI	999	999
136.66239750012755	0.6305519000161439	fixation_1	999	999
137.2930076001212	3.0010241998825222	face	2.5331681000534445	2
140.29407420009375	0.6305519000161439	fixation_2	999	999
140.84284220007248	1.0000396000687033	feedback win	999	999
141.84288380015641	3.2160197999328375	ITI	999	999
145.0624361000955	0.6305229000281543	fixation_1	999	999
145.69303590012714	3.001458599930629	face	2.283756999997422	2
148.69453190010972	0.6305229000281543	fixation_2	999	999
149.24324450013228	1.0163705998566002	feedback win	999	999
150.2596171000041	11.616123800165951	ITI	999	999
161.87971190013923	0.629854999948293	fixation_1	999	999
162.50963019998744	3.0011786001268774	face	2.033169300062582	1
165.51084440015256	0.629854999948293	fixation_2	999	999
166.0594494000543	1.0000857000704855	feedback loss	999	999
167.05953720002435	5.316572500159964	ITI	999	999
172.37966340011917	0.629895200021565	fixation_1	999	999
173.0096216001548	3.001056500012055	face	2.282404199941084	2
176.0107193000149	0.629895200021565	fixation_2	999	999
176.5595360000152	1.0166285000741482	feedback win	999	999
177.5761667001061	5.3168752999044955	ITI	999	999
182.89677710016258	0.6296140998601913	fixation_1	999	999
183.52647480019368	3.001578099792823	face	2.282158099813387	1
186.52809450007044	0.6296140998601913	fixation_2	999	999
187.0761082000099	1.0001140001695603	feedback loss	999	999
188.07622430007905	3.216078999917954	ITI	999	999
191.29604899999686	0.6300709000788629	fixation_1	999	999
191.92618559999391	3.001816200092435	face	2.033363400027156	1
194.9280449000653	0.6300709000788629	fixation_2	999	999
195.47614719998091	1.0000289001036435	feedback loss	999	999
196.47617819998413	1.1177875001449138	ITI	999	999
197.5975981000811	0.6285008999984711	fixation_1	999	999
198.22616740013473	3.0017158000264317	face	2.282547199865803	1
201.22792310011573	0.6285008999984711	fixation_2	999	999
201.77604739996605	1.0003338002134115	feedback loss	999	999
202.77638330007903	1.1185169001109898	ITI	999	999
203.89850520016626	0.6275768999475986	fixation_1	999	999
204.52614870015532	3.001169999828562	face	1.5335015000309795	2
207.5273627000861	0.6275768999475986	fixation_2	999	999
208.07612370001152	1.0164734001737088	feedback win	999	999
209.0925992000848	5.31630380009301	ITI	999	999
214.41264500003308	0.6300510000437498	fixation_1	999	999
215.04276400012895	3.00188949983567	face	2.5329586998559535	2
218.04468990000896	0.6300510000437498	fixation_2	999	999
218.592693899991	1.000041900202632	feedback loss	999	999
219.5927379000932	5.316164199961349	ITI	999	999
224.91269560018554	0.6300013998989016	fixation_1	999	999
225.54276550002396	3.001013700151816	face	1.7830028999596834	2
228.54381499998271	0.6300013998989016	fixation_2	999	999
229.09280170011334	1.0165249998681247	feedback win	999	999
230.10932880011387	3.2167144999839365	ITI	999	999
233.33008480002172	0.6292753000743687	fixation_1	999	999
233.9594289001543	3.0011485998984426	face	2.283488899935037	2
236.9606172000058	0.6292753000743687	fixation_2	999	999
237.50938770012	1.0000328999012709	feedback loss	999	999
238.509422800038	1.1174810000229627	ITI	999	999
239.63063960010186	0.6287420000880957	fixation_1	999	999
240.259451800026	3.000468400074169	face	2.03313049999997	2
243.2599607000593	0.6287420000880957	fixation_2	999	999
243.80938290013	1.0166557000484318	feedback win	999	999
244.82604090007953	3.2158697000704706	ITI	999	999
248.04570180014707	0.6303443999495357	fixation_1	999	999
248.6761179000605	3.0012777000665665	face	2.032597300130874	1
251.67743500019424	0.6303443999495357	fixation_2	999	999
252.22600560006686	1.0165973000694066	feedback loss	999	999
253.242605100153	1.1182025999296457	ITI	999	999
254.36473370017484	0.6278687999583781	fixation_1	999	999
254.99267589999363	3.0013094001915306	face	2.2832020001951605	1
257.99402540014125	0.6278687999583781	fixation_2	999	999
258.5425903000869	1.0167209999635816	feedback loss	999	999
259.5593134001829	1.117594299837947	ITI	999	999
260.6809794001747	0.6282662998419255	fixation_1	999	999
261.30932150012814	3.001379400026053	face	1.5323654999956489	2
264.3107370999642	0.6282662998419255	fixation_2	999	999
264.85921970009804	1.0167362000793219	feedback loss	999	999
265.8759579001926	1.1179326998535544	ITI	999	999
266.9978136001155	0.6280523000750691	fixation_1	999	999
267.625943900086	3.0003686998970807	face	2.7830711998976767	1
270.62634790013544	0.6280523000750691	fixation_2	999	999
271.17589580011554	1.000361500075087	feedback win	999	999
272.17625980009325	5.3168687000870705	ITI	999	999
277.4970343001187	0.6291137998923659	fixation_1	999	999
278.1262409000192	3.001111000077799	face	1.782383100129664	1
281.127395800082	0.6291137998923659	fixation_2	999	999
281.67582910018973	1.0000396999530494	feedback loss	999	999
282.67587090004236	1.1170294999610633	ITI	999	999
283.79682569997385	0.6290345001034439	fixation_1	999	999
284.4259340001736	3.0019172998145223	face	2.783601699862629	2
287.42788980016485	0.6290345001034439	fixation_2	999	999
287.97586280014366	1.000060599995777	feedback loss	999	999
288.9759258001577	3.2160666999407113	ITI	999	999
292.1959259000141	0.6299895001575351	fixation_1	999	999
292.82599250017665	3.0018906998448074	face	2.2825054998975247	1
295.82792000006884	0.6299895001575351	fixation_2	999	999
296.3760109001305	1.0163046999368817	feedback win	999	999
297.39231769996695	5.316408300073817	ITI	999	999
302.71267600008287	0.6298833999317139	fixation_1	999	999
303.3426369000226	3.0009618001058698	face	2.532543200068176	1
306.3436422999948	0.6298833999317139	fixation_2	999	999
306.89249180001207	1.0001597001682967	feedback loss	999	999
307.8926536999643	5.317278300179169	ITI	999	999
313.21406919998117	0.6285230000503361	fixation_1	999	999
313.8426906000823	3.001208799891174	face	2.032393600093201	2
316.84393720002845	0.6285230000503361	fixation_2	999	999
317.39250369998626	1.0000573000870645	feedback win	999	999
318.3925630999729	1.1176472001243383	ITI	999	999
319.5142054001335	0.6282502999529243	fixation_1	999	999
320.14253369998187	3.0010355000849813	face	2.2834495999850333	2
323.14360620011576	0.6282502999529243	fixation_2	999	999
323.69254059996456	1.0000918000005186	feedback loss	999	999
324.69263459998183	1.117396900197491	ITI	999	999
325.8141884000506	0.6282796999439597	fixation_1	999	999
326.44254940003157	3.300763600040227	face	3.300261399941519	1
329.74333950015716	0.6282796999439597	fixation_2	999	999
330.2924146000296	1.0000014000106603	feedback loss	999	999
331.29241810017265	5.31686419993639	ITI	999	999
