TrialNumber,Trialn,TrialType,Partner,Feedback,ITI,ISI,ran,order,studyStart,InitFixOnset,decision_onset,resp,resp_onset,rt,ISI_onset,isi_for_trial,ISI_offset,outcome_val,outcome_onset,outcome_offset,trialDuration,ITIonset,ITIoffset,final_fix_offset
1,1,7,3,1,4.037500e+00,1.615000e+00,1.0,0.0,2.7000206e-06,0.0098088,4.028886,2.0,5.2742267,1.2453408,5.3746824,3.0696592,8.446926,1.0,8.447073,9.053719,5.0248327,9.053906,13.093054,--
2,2,3,1,3,8.075000e-01,8.075000e-01,1.0,1.0,--,--,13.0983095,2.0,13.924979,0.8266702,14.025308,2.6808298,16.707901,6.0,16.70802,17.314116,4.2158065,17.314262,18.123915,--
3,3,9,3,3,2.422500e+00,2.422500e+00,1.0,2.0,--,--,18.130424,2.0,18.857517,0.7270934,18.95785,4.3954067,23.35491,9.0,23.355026,23.960012,5.8295875,23.960157,26.384829,--
4,4,9,3,3,7.267500e+00,2.422500e+00,1.0,3.0,--,--,26.391006,2.0,26.924559,0.5335515,27.024887,4.5889487,31.615906,8.0,31.616024,32.220947,5.8299413,32.221096,39.490543,--
5,5,9,3,3,8.075000e-01,1.615000e+00,1.0,4.0,--,--,39.495674,2.0,40.12449,0.628814,40.224815,3.686186,43.91412,7.0,43.91424,44.519012,5.0233383,44.51916,45.328583,--
6,6,1,1,1,2.422500e+00,8.075000e-01,1.0,5.0,--,--,45.33141,2.0,46.158306,0.8268989,46.258644,2.6806011,48.940487,3.0,48.940605,49.546005,4.2145963,49.546154,51.970387,--
7,7,7,3,1,2.422500e+00,8.075000e-01,1.0,6.0,--,--,51.976418,2.0,52.907375,0.930957,53.007717,2.576543,55.586235,4.0,55.58635,56.19073,4.2143135,56.19088,58.615093,--
8,8,2,1,2,8.075000e-01,2.422500e+00,1.0,7.0,--,--,58.61792,2.0,59.457592,0.8396736,59.557938,4.2828264,63.84185,5.0,63.84197,64.44903,5.8311114,64.44918,65.259,--
9,9,4,2,1,8.882500e+00,1.615000e+00,1.0,8.0,--,--,65.27342,1.0,65.90758,0.6341504,66.007965,3.6808496,69.68995,8.0,69.69006,70.29474,5.0213175,70.29489,79.1799,--
10,10,7,3,1,7.267500e+00,2.422500e+00,1.0,9.0,--,--,79.18625,1.0,79.70738,0.5211366,79.80774,4.601363,84.41085,7.0,84.410965,85.01465,5.8283987,85.01479,92.284904,--
11,11,7,3,1,4.037500e+00,8.075000e-01,1.0,10.0,--,--,92.28988,2.0,92.9243,0.6344247,93.02464,2.8730752,95.90001,4.0,95.90012,96.503845,4.213966,96.50399,100.54341,--
12,12,7,3,1,8.075000e-01,8.075000e-01,1.0,11.0,--,--,100.54841,2.0,101.074066,0.5256571,101.17442,2.981843,104.1574,4.0,104.15752,104.76101,4.2126017,104.76116,105.57087,--
13,13,3,1,3,8.075000e-01,1.615000e+00,1.0,12.0,--,--,105.57375,2.0,106.30751,0.7337584,106.40785,3.5812416,109.99091,8.0,109.99103,110.59636,5.0226088,110.59651,111.405914,--
14,14,3,1,3,2.422500e+00,1.615000e+00,1.0,13.0,--,--,111.40772,2.0,111.92598,0.5182579,112.02631,3.7967422,115.82491,7.0,115.825035,116.42874,5.0210204,116.42889,118.85384,--
15,15,4,2,1,8.075000e-01,8.075000e-01,1.0,14.0,--,--,118.864746,2.0,119.49073,0.6259896,119.591064,2.8815105,122.4741,3.0,122.47421,123.079025,4.214279,123.07916,123.88891,--
16,16,1,1,1,8.075000e-01,8.075000e-01,1.0,15.0,--,--,123.89196,2.0,124.9239,1.0319425,125.024216,2.4755576,127.50154,1.0,127.501656,128.10611,4.2141533,128.10625,128.91571,--
17,17,1,1,1,4.037500e+00,1.615000e+00,1.0,16.0,--,--,128.91771,2.0,129.54062,0.6229014,129.64096,3.6920986,133.33592,1.0,133.33603,133.93996,5.0222473,133.94011,137.9795,--
18,18,6,2,3,8.075000e-01,2.422500e+00,1.0,17.0,--,--,137.99045,2.0,138.6242,0.6337638,138.72453,4.488736,143.21411,8.0,143.21423,143.81802,5.8275814,143.81818,144.62755,--
19,19,6,2,3,8.075000e-01,1.615000e+00,1.0,18.0,--,--,144.6379,2.0,145.15744,0.5195475,145.25777,3.7954526,149.05492,7.0,149.05504,149.65991,5.022025,149.66006,150.46902,--
20,20,7,3,1,8.075000e-01,2.422500e+00,1.0,19.0,--,--,150.47533,1.0,151.00752,0.5322034,151.10786,4.5902967,155.70091,8.0,155.70102,156.30602,5.830695,156.30617,157.11559,--
21,21,3,1,3,4.037500e+00,2.422500e+00,1.0,20.0,--,--,157.11859,2.0,157.74054,0.6219427,157.84087,4.5005574,162.34392,7.0,162.34402,162.94896,5.8303638,162.9491,166.98851,--
22,22,8,3,2,5.652500e+00,8.075000e-01,1.0,21.0,--,--,166.99466,2.0,167.52419,0.5295277,167.62451,2.9779723,170.60345,5.0,170.60359,171.20898,4.214328,171.20912,176.8639,--
23,23,3,1,3,2.422500e+00,1.615000e+00,1.0,22.0,--,--,176.86674,2.0,177.39073,0.5239974,177.49117,3.7910025,181.2839,8.0,181.28403,181.88895,5.0222044,181.88908,184.31392,--
24,24,2,1,2,8.075000e-01,2.422500e+00,1.0,23.0,--,--,184.3157,2.0,184.84053,0.5248217,184.94086,4.597678,189.54091,5.0,189.54102,190.14597,5.8302503,190.1461,190.95593,--
25,25,3,1,3,8.075000e-01,1.615000e+00,1.0,24.0,--,--,190.95769,2.0,191.59071,0.6330201,191.69104,3.68198,195.37462,7.0,195.37474,195.98009,5.0223937,195.98022,196.78992,--
26,26,6,2,3,8.075000e-01,1.615000e+00,1.0,25.0,--,--,196.801,2.0,197.42386,0.6228689,197.5242,3.692131,201.21901,6.0,201.21913,201.82347,5.0224805,201.82362,202.63261,--
27,27,6,2,3,5.652500e+00,1.615000e+00,1.0,26.0,--,--,202.64296,2.0,203.27417,0.6312047,203.37451,3.6837952,207.06094,6.0,207.06105,207.66576,5.022793,207.66591,213.32092,--
28,28,9,3,3,2.422500e+00,2.422500e+00,1.0,27.0,--,--,213.32774,2.0,213.95737,0.6296331,214.05771,4.492867,218.55193,9.0,218.55205,219.16203,5.834289,219.16217,221.58652,--
29,29,4,2,1,8.075000e-01,8.075000e-01,1.0,28.0,--,--,221.59702,2.0,222.1241,0.5270923,222.22444,2.9804077,225.2069,2.0,225.20702,225.81204,4.2150335,225.8122,226.62154,--
30,30,4,2,1,8.075000e-01,2.422500e+00,1.0,29.0,--,--,226.6313,2.0,227.35744,0.7261421,227.45778,4.396358,231.85593,1.0,231.85603,232.46002,5.828728,232.46017,233.26997,--
31,31,6,2,3,2.422500e+00,1.615000e+00,1.0,30.0,--,--,233.28105,2.0,233.90721,0.6261585,234.00755,3.6888416,237.69812,8.0,237.69824,238.30286,5.021796,238.30301,240.72789,--
32,32,6,2,3,8.075000e-01,8.075000e-01,1.0,31.0,--,--,240.73798,2.0,241.37398,0.6360038,241.47433,2.8714962,244.34859,8.0,244.3487,244.95204,4.2140694,244.9522,245.7616,--
33,33,9,3,3,8.075000e-01,2.422500e+00,1.0,32.0,--,--,245.76788,2.0,246.39032,0.6224434,246.49068,4.5000567,250.99286,6.0,250.99297,251.59659,5.8287063,251.59674,252.40594,--
34,34,3,1,3,2.422500e+00,2.422500e+00,1.0,33.0,--,--,252.40884,2.0,253.1406,0.7317476,253.24092,4.3907523,257.63293,6.0,257.63306,258.2427,5.833847,258.24283,260.66702,--
35,35,8,3,2,8.075000e-01,8.075000e-01,1.0,34.0,--,--,260.67297,2.0,261.40714,0.73418,261.5075,2.77332,264.2828,5.0,264.28293,264.88757,4.2146144,264.88773,265.69693,--
36,36,9,3,3,5.652500e+00,1.615000e+00,1.0,35.0,--,--,265.70203,2.0,266.2237,0.5216765,266.32404,3.7933235,270.11896,8.0,270.11908,270.72455,5.0225453,270.7247,276.3789,--
37,37,4,2,1,4.037500e+00,1.615000e+00,1.0,36.0,--,--,276.3895,2.0,276.90823,0.518738,277.00858,3.796262,280.80692,4.0,280.80704,281.41205,5.022544,281.4122,285.452,--
38,38,1,1,1,2.422500e+00,1.615000e+00,1.0,37.0,--,--,285.45483,2.0,285.97366,0.5188183,286.074,3.7961817,289.87195,2.0,289.87207,290.47604,5.0211906,290.4762,292.9009,--
39,39,4,2,1,8.075000e-01,1.615000e+00,1.0,38.0,--,--,292.91165,1.0,293.54068,0.6290206,293.64102,3.6859794,297.32935,6.0,297.32947,297.93295,5.02128,297.93307,298.743,--
40,40,9,3,3,4.037500e+00,2.422500e+00,1.0,39.0,--,--,298.74933,1.0,299.37357,0.6242631,299.4739,4.498237,303.9739,2.0,303.97403,304.57852,5.8291984,304.57864,308.61792,--
41,41,5,2,2,5.652500e+00,8.075000e-01,1.0,40.0,--,--,308.6284,2.0,309.15762,0.5292284,309.25803,2.9782715,312.23892,5.0,312.23904,312.84412,4.2157187,312.84427,318.49872,--
42,42,9,3,3,8.075000e-01,2.422500e+00,1.0,41.0,--,--,318.5051,2.0,319.14062,0.6355231,319.24094,4.486977,323.72903,8.0,323.72916,324.33908,5.8339896,324.33923,325.14868,--
43,43,5,2,2,4.037500e+00,8.075000e-01,1.0,42.0,--,--,325.159,2.0,326.09042,0.9314445,326.19083,2.5760555,328.76993,5.0,328.77005,329.37506,4.2160635,329.3752,333.41492,--
44,44,1,1,1,8.075000e-01,8.075000e-01,1.0,43.0,--,--,333.4178,2.0,334.0402,0.6224255,334.14053,2.8850746,337.02805,3.0,337.02817,337.63306,4.215275,337.6332,338.44293,--
45,45,7,3,1,2.422500e+00,2.422500e+00,1.0,44.0,--,--,338.44937,2.0,339.07364,0.6242418,339.17395,4.498258,343.67392,2.0,343.67404,344.27905,5.8296638,344.2792,346.70392,--
46,46,1,1,1,8.075000e-01,2.422500e+00,1.0,45.0,--,--,346.70676,2.0,347.2247,0.5179517,347.32516,4.6045485,351.93192,1.0,351.93204,352.53674,5.829982,352.5369,353.34695,--
47,47,1,1,1,8.075000e-01,8.075000e-01,1.0,46.0,--,--,353.34872,1.0,353.87387,0.52513,353.97418,2.98237,356.95795,7.0,356.95804,357.56204,4.213311,357.5622,358.37195,--
48,48,3,1,3,2.422500e+00,2.422500e+00,1.0,47.0,--,--,358.37387,1.0,358.8922,0.5183459,358.99255,4.604154,363.59882,4.0,363.59894,364.2095,5.835634,364.20966,366.63394,--
49,49,7,3,1,8.075000e-01,1.615000e+00,1.0,48.0,--,--,366.63977,2.0,367.15842,0.5186555,367.25876,3.7963445,371.05692,3.0,371.05704,371.66168,5.021931,371.66183,372.47195,--
50,50,1,1,1,8.075000e-01,2.422500e+00,1.0,49.0,--,--,372.47485,2.0,373.00708,0.5322257,373.10742,4.5902743,377.69995,1.0,377.70004,378.30405,5.829194,378.30417,379.11392,--
51,51,4,2,1,2.422500e+00,8.075000e-01,1.0,50.0,--,--,379.1245,2.0,379.757,0.6324755,379.85733,2.8750246,382.73508,1.0,382.7352,383.33905,4.2145214,383.33917,385.7636,--
52,52,4,2,1,8.075000e-01,8.075000e-01,1.0,51.0,--,--,385.7737,2.0,386.19037,0.4166564,386.29077,3.0908437,389.38373,1.0,389.38385,389.98907,4.215371,389.98923,390.79892,--
53,53,6,2,3,2.422500e+00,8.075000e-01,1.0,52.0,--,--,390.8088,2.0,391.3406,0.5317807,391.44095,2.9757192,394.419,9.0,394.41913,395.0238,4.214985,395.02396,397.4484,--
54,54,6,2,3,8.075000e-01,1.615000e+00,1.0,53.0,--,--,397.4585,2.0,397.99088,0.5323873,398.09128,3.7826128,401.87595,7.0,401.87604,402.48016,5.0216503,402.4803,403.28998,412.00082
