instrText,stimDoor,stimDoorLure,stimFace,stimFaceLure,Instructions.thisRepN,Instructions.thisTrialN,Instructions.thisN,Instructions.thisIndex,Trials.thisRepN,Trials.thisTrialN,Trials.thisN,Trials.thisIndex,Func,Keys,Text,RespTime,Onset,Offset,SystemTime_Start,SystemTime_Stop,Stim,Lure,Participant*,Age,date,expName,psychopyVersion,frameRate,
"In the earlier Feedback Games, you chose which doors contained a prize, and which peers liked you. 

You then saw positive or negative feedback (green check mark or red X) from the door or peer you selected.

You will now see a series of doors and peers, some of which you saw during the earlier Feedback Games, and some that you have never seen before.

Please press the spacebar to continue.",,,,,0,0,0,0,,,,,instrFunc,space,"In the earlier Feedback Games, you chose which doors contained a prize, and which peers liked you. 

You then saw positive or negative feedback (green check mark or red X) from the door or peer you selected.

You will now see a series of doors and peers, some of which you saw during the earlier Feedback Games, and some that you have never seen before.

Please press the spacebar to continue.",18.24452600022778,20.660677999956533,38.967469598632306,2024-01-04 16:02:07.142271,2024-01-04 16:02:25.443749,,,10863,30-49,2024-01-04_16h02.03.352,Recall,2021.2.3,59.830691144387934,
"For doors/peers that you remember selecting and getting feedback from, your job is to RECALL what feedback you received. 

Press '1' if you recall positive feedback. 

Press '2' if you recall negative feedback

Press the spacebar to continue.",,,,,0,1,1,1,,,,,instrFunc,space,"For doors/peers that you remember selecting and getting feedback from, your job is to RECALL what feedback you received. 

Press '1' if you recall positive feedback. 

Press '2' if you recall negative feedback

Press the spacebar to continue.",13.122962199850008,38.95032980013639,52.123143250122666,2024-01-04 16:02:25.444749,2024-01-04 16:02:38.602144,,,10863,30-49,2024-01-04_16h02.03.352,Recall,2021.2.3,59.830691144387934,
"For doors/peers that you don't remember getting feedback from, your job is to PREDICT what feedback you WOULD HAVE received.

Press '9' if you predict positive feedback.

Press '0' if you predict negative feedback. 

Please press the spacebar to continue.",,,,,0,2,2,2,,,,,instrFunc,space,"For doors/peers that you don't remember getting feedback from, your job is to PREDICT what feedback you WOULD HAVE received.

Press '9' if you predict positive feedback.

Press '0' if you predict negative feedback. 

Please press the spacebar to continue.",16.787648000055924,52.109887700062245,68.95334314997308,2024-01-04 16:02:38.603113,2024-01-04 16:02:55.431352,,,10863,30-49,2024-01-04_16h02.03.352,Recall,2021.2.3,59.830691144387934,
"This task is self-paced, and the prompts will always stay on the screen so that you know which buttons to press.

On the next screen we will show you what those prompts look like, so that you know exactly what to expect. 

You will start with either doors or peers, and then switch halfway through. 

Please press the spacebar to continue.",,,,,0,3,3,3,,,,,instrFunc,space,"This task is self-paced, and the prompts will always stay on the screen so that you know which buttons to press.

On the next screen we will show you what those prompts look like, so that you know exactly what to expect. 

You will start with either doors or peers, and then switch halfway through. 

Please press the spacebar to continue.",14.033720100065693,68.93549750000238,83.02706384984776,2024-01-04 16:02:55.432357,2024-01-04 16:03:09.508499,,,10863,30-49,2024-01-04_16h02.03.352,Recall,2021.2.3,59.830691144387934,
,,,,,,,,,,,,,imgtextFunc,space,"Here is what the screen will look like while you make your ratings.
The green circles remind you to press 1 or 9 for positive feedback.
The red circles remind you to press 2 or 0 for negative feedback.









Please let the experimenter know if you have any questions.

Whenever you're ready, press the spacebar to start the task.",64.37886600010097,83.16656680009328,147.723995950073,2024-01-04 16:03:09.519498,2024-01-04 16:04:14.072723,,,10863,30-49,2024-01-04_16h02.03.352,Recall,2021.2.3,59.830691144387934,
,SD009.jpg,0,MF009.jpg,0,,,,,0,0,0,58,imgFunc,1,NA,17.20447890018113,147.7171400000807,165.0599916500505,2024-01-04 16:04:14.115411,2024-01-04 16:04:31.451233,SD009.jpg,0,10863,30-49,2024-01-04_16h02.03.352,Recall,2021.2.3,59.830691144387934,
,SD029.jpg,0,MF029.jpg,0,,,,,0,1,1,78,imgFunc,1,NA,4.885143400169909,165.05240659997799,170.06697225011885,2024-01-04 16:04:31.462205,2024-01-04 16:04:36.471678,SD029.jpg,0,10863,30-49,2024-01-04_16h02.03.352,Recall,2021.2.3,59.830691144387934,
,SD033.jpg,0,MF033.jpg,0,,,,,0,2,2,82,imgFunc,1,NA,20.346786699956283,170.05467390012927,190.51700655021705,2024-01-04 16:04:36.480641,2024-01-04 16:04:56.936336,SD033.jpg,0,10863,30-49,2024-01-04_16h02.03.352,Recall,2021.2.3,59.830691144387934,
,L_DD501.jpg,1,L_FF501.jpg,1,,,,,0,3,3,40,imgFunc,2,NA,9.244904699968174,190.54877400002442,199.92659655027092,2024-01-04 16:04:56.950302,2024-01-04 16:05:06.326505,L_DD501.jpg,1,10863,30-49,2024-01-04_16h02.03.352,Recall,2021.2.3,59.830691144387934,
,SD012.jpg,0,MF012.jpg,0,,,,,0,4,4,61,imgFunc,9,NA,5.657319100107998,199.8962720001582,205.6488056499511,2024-01-04 16:05:06.334936,2024-01-04 16:05:12.080702,SD012.jpg,0,10863,30-49,2024-01-04_16h02.03.352,Recall,2021.2.3,59.830691144387934,
,SD025.jpg,0,MF025.jpg,0,,,,,0,5,5,74,imgFunc,2,NA,5.272235099924728,205.6655860999599,211.05070884968154,2024-01-04 16:05:12.089680,2024-01-04 16:05:17.467643,SD025.jpg,0,10863,30-49,2024-01-04_16h02.03.352,Recall,2021.2.3,59.830691144387934,
,SD020.jpg,0,MF020.jpg,0,,,,,0,6,6,69,imgFunc,0,NA,1.535740900086239,211.04970009997487,212.6991936499253,2024-01-04 16:05:17.476621,2024-01-04 16:05:19.119009,SD020.jpg,0,10863,30-49,2024-01-04_16h02.03.352,Recall,2021.2.3,59.830691144387934,
,SD026.jpg,0,MF026.jpg,0,,,,,0,7,7,75,imgFunc,1,NA,1.394789399811998,212.69487280002795,214.1845414498821,2024-01-04 16:05:19.132973,2024-01-04 16:05:20.619874,SD026.jpg,0,10863,30-49,2024-01-04_16h02.03.352,Recall,2021.2.3,59.830691144387934,
,SD004.jpg,0,MF004.jpg,0,,,,,0,8,8,53,imgFunc,0,NA,2.660211900016293,214.18135400000028,216.93510924978182,2024-01-04 16:05:20.626857,2024-01-04 16:05:23.371910,SD004.jpg,0,10863,30-49,2024-01-04_16h02.03.352,Recall,2021.2.3,59.830691144387934,
,DD012.jpg,0,FF012.jpg,0,,,,,0,9,9,11,imgFunc,0,NA,1.443019500002265,216.93452070001513,218.47076344978996,2024-01-04 16:05:23.378915,2024-01-04 16:05:24.906640,DD012.jpg,0,10863,30-49,2024-01-04_16h02.03.352,Recall,2021.2.3,59.830691144387934,
,SD013.jpg,0,MF013.jpg,0,,,,,0,10,10,62,imgFunc,2,NA,1.6032924000173807,218.47004540008493,220.17239625030197,2024-01-04 16:05:24.914620,2024-01-04 16:05:26.608177,SD013.jpg,0,10863,30-49,2024-01-04_16h02.03.352,Recall,2021.2.3,59.830691144387934,
,L_SD505.jpg,1,L_MF505.jpg,1,,,,,0,11,11,94,imgFunc,0,NA,1.6601857000496238,220.18147370009683,221.93728465004824,2024-01-04 16:05:26.622140,2024-01-04 16:05:28.375551,L_SD505.jpg,1,10863,30-49,2024-01-04_16h02.03.352,Recall,2021.2.3,59.830691144387934,
,DD037.jpg,0,FF037.jpg,0,,,,,0,12,12,36,imgFunc,2,NA,2.9530267999507487,221.95266619999893,225.007877149852,2024-01-04 16:05:28.390513,2024-01-04 16:05:31.444602,DD037.jpg,0,10863,30-49,2024-01-04_16h02.03.352,Recall,2021.2.3,59.830691144387934,
,DD022.jpg,0,FF022.jpg,0,,,,,0,13,13,21,imgFunc,9,NA,2.6912465000059456,225.00644919998012,227.79345014994033,2024-01-04 16:05:31.451585,2024-01-04 16:05:34.229971,DD022.jpg,0,10863,30-49,2024-01-04_16h02.03.352,Recall,2021.2.3,59.830691144387934,
,L_SD506.jpg,1,L_MF506.jpg,1,,,,,0,14,14,95,imgFunc,2,NA,2.2884021000936627,227.79323990014382,230.1799974499736,2024-01-04 16:05:34.236954,2024-01-04 16:05:36.614944,L_SD506.jpg,1,10863,30-49,2024-01-04_16h02.03.352,Recall,2021.2.3,59.830691144387934,
,SD035.jpg,0,MF035.jpg,0,,,,,0,15,15,84,imgFunc,0,NA,4.452549699926749,230.1811413001269,234.73497725022025,2024-01-04 16:05:36.622952,2024-01-04 16:05:41.168158,SD035.jpg,0,10863,30-49,2024-01-04_16h02.03.352,Recall,2021.2.3,59.830691144387934,
,SD008.jpg,0,MF008.jpg,0,,,,,0,16,16,57,imgFunc,9,NA,6.396424199920148,234.74914920004085,241.251007349696,2024-01-04 16:05:41.177998,2024-01-04 16:05:47.672991,SD008.jpg,0,10863,30-49,2024-01-04_16h02.03.352,Recall,2021.2.3,59.830691144387934,
,SD015.jpg,0,MF015.jpg,0,,,,,0,17,17,64,imgFunc,9,NA,2.039927899837494,241.27370370016433,243.4404537002556,2024-01-04 16:05:47.690423,2024-01-04 16:05:49.841274,SD015.jpg,0,10863,30-49,2024-01-04_16h02.03.352,Recall,2021.2.3,59.830691144387934,
,DD029.jpg,0,FF029.jpg,0,,,,,0,18,18,28,imgFunc,0,NA,3.832287299912423,243.40093400003389,247.32053435011767,2024-01-04 16:05:49.848995,2024-01-04 16:05:53.760395,DD029.jpg,0,10863,30-49,2024-01-04_16h02.03.352,Recall,2021.2.3,59.830691144387934,
,DD039.jpg,0,FF039.jpg,0,,,,,0,19,19,38,imgFunc,9,NA,2.852820900036022,247.3249264000915,250.27656665001996,2024-01-04 16:05:53.768395,2024-01-04 16:05:56.712830,DD039.jpg,0,10863,30-49,2024-01-04_16h02.03.352,Recall,2021.2.3,59.830691144387934,
,SD001.jpg,0,MF001.jpg,0,,,,,0,20,20,50,imgFunc,9,NA,2.649227000074461,250.27216399996541,253.00946924998425,2024-01-04 16:05:56.719813,2024-01-04 16:05:59.448373,SD001.jpg,0,10863,30-49,2024-01-04_16h02.03.352,Recall,2021.2.3,59.830691144387934,
,DD025.jpg,0,FF025.jpg,0,,,,,0,21,21,24,imgFunc,0,NA,1.2854715001303703,253.02002670010552,254.40603245026432,2024-01-04 16:05:59.455355,2024-01-04 16:06:00.832591,DD025.jpg,0,10863,30-49,2024-01-04_16h02.03.352,Recall,2021.2.3,59.830691144387934,
,DD035.jpg,0,FF035.jpg,0,,,,,0,22,22,34,imgFunc,0,NA,2.6185202999040484,254.39096830016933,257.1098561498802,2024-01-04 16:06:00.840571,2024-01-04 16:06:03.551062,DD035.jpg,0,10863,30-49,2024-01-04_16h02.03.352,Recall,2021.2.3,59.830691144387934,
,DD016.jpg,0,FF016.jpg,0,,,,,0,23,23,15,imgFunc,0,NA,1.8664106999058276,257.11917500011623,259.0887255501002,2024-01-04 16:06:03.558045,2024-01-04 16:06:05.519154,DD016.jpg,0,10863,30-49,2024-01-04_16h02.03.352,Recall,2021.2.3,59.830691144387934,
,DD005.jpg,0,FF005.jpg,0,,,,,0,24,24,4,imgFunc,0,NA,1.5148348999209702,259.086979100015,260.70623264973983,2024-01-04 16:06:05.526137,2024-01-04 16:06:07.136967,DD005.jpg,0,10863,30-49,2024-01-04_16h02.03.352,Recall,2021.2.3,59.830691144387934,
,DD040.jpg,0,FF040.jpg,0,,,,,0,25,25,39,imgFunc,0,NA,0.9129407999571413,260.69664820004255,261.699021050008,2024-01-04 16:06:07.143950,2024-01-04 16:06:08.137820,DD040.jpg,0,10863,30-49,2024-01-04_16h02.03.352,Recall,2021.2.3,59.830691144387934,
,SD024.jpg,0,MF024.jpg,0,,,,,0,26,26,73,imgFunc,9,NA,2.2459336000028998,261.70780530013144,264.0499980500899,2024-01-04 16:06:08.150787,2024-01-04 16:06:10.489657,SD024.jpg,0,10863,30-49,2024-01-04_16h02.03.352,Recall,2021.2.3,59.830691144387934,
,DD017.jpg,0,FF017.jpg,0,,,,,0,27,27,16,imgFunc,0,NA,1.3600933998823166,264.05760940001346,265.5259866497945,2024-01-04 16:06:10.497638,2024-01-04 16:06:11.957084,DD017.jpg,0,10863,30-49,2024-01-04_16h02.03.352,Recall,2021.2.3,59.830691144387934,
,DD014.jpg,0,FF014.jpg,0,,,,,0,28,28,13,imgFunc,0,NA,0.8182322999928147,265.51949330000207,266.4390110501554,2024-01-04 16:06:11.964067,2024-01-04 16:06:12.874622,DD014.jpg,0,10863,30-49,2024-01-04_16h02.03.352,Recall,2021.2.3,59.830691144387934,
,SD006.jpg,0,MF006.jpg,0,,,,,0,29,29,55,imgFunc,0,NA,1.5198021000251174,266.4339213001076,268.053606050089,2024-01-04 16:06:12.881605,2024-01-04 16:06:14.492290,SD006.jpg,0,10863,30-49,2024-01-04_16h02.03.352,Recall,2021.2.3,59.830691144387934,
,SD019.jpg,0,MF019.jpg,0,,,,,0,30,30,68,imgFunc,0,NA,0.9145029000937939,268.05518939998,269.07462045014836,2024-01-04 16:06:14.499273,2024-01-04 16:06:15.509647,SD019.jpg,0,10863,30-49,2024-01-04_16h02.03.352,Recall,2021.2.3,59.830691144387934,
,SD016.jpg,0,MF016.jpg,0,,,,,0,31,31,65,imgFunc,9,NA,1.226952999830246,269.0787672000006,270.40005135023966,2024-01-04 16:06:15.523612,2024-01-04 16:06:16.843732,SD016.jpg,0,10863,30-49,2024-01-04_16h02.03.352,Recall,2021.2.3,59.830691144387934,
,DD021.jpg,0,FF021.jpg,0,,,,,0,32,32,20,imgFunc,1,NA,4.379153199959546,270.40646210010163,274.87616035016254,2024-01-04 16:06:16.852360,2024-01-04 16:06:21.314042,DD021.jpg,0,10863,30-49,2024-01-04_16h02.03.352,Recall,2021.2.3,59.830691144387934,
,DD007.jpg,0,FF007.jpg,0,,,,,0,33,33,6,imgFunc,0,NA,2.307820599991828,274.8777292999439,277.2799033501651,2024-01-04 16:06:21.322022,2024-01-04 16:06:23.715887,DD007.jpg,0,10863,30-49,2024-01-04_16h02.03.352,Recall,2021.2.3,59.830691144387934,
,SD007.jpg,0,MF007.jpg,0,,,,,0,34,34,56,imgFunc,9,NA,5.071890400024131,277.281846200116,282.453531649895,2024-01-04 16:06:23.722870,2024-01-04 16:06:28.885979,SD007.jpg,0,10863,30-49,2024-01-04_16h02.03.352,Recall,2021.2.3,59.830691144387934,
,SD036.jpg,0,MF036.jpg,0,,,,,0,35,35,85,imgFunc,2,NA,1.8778998001944274,282.483681099955,284.4834829501342,2024-01-04 16:06:28.894957,2024-01-04 16:06:30.887603,SD036.jpg,0,10863,30-49,2024-01-04_16h02.03.352,Recall,2021.2.3,59.830691144387934,
,L_DD502.jpg,1,L_FF502.jpg,1,,,,,0,36,36,41,imgFunc,0,NA,1.5981900999322534,284.4595213001594,286.1466202500742,2024-01-04 16:06:30.902584,2024-01-04 16:06:32.588542,L_DD502.jpg,1,10863,30-49,2024-01-04_16h02.03.352,Recall,2021.2.3,59.830691144387934,
,DD026.jpg,0,FF026.jpg,0,,,,,0,37,37,25,imgFunc,9,NA,3.200233600102365,286.145327599952,289.4325572496746,2024-01-04 16:06:32.595525,2024-01-04 16:06:35.874170,DD026.jpg,0,10863,30-49,2024-01-04_16h02.03.352,Recall,2021.2.3,59.830691144387934,
,DD033.jpg,0,FF033.jpg,0,,,,,0,38,38,32,imgFunc,0,NA,5.188862900016829,289.4367976000067,294.7244611501228,2024-01-04 16:06:35.882151,2024-01-04 16:06:41.161568,DD033.jpg,0,10863,30-49,2024-01-04_16h02.03.352,Recall,2021.2.3,59.830691144387934,
,DD028.jpg,0,FF028.jpg,0,,,,,0,39,39,27,imgFunc,9,NA,3.464634299976751,294.7371310000308,298.302854150068,2024-01-04 16:06:41.171571,2024-01-04 16:06:44.730870,DD028.jpg,0,10863,30-49,2024-01-04_16h02.03.352,Recall,2021.2.3,59.830691144387934,
,SD014.jpg,0,MF014.jpg,0,,,,,0,40,40,63,imgFunc,9,NA,5.353169299894944,298.30449410015717,303.75968685001135,2024-01-04 16:06:44.737877,2024-01-04 16:06:50.184857,SD014.jpg,0,10863,30-49,2024-01-04_16h02.03.352,Recall,2021.2.3,59.830691144387934,
,L_SD510.jpg,1,L_MF510.jpg,1,,,,,0,41,41,99,imgFunc,9,NA,2.013550100149587,303.7480663000606,305.8643177503254,2024-01-04 16:06:50.193835,2024-01-04 16:06:52.303020,L_SD510.jpg,1,10863,30-49,2024-01-04_16h02.03.352,Recall,2021.2.3,59.830691144387934,
,SD023.jpg,0,MF023.jpg,0,,,,,0,42,42,72,imgFunc,0,NA,1.995280500035733,305.8622218000237,307.9483839503955,2024-01-04 16:06:52.310003,2024-01-04 16:06:54.387819,SD023.jpg,0,10863,30-49,2024-01-04_16h02.03.352,Recall,2021.2.3,59.830691144387934,
,L_DD505.jpg,1,L_FF505.jpg,1,,,,,0,43,43,44,imgFunc,9,NA,0.7539729001000524,307.95152390003204,308.8031950497534,2024-01-04 16:06:54.394802,2024-01-04 16:06:55.238319,L_DD505.jpg,1,10863,30-49,2024-01-04_16h02.03.352,Recall,2021.2.3,59.830691144387934,
,DD032.jpg,0,FF032.jpg,0,,,,,0,44,44,31,imgFunc,0,NA,1.1508633999619633,308.802805100102,310.0554817500524,2024-01-04 16:06:55.245302,2024-01-04 16:06:56.489179,DD032.jpg,0,10863,30-49,2024-01-04_16h02.03.352,Recall,2021.2.3,59.830691144387934,
,SD021.jpg,0,MF021.jpg,0,,,,,0,45,45,70,imgFunc,0,NA,0.8547273001167923,310.07489760010503,311.03083415003493,2024-01-04 16:06:56.503178,2024-01-04 16:06:57.456800,SD021.jpg,0,10863,30-49,2024-01-04_16h02.03.352,Recall,2021.2.3,59.830691144387934,
,DD038.jpg,0,FF038.jpg,0,,,,,0,46,46,37,imgFunc,0,NA,1.075116700027138,311.01463470002636,312.1832985498477,2024-01-04 16:06:57.464363,2024-01-04 16:06:58.624118,DD038.jpg,0,10863,30-49,2024-01-04_16h02.03.352,Recall,2021.2.3,59.830691144387934,
,L_DD507.jpg,1,L_FF507.jpg,1,,,,,0,47,47,46,imgFunc,9,NA,2.55882710008882,312.18671929999255,314.84029995044693,2024-01-04 16:06:58.631101,2024-01-04 16:07:01.275873,L_DD507.jpg,1,10863,30-49,2024-01-04_16h02.03.352,Recall,2021.2.3,59.830691144387934,
,DD023.jpg,0,FF023.jpg,0,,,,,0,48,48,22,imgFunc,0,NA,1.0172580000944436,314.840490499977,315.95839714980684,2024-01-04 16:07:01.283758,2024-01-04 16:07:02.393519,DD023.jpg,0,10863,30-49,2024-01-04_16h02.03.352,Recall,2021.2.3,59.830691144387934,
,DD011.jpg,0,FF011.jpg,0,,,,,0,49,49,10,imgFunc,0,NA,2.0830435999669135,315.9587159999646,318.144926649984,2024-01-04 16:07:02.400502,2024-01-04 16:07:04.578398,DD011.jpg,0,10863,30-49,2024-01-04_16h02.03.352,Recall,2021.2.3,59.830691144387934,
,DD018.jpg,0,FF018.jpg,0,,,,,0,50,50,17,imgFunc,9,NA,1.5426383998710662,318.14681770000607,319.7843021498993,2024-01-04 16:07:04.593383,2024-01-04 16:07:06.229877,DD018.jpg,0,10863,30-49,2024-01-04_16h02.03.352,Recall,2021.2.3,59.830691144387934,
,DD027.jpg,0,FF027.jpg,0,,,,,0,51,51,26,imgFunc,0,NA,1.2853638001251966,319.79643109999597,321.1806290501263,2024-01-04 16:07:06.237855,2024-01-04 16:07:07.613931,DD027.jpg,0,10863,30-49,2024-01-04_16h02.03.352,Recall,2021.2.3,59.830691144387934,
,L_DD504.jpg,1,L_FF504.jpg,1,,,,,0,52,52,43,imgFunc,9,NA,0.923681000014767,321.1819323000964,322.2175486504566,2024-01-04 16:07:07.620914,2024-01-04 16:07:08.648151,L_DD504.jpg,1,10863,30-49,2024-01-04_16h02.03.352,Recall,2021.2.3,59.830691144387934,
,SD028.jpg,0,MF028.jpg,0,,,,,0,53,53,77,imgFunc,0,NA,3.867355599999428,322.21435260004364,326.18542655021884,2024-01-04 16:07:08.655134,2024-01-04 16:07:12.617528,SD028.jpg,0,10863,30-49,2024-01-04_16h02.03.352,Recall,2021.2.3,59.830691144387934,
,DD030.jpg,0,FF030.jpg,0,,,,,0,54,54,29,imgFunc,0,NA,0.8075408001895994,326.17814050009474,327.0796233501751,2024-01-04 16:07:12.625508,2024-01-04 16:07:13.517998,DD030.jpg,0,10863,30-49,2024-01-04_16h02.03.352,Recall,2021.2.3,59.830691144387934,
,DD034.jpg,0,FF034.jpg,0,,,,,0,55,55,33,imgFunc,0,NA,0.9656938000116497,327.0919588000979,328.1459251497872,2024-01-04 16:07:13.532960,2024-01-04 16:07:14.585934,DD034.jpg,0,10863,30-49,2024-01-04_16h02.03.352,Recall,2021.2.3,59.830691144387934,
,SD011.jpg,0,MF011.jpg,0,,,,,0,56,56,60,imgFunc,9,NA,1.2102932000998408,328.1434874001425,329.4454708502162,2024-01-04 16:07:14.592917,2024-01-04 16:07:15.886544,SD011.jpg,0,10863,30-49,2024-01-04_16h02.03.352,Recall,2021.2.3,59.830691144387934,
,DD036.jpg,0,FF036.jpg,0,,,,,0,57,57,35,imgFunc,0,NA,0.6680964000988752,329.4456233000383,330.21427254984155,2024-01-04 16:07:15.893528,2024-01-04 16:07:16.653814,DD036.jpg,0,10863,30-49,2024-01-04_16h02.03.352,Recall,2021.2.3,59.830691144387934,
,DD003.jpg,0,FF003.jpg,0,,,,,0,58,58,2,imgFunc,9,NA,0.7328553998377174,330.21295680012554,331.0484219500795,2024-01-04 16:07:16.660797,2024-01-04 16:07:17.487855,DD003.jpg,0,10863,30-49,2024-01-04_16h02.03.352,Recall,2021.2.3,59.830691144387934,
,DD013.jpg,0,FF013.jpg,0,,,,,0,59,59,12,imgFunc,0,NA,0.9837610998656601,331.05001200013794,332.13533405028284,2024-01-04 16:07:17.494838,2024-01-04 16:07:18.571924,DD013.jpg,0,10863,30-49,2024-01-04_16h02.03.352,Recall,2021.2.3,59.830691144387934,
,L_DD508.jpg,1,L_FF508.jpg,1,,,,,0,60,60,47,imgFunc,0,NA,0.6549406999256462,332.13081250013784,332.8833097501192,2024-01-04 16:07:18.578908,2024-01-04 16:07:19.322360,L_DD508.jpg,1,10863,30-49,2024-01-04_16h02.03.352,Recall,2021.2.3,59.830691144387934,
,SD037.jpg,0,MF037.jpg,0,,,,,0,61,61,86,imgFunc,0,NA,0.9788037999533117,332.878991600126,333.9483251501806,2024-01-04 16:07:19.329343,2024-01-04 16:07:20.389664,SD037.jpg,0,10863,30-49,2024-01-04_16h02.03.352,Recall,2021.2.3,59.830691144387934,
,SD034.jpg,0,MF034.jpg,0,,,,,0,62,62,83,imgFunc,0,NA,1.5329469998832792,333.9488059999421,335.58498184988275,2024-01-04 16:07:20.396647,2024-01-04 16:07:22.024350,SD034.jpg,0,10863,30-49,2024-01-04_16h02.03.352,Recall,2021.2.3,59.830691144387934,
,L_DD503.jpg,1,L_FF503.jpg,1,,,,,0,63,63,42,imgFunc,0,NA,0.9538628000300378,335.5998923999723,336.6686863498762,2024-01-04 16:07:22.031333,2024-01-04 16:07:23.091560,L_DD503.jpg,1,10863,30-49,2024-01-04_16h02.03.352,Recall,2021.2.3,59.830691144387934,
,SD002.jpg,0,MF002.jpg,0,,,,,0,64,64,51,imgFunc,9,NA,1.1600440999027342,336.66560780000873,337.92172485007904,2024-01-04 16:07:23.105561,2024-01-04 16:07:24.359433,SD002.jpg,0,10863,30-49,2024-01-04_16h02.03.352,Recall,2021.2.3,59.830691144387934,
,L_SD509.jpg,1,L_MF509.jpg,1,,,,,0,65,65,98,imgFunc,9,NA,0.9721558000892401,337.9176187000703,338.986894949805,2024-01-04 16:07:24.366416,2024-01-04 16:07:25.427083,L_SD509.jpg,1,10863,30-49,2024-01-04_16h02.03.352,Recall,2021.2.3,59.830691144387934,
,DD019.jpg,0,FF019.jpg,0,,,,,0,66,66,18,imgFunc,0,NA,0.9310870000626892,338.99067720002495,340.02661474980414,2024-01-04 16:07:25.434066,2024-01-04 16:07:26.461054,DD019.jpg,0,10863,30-49,2024-01-04_16h02.03.352,Recall,2021.2.3,59.830691144387934,
,DD024.jpg,0,FF024.jpg,0,,,,,0,67,67,23,imgFunc,9,NA,1.6216760000679642,340.01971899997443,341.73904374963604,2024-01-04 16:07:26.468037,2024-01-04 16:07:28.178033,DD024.jpg,0,10863,30-49,2024-01-04_16h02.03.352,Recall,2021.2.3,59.830691144387934,
,SD027.jpg,0,MF027.jpg,0,,,,,0,68,68,76,imgFunc,0,NA,5.255132199963555,341.73863460007124,347.09405324980617,2024-01-04 16:07:28.185982,2024-01-04 16:07:33.532610,SD027.jpg,0,10863,30-49,2024-01-04_16h02.03.352,Recall,2021.2.3,59.830691144387934,
,SD040.jpg,0,MF040.jpg,0,,,,,0,69,69,89,imgFunc,9,NA,1.8077710000798106,347.10589920007624,349.00848645041697,2024-01-04 16:07:33.548569,2024-01-04 16:07:35.450708,SD040.jpg,0,10863,30-49,2024-01-04_16h02.03.352,Recall,2021.2.3,59.830691144387934,
,L_DD506.jpg,1,L_FF506.jpg,1,,,,,0,70,70,45,imgFunc,9,NA,1.0837300000712276,349.0059166001156,350.1750674499199,2024-01-04 16:07:35.457692,2024-01-04 16:07:36.618413,L_DD506.jpg,1,10863,30-49,2024-01-04_16h02.03.352,Recall,2021.2.3,59.830691144387934,
,DD001.jpg,0,FF001.jpg,0,,,,,0,71,71,0,imgFunc,0,NA,0.8558383998461068,350.17794800014235,351.1301660502795,2024-01-04 16:07:36.625396,2024-01-04 16:07:37.568963,DD001.jpg,0,10863,30-49,2024-01-04_16h02.03.352,Recall,2021.2.3,59.830691144387934,
,DD015.jpg,0,FF015.jpg,0,,,,,0,72,72,14,imgFunc,9,NA,0.7946034001652151,351.12690800009295,352.01254525012337,2024-01-04 16:07:37.575946,2024-01-04 16:07:38.452902,DD015.jpg,0,10863,30-49,2024-01-04_16h02.03.352,Recall,2021.2.3,59.830691144387934,
,DD006.jpg,0,FF006.jpg,0,,,,,0,73,73,5,imgFunc,9,NA,0.9890060999896377,352.02053840016015,353.10695045022294,2024-01-04 16:07:38.459885,2024-01-04 16:07:39.537751,DD006.jpg,0,10863,30-49,2024-01-04_16h02.03.352,Recall,2021.2.3,59.830691144387934,
,SD017.jpg,0,MF017.jpg,0,,,,,0,74,74,66,imgFunc,9,NA,1.1289448000025004,353.1127617000602,354.33331945026293,2024-01-04 16:07:39.552741,2024-01-04 16:07:40.771361,SD017.jpg,0,10863,30-49,2024-01-04_16h02.03.352,Recall,2021.2.3,59.830691144387934,
,SD039.jpg,0,MF039.jpg,0,,,,,0,75,75,88,imgFunc,0,NA,0.9624010000843555,354.33527890010737,355.4042109500151,2024-01-04 16:07:40.778344,2024-01-04 16:07:41.838511,SD039.jpg,0,10863,30-49,2024-01-04_16h02.03.352,Recall,2021.2.3,59.830691144387934,
,DD002.jpg,0,FF002.jpg,0,,,,,0,76,76,1,imgFunc,0,NA,0.8338639000430703,355.39206550014205,356.3117380500771,2024-01-04 16:07:41.845517,2024-01-04 16:07:42.756793,DD002.jpg,0,10863,30-49,2024-01-04_16h02.03.352,Recall,2021.2.3,59.830691144387934,
,DD020.jpg,0,FF020.jpg,0,,,,,0,77,77,19,imgFunc,0,NA,1.067914899904281,356.3179126000032,357.4862282499671,2024-01-04 16:07:42.763776,2024-01-04 16:07:43.923469,DD020.jpg,0,10863,30-49,2024-01-04_16h02.03.352,Recall,2021.2.3,59.830691144387934,
,DD010.jpg,0,FF010.jpg,0,,,,,0,78,78,9,imgFunc,0,NA,0.9200440000277013,357.48169400007464,358.5012038499117,2024-01-04 16:07:43.930452,2024-01-04 16:07:44.940920,DD010.jpg,0,10863,30-49,2024-01-04_16h02.03.352,Recall,2021.2.3,59.830691144387934,
,SD018.jpg,0,MF018.jpg,0,,,,,0,79,79,67,imgFunc,9,NA,0.9672542000189424,358.4982390999794,359.56743014999665,2024-01-04 16:07:44.947903,2024-01-04 16:07:46.008438,SD018.jpg,0,10863,30-49,2024-01-04_16h02.03.352,Recall,2021.2.3,59.830691144387934,
,SD022.jpg,0,MF022.jpg,0,,,,,0,80,80,71,imgFunc,0,NA,2.9146929001435637,359.56707210000604,362.57137544988655,2024-01-04 16:07:46.015420,2024-01-04 16:07:49.010717,SD022.jpg,0,10863,30-49,2024-01-04_16h02.03.352,Recall,2021.2.3,59.830691144387934,
,DD004.jpg,0,FF004.jpg,0,,,,,0,81,81,3,imgFunc,2,NA,3.2487097999546677,362.5689373000059,365.90654615010135,2024-01-04 16:07:49.017700,2024-01-04 16:07:52.346310,DD004.jpg,0,10863,30-49,2024-01-04_16h02.03.352,Recall,2021.2.3,59.830691144387934,
,SD038.jpg,0,MF038.jpg,0,,,,,0,82,82,87,imgFunc,1,NA,3.862932400079444,365.8984793999698,369.8526694497559,2024-01-04 16:07:52.353293,2024-01-04 16:07:56.298037,SD038.jpg,0,10863,30-49,2024-01-04_16h02.03.352,Recall,2021.2.3,59.830691144387934,
,DD008.jpg,0,FF008.jpg,0,,,,,0,83,83,7,imgFunc,9,NA,4.593170800013468,369.86464700009674,374.5418006500695,2024-01-04 16:07:56.311967,2024-01-04 16:08:00.986111,DD008.jpg,0,10863,30-49,2024-01-04_16h02.03.352,Recall,2021.2.3,59.830691144387934,
,SD005.jpg,0,MF005.jpg,0,,,,,0,84,84,54,imgFunc,0,NA,1.6721985000185668,374.54522680002265,376.31094085029326,2024-01-04 16:08:00.995089,2024-01-04 16:08:02.753355,SD005.jpg,0,10863,30-49,2024-01-04_16h02.03.352,Recall,2021.2.3,59.830691144387934,
,DD009.jpg,0,FF009.jpg,0,,,,,0,85,85,8,imgFunc,9,NA,2.050921200076118,376.310671800049,378.44635485019535,2024-01-04 16:08:02.761310,2024-01-04 16:08:04.888125,DD009.jpg,0,10863,30-49,2024-01-04_16h02.03.352,Recall,2021.2.3,59.830691144387934,
,L_DD510.jpg,1,L_FF510.jpg,1,,,,,0,86,86,49,imgFunc,9,NA,1.150619399966672,378.4512058000546,379.703479050193,2024-01-04 16:08:04.896129,2024-01-04 16:08:06.139427,L_DD510.jpg,1,10863,30-49,2024-01-04_16h02.03.352,Recall,2021.2.3,59.830691144387934,
,L_SD502.jpg,1,L_MF502.jpg,1,,,,,0,87,87,91,imgFunc,9,NA,1.0583601999096572,379.7033597000409,380.8555710501969,2024-01-04 16:08:06.146435,2024-01-04 16:08:07.290501,L_SD502.jpg,1,10863,30-49,2024-01-04_16h02.03.352,Recall,2021.2.3,59.830691144387934,
,SD003.jpg,0,MF003.jpg,0,,,,,0,88,88,52,imgFunc,0,NA,1.6870573998894542,380.8667556999717,382.655357850017,2024-01-04 16:08:07.304466,2024-01-04 16:08:09.091523,SD003.jpg,0,10863,30-49,2024-01-04_16h02.03.352,Recall,2021.2.3,59.830691144387934,
,SD010.jpg,0,MF010.jpg,0,,,,,0,89,89,59,imgFunc,9,NA,1.091994300018996,382.6538560001645,383.83909075008705,2024-01-04 16:08:09.099182,2024-01-04 16:08:10.275897,SD010.jpg,0,10863,30-49,2024-01-04_16h02.03.352,Recall,2021.2.3,59.830691144387934,
,L_DD509.jpg,1,L_FF509.jpg,1,,,,,0,90,90,48,imgFunc,9,NA,1.6490428999532014,383.83268260001205,385.56869714986533,2024-01-04 16:08:10.282903,2024-01-04 16:08:12.010791,L_DD509.jpg,1,10863,30-49,2024-01-04_16h02.03.352,Recall,2021.2.3,59.830691144387934,
,DD031.jpg,0,FF031.jpg,0,,,,,0,91,91,30,imgFunc,9,NA,1.7229848001152277,385.5748092001304,387.3944304501638,2024-01-04 16:08:12.017774,2024-01-04 16:08:13.828510,DD031.jpg,0,10863,30-49,2024-01-04_16h02.03.352,Recall,2021.2.3,59.830691144387934,
,L_SD504.jpg,1,L_MF504.jpg,1,,,,,0,92,92,93,imgFunc,0,NA,0.8705849000252783,387.3870711000636,388.35588495014235,2024-01-04 16:08:13.835493,2024-01-04 16:08:14.795941,L_SD504.jpg,1,10863,30-49,2024-01-04_16h02.03.352,Recall,2021.2.3,59.830691144387934,
,SD032.jpg,0,MF032.jpg,0,,,,,0,93,93,81,imgFunc,9,NA,1.7328000999987125,388.36500220000744,390.187435350148,2024-01-04 16:08:14.809905,2024-01-04 16:08:16.630412,SD032.jpg,0,10863,30-49,2024-01-04_16h02.03.352,Recall,2021.2.3,59.830691144387934,
,L_SD508.jpg,1,L_MF508.jpg,1,,,,,0,94,94,97,imgFunc,0,NA,2.2151948001701385,390.18674440006725,392.4907614500262,2024-01-04 16:08:16.637395,2024-01-04 16:08:18.932359,L_SD508.jpg,1,10863,30-49,2024-01-04_16h02.03.352,Recall,2021.2.3,59.830691144387934,
,L_SD503.jpg,1,L_MF503.jpg,1,,,,,0,95,95,92,imgFunc,9,NA,3.584652899997309,392.48907260014676,396.15967694995925,2024-01-04 16:08:18.939342,2024-01-04 16:08:22.601634,L_SD503.jpg,1,10863,30-49,2024-01-04_16h02.03.352,Recall,2021.2.3,59.830691144387934,
,L_SD507.jpg,1,L_MF507.jpg,1,,,,,0,96,96,96,imgFunc,0,NA,1.1955652001779526,396.158110300079,397.4441336502787,2024-01-04 16:08:22.608617,2024-01-04 16:08:23.885724,L_SD507.jpg,1,10863,30-49,2024-01-04_16h02.03.352,Recall,2021.2.3,59.830691144387934,
,SD030.jpg,0,MF030.jpg,0,,,,,0,97,97,79,imgFunc,0,NA,1.5557315000332892,397.45391839998774,399.1063087498769,2024-01-04 16:08:23.892707,2024-01-04 16:08:25.536363,SD030.jpg,0,10863,30-49,2024-01-04_16h02.03.352,Recall,2021.2.3,59.830691144387934,
,SD031.jpg,0,MF031.jpg,0,,,,,0,98,98,80,imgFunc,0,NA,2.0690327999182045,399.09276650007814,401.26231375010684,2024-01-04 16:08:25.544366,2024-01-04 16:08:27.705229,SD031.jpg,0,10863,30-49,2024-01-04_16h02.03.352,Recall,2021.2.3,59.830691144387934,
,L_SD501.jpg,1,L_MF501.jpg,1,,,,,0,99,99,90,imgFunc,9,NA,0.7178782999981195,401.2596557000652,402.06175104994327,2024-01-04 16:08:27.712213,2024-01-04 16:08:28.504777,L_SD501.jpg,1,10863,30-49,2024-01-04_16h02.03.352,Recall,2021.2.3,59.830691144387934,
,,,,,,,,,,,,,instrFunc,space,"Great work! 

 Now you will switch to the other image type.

 Press the spacebar whenever you are ready to start.",3.5181576998438686,401.99548620008864,405.5618544500321,2024-01-04 16:08:28.505773,2024-01-04 16:08:32.056893,,,10863,30-49,2024-01-04_16h02.03.352,Recall,2021.2.3,59.830691144387934,
,SD035.jpg,0,MF035.jpg,0,,,,,0,0,0,84,imgFunc,2,NA,14.972018599975854,405.63748860009946,420.708864700282,2024-01-04 16:08:32.084846,2024-01-04 16:08:47.152412,MF035.jpg,0,10863,30-49,2024-01-04_16h02.03.352,Recall,2021.2.3,59.830691144387934,
,SD027.jpg,0,MF027.jpg,0,,,,,0,1,1,76,imgFunc,1,NA,1.3126273998059332,420.729169000173,422.13802705006674,2024-01-04 16:08:47.165380,2024-01-04 16:08:48.570309,MF027.jpg,0,10863,30-49,2024-01-04_16h02.03.352,Recall,2021.2.3,59.830691144387934,
,DD002.jpg,0,FF002.jpg,0,,,,,0,2,2,1,imgFunc,1,NA,1.8149985999334604,422.13035580003634,424.04970684996806,2024-01-04 16:08:48.577292,2024-01-04 16:08:50.488028,FF002.jpg,0,10863,30-49,2024-01-04_16h02.03.352,Recall,2021.2.3,59.830691144387934,
,DD009.jpg,0,FF009.jpg,0,,,,,0,3,3,8,imgFunc,2,NA,1.991118900012225,424.0665576001629,426.15933865029365,2024-01-04 16:08:50.499988,2024-01-04 16:08:52.589803,FF009.jpg,0,10863,30-49,2024-01-04_16h02.03.352,Recall,2021.2.3,59.830691144387934,
,DD024.jpg,0,FF024.jpg,0,,,,,0,4,4,23,imgFunc,1,NA,2.155632199952379,426.1501960000023,428.40347895026207,2024-01-04 16:08:52.596809,2024-01-04 16:08:54.841428,FF024.jpg,0,10863,30-49,2024-01-04_16h02.03.352,Recall,2021.2.3,59.830691144387934,
,SD022.jpg,0,MF022.jpg,0,,,,,0,5,5,71,imgFunc,9,NA,11.58656629989855,428.3993609000463,440.0762885501608,2024-01-04 16:08:54.848411,2024-01-04 16:09:06.516710,MF022.jpg,0,10863,30-49,2024-01-04_16h02.03.352,Recall,2021.2.3,59.830691144387934,
,SD021.jpg,0,MF021.jpg,0,,,,,0,6,6,70,imgFunc,9,NA,2.1055439000483602,440.1123522000853,442.3461186501663,2024-01-04 16:09:06.524718,2024-01-04 16:09:08.751208,MF021.jpg,0,10863,30-49,2024-01-04_16h02.03.352,Recall,2021.2.3,59.830691144387934,
,DD019.jpg,0,FF019.jpg,0,,,,,0,7,7,18,imgFunc,2,NA,2.6835676999762654,442.3183009000495,445.10514364996925,2024-01-04 16:09:08.758192,2024-01-04 16:09:11.536569,FF019.jpg,0,10863,30-49,2024-01-04_16h02.03.352,Recall,2021.2.3,59.830691144387934,
,SD031.jpg,0,MF031.jpg,0,,,,,0,8,8,80,imgFunc,9,NA,2.5391558001283556,445.0943337001372,447.7310004499741,2024-01-04 16:09:11.543575,2024-01-04 16:09:14.172003,MF031.jpg,0,10863,30-49,2024-01-04_16h02.03.352,Recall,2021.2.3,59.830691144387934,
,L_DD509.jpg,1,L_FF509.jpg,1,,,,,0,9,9,48,imgFunc,0,NA,3.028393100015819,447.73339299997315,450.8540508497972,2024-01-04 16:09:14.179009,2024-01-04 16:09:17.290934,L_FF509.jpg,1,10863,30-49,2024-01-04_16h02.03.352,Recall,2021.2.3,59.830691144387934,
,SD018.jpg,0,MF018.jpg,0,,,,,0,10,10,67,imgFunc,0,NA,2.474839200032875,450.85489200009033,453.4247610499151,2024-01-04 16:09:17.298571,2024-01-04 16:09:19.859116,MF018.jpg,0,10863,30-49,2024-01-04_16h02.03.352,Recall,2021.2.3,59.830691144387934,
,DD005.jpg,0,FF005.jpg,0,,,,,0,11,11,4,imgFunc,0,NA,3.950494799995795,453.41934170015156,457.47330984985456,2024-01-04 16:09:19.867126,2024-01-04 16:09:23.912259,FF005.jpg,0,10863,30-49,2024-01-04_16h02.03.352,Recall,2021.2.3,59.830691144387934,
,DD037.jpg,0,FF037.jpg,0,,,,,0,12,12,36,imgFunc,1,NA,4.042906899936497,457.4869499001652,461.62965135020204,2024-01-04 16:09:23.925227,2024-01-04 16:09:28.065239,FF037.jpg,0,10863,30-49,2024-01-04_16h02.03.352,Recall,2021.2.3,59.830691144387934,
,DD029.jpg,0,FF029.jpg,0,,,,,0,13,13,28,imgFunc,0,NA,0.847948299953714,461.63354269997217,462.5816376497969,2024-01-04 16:09:28.074217,2024-01-04 16:09:29.015711,FF029.jpg,0,10863,30-49,2024-01-04_16h02.03.352,Recall,2021.2.3,59.830691144387934,
,SD033.jpg,0,MF033.jpg,0,,,,,0,14,14,82,imgFunc,0,NA,2.318498899927363,462.5794238001108,464.9959952500649,2024-01-04 16:09:29.024687,2024-01-04 16:09:31.434555,MF033.jpg,0,10863,30-49,2024-01-04_16h02.03.352,Recall,2021.2.3,59.830691144387934,
,SD032.jpg,0,MF032.jpg,0,,,,,0,15,15,81,imgFunc,0,NA,1.0136187002062798,464.9962949999608,466.11537965014577,2024-01-04 16:09:31.441538,2024-01-04 16:09:32.551808,MF032.jpg,0,10863,30-49,2024-01-04_16h02.03.352,Recall,2021.2.3,59.830691144387934,
,DD007.jpg,0,FF007.jpg,0,,,,,0,16,16,6,imgFunc,1,NA,2.218925599940121,466.1109419001732,468.430715250317,2024-01-04 16:09:32.558791,2024-01-04 16:09:34.870228,FF007.jpg,0,10863,30-49,2024-01-04_16h02.03.352,Recall,2021.2.3,59.830691144387934,
,L_SD502.jpg,1,L_MF502.jpg,1,,,,,0,17,17,91,imgFunc,0,NA,1.907799999928102,468.45382970012724,470.47494415030815,2024-01-04 16:09:34.885212,2024-01-04 16:09:36.905003,L_MF502.jpg,1,10863,30-49,2024-01-04_16h02.03.352,Recall,2021.2.3,59.830691144387934,
,SD009.jpg,0,MF009.jpg,0,,,,,0,18,18,58,imgFunc,9,NA,5.140015100128949,470.4617016001139,475.70076565025374,2024-01-04 16:09:36.911992,2024-01-04 16:09:42.142268,MF009.jpg,0,10863,30-49,2024-01-04_16h02.03.352,Recall,2021.2.3,59.830691144387934,
,DD014.jpg,0,FF014.jpg,0,,,,,0,19,19,13,imgFunc,0,NA,0.9571513999253511,475.7084064001683,476.7743135499768,2024-01-04 16:09:42.151246,2024-01-04 16:09:43.209545,FF014.jpg,0,10863,30-49,2024-01-04_16h02.03.352,Recall,2021.2.3,59.830691144387934,
,DD023.jpg,0,FF023.jpg,0,,,,,0,20,20,22,imgFunc,0,NA,0.9292225998360664,476.77658480009995,477.8123039503116,2024-01-04 16:09:43.216528,2024-01-04 16:09:44.243624,FF023.jpg,0,10863,30-49,2024-01-04_16h02.03.352,Recall,2021.2.3,59.830691144387934,
,SD026.jpg,0,MF026.jpg,0,,,,,0,21,21,75,imgFunc,0,NA,0.6838831000495702,477.8219973000232,478.6241417503916,2024-01-04 16:09:44.250607,2024-01-04 16:09:45.044263,MF026.jpg,0,10863,30-49,2024-01-04_16h02.03.352,Recall,2021.2.3,59.830691144387934,
,SD004.jpg,0,MF004.jpg,0,,,,,0,22,22,53,imgFunc,0,NA,0.577710899990052,478.60021049994975,479.2696388501208,2024-01-04 16:09:45.051246,2024-01-04 16:09:45.711459,MF004.jpg,0,10863,30-49,2024-01-04_16h02.03.352,Recall,2021.2.3,59.830691144387934,
,SD015.jpg,0,MF015.jpg,0,,,,,0,23,23,64,imgFunc,9,NA,3.996615100186318,479.2692462000996,483.3575758500956,2024-01-04 16:09:45.718442,2024-01-04 16:09:49.797743,MF015.jpg,0,10863,30-49,2024-01-04_16h02.03.352,Recall,2021.2.3,59.830691144387934,
,SD017.jpg,0,MF017.jpg,0,,,,,0,24,24,66,imgFunc,9,NA,1.5907951998524368,483.3630045000464,485.04927825019695,2024-01-04 16:09:49.804726,2024-01-04 16:09:51.482319,MF017.jpg,0,10863,30-49,2024-01-04_16h02.03.352,Recall,2021.2.3,59.830691144387934,
,SD034.jpg,0,MF034.jpg,0,,,,,0,25,25,83,imgFunc,2,NA,2.7499440000392497,485.0436180001125,487.89669915032573,2024-01-04 16:09:51.489302,2024-01-04 16:09:54.333775,MF034.jpg,0,10863,30-49,2024-01-04_16h02.03.352,Recall,2021.2.3,59.830691144387934,
,SD040.jpg,0,MF040.jpg,0,,,,,0,26,26,89,imgFunc,9,NA,4.491827300051227,487.9100875000004,492.5020136497915,2024-01-04 16:09:54.347739,2024-01-04 16:09:58.937500,MF040.jpg,0,10863,30-49,2024-01-04_16h02.03.352,Recall,2021.2.3,59.830691144387934,
,DD003.jpg,0,FF003.jpg,0,,,,,0,27,27,2,imgFunc,9,NA,2.1025921998079866,492.5072063000407,494.7083691502921,2024-01-04 16:09:58.945481,2024-01-04 16:10:01.139397,FF003.jpg,0,10863,30-49,2024-01-04_16h02.03.352,Recall,2021.2.3,59.830691144387934,
,DD021.jpg,0,FF021.jpg,0,,,,,0,28,28,20,imgFunc,1,NA,2.3014342999085784,494.7083580000326,497.11155644990504,2024-01-04 16:10:01.146380,2024-01-04 16:10:03.541071,FF021.jpg,0,10863,30-49,2024-01-04_16h02.03.352,Recall,2021.2.3,59.830691144387934,
,DD035.jpg,0,FF035.jpg,0,,,,,0,29,29,34,imgFunc,1,NA,2.1632430001627654,497.1102917001117,499.3801231503021,2024-01-04 16:10:03.548054,2024-01-04 16:10:05.808956,FF035.jpg,0,10863,30-49,2024-01-04_16h02.03.352,Recall,2021.2.3,59.830691144387934,
,SD016.jpg,0,MF016.jpg,0,,,,,0,30,30,65,imgFunc,0,NA,2.2726888000033796,499.3852177001536,501.7700306500774,2024-01-04 16:10:05.816959,2024-01-04 16:10:08.194178,MF016.jpg,0,10863,30-49,2024-01-04_16h02.03.352,Recall,2021.2.3,59.830691144387934,
,SD010.jpg,0,MF010.jpg,0,,,,,0,31,31,59,imgFunc,9,NA,2.127832599915564,501.77786270016804,504.01577045046724,2024-01-04 16:10:08.209066,2024-01-04 16:10:10.445698,MF010.jpg,0,10863,30-49,2024-01-04_16h02.03.352,Recall,2021.2.3,59.830691144387934,
,L_DD505.jpg,1,L_FF505.jpg,1,,,,,0,32,32,44,imgFunc,9,NA,3.5658793000038713,504.01204539998434,507.6824411500711,2024-01-04 16:10:10.453678,2024-01-04 16:10:14.115286,L_FF505.jpg,1,10863,30-49,2024-01-04_16h02.03.352,Recall,2021.2.3,59.830691144387934,
,L_DD506.jpg,1,L_FF506.jpg,1,,,,,0,33,33,45,imgFunc,9,NA,1.569419499952346,507.6725200000219,509.34173395019025,2024-01-04 16:10:14.122269,2024-01-04 16:10:15.783186,L_FF506.jpg,1,10863,30-49,2024-01-04_16h02.03.352,Recall,2021.2.3,59.830691144387934,
,DD015.jpg,0,FF015.jpg,0,,,,,0,34,34,14,imgFunc,1,NA,1.7251234001014382,509.3483989001252,511.18469494977035,2024-01-04 16:10:15.790169,2024-01-04 16:10:17.617654,FF015.jpg,0,10863,30-49,2024-01-04_16h02.03.352,Recall,2021.2.3,59.830691144387934,
,SD001.jpg,0,MF001.jpg,0,,,,,0,35,35,50,imgFunc,9,NA,10.202152100158855,511.1916885001119,521.5006212501321,2024-01-04 16:10:17.624637,2024-01-04 16:10:27.925156,MF001.jpg,0,10863,30-49,2024-01-04_16h02.03.352,Recall,2021.2.3,59.830691144387934,
,SD013.jpg,0,MF013.jpg,0,,,,,0,36,36,62,imgFunc,0,NA,1.6678299000486732,521.5020894999616,523.2839840499219,2024-01-04 16:10:27.934820,2024-01-04 16:10:29.709692,MF013.jpg,0,10863,30-49,2024-01-04_16h02.03.352,Recall,2021.2.3,59.830691144387934,
,DD008.jpg,0,FF008.jpg,0,,,,,0,37,37,7,imgFunc,1,NA,2.237860399996862,523.2921343999915,525.645698050037,2024-01-04 16:10:29.716675,2024-01-04 16:10:32.061527,FF008.jpg,0,10863,30-49,2024-01-04_16h02.03.352,Recall,2021.2.3,59.830691144387934,
,SD024.jpg,0,MF024.jpg,0,,,,,0,38,38,73,imgFunc,0,NA,0.9506437000818551,525.6271563000046,526.6795501501765,2024-01-04 16:10:32.068510,2024-01-04 16:10:33.111972,MF024.jpg,0,10863,30-49,2024-01-04_16h02.03.352,Recall,2021.2.3,59.830691144387934,
,DD013.jpg,0,FF013.jpg,0,,,,,0,39,39,12,imgFunc,0,NA,1.778492599958554,526.6873029000126,528.5729315502103,2024-01-04 16:10:33.119982,2024-01-04 16:10:34.997076,FF013.jpg,0,10863,30-49,2024-01-04_16h02.03.352,Recall,2021.2.3,59.830691144387934,
,L_DD504.jpg,1,L_FF504.jpg,1,,,,,0,40,40,43,imgFunc,0,NA,12.377149099949747,528.584561600117,541.0809383504093,2024-01-04 16:10:35.011040,2024-01-04 16:10:47.505936,L_FF504.jpg,1,10863,30-49,2024-01-04_16h02.03.352,Recall,2021.2.3,59.830691144387934,
,SD011.jpg,0,MF011.jpg,0,,,,,0,41,41,60,imgFunc,0,NA,1.976012400118634,541.0979337000754,543.1940220501274,2024-01-04 16:10:47.516909,2024-01-04 16:10:49.607599,MF011.jpg,0,10863,30-49,2024-01-04_16h02.03.352,Recall,2021.2.3,59.830691144387934,
,DD012.jpg,0,FF012.jpg,0,,,,,0,42,42,11,imgFunc,0,NA,0.7611674000509083,543.1687437000219,544.0371296501253,2024-01-04 16:10:49.614594,2024-01-04 16:10:50.474768,FF012.jpg,0,10863,30-49,2024-01-04_16h02.03.352,Recall,2021.2.3,59.830691144387934,
,SD002.jpg,0,MF002.jpg,0,,,,,0,43,43,51,imgFunc,0,NA,0.6116271000355482,544.0383262999821,544.7572406500112,2024-01-04 16:10:50.481751,2024-01-04 16:10:51.191836,MF002.jpg,0,10863,30-49,2024-01-04_16h02.03.352,Recall,2021.2.3,59.830691144387934,
,DD022.jpg,0,FF022.jpg,0,,,,,0,44,44,21,imgFunc,0,NA,0.7325288001447916,544.7651446000673,545.6173750499729,2024-01-04 16:10:51.198819,2024-01-04 16:10:52.042776,FF022.jpg,0,10863,30-49,2024-01-04_16h02.03.352,Recall,2021.2.3,59.830691144387934,
,DD017.jpg,0,FF017.jpg,0,,,,,0,45,45,16,imgFunc,2,NA,6.793302900157869,545.6166038000956,552.5083934501745,2024-01-04 16:10:52.056759,2024-01-04 16:10:58.947499,FF017.jpg,0,10863,30-49,2024-01-04_16h02.03.352,Recall,2021.2.3,59.830691144387934,
,SD039.jpg,0,MF039.jpg,0,,,,,0,46,46,88,imgFunc,1,NA,1.820386600214988,552.5092895999551,554.4256207495928,2024-01-04 16:10:58.956477,2024-01-04 16:11:00.865526,MF039.jpg,0,10863,30-49,2024-01-04_16h02.03.352,Recall,2021.2.3,59.830691144387934,
,DD020.jpg,0,FF020.jpg,0,,,,,0,47,47,19,imgFunc,1,NA,0.8598943001125008,554.4299991000444,555.3987409502733,2024-01-04 16:11:00.872509,2024-01-04 16:11:01.832936,FF020.jpg,0,10863,30-49,2024-01-04_16h02.03.352,Recall,2021.2.3,59.830691144387934,
,SD036.jpg,0,MF036.jpg,0,,,,,0,48,48,85,imgFunc,0,NA,4.663069800008088,555.3948685000651,560.1659395499155,2024-01-04 16:11:01.840916,2024-01-04 16:11:06.603040,MF036.jpg,0,10863,30-49,2024-01-04_16h02.03.352,Recall,2021.2.3,59.830691144387934,
,SD030.jpg,0,MF030.jpg,0,,,,,0,49,49,79,imgFunc,9,NA,1.0722614999394864,560.201536500128,561.4003623505123,2024-01-04 16:11:06.612018,2024-01-04 16:11:07.803653,MF030.jpg,0,10863,30-49,2024-01-04_16h02.03.352,Recall,2021.2.3,59.830691144387934,
,DD027.jpg,0,FF027.jpg,0,,,,,0,50,50,26,imgFunc,0,NA,1.5457600001245737,561.3921785999555,563.0595989499707,2024-01-04 16:11:07.811631,2024-01-04 16:11:09.471777,FF027.jpg,0,10863,30-49,2024-01-04_16h02.03.352,Recall,2021.2.3,59.830691144387934,
,L_SD509.jpg,1,L_MF509.jpg,1,,,,,0,51,51,98,imgFunc,0,NA,1.5252723000012338,563.0282251001336,564.6469561501872,2024-01-04 16:11:09.478784,2024-01-04 16:11:11.088789,L_MF509.jpg,1,10863,30-49,2024-01-04_16h02.03.352,Recall,2021.2.3,59.830691144387934,
,DD031.jpg,0,FF031.jpg,0,,,,,0,52,52,30,imgFunc,9,NA,3.2602742998860776,564.653539000079,568.0241201499011,2024-01-04 16:11:11.096736,2024-01-04 16:11:14.458649,FF031.jpg,0,10863,30-49,2024-01-04_16h02.03.352,Recall,2021.2.3,59.830691144387934,
,DD032.jpg,0,FF032.jpg,0,,,,,0,53,53,31,imgFunc,9,NA,3.27971879998222,568.0262236001436,571.413019950036,2024-01-04 16:11:14.466652,2024-01-04 16:11:17.844406,FF032.jpg,0,10863,30-49,2024-01-04_16h02.03.352,Recall,2021.2.3,59.830691144387934,
,L_SD503.jpg,1,L_MF503.jpg,1,,,,,0,54,54,92,imgFunc,9,NA,1.0441984001081437,571.4137206000742,572.5522163501009,2024-01-04 16:11:17.858404,2024-01-04 16:11:18.995311,L_MF503.jpg,1,10863,30-49,2024-01-04_16h02.03.352,Recall,2021.2.3,59.830691144387934,
,SD028.jpg,0,MF028.jpg,0,,,,,0,55,55,77,imgFunc,0,NA,1.4965470999013633,572.5614702000748,574.1640885497909,2024-01-04 16:11:19.002294,2024-01-04 16:11:20.596578,MF028.jpg,0,10863,30-49,2024-01-04_16h02.03.352,Recall,2021.2.3,59.830691144387934,
,L_SD510.jpg,1,L_MF510.jpg,1,,,,,0,56,56,99,imgFunc,0,NA,1.0830071000382304,574.158892699983,575.3450045501813,2024-01-04 16:11:20.603561,2024-01-04 16:11:21.780594,L_MF510.jpg,1,10863,30-49,2024-01-04_16h02.03.352,Recall,2021.2.3,59.830691144387934,
,SD006.jpg,0,MF006.jpg,0,,,,,0,57,57,55,imgFunc,9,NA,1.9959338000044227,575.3416003000457,577.4448255498428,2024-01-04 16:11:21.787601,2024-01-04 16:11:23.882250,MF006.jpg,0,10863,30-49,2024-01-04_16h02.03.352,Recall,2021.2.3,59.830691144387934,
,DD034.jpg,0,FF034.jpg,0,,,,,0,58,58,33,imgFunc,1,NA,1.789508500136435,577.4443375000264,579.3312440500595,2024-01-04 16:11:23.889232,2024-01-04 16:11:25.767010,FF034.jpg,0,10863,30-49,2024-01-04_16h02.03.352,Recall,2021.2.3,59.830691144387934,
,L_DD502.jpg,1,L_FF502.jpg,1,,,,,0,59,59,41,imgFunc,9,NA,1.6143110000994056,579.33954740013,581.0433038505726,2024-01-04 16:11:25.781994,2024-01-04 16:11:27.484549,L_FF502.jpg,1,10863,30-49,2024-01-04_16h02.03.352,Recall,2021.2.3,59.830691144387934,
,L_SD504.jpg,1,L_MF504.jpg,1,,,,,0,60,60,93,imgFunc,0,NA,2.2577017000876367,581.0481617001351,583.401644250378,2024-01-04 16:11:27.492531,2024-01-04 16:11:29.836661,L_MF504.jpg,1,10863,30-49,2024-01-04_16h02.03.352,Recall,2021.2.3,59.830691144387934,
,DD004.jpg,0,FF004.jpg,0,,,,,0,61,61,3,imgFunc,1,NA,1.5873205000534654,583.3986601999495,585.0836484497413,2024-01-04 16:11:29.844674,2024-01-04 16:11:31.520753,FF004.jpg,0,10863,30-49,2024-01-04_16h02.03.352,Recall,2021.2.3,59.830691144387934,
,DD030.jpg,0,FF030.jpg,0,,,,,0,62,62,29,imgFunc,9,NA,1.8403998999856412,585.0895702999551,587.0427465501707,2024-01-04 16:11:31.527737,2024-01-04 16:11:33.472487,FF030.jpg,0,10863,30-49,2024-01-04_16h02.03.352,Recall,2021.2.3,59.830691144387934,
,L_SD506.jpg,1,L_MF506.jpg,1,,,,,0,63,63,95,imgFunc,9,NA,1.1175710000097752,587.0524063000921,588.2887445504311,2024-01-04 16:11:33.479470,2024-01-04 16:11:34.706772,L_MF506.jpg,1,10863,30-49,2024-01-04_16h02.03.352,Recall,2021.2.3,59.830691144387934,
,DD028.jpg,0,FF028.jpg,0,,,,,0,64,64,27,imgFunc,9,NA,0.9368463000282645,588.2729036000092,589.3089605502319,2024-01-04 16:11:34.713755,2024-01-04 16:11:35.740843,FF028.jpg,0,10863,30-49,2024-01-04_16h02.03.352,Recall,2021.2.3,59.830691144387934,
,SD019.jpg,0,MF019.jpg,0,,,,,0,65,65,68,imgFunc,0,NA,1.9982332000508904,589.2996847999748,591.4023469500244,2024-01-04 16:11:35.747826,2024-01-04 16:11:37.842279,MF019.jpg,0,10863,30-49,2024-01-04_16h02.03.352,Recall,2021.2.3,59.830691144387934,
,SD023.jpg,0,MF023.jpg,0,,,,,0,66,66,72,imgFunc,9,NA,1.2171942999120802,591.4085947000422,592.7268843501806,2024-01-04 16:11:37.850272,2024-01-04 16:11:39.160334,MF023.jpg,0,10863,30-49,2024-01-04_16h02.03.352,Recall,2021.2.3,59.830691144387934,
,SD029.jpg,0,MF029.jpg,0,,,,,0,67,67,78,imgFunc,9,NA,0.9711865000426769,592.7347554999869,593.8202785497997,2024-01-04 16:11:39.167317,2024-01-04 16:11:40.243932,MF029.jpg,0,10863,30-49,2024-01-04_16h02.03.352,Recall,2021.2.3,59.830691144387934,
,SD007.jpg,0,MF007.jpg,0,,,,,0,68,68,56,imgFunc,9,NA,1.0148968999274075,593.8189966999926,594.9428626501467,2024-01-04 16:11:40.256899,2024-01-04 16:11:41.377968,MF007.jpg,0,10863,30-49,2024-01-04_16h02.03.352,Recall,2021.2.3,59.830691144387934,
,DD011.jpg,0,FF011.jpg,0,,,,,0,69,69,10,imgFunc,9,NA,0.7212074999697506,594.9367836001329,595.7544591501355,2024-01-04 16:11:41.385949,2024-01-04 16:11:42.195443,FF011.jpg,0,10863,30-49,2024-01-04_16h02.03.352,Recall,2021.2.3,59.830691144387934,
,DD038.jpg,0,FF038.jpg,0,,,,,0,70,70,37,imgFunc,9,NA,1.4809918000828475,595.760645700153,597.3467866503634,2024-01-04 16:11:42.202448,2024-01-04 16:11:43.779820,FF038.jpg,0,10863,30-49,2024-01-04_16h02.03.352,Recall,2021.2.3,59.830691144387934,
,SD005.jpg,0,MF005.jpg,0,,,,,0,71,71,54,imgFunc,9,NA,0.5343514000996947,597.3397004001308,597.9750489501748,2024-01-04 16:11:43.786825,2024-01-04 16:11:44.413512,MF005.jpg,0,10863,30-49,2024-01-04_16h02.03.352,Recall,2021.2.3,59.830691144387934,
,L_DD507.jpg,1,L_FF507.jpg,1,,,,,0,72,72,46,imgFunc,0,NA,0.6076544001698494,597.9782841000706,598.6968953502364,2024-01-04 16:11:44.420517,2024-01-04 16:11:45.130731,L_FF507.jpg,1,10863,30-49,2024-01-04_16h02.03.352,Recall,2021.2.3,59.830691144387934,
,DD026.jpg,0,FF026.jpg,0,,,,,0,73,73,25,imgFunc,0,NA,1.029435700038448,598.7082418999635,599.8458736501634,2024-01-04 16:11:45.145693,2024-01-04 16:11:46.281156,FF026.jpg,0,10863,30-49,2024-01-04_16h02.03.352,Recall,2021.2.3,59.830691144387934,
,SD037.jpg,0,MF037.jpg,0,,,,,0,74,74,86,imgFunc,9,NA,0.5300387998577207,599.8558307001367,600.4912951502483,2024-01-04 16:11:46.289134,2024-01-04 16:11:46.915541,MF037.jpg,0,10863,30-49,2024-01-04_16h02.03.352,Recall,2021.2.3,59.830691144387934,
,DD040.jpg,0,FF040.jpg,0,,,,,0,75,75,39,imgFunc,9,NA,0.9046714000869542,600.4812817999627,601.48381575034,2024-01-04 16:11:46.922524,2024-01-04 16:11:47.916260,FF040.jpg,0,10863,30-49,2024-01-04_16h02.03.352,Recall,2021.2.3,59.830691144387934,
,SD008.jpg,0,MF008.jpg,0,,,,,0,76,76,57,imgFunc,9,NA,0.5721532001625746,601.4775950999465,602.1462003502529,2024-01-04 16:11:47.923265,2024-01-04 16:11:48.583437,MF008.jpg,0,10863,30-49,2024-01-04_16h02.03.352,Recall,2021.2.3,59.830691144387934,
,DD025.jpg,0,FF025.jpg,0,,,,,0,77,77,24,imgFunc,9,NA,0.9697812001686543,602.1521503000986,603.2379215501714,2024-01-04 16:11:48.590420,2024-01-04 16:11:49.667425,FF025.jpg,0,10863,30-49,2024-01-04_16h02.03.352,Recall,2021.2.3,59.830691144387934,
,L_SD507.jpg,1,L_MF507.jpg,1,,,,,0,78,78,96,imgFunc,9,NA,0.49205959984101355,603.2296180000994,603.813684650464,2024-01-04 16:11:49.675408,2024-01-04 16:11:50.251448,L_MF507.jpg,1,10863,30-49,2024-01-04_16h02.03.352,Recall,2021.2.3,59.830691144387934,
,SD020.jpg,0,MF020.jpg,0,,,,,0,79,79,69,imgFunc,0,NA,1.0043732000049204,603.8134026001208,604.9159064497799,2024-01-04 16:11:50.258442,2024-01-04 16:11:51.352176,MF020.jpg,0,10863,30-49,2024-01-04_16h02.03.352,Recall,2021.2.3,59.830691144387934,
,DD001.jpg,0,FF001.jpg,0,,,,,0,80,80,0,imgFunc,9,NA,2.806418700143695,604.9156754999422,607.8196350496728,2024-01-04 16:11:51.359159,2024-01-04 16:11:54.254280,FF001.jpg,0,10863,30-49,2024-01-04_16h02.03.352,Recall,2021.2.3,59.830691144387934,
,SD003.jpg,0,MF003.jpg,0,,,,,0,81,81,52,imgFunc,0,NA,0.937908099964261,607.8240610000212,608.8764765500091,2024-01-04 16:11:54.261263,2024-01-04 16:11:55.304800,MF003.jpg,0,10863,30-49,2024-01-04_16h02.03.352,Recall,2021.2.3,59.830691144387934,
,DD016.jpg,0,FF016.jpg,0,,,,,0,82,82,15,imgFunc,0,NA,0.8516270997934043,608.8780478001572,609.835238950327,2024-01-04 16:11:55.317766,2024-01-04 16:11:56.272235,FF016.jpg,0,10863,30-49,2024-01-04_16h02.03.352,Recall,2021.2.3,59.830691144387934,
,L_DD508.jpg,1,L_FF508.jpg,1,,,,,0,83,83,47,imgFunc,0,NA,2.30255030002445,609.8354079001583,612.2378052503336,2024-01-04 16:11:56.280243,2024-01-04 16:11:58.673309,L_FF508.jpg,1,10863,30-49,2024-01-04_16h02.03.352,Recall,2021.2.3,59.830691144387934,
,DD036.jpg,0,FF036.jpg,0,,,,,0,84,84,35,imgFunc,0,NA,2.000830699922517,612.2411048000213,614.344458949985,2024-01-04 16:11:58.681311,2024-01-04 16:12:00.775683,FF036.jpg,0,10863,30-49,2024-01-04_16h02.03.352,Recall,2021.2.3,59.830691144387934,
,L_DD501.jpg,1,L_FF501.jpg,1,,,,,0,85,85,40,imgFunc,9,NA,4.09061640012078,614.3353355000727,618.5232995499391,2024-01-04 16:12:00.782666,2024-01-04 16:12:04.961720,L_FF501.jpg,1,10863,30-49,2024-01-04_16h02.03.352,Recall,2021.2.3,59.830691144387934,
,DD010.jpg,0,FF010.jpg,0,,,,,0,86,86,9,imgFunc,9,NA,0.6261330000124872,618.5279181001242,619.2624952502083,2024-01-04 16:12:04.969727,2024-01-04 16:12:05.695784,FF010.jpg,0,10863,30-49,2024-01-04_16h02.03.352,Recall,2021.2.3,59.830691144387934,
,L_DD510.jpg,1,L_FF510.jpg,1,,,,,0,87,87,49,imgFunc,9,NA,1.2467736001126468,619.2752636000514,620.6286751502194,2024-01-04 16:12:05.710746,2024-01-04 16:12:07.063601,L_FF510.jpg,1,10863,30-49,2024-01-04_16h02.03.352,Recall,2021.2.3,59.830691144387934,
,SD038.jpg,0,MF038.jpg,0,,,,,0,88,88,87,imgFunc,0,NA,0.542808199999854,620.6270670001395,621.2792246502358,2024-01-04 16:12:07.070584,2024-01-04 16:12:07.713870,MF038.jpg,0,10863,30-49,2024-01-04_16h02.03.352,Recall,2021.2.3,59.830691144387934,
,SD014.jpg,0,MF014.jpg,0,,,,,0,89,89,63,imgFunc,0,NA,2.8225385998375714,621.2753996001557,624.1953693502583,2024-01-04 16:12:07.720876,2024-01-04 16:12:10.632449,MF014.jpg,0,10863,30-49,2024-01-04_16h02.03.352,Recall,2021.2.3,59.830691144387934,
,L_SD505.jpg,1,L_MF505.jpg,1,,,,,0,90,90,94,imgFunc,9,NA,0.5464475001208484,624.1995920001063,624.8520952500403,2024-01-04 16:12:10.639432,2024-01-04 16:12:11.282925,L_MF505.jpg,1,10863,30-49,2024-01-04_16h02.03.352,Recall,2021.2.3,59.830691144387934,
,SD025.jpg,0,MF025.jpg,0,,,,,0,91,91,74,imgFunc,9,NA,0.5780307000968605,624.8639090999495,625.5652758500073,2024-01-04 16:12:11.290929,2024-01-04 16:12:11.983421,MF025.jpg,0,10863,30-49,2024-01-04_16h02.03.352,Recall,2021.2.3,59.830691144387934,
,L_DD503.jpg,1,L_FF503.jpg,1,,,,,0,92,92,42,imgFunc,9,NA,1.9676153999753296,625.5464306999929,627.6154812497552,2024-01-04 16:12:11.991402,2024-01-04 16:12:14.051706,L_FF503.jpg,1,10863,30-49,2024-01-04_16h02.03.352,Recall,2021.2.3,59.830691144387934,
,DD039.jpg,0,FF039.jpg,0,,,,,0,93,93,38,imgFunc,9,NA,0.7652256998699158,627.6127957000863,628.4817040499765,2024-01-04 16:12:14.058689,2024-01-04 16:12:14.918874,FF039.jpg,0,10863,30-49,2024-01-04_16h02.03.352,Recall,2021.2.3,59.830691144387934,
,L_SD501.jpg,1,L_MF501.jpg,1,,,,,0,94,94,90,imgFunc,0,NA,0.5785871997941285,628.4792117001489,629.1649353501853,2024-01-04 16:12:14.925857,2024-01-04 16:12:15.602659,L_MF501.jpg,1,10863,30-49,2024-01-04_16h02.03.352,Recall,2021.2.3,59.830691144387934,
,DD006.jpg,0,FF006.jpg,0,,,,,0,95,95,5,imgFunc,9,NA,1.359651899896562,629.1702003001701,630.639925949974,2024-01-04 16:12:15.609642,2024-01-04 16:12:17.070546,FF006.jpg,0,10863,30-49,2024-01-04_16h02.03.352,Recall,2021.2.3,59.830691144387934,
,DD033.jpg,0,FF033.jpg,0,,,,,0,96,96,32,imgFunc,9,NA,0.6406520998571068,630.649221100146,631.3882926499937,2024-01-04 16:12:17.084510,2024-01-04 16:12:17.821144,FF033.jpg,0,10863,30-49,2024-01-04_16h02.03.352,Recall,2021.2.3,59.830691144387934,
,DD018.jpg,0,FF018.jpg,0,,,,,0,97,97,17,imgFunc,0,NA,0.7943613999523222,631.3835985001642,632.2849285497796,2024-01-04 16:12:17.829067,2024-01-04 16:12:18.721799,FF018.jpg,0,10863,30-49,2024-01-04_16h02.03.352,Recall,2021.2.3,59.830691144387934,
,SD012.jpg,0,MF012.jpg,0,,,,,0,98,98,61,imgFunc,0,NA,0.9843543998431414,632.2894584999885,633.3751013497822,2024-01-04 16:12:18.728792,2024-01-04 16:12:19.806089,MF012.jpg,0,10863,30-49,2024-01-04_16h02.03.352,Recall,2021.2.3,59.830691144387934,
,L_SD508.jpg,1,L_MF508.jpg,1,,,,,0,99,99,97,imgFunc,9,NA,0.7325465001631528,633.3654451000039,634.1995994499885,2024-01-04 16:12:19.814070,2024-01-04 16:12:20.639793,L_MF508.jpg,1,10863,30-49,2024-01-04_16h02.03.352,Recall,2021.2.3,59.830691144387934,
