onset	duration	trial_type	response_time	Endowment	Endowment_pmod	Decision	Decision_pmod	Offer_pmod
4.510886	2	cue_nonsocial	n/a	32	6	n/a	n/a	n/a
4.510886	2	cue_nonsocial_high	n/a	32	9	n/a	n/a	n/a
11.344708	2	cue_nonsocial	n/a	32	6	n/a	n/a	n/a
11.344708	2	cue_nonsocial_high	n/a	32	9	n/a	n/a	n/a
18.994549	2	cue_nonsocial	n/a	16	-10	n/a	n/a	n/a
18.994549	2	cue_nonsocial_low	n/a	16	-7	n/a	n/a	n/a
25.859324	2	cue_social	n/a	16	-7	n/a	n/a	n/a
25.859324	2	cue_social_low	n/a	16	-10	n/a	n/a	n/a
32.693893	2	cue_social	n/a	16	-7	n/a	n/a	n/a
32.693893	2	cue_social_low	n/a	16	-10	n/a	n/a	n/a
41.910385	2	cue_nonsocial	n/a	32	6	n/a	n/a	n/a
41.910385	2	cue_nonsocial_high	n/a	32	9	n/a	n/a	n/a
49.560390	2	cue_nonsocial	n/a	32	6	n/a	n/a	n/a
49.560390	2	cue_nonsocial_high	n/a	32	9	n/a	n/a	n/a
56.393784	2	cue_nonsocial	n/a	16	-10	n/a	n/a	n/a
56.393784	2	cue_nonsocial_low	n/a	16	-7	n/a	n/a	n/a
65.704110	2	cue_social	n/a	16	-7	n/a	n/a	n/a
65.704110	2	cue_social_low	n/a	16	-10	n/a	n/a	n/a
73.357270	2	cue_social	n/a	32	9	n/a	n/a	n/a
73.357270	2	cue_social_high	n/a	32	6	n/a	n/a	n/a
82.587710	2	cue_social	n/a	16	-7	n/a	n/a	n/a
82.587710	2	cue_social_low	n/a	16	-10	n/a	n/a	n/a
89.393870	2	cue_nonsocial	n/a	32	6	n/a	n/a	n/a
89.393870	2	cue_nonsocial_high	n/a	32	9	n/a	n/a	n/a
96.226870	2	cue_nonsocial	n/a	32	6	n/a	n/a	n/a
96.226870	2	cue_nonsocial_high	n/a	32	9	n/a	n/a	n/a
105.477135	2	cue_nonsocial	n/a	32	6	n/a	n/a	n/a
105.477135	2	cue_nonsocial_high	n/a	32	9	n/a	n/a	n/a
112.310330	2	cue_nonsocial	n/a	32	6	n/a	n/a	n/a
112.310330	2	cue_nonsocial_high	n/a	32	9	n/a	n/a	n/a
121.598790	2	cue_social	n/a	16	-7	n/a	n/a	n/a
121.598790	2	cue_social_low	n/a	16	-10	n/a	n/a	n/a
128.410300	2	cue_nonsocial	n/a	16	-10	n/a	n/a	n/a
128.410300	2	cue_nonsocial_low	n/a	16	-7	n/a	n/a	n/a
139.321060	2	cue_social	n/a	16	-7	n/a	n/a	n/a
139.321060	2	cue_social_low	n/a	16	-10	n/a	n/a	n/a
146.136470	2	cue_social	n/a	32	9	n/a	n/a	n/a
146.136470	2	cue_social_high	n/a	32	6	n/a	n/a	n/a
152.943250	2	cue_nonsocial	n/a	32	6	n/a	n/a	n/a
152.943250	2	cue_nonsocial_high	n/a	32	9	n/a	n/a	n/a
160.618880	2	cue_social	n/a	16	-7	n/a	n/a	n/a
160.618880	2	cue_social_low	n/a	16	-10	n/a	n/a	n/a
168.243400	2	cue_nonsocial	n/a	16	-10	n/a	n/a	n/a
168.243400	2	cue_nonsocial_low	n/a	16	-7	n/a	n/a	n/a
175.114360	2	cue_social	n/a	32	9	n/a	n/a	n/a
175.114360	2	cue_social_high	n/a	32	6	n/a	n/a	n/a
181.930620	2	cue_social	n/a	32	9	n/a	n/a	n/a
181.930620	2	cue_social_high	n/a	32	6	n/a	n/a	n/a
188.790880	2	cue_social	n/a	32	9	n/a	n/a	n/a
188.790880	2	cue_social_high	n/a	32	6	n/a	n/a	n/a
199.610240	2	cue_nonsocial	n/a	32	6	n/a	n/a	n/a
199.610240	2	cue_nonsocial_high	n/a	32	9	n/a	n/a	n/a
207.275800	2	cue_social	n/a	32	9	n/a	n/a	n/a
207.275800	2	cue_social_high	n/a	32	6	n/a	n/a	n/a
214.910220	2	cue_nonsocial	n/a	32	6	n/a	n/a	n/a
214.910220	2	cue_nonsocial_high	n/a	32	9	n/a	n/a	n/a
221.767500	2	cue_social	n/a	16	-7	n/a	n/a	n/a
221.767500	2	cue_social_low	n/a	16	-10	n/a	n/a	n/a
228.600400	2	cue_social	n/a	16	-7	n/a	n/a	n/a
228.600400	2	cue_social_low	n/a	16	-10	n/a	n/a	n/a
235.410250	2	cue_nonsocial	n/a	16	-10	n/a	n/a	n/a
235.410250	2	cue_nonsocial_low	n/a	16	-7	n/a	n/a	n/a
242.266420	2	cue_social	n/a	32	9	n/a	n/a	n/a
242.266420	2	cue_social_high	n/a	32	6	n/a	n/a	n/a
249.918550	2	cue_social	n/a	32	9	n/a	n/a	n/a
249.918550	2	cue_social_high	n/a	32	6	n/a	n/a	n/a
256.758800	2	cue_social	n/a	32	9	n/a	n/a	n/a
256.758800	2	cue_social_high	n/a	32	6	n/a	n/a	n/a
263.560060	2	cue_nonsocial	n/a	32	6	n/a	n/a	n/a
263.560060	2	cue_nonsocial_high	n/a	32	9	n/a	n/a	n/a
272.847840	2	cue_social	n/a	16	-7	n/a	n/a	n/a
272.847840	2	cue_social_low	n/a	16	-10	n/a	n/a	n/a
279.659900	2	cue_nonsocial	n/a	16	-10	n/a	n/a	n/a
279.659900	2	cue_nonsocial_low	n/a	16	-7	n/a	n/a	n/a
286.544980	2	cue_social	n/a	32	9	n/a	n/a	n/a
286.544980	2	cue_social_high	n/a	32	6	n/a	n/a	n/a
294.151250	2	cue_social	n/a	32	9	n/a	n/a	n/a
294.151250	2	cue_social_high	n/a	32	6	n/a	n/a	n/a
306.626600	2	cue_nonsocial	n/a	16	-10	n/a	n/a	n/a
306.626600	2	cue_nonsocial_low	n/a	16	-7	n/a	n/a	n/a
313.459870	2	cue_nonsocial	n/a	16	-10	n/a	n/a	n/a
313.459870	2	cue_nonsocial_low	n/a	16	-7	n/a	n/a	n/a
320.325930	2	cue_social	n/a	16	-7	n/a	n/a	n/a
320.325930	2	cue_social_low	n/a	16	-10	n/a	n/a	n/a
327.943200	2	cue_nonsocial	n/a	16	-10	n/a	n/a	n/a
327.943200	2	cue_nonsocial_low	n/a	16	-7	n/a	n/a	n/a
334.776860	2	cue_nonsocial	n/a	32	6	n/a	n/a	n/a
334.776860	2	cue_nonsocial_high	n/a	32	9	n/a	n/a	n/a
344.043180	2	cue_nonsocial	n/a	32	6	n/a	n/a	n/a
344.043180	2	cue_nonsocial_high	n/a	32	9	n/a	n/a	n/a
354.909820	2	cue_nonsocial	n/a	32	6	n/a	n/a	n/a
354.909820	2	cue_nonsocial_high	n/a	32	9	n/a	n/a	n/a
362.575780	2	cue_social	n/a	16	-7	n/a	n/a	n/a
362.575780	2	cue_social_low	n/a	16	-10	n/a	n/a	n/a
370.221770	2	cue_social	n/a	16	-7	n/a	n/a	n/a
370.221770	2	cue_social_low	n/a	16	-10	n/a	n/a	n/a
6.517150	1.266724	dec_nonsocial_choice	1.266724	32.000000	n/a	16	2.625000e-01	2.625000e-01
6.517150	1.266724	dec_choice	1.266724	32.000000	n/a	16	2.682292e-01	2.682292e-01
6.517150	1.266724	dec_nonsocial_accept	1.266724	32.000000	n/a	16	1.195652e-01	1.195652e-01
6.517150	1.266724	dec_accept	1.266724	32.000000	n/a	16	1.250000e-01	1.250000e-01
6.517150	1.266724	dec_nonsocial_high	1.266724	32.000000	n/a	16	2.682292e-01	2.682292e-01
6.517150	1.266724	dec_nonsocial_accept_high	1.266724	32.000000	n/a	16	1.250000e-01	1.250000e-01
13.351199	2.083110	dec_nonsocial_choice	2.083110	32.000000	n/a	8	1.250000e-02	1.250000e-02
13.351199	2.083110	dec_choice	2.083110	32.000000	n/a	8	1.822917e-02	1.822917e-02
13.351199	2.083110	dec_nonsocial_accept	2.083110	32.000000	n/a	8	-1.304348e-01	-1.304348e-01
13.351199	2.083110	dec_accept	2.083110	32.000000	n/a	8	-1.250000e-01	-1.250000e-01
13.351199	2.083110	dec_nonsocial_accept_high	2.083110	32.000000	n/a	8	-1.363636e-01	-1.363636e-01
21.000830	1.550061	dec_nonsocial_choice	1.550061	16.000000	n/a	0	0	-2.375000e-01
21.000830	1.550061	dec_choice	1.550061	16.000000	n/a	0	0	-2.317708e-01
21.000830	1.550061	dec_nonsocial_reject	1.550061	16.000000	n/a	0	0	3.693182e-02
21.000830	1.550061	dec_reject	1.550061	16.000000	n/a	0	0	3.645833e-02
21.000830	1.550061	dec_nonsocial_reject_low	1.550061	16.000000	n/a	2	3.750000e-02	-8.750000e-02
27.834894	1.532058	dec_social_choice	1.532058	16.000000	n/a	8	2.625000e-01	2.625000e-01
27.834894	1.532058	dec_choice	1.532058	16.000000	n/a	8	2.559524e-01	2.559524e-01
27.834894	1.532058	dec_social_accept	1.532058	16.000000	n/a	8	1.195652e-01	1.195652e-01
27.834894	1.532058	dec_accept	1.532058	16.000000	n/a	8	1.136364e-01	1.136364e-01
27.834894	1.532058	dec_social_accept_high	1.532058	16.000000	n/a	8	2.559524e-01	2.559524e-01
34.667004	1.267673	dec_social_choice	1.267673	16.000000	n/a	8	2.625000e-01	2.625000e-01
34.667004	1.267673	dec_choice	1.267673	16.000000	n/a	8	2.559524e-01	2.559524e-01
34.667004	1.267673	dec_social_accept	1.267673	16.000000	n/a	8	1.195652e-01	1.195652e-01
34.667004	1.267673	dec_accept	1.267673	16.000000	n/a	8	1.136364e-01	1.136364e-01
34.667004	1.267673	dec_social_high	1.267673	16.000000	n/a	8	2.559524e-01	2.559524e-01
34.667004	1.267673	dec_social_accept_high	1.267673	16.000000	n/a	8	2.559524e-01	2.559524e-01
43.917760	2.283364	dec_nonsocial_choice	2.283364	32.000000	n/a	8	1.250000e-02	1.250000e-02
43.917760	2.283364	dec_choice	2.283364	32.000000	n/a	8	1.822917e-02	1.822917e-02
43.917760	2.283364	dec_nonsocial_accept	2.283364	32.000000	n/a	8	-1.304348e-01	-1.304348e-01
43.917760	2.283364	dec_accept	2.283364	32.000000	n/a	8	-1.250000e-01	-1.250000e-01
43.917760	2.283364	dec_nonsocial_high	2.283364	32.000000	n/a	8	1.822917e-02	1.822917e-02
43.917760	2.283364	dec_nonsocial_accept_high	2.283364	32.000000	n/a	8	-1.250000e-01	-1.250000e-01
51.568005	1.199922	dec_nonsocial_choice	1.199922	32.000000	n/a	16	2.625000e-01	2.625000e-01
51.568005	1.199922	dec_choice	1.199922	32.000000	n/a	16	2.682292e-01	2.682292e-01
51.568005	1.199922	dec_nonsocial_accept	1.199922	32.000000	n/a	16	1.195652e-01	1.195652e-01
51.568005	1.199922	dec_accept	1.199922	32.000000	n/a	16	1.250000e-01	1.250000e-01
51.568005	1.199922	dec_nonsocial_high	1.199922	32.000000	n/a	16	2.682292e-01	2.682292e-01
51.568005	1.199922	dec_nonsocial_accept_high	1.199922	32.000000	n/a	16	1.250000e-01	1.250000e-01
58.400660	1.533693	dec_nonsocial_choice	1.533693	16.000000	n/a	0	0	-2.375000e-01
58.400660	1.533693	dec_choice	1.533693	16.000000	n/a	0	0	-2.317708e-01
58.400660	1.533693	dec_nonsocial_reject	1.533693	16.000000	n/a	0	0	3.693182e-02
58.400660	1.533693	dec_reject	1.533693	16.000000	n/a	0	0	3.645833e-02
58.400660	1.533693	dec_nonsocial_reject_low	1.533693	16.000000	n/a	2	3.750000e-02	-8.750000e-02
67.650940	1.283641	dec_social_choice	1.283641	16.000000	n/a	0	0	-2.375000e-01
67.650940	1.283641	dec_choice	1.283641	16.000000	n/a	0	0	-2.440476e-01
67.650940	1.283641	dec_social_reject	1.283641	16.000000	n/a	0	0	3.693182e-02
67.650940	1.283641	dec_reject	1.283641	16.000000	n/a	0	0	3.750000e-02
67.650940	1.283641	dec_social_reject_low	1.283641	16.000000	n/a	2	-1.190476e-01	-2.440476e-01
75.301060	2.415874	dec_social_choice	2.415874	32.000000	n/a	8	1.250000e-02	1.250000e-02
75.301060	2.415874	dec_choice	2.415874	32.000000	n/a	8	5.952381e-03	5.952381e-03
75.301060	2.415874	dec_social_accept	2.415874	32.000000	n/a	8	-1.304348e-01	-1.304348e-01
75.301060	2.415874	dec_accept	2.415874	32.000000	n/a	8	-1.363636e-01	-1.363636e-01
75.301060	2.415874	dec_social_accept_high	2.415874	32.000000	n/a	8	5.952381e-03	5.952381e-03
84.566750	3.766946	missed_trial	3.766946	16.000000	n/a	n/a	n/a	n/a
91.400050	1.984330	dec_nonsocial_choice	1.984330	32.000000	n/a	8	1.250000e-02	1.250000e-02
91.400050	1.984330	dec_choice	1.984330	32.000000	n/a	8	1.822917e-02	1.822917e-02
91.400050	1.984330	dec_nonsocial_accept	1.984330	32.000000	n/a	8	-1.304348e-01	-1.304348e-01
91.400050	1.984330	dec_accept	1.984330	32.000000	n/a	8	-1.250000e-01	-1.250000e-01
91.400050	1.984330	dec_nonsocial_accept_high	1.984330	32.000000	n/a	8	-1.363636e-01	-1.363636e-01
98.233430	1.301127	dec_nonsocial_choice	1.301127	32.000000	n/a	0	0	-2.375000e-01
98.233430	1.301127	dec_choice	1.301127	32.000000	n/a	0	0	-2.317708e-01
98.233430	1.301127	dec_nonsocial_reject	1.301127	32.000000	n/a	0	0	5.681818e-03
98.233430	1.301127	dec_reject	1.301127	32.000000	n/a	0	0	5.208333e-03
98.233430	1.301127	dec_nonsocial_reject_low	1.301127	32.000000	n/a	3	6.250000e-03	-8.750000e-02
107.483950	1.766970	dec_nonsocial_choice	1.766970	32.000000	n/a	8	1.250000e-02	1.250000e-02
107.483950	1.766970	dec_choice	1.766970	32.000000	n/a	8	1.822917e-02	1.822917e-02
107.483950	1.766970	dec_nonsocial_accept	1.766970	32.000000	n/a	8	-1.304348e-01	-1.304348e-01
107.483950	1.766970	dec_accept	1.766970	32.000000	n/a	8	-1.250000e-01	-1.250000e-01
107.483950	1.766970	dec_nonsocial_accept_high	1.766970	32.000000	n/a	8	-1.363636e-01	-1.363636e-01
114.317260	1.583810	dec_nonsocial_choice	1.583810	32.000000	n/a	0	0	-2.375000e-01
114.317260	1.583810	dec_choice	1.583810	32.000000	n/a	0	0	-2.317708e-01
114.317260	1.583810	dec_nonsocial_reject	1.583810	32.000000	n/a	0	0	-2.556818e-02
114.317260	1.583810	dec_reject	1.583810	32.000000	n/a	0	0	-2.604167e-02
114.317260	1.583810	dec_nonsocial_low	1.583810	32.000000	n/a	0	-2.317708e-01	-2.317708e-01
114.317260	1.583810	dec_nonsocial_reject_low	1.583810	32.000000	n/a	2	-2.604167e-02	-8.854167e-02
123.584550	1.466248	dec_social_choice	1.466248	16.000000	n/a	8	2.625000e-01	2.625000e-01
123.584550	1.466248	dec_choice	1.466248	16.000000	n/a	8	2.559524e-01	2.559524e-01
123.584550	1.466248	dec_social_accept	1.466248	16.000000	n/a	8	1.195652e-01	1.195652e-01
123.584550	1.466248	dec_accept	1.466248	16.000000	n/a	8	1.136364e-01	1.136364e-01
123.584550	1.466248	dec_social_accept_high	1.466248	16.000000	n/a	8	2.559524e-01	2.559524e-01
130.417910	1.115636	dec_nonsocial_choice	1.115636	16.000000	n/a	8	2.625000e-01	2.625000e-01
130.417910	1.115636	dec_choice	1.115636	16.000000	n/a	8	2.682292e-01	2.682292e-01
130.417910	1.115636	dec_nonsocial_accept	1.115636	16.000000	n/a	8	1.195652e-01	1.195652e-01
130.417910	1.115636	dec_accept	1.115636	16.000000	n/a	8	1.250000e-01	1.250000e-01
130.417910	1.115636	dec_nonsocial_accept_high	1.115636	16.000000	n/a	8	1.136364e-01	1.136364e-01
141.285000	1.399526	dec_social_choice	1.399526	16.000000	n/a	0	0	-2.375000e-01
141.285000	1.399526	dec_choice	1.399526	16.000000	n/a	0	0	-2.440476e-01
141.285000	1.399526	dec_social_reject	1.399526	16.000000	n/a	0	0	3.693182e-02
141.285000	1.399526	dec_reject	1.399526	16.000000	n/a	0	0	3.750000e-02
141.285000	1.399526	dec_social_reject_low	1.399526	16.000000	n/a	2	-1.190476e-01	-2.440476e-01
148.117050	1.966726	dec_social_choice	1.966726	32.000000	n/a	8	1.250000e-02	1.250000e-02
148.117050	1.966726	dec_choice	1.966726	32.000000	n/a	8	5.952381e-03	5.952381e-03
148.117050	1.966726	dec_social_accept	1.966726	32.000000	n/a	8	-1.304348e-01	-1.304348e-01
148.117050	1.966726	dec_accept	1.966726	32.000000	n/a	8	-1.363636e-01	-1.363636e-01
148.117050	1.966726	dec_social_high	1.966726	32.000000	n/a	8	5.952381e-03	5.952381e-03
148.117050	1.966726	dec_social_accept_high	1.966726	32.000000	n/a	8	5.952381e-03	5.952381e-03
154.951020	2.566091	dec_nonsocial_choice	2.566091	32.000000	n/a	8	1.250000e-02	1.250000e-02
154.951020	2.566091	dec_choice	2.566091	32.000000	n/a	8	1.822917e-02	1.822917e-02
154.951020	2.566091	dec_nonsocial_accept	2.566091	32.000000	n/a	8	-1.304348e-01	-1.304348e-01
154.951020	2.566091	dec_accept	2.566091	32.000000	n/a	8	-1.250000e-01	-1.250000e-01
154.951020	2.566091	dec_nonsocial_accept_high	2.566091	32.000000	n/a	8	-1.363636e-01	-1.363636e-01
162.601030	1.182438	dec_social_choice	1.182438	16.000000	n/a	0	0	-2.375000e-01
162.601030	1.182438	dec_choice	1.182438	16.000000	n/a	0	0	-2.440476e-01
162.601030	1.182438	dec_social_reject	1.182438	16.000000	n/a	0	0	-2.556818e-02
162.601030	1.182438	dec_reject	1.182438	16.000000	n/a	0	0	-2.500000e-02
162.601030	1.182438	dec_social_reject_low	1.182438	16.000000	n/a	1	-1.815476e-01	-2.440476e-01
170.250920	1.465793	dec_nonsocial_choice	1.465793	16.000000	n/a	0	0	-2.375000e-01
170.250920	1.465793	dec_choice	1.465793	16.000000	n/a	0	0	-2.317708e-01
170.250920	1.465793	dec_nonsocial_reject	1.465793	16.000000	n/a	0	0	3.693182e-02
170.250920	1.465793	dec_reject	1.465793	16.000000	n/a	0	0	3.645833e-02
170.250920	1.465793	dec_nonsocial_reject_low	1.465793	16.000000	n/a	2	3.750000e-02	-8.750000e-02
177.083790	3.766946	missed_trial	3.766946	32.000000	n/a	n/a	n/a	n/a
183.917450	1.816629	dec_social_choice	1.816629	32.000000	n/a	0	0	-2.375000e-01
183.917450	1.816629	dec_choice	1.816629	32.000000	n/a	0	0	-2.440476e-01
183.917450	1.816629	dec_social_reject	1.816629	32.000000	n/a	0	0	-2.556818e-02
183.917450	1.816629	dec_reject	1.816629	32.000000	n/a	0	0	-2.500000e-02
183.917450	1.816629	dec_social_low	1.816629	32.000000	n/a	0	-2.440476e-01	-2.440476e-01
183.917450	1.816629	dec_social_reject_low	1.816629	32.000000	n/a	2	-1.815476e-01	-2.440476e-01
190.751110	1.499777	dec_social_choice	1.499777	32.000000	n/a	16	2.625000e-01	2.625000e-01
190.751110	1.499777	dec_choice	1.499777	32.000000	n/a	16	2.559524e-01	2.559524e-01
190.751110	1.499777	dec_social_accept	1.499777	32.000000	n/a	16	1.195652e-01	1.195652e-01
190.751110	1.499777	dec_accept	1.499777	32.000000	n/a	16	1.136364e-01	1.136364e-01
190.751110	1.499777	dec_social_high	1.499777	32.000000	n/a	16	2.559524e-01	2.559524e-01
190.751110	1.499777	dec_social_accept_high	1.499777	32.000000	n/a	16	2.559524e-01	2.559524e-01
201.617140	1.516102	dec_nonsocial_choice	1.516102	32.000000	n/a	16	2.625000e-01	2.625000e-01
201.617140	1.516102	dec_choice	1.516102	32.000000	n/a	16	2.682292e-01	2.682292e-01
201.617140	1.516102	dec_nonsocial_accept	1.516102	32.000000	n/a	16	1.195652e-01	1.195652e-01
201.617140	1.516102	dec_accept	1.516102	32.000000	n/a	16	1.250000e-01	1.250000e-01
201.617140	1.516102	dec_nonsocial_high	1.516102	32.000000	n/a	16	2.682292e-01	2.682292e-01
201.617140	1.516102	dec_nonsocial_accept_high	1.516102	32.000000	n/a	16	1.250000e-01	1.250000e-01
209.267300	1.233680	dec_social_choice	1.233680	32.000000	n/a	0	0	-2.375000e-01
209.267300	1.233680	dec_choice	1.233680	32.000000	n/a	0	0	-2.440476e-01
209.267300	1.233680	dec_social_reject	1.233680	32.000000	n/a	0	0	5.681818e-03
209.267300	1.233680	dec_reject	1.233680	32.000000	n/a	0	0	6.250000e-03
209.267300	1.233680	dec_social_reject_low	1.233680	32.000000	n/a	3	-1.502976e-01	-2.440476e-01
216.917040	1.166595	dec_nonsocial_choice	1.166595	32.000000	n/a	0	0	-2.375000e-01
216.917040	1.166595	dec_choice	1.166595	32.000000	n/a	0	0	-2.317708e-01
216.917040	1.166595	dec_nonsocial_reject	1.166595	32.000000	n/a	0	0	-2.556818e-02
216.917040	1.166595	dec_reject	1.166595	32.000000	n/a	0	0	-2.604167e-02
216.917040	1.166595	dec_nonsocial_reject_low	1.166595	32.000000	n/a	2	-2.500000e-02	-8.750000e-02
223.750460	1.466887	dec_social_choice	1.466887	16.000000	n/a	0	0	-2.375000e-01
223.750460	1.466887	dec_choice	1.466887	16.000000	n/a	0	0	-2.440476e-01
223.750460	1.466887	dec_social_reject	1.466887	16.000000	n/a	0	0	3.693182e-02
223.750460	1.466887	dec_reject	1.466887	16.000000	n/a	0	0	3.750000e-02
223.750460	1.466887	dec_social_low	1.466887	16.000000	n/a	0	-2.440476e-01	-2.440476e-01
223.750460	1.466887	dec_social_reject_low	1.466887	16.000000	n/a	2	-1.190476e-01	-2.440476e-01
230.583100	1.384048	dec_social_choice	1.384048	16.000000	n/a	8	2.625000e-01	2.625000e-01
230.583100	1.384048	dec_choice	1.384048	16.000000	n/a	8	2.559524e-01	2.559524e-01
230.583100	1.384048	dec_social_accept	1.384048	16.000000	n/a	8	1.195652e-01	1.195652e-01
230.583100	1.384048	dec_accept	1.384048	16.000000	n/a	8	1.136364e-01	1.136364e-01
230.583100	1.384048	dec_social_high	1.384048	16.000000	n/a	8	2.559524e-01	2.559524e-01
230.583100	1.384048	dec_social_accept_high	1.384048	16.000000	n/a	8	2.559524e-01	2.559524e-01
237.417200	2.816168	dec_nonsocial_choice	2.816168	16.000000	n/a	4	1.250000e-02	1.250000e-02
237.417200	2.816168	dec_choice	2.816168	16.000000	n/a	4	1.822917e-02	1.822917e-02
237.417200	2.816168	dec_nonsocial_accept	2.816168	16.000000	n/a	4	-1.304348e-01	-1.304348e-01
237.417200	2.816168	dec_accept	2.816168	16.000000	n/a	4	-1.250000e-01	-1.250000e-01
237.417200	2.816168	dec_nonsocial_accept_high	2.816168	16.000000	n/a	4	-1.363636e-01	-1.363636e-01
244.250260	2.800738	dec_social_choice	2.800738	32.000000	n/a	8	1.250000e-02	1.250000e-02
244.250260	2.800738	dec_choice	2.800738	32.000000	n/a	8	5.952381e-03	5.952381e-03
244.250260	2.800738	dec_social_accept	2.800738	32.000000	n/a	8	-1.304348e-01	-1.304348e-01
244.250260	2.800738	dec_accept	2.800738	32.000000	n/a	8	-1.363636e-01	-1.363636e-01
244.250260	2.800738	dec_social_accept_high	2.800738	32.000000	n/a	8	5.952381e-03	5.952381e-03
251.900280	2.766984	dec_social_choice	2.766984	32.000000	n/a	0	0	-2.375000e-01
251.900280	2.766984	dec_choice	2.766984	32.000000	n/a	0	0	-2.440476e-01
251.900280	2.766984	dec_social_reject	2.766984	32.000000	n/a	0	0	-2.556818e-02
251.900280	2.766984	dec_reject	2.766984	32.000000	n/a	0	0	-2.500000e-02
251.900280	2.766984	dec_social_reject_low	2.766984	32.000000	n/a	2	-1.815476e-01	-2.440476e-01
258.733220	2.283371	dec_social_choice	2.283371	32.000000	n/a	8	1.250000e-02	1.250000e-02
258.733220	2.283371	dec_choice	2.283371	32.000000	n/a	8	5.952381e-03	5.952381e-03
258.733220	2.283371	dec_social_accept	2.283371	32.000000	n/a	8	-1.304348e-01	-1.304348e-01
258.733220	2.283371	dec_accept	2.283371	32.000000	n/a	8	-1.363636e-01	-1.363636e-01
258.733220	2.283371	dec_social_accept_high	2.283371	32.000000	n/a	8	5.952381e-03	5.952381e-03
265.568080	1.515827	dec_nonsocial_choice	1.515827	32.000000	n/a	0	0	-2.375000e-01
265.568080	1.515827	dec_choice	1.515827	32.000000	n/a	0	0	-2.317708e-01
265.568080	1.515827	dec_nonsocial_reject	1.515827	32.000000	n/a	0	0	-2.556818e-02
265.568080	1.515827	dec_reject	1.515827	32.000000	n/a	0	0	-2.604167e-02
265.568080	1.515827	dec_nonsocial_reject_low	1.515827	32.000000	n/a	2	-2.500000e-02	-8.750000e-02
274.834260	3.065948	dec_social_choice	3.065948	16.000000	n/a	4	1.250000e-02	1.250000e-02
274.834260	3.065948	dec_choice	3.065948	16.000000	n/a	4	5.952381e-03	5.952381e-03
274.834260	3.065948	dec_social_accept	3.065948	16.000000	n/a	4	-1.304348e-01	-1.304348e-01
274.834260	3.065948	dec_accept	3.065948	16.000000	n/a	4	-1.363636e-01	-1.363636e-01
274.834260	3.065948	dec_social_high	3.065948	16.000000	n/a	4	5.952381e-03	5.952381e-03
274.834260	3.065948	dec_social_accept_high	3.065948	16.000000	n/a	4	5.952381e-03	5.952381e-03
281.667080	1.166626	dec_nonsocial_choice	1.166626	16.000000	n/a	8	2.625000e-01	2.625000e-01
281.667080	1.166626	dec_choice	1.166626	16.000000	n/a	8	2.682292e-01	2.682292e-01
281.667080	1.166626	dec_nonsocial_accept	1.166626	16.000000	n/a	8	1.195652e-01	1.195652e-01
281.667080	1.166626	dec_accept	1.166626	16.000000	n/a	8	1.250000e-01	1.250000e-01
281.667080	1.166626	dec_nonsocial_high	1.166626	16.000000	n/a	8	2.682292e-01	2.682292e-01
281.667080	1.166626	dec_nonsocial_accept_high	1.166626	16.000000	n/a	8	1.250000e-01	1.250000e-01
288.500270	1.950159	dec_social_choice	1.950159	32.000000	n/a	0	0	-2.375000e-01
288.500270	1.950159	dec_choice	1.950159	32.000000	n/a	0	0	-2.440476e-01
288.500270	1.950159	dec_social_reject	1.950159	32.000000	n/a	0	0	-2.556818e-02
288.500270	1.950159	dec_reject	1.950159	32.000000	n/a	0	0	-2.500000e-02
288.500270	1.950159	dec_social_low	1.950159	32.000000	n/a	0	-2.440476e-01	-2.440476e-01
288.500270	1.950159	dec_social_reject_low	1.950159	32.000000	n/a	2	-1.815476e-01	-2.440476e-01
296.150120	2.016676	dec_social_choice	2.016676	32.000000	n/a	0	0	-2.375000e-01
296.150120	2.016676	dec_choice	2.016676	32.000000	n/a	0	0	-2.440476e-01
296.150120	2.016676	dec_social_reject	2.016676	32.000000	n/a	0	0	5.681818e-03
296.150120	2.016676	dec_reject	2.016676	32.000000	n/a	0	0	6.250000e-03
296.150120	2.016676	dec_social_low	2.016676	32.000000	n/a	0	-2.440476e-01	-2.440476e-01
296.150120	2.016676	dec_social_reject_low	2.016676	32.000000	n/a	3	-1.502976e-01	-2.440476e-01
308.634550	1.199498	dec_nonsocial_choice	1.199498	16.000000	n/a	8	2.625000e-01	2.625000e-01
308.634550	1.199498	dec_choice	1.199498	16.000000	n/a	8	2.682292e-01	2.682292e-01
308.634550	1.199498	dec_nonsocial_accept	1.199498	16.000000	n/a	8	1.195652e-01	1.195652e-01
308.634550	1.199498	dec_accept	1.199498	16.000000	n/a	8	1.250000e-01	1.250000e-01
308.634550	1.199498	dec_nonsocial_high	1.199498	16.000000	n/a	8	2.682292e-01	2.682292e-01
308.634550	1.199498	dec_nonsocial_accept_high	1.199498	16.000000	n/a	8	1.250000e-01	1.250000e-01
315.467380	1.565964	dec_nonsocial_choice	1.565964	16.000000	n/a	0	0	-2.375000e-01
315.467380	1.565964	dec_choice	1.565964	16.000000	n/a	0	0	-2.317708e-01
315.467380	1.565964	dec_nonsocial_reject	1.565964	16.000000	n/a	0	0	3.693182e-02
315.467380	1.565964	dec_reject	1.565964	16.000000	n/a	0	0	3.645833e-02
315.467380	1.565964	dec_nonsocial_reject_low	1.565964	16.000000	n/a	2	3.750000e-02	-8.750000e-02
322.300100	2.383516	dec_social_choice	2.383516	16.000000	n/a	8	2.625000e-01	2.625000e-01
322.300100	2.383516	dec_choice	2.383516	16.000000	n/a	8	2.559524e-01	2.559524e-01
322.300100	2.383516	dec_social_accept	2.383516	16.000000	n/a	8	1.195652e-01	1.195652e-01
322.300100	2.383516	dec_accept	2.383516	16.000000	n/a	8	1.136364e-01	1.136364e-01
322.300100	2.383516	dec_social_high	2.383516	16.000000	n/a	8	2.559524e-01	2.559524e-01
322.300100	2.383516	dec_social_accept_high	2.383516	16.000000	n/a	8	2.559524e-01	2.559524e-01
329.949600	1.984490	dec_nonsocial_choice	1.984490	16.000000	n/a	0	0	-2.375000e-01
329.949600	1.984490	dec_choice	1.984490	16.000000	n/a	0	0	-2.317708e-01
329.949600	1.984490	dec_nonsocial_reject	1.984490	16.000000	n/a	0	0	-2.556818e-02
329.949600	1.984490	dec_reject	1.984490	16.000000	n/a	0	0	-2.604167e-02
329.949600	1.984490	dec_nonsocial_low	1.984490	16.000000	n/a	0	-2.317708e-01	-2.317708e-01
329.949600	1.984490	dec_nonsocial_reject_low	1.984490	16.000000	n/a	1	-2.604167e-02	-8.854167e-02
336.784120	2.032846	dec_nonsocial_choice	2.032846	32.000000	n/a	0	0	-2.375000e-01
336.784120	2.032846	dec_choice	2.032846	32.000000	n/a	0	0	-2.317708e-01
336.784120	2.032846	dec_nonsocial_reject	2.032846	32.000000	n/a	0	0	-2.556818e-02
336.784120	2.032846	dec_reject	2.032846	32.000000	n/a	0	0	-2.604167e-02
336.784120	2.032846	dec_nonsocial_low	2.032846	32.000000	n/a	0	-2.317708e-01	-2.317708e-01
336.784120	2.032846	dec_nonsocial_reject_low	2.032846	32.000000	n/a	2	-2.604167e-02	-8.854167e-02
346.051540	1.698792	dec_nonsocial_choice	1.698792	32.000000	n/a	0	0	-2.375000e-01
346.051540	1.698792	dec_choice	1.698792	32.000000	n/a	0	0	-2.317708e-01
346.051540	1.698792	dec_nonsocial_reject	1.698792	32.000000	n/a	0	0	5.681818e-03
346.051540	1.698792	dec_reject	1.698792	32.000000	n/a	0	0	5.208333e-03
346.051540	1.698792	dec_nonsocial_low	1.698792	32.000000	n/a	0	-2.317708e-01	-2.317708e-01
346.051540	1.698792	dec_nonsocial_reject_low	1.698792	32.000000	n/a	3	5.208333e-03	-8.854167e-02
356.916470	1.333754	dec_nonsocial_choice	1.333754	32.000000	n/a	0	0	-2.375000e-01
356.916470	1.333754	dec_choice	1.333754	32.000000	n/a	0	0	-2.317708e-01
356.916470	1.333754	dec_nonsocial_reject	1.333754	32.000000	n/a	0	0	-2.556818e-02
356.916470	1.333754	dec_reject	1.333754	32.000000	n/a	0	0	-2.604167e-02
356.916470	1.333754	dec_nonsocial_low	1.333754	32.000000	n/a	0	-2.317708e-01	-2.317708e-01
356.916470	1.333754	dec_nonsocial_reject_low	1.333754	32.000000	n/a	2	-2.604167e-02	-8.854167e-02
364.566900	3.766946	missed_trial	3.766946	16.000000	n/a	n/a	n/a	n/a
372.217900	1.682889	dec_social_choice	1.682889	16.000000	n/a	0	0	-2.375000e-01
372.217900	1.682889	dec_choice	1.682889	16.000000	n/a	0	0	-2.440476e-01
372.217900	1.682889	dec_social_reject	1.682889	16.000000	n/a	0	0	-2.556818e-02
372.217900	1.682889	dec_reject	1.682889	16.000000	n/a	0	0	-2.500000e-02
372.217900	1.682889	dec_social_low	1.682889	16.000000	n/a	0	-2.440476e-01	-2.440476e-01
372.217900	1.682889	dec_social_reject_low	1.682889	16.000000	n/a	1	-1.815476e-01	-2.440476e-01
