onset	duration	trial_type	response_time	Endowment	Endowment_pmod	Decision	Decision_pmod	Offer_pmod
4.534260	2	cue_social	n/a	32	8	n/a	n/a	n/a
4.534260	2	cue_social_high	n/a	32	7	n/a	n/a	n/a
13.821568	2	cue_social	n/a	32	8	n/a	n/a	n/a
13.821568	2	cue_social_high	n/a	32	7	n/a	n/a	n/a
20.628262	2	cue_nonsocial	n/a	16	-9	n/a	n/a	n/a
20.628262	2	cue_nonsocial_low	n/a	16	-8	n/a	n/a	n/a
27.537336	2	cue_social	n/a	16	-8	n/a	n/a	n/a
27.537336	2	cue_social_low	n/a	16	-9	n/a	n/a	n/a
34.333570	2	cue_social	n/a	32	8	n/a	n/a	n/a
34.333570	2	cue_social_high	n/a	32	7	n/a	n/a	n/a
41.927864	2	cue_nonsocial	n/a	32	7	n/a	n/a	n/a
41.927864	2	cue_nonsocial_high	n/a	32	8	n/a	n/a	n/a
52.835526	2	cue_social	n/a	32	8	n/a	n/a	n/a
52.835526	2	cue_social_high	n/a	32	7	n/a	n/a	n/a
59.627903	2	cue_nonsocial	n/a	16	-9	n/a	n/a	n/a
59.627903	2	cue_nonsocial_low	n/a	16	-8	n/a	n/a	n/a
68.894485	2	cue_nonsocial	n/a	32	7	n/a	n/a	n/a
68.894485	2	cue_nonsocial_high	n/a	32	8	n/a	n/a	n/a
75.753260	2	cue_social	n/a	32	8	n/a	n/a	n/a
75.753260	2	cue_social_high	n/a	32	7	n/a	n/a	n/a
84.977730	2	cue_nonsocial	n/a	16	-9	n/a	n/a	n/a
84.977730	2	cue_nonsocial_low	n/a	16	-8	n/a	n/a	n/a
91.811180	2	cue_nonsocial	n/a	16	-9	n/a	n/a	n/a
91.811180	2	cue_nonsocial_low	n/a	16	-8	n/a	n/a	n/a
98.679850	2	cue_social	n/a	32	8	n/a	n/a	n/a
98.679850	2	cue_social_high	n/a	32	7	n/a	n/a	n/a
107.894330	2	cue_nonsocial	n/a	32	7	n/a	n/a	n/a
107.894330	2	cue_nonsocial_high	n/a	32	8	n/a	n/a	n/a
115.544390	2	cue_nonsocial	n/a	32	7	n/a	n/a	n/a
115.544390	2	cue_nonsocial_high	n/a	32	8	n/a	n/a	n/a
122.411470	2	cue_social	n/a	32	8	n/a	n/a	n/a
122.411470	2	cue_social_high	n/a	32	7	n/a	n/a	n/a
130.062580	2	cue_social	n/a	16	-8	n/a	n/a	n/a
130.062580	2	cue_social_low	n/a	16	-9	n/a	n/a	n/a
137.727870	2	cue_social	n/a	32	8	n/a	n/a	n/a
137.727870	2	cue_social_high	n/a	32	7	n/a	n/a	n/a
144.510860	2	cue_nonsocial	n/a	32	7	n/a	n/a	n/a
144.510860	2	cue_nonsocial_high	n/a	32	8	n/a	n/a	n/a
151.344400	2	cue_nonsocial	n/a	32	7	n/a	n/a	n/a
151.344400	2	cue_nonsocial_high	n/a	32	8	n/a	n/a	n/a
158.177600	2	cue_nonsocial	n/a	32	7	n/a	n/a	n/a
158.177600	2	cue_nonsocial_high	n/a	32	8	n/a	n/a	n/a
169.098220	2	cue_social	n/a	16	-8	n/a	n/a	n/a
169.098220	2	cue_social_low	n/a	16	-9	n/a	n/a	n/a
176.739700	2	cue_social	n/a	16	-8	n/a	n/a	n/a
176.739700	2	cue_social_low	n/a	16	-9	n/a	n/a	n/a
183.543600	2	cue_social	n/a	32	8	n/a	n/a	n/a
183.543600	2	cue_social_high	n/a	32	7	n/a	n/a	n/a
191.160870	2	cue_nonsocial	n/a	16	-9	n/a	n/a	n/a
191.160870	2	cue_nonsocial_low	n/a	16	-8	n/a	n/a	n/a
198.043990	2	cue_social	n/a	16	-8	n/a	n/a	n/a
198.043990	2	cue_social_low	n/a	16	-9	n/a	n/a	n/a
205.660920	2	cue_nonsocial	n/a	32	7	n/a	n/a	n/a
205.660920	2	cue_nonsocial_high	n/a	32	8	n/a	n/a	n/a
212.515530	2	cue_social	n/a	16	-8	n/a	n/a	n/a
212.515530	2	cue_social_low	n/a	16	-9	n/a	n/a	n/a
219.327320	2	cue_nonsocial	n/a	16	-9	n/a	n/a	n/a
219.327320	2	cue_nonsocial_low	n/a	16	-8	n/a	n/a	n/a
231.810940	2	cue_nonsocial	n/a	16	-9	n/a	n/a	n/a
231.810940	2	cue_nonsocial_low	n/a	16	-8	n/a	n/a	n/a
241.077360	2	cue_nonsocial	n/a	32	7	n/a	n/a	n/a
241.077360	2	cue_nonsocial_high	n/a	32	8	n/a	n/a	n/a
248.727430	2	cue_nonsocial	n/a	16	-9	n/a	n/a	n/a
248.727430	2	cue_nonsocial_low	n/a	16	-8	n/a	n/a	n/a
255.561330	2	cue_nonsocial	n/a	32	7	n/a	n/a	n/a
255.561330	2	cue_nonsocial_high	n/a	32	8	n/a	n/a	n/a
262.394700	2	cue_nonsocial	n/a	32	7	n/a	n/a	n/a
262.394700	2	cue_nonsocial_high	n/a	32	8	n/a	n/a	n/a
270.058470	2	cue_social	n/a	32	8	n/a	n/a	n/a
270.058470	2	cue_social_high	n/a	32	7	n/a	n/a	n/a
276.877440	2	cue_nonsocial	n/a	16	-9	n/a	n/a	n/a
276.877440	2	cue_nonsocial_low	n/a	16	-8	n/a	n/a	n/a
283.737820	2	cue_social	n/a	16	-8	n/a	n/a	n/a
283.737820	2	cue_social_low	n/a	16	-9	n/a	n/a	n/a
293.032930	2	cue_social	n/a	16	-8	n/a	n/a	n/a
293.032930	2	cue_social_low	n/a	16	-9	n/a	n/a	n/a
299.793980	2	cue_nonsocial	n/a	16	-9	n/a	n/a	n/a
299.793980	2	cue_nonsocial_low	n/a	16	-8	n/a	n/a	n/a
310.695070	2	cue_social	n/a	16	-8	n/a	n/a	n/a
310.695070	2	cue_social_low	n/a	16	-9	n/a	n/a	n/a
317.494420	2	cue_nonsocial	n/a	32	7	n/a	n/a	n/a
317.494420	2	cue_nonsocial_high	n/a	32	8	n/a	n/a	n/a
326.813960	2	cue_social	n/a	32	8	n/a	n/a	n/a
326.813960	2	cue_social_high	n/a	32	7	n/a	n/a	n/a
334.394200	2	cue_nonsocial	n/a	32	7	n/a	n/a	n/a
334.394200	2	cue_nonsocial_high	n/a	32	8	n/a	n/a	n/a
342.067260	2	cue_social	n/a	32	8	n/a	n/a	n/a
342.067260	2	cue_social_high	n/a	32	7	n/a	n/a	n/a
348.898600	2	cue_social	n/a	16	-8	n/a	n/a	n/a
348.898600	2	cue_social_low	n/a	16	-9	n/a	n/a	n/a
355.710570	2	cue_nonsocial	n/a	32	7	n/a	n/a	n/a
355.710570	2	cue_nonsocial_high	n/a	32	8	n/a	n/a	n/a
363.372770	2	cue_social	n/a	16	-8	n/a	n/a	n/a
363.372770	2	cue_social_low	n/a	16	-9	n/a	n/a	n/a
370.225950	2	cue_social	n/a	16	-8	n/a	n/a	n/a
370.225950	2	cue_social_low	n/a	16	-9	n/a	n/a	n/a
6.519072	2.499743	dec_social_choice	2.499743	32.000000	n/a	16	2.659722e-01	2.659722e-01
6.519072	2.499743	dec_choice	2.499743	32.000000	n/a	16	2.622283e-01	2.622283e-01
6.519072	2.499743	dec_social_accept	2.499743	32.000000	n/a	16	1.003289e-01	1.003289e-01
6.519072	2.499743	dec_accept	2.499743	32.000000	n/a	16	1.156250e-01	1.156250e-01
6.519072	2.499743	dec_social_high	2.499743	32.000000	n/a	16	2.622283e-01	2.622283e-01
6.519072	2.499743	dec_social_accept_high	2.499743	32.000000	n/a	16	2.622283e-01	2.622283e-01
15.785052	3.766946	missed_trial	3.766946	32.000000	n/a	n/a	n/a	n/a
22.635061	1.649997	dec_nonsocial_choice	1.649997	16.000000	n/a	8	2.659722e-01	2.659722e-01
22.635061	1.649997	dec_choice	1.649997	16.000000	n/a	8	2.698864e-01	2.698864e-01
22.635061	1.649997	dec_nonsocial_accept	1.649997	16.000000	n/a	8	1.003289e-01	1.003289e-01
22.635061	1.649997	dec_accept	1.649997	16.000000	n/a	8	8.333333e-02	8.333333e-02
22.635061	1.649997	dec_nonsocial_high	1.649997	16.000000	n/a	8	2.698864e-01	2.698864e-01
22.635061	1.649997	dec_nonsocial_accept_high	1.649997	16.000000	n/a	8	8.333333e-02	8.333333e-02
29.467700	0.867383	dec_social_choice	0.867383	16.000000	n/a	0	0	-2.340278e-01
29.467700	0.867383	dec_choice	0.867383	16.000000	n/a	0	0	-2.377717e-01
29.467700	0.867383	dec_social_reject	0.867383	16.000000	n/a	0	0	1.201923e-02
29.467700	0.867383	dec_reject	0.867383	16.000000	n/a	0	0	0
29.467700	0.867383	dec_social_reject_low	0.867383	16.000000	n/a	2	-1.127717e-01	-2.377717e-01
36.301003	1.101295	dec_social_choice	1.101295	32.000000	n/a	16	2.659722e-01	2.659722e-01
36.301003	1.101295	dec_choice	1.101295	32.000000	n/a	16	2.622283e-01	2.622283e-01
36.301003	1.101295	dec_social_accept	1.101295	32.000000	n/a	16	1.003289e-01	1.003289e-01
36.301003	1.101295	dec_accept	1.101295	32.000000	n/a	16	1.156250e-01	1.156250e-01
36.301003	1.101295	dec_social_high	1.101295	32.000000	n/a	16	2.622283e-01	2.622283e-01
36.301003	1.101295	dec_social_accept_high	1.101295	32.000000	n/a	16	2.622283e-01	2.622283e-01
43.935146	2.966510	dec_nonsocial_choice	2.966510	32.000000	n/a	8	1.597222e-02	1.597222e-02
43.935146	2.966510	dec_choice	2.966510	32.000000	n/a	8	1.988636e-02	1.988636e-02
43.935146	2.966510	dec_nonsocial_accept	2.966510	32.000000	n/a	8	-1.496711e-01	-1.496711e-01
43.935146	2.966510	dec_accept	2.966510	32.000000	n/a	8	-1.666667e-01	-1.666667e-01
43.935146	2.966510	dec_nonsocial_high	2.966510	32.000000	n/a	8	1.988636e-02	1.988636e-02
43.935146	2.966510	dec_nonsocial_accept_high	2.966510	32.000000	n/a	8	-1.666667e-01	-1.666667e-01
54.802135	1.333066	dec_social_choice	1.333066	32.000000	n/a	16	2.659722e-01	2.659722e-01
54.802135	1.333066	dec_choice	1.333066	32.000000	n/a	16	2.622283e-01	2.622283e-01
54.802135	1.333066	dec_social_accept	1.333066	32.000000	n/a	16	1.003289e-01	1.003289e-01
54.802135	1.333066	dec_accept	1.333066	32.000000	n/a	16	1.156250e-01	1.156250e-01
54.802135	1.333066	dec_social_high	1.333066	32.000000	n/a	16	2.622283e-01	2.622283e-01
54.802135	1.333066	dec_social_accept_high	1.333066	32.000000	n/a	16	2.622283e-01	2.622283e-01
61.635860	1.865803	dec_nonsocial_choice	1.865803	16.000000	n/a	0	0	-2.340278e-01
61.635860	1.865803	dec_choice	1.865803	16.000000	n/a	0	0	-2.301136e-01
61.635860	1.865803	dec_nonsocial_reject	1.865803	16.000000	n/a	0	0	1.201923e-02
61.635860	1.865803	dec_reject	1.865803	16.000000	n/a	0	0	2.403846e-02
61.635860	1.865803	dec_nonsocial_reject_low	1.865803	16.000000	n/a	2	0	-1.250000e-01
70.901024	1.317020	dec_nonsocial_choice	1.317020	32.000000	n/a	0	0	-2.340278e-01
70.901024	1.317020	dec_choice	1.317020	32.000000	n/a	0	0	-2.301136e-01
70.901024	1.317020	dec_nonsocial_reject	1.317020	32.000000	n/a	0	0	-5.048077e-02
70.901024	1.317020	dec_reject	1.317020	32.000000	n/a	0	0	-3.846154e-02
70.901024	1.317020	dec_nonsocial_reject_low	1.317020	32.000000	n/a	2	-6.250000e-02	-1.250000e-01
77.734100	1.533897	dec_social_choice	1.533897	32.000000	n/a	3	-1.402778e-01	-1.402778e-01
77.734100	1.533897	dec_choice	1.533897	32.000000	n/a	3	-1.440217e-01	-1.440217e-01
77.734100	1.533897	dec_social_accept	1.533897	32.000000	n/a	3	-3.059211e-01	-3.059211e-01
77.734100	1.533897	dec_accept	1.533897	32.000000	n/a	3	-2.906250e-01	-2.906250e-01
77.734100	1.533897	dec_social_accept_low	1.533897	32.000000	n/a	3	-1.440217e-01	-1.440217e-01
86.985160	1.633635	dec_nonsocial_choice	1.633635	16.000000	n/a	0	0	-2.340278e-01
86.985160	1.633635	dec_choice	1.633635	16.000000	n/a	0	0	-2.301136e-01
86.985160	1.633635	dec_nonsocial_reject	1.633635	16.000000	n/a	0	0	1.201923e-02
86.985160	1.633635	dec_reject	1.633635	16.000000	n/a	0	0	2.403846e-02
86.985160	1.633635	dec_nonsocial_low	1.633635	16.000000	n/a	0	-2.301136e-01	-2.301136e-01
86.985160	1.633635	dec_nonsocial_reject_low	1.633635	16.000000	n/a	2	2.403846e-02	-1.009615e-01
93.819060	1.482540	dec_nonsocial_choice	1.482540	16.000000	n/a	8	2.659722e-01	2.659722e-01
93.819060	1.482540	dec_choice	1.482540	16.000000	n/a	8	2.698864e-01	2.698864e-01
93.819060	1.482540	dec_nonsocial_accept	1.482540	16.000000	n/a	8	1.003289e-01	1.003289e-01
93.819060	1.482540	dec_accept	1.482540	16.000000	n/a	8	8.333333e-02	8.333333e-02
93.819060	1.482540	dec_nonsocial_accept_high	1.482540	16.000000	n/a	8	1.156250e-01	1.156250e-01
100.651370	2.316768	dec_social_choice	2.316768	32.000000	n/a	0	0	-2.340278e-01
100.651370	2.316768	dec_choice	2.316768	32.000000	n/a	0	0	-2.377717e-01
100.651370	2.316768	dec_social_reject	2.316768	32.000000	n/a	0	0	-5.048077e-02
100.651370	2.316768	dec_reject	2.316768	32.000000	n/a	0	0	-6.250000e-02
100.651370	2.316768	dec_social_low	2.316768	32.000000	n/a	0	-2.377717e-01	-2.377717e-01
100.651370	2.316768	dec_social_reject_low	2.316768	32.000000	n/a	2	-1.752717e-01	-2.377717e-01
109.901410	2.533964	dec_nonsocial_choice	2.533964	32.000000	n/a	0	0	-2.340278e-01
109.901410	2.533964	dec_choice	2.533964	32.000000	n/a	0	0	-2.301136e-01
109.901410	2.533964	dec_nonsocial_reject	2.533964	32.000000	n/a	0	0	-5.048077e-02
109.901410	2.533964	dec_reject	2.533964	32.000000	n/a	0	0	-3.846154e-02
109.901410	2.533964	dec_nonsocial_reject_low	2.533964	32.000000	n/a	2	-6.250000e-02	-1.250000e-01
117.551330	1.633914	dec_nonsocial_choice	1.633914	32.000000	n/a	16	2.659722e-01	2.659722e-01
117.551330	1.633914	dec_choice	1.633914	32.000000	n/a	16	2.698864e-01	2.698864e-01
117.551330	1.633914	dec_nonsocial_accept	1.633914	32.000000	n/a	16	1.003289e-01	1.003289e-01
117.551330	1.633914	dec_accept	1.633914	32.000000	n/a	16	8.333333e-02	8.333333e-02
117.551330	1.633914	dec_nonsocial_high	1.633914	32.000000	n/a	16	2.698864e-01	2.698864e-01
117.551330	1.633914	dec_nonsocial_accept_high	1.633914	32.000000	n/a	16	8.333333e-02	8.333333e-02
124.384130	2.083650	dec_social_choice	2.083650	32.000000	n/a	8	1.597222e-02	1.597222e-02
124.384130	2.083650	dec_choice	2.083650	32.000000	n/a	8	1.222826e-02	1.222826e-02
124.384130	2.083650	dec_social_accept	2.083650	32.000000	n/a	8	-1.496711e-01	-1.496711e-01
124.384130	2.083650	dec_accept	2.083650	32.000000	n/a	8	-1.343750e-01	-1.343750e-01
124.384130	2.083650	dec_social_accept_high	2.083650	32.000000	n/a	8	1.222826e-02	1.222826e-02
132.034960	2.300107	dec_social_choice	2.300107	16.000000	n/a	0	0	-2.340278e-01
132.034960	2.300107	dec_choice	2.300107	16.000000	n/a	0	0	-2.377717e-01
132.034960	2.300107	dec_social_reject	2.300107	16.000000	n/a	0	0	1.370192e-01
132.034960	2.300107	dec_reject	2.300107	16.000000	n/a	0	0	1.250000e-01
132.034960	2.300107	dec_social_reject_low	2.300107	16.000000	n/a	4	1.222826e-02	-2.377717e-01
139.685210	1.633396	dec_social_choice	1.633396	32.000000	n/a	16	2.659722e-01	2.659722e-01
139.685210	1.633396	dec_choice	1.633396	32.000000	n/a	16	2.622283e-01	2.622283e-01
139.685210	1.633396	dec_social_accept	1.633396	32.000000	n/a	16	1.003289e-01	1.003289e-01
139.685210	1.633396	dec_accept	1.633396	32.000000	n/a	16	1.156250e-01	1.156250e-01
139.685210	1.633396	dec_social_high	1.633396	32.000000	n/a	16	2.622283e-01	2.622283e-01
139.685210	1.633396	dec_social_accept_high	1.633396	32.000000	n/a	16	2.622283e-01	2.622283e-01
146.518020	1.550193	dec_nonsocial_choice	1.550193	32.000000	n/a	0	0	-2.340278e-01
146.518020	1.550193	dec_choice	1.550193	32.000000	n/a	0	0	-2.301136e-01
146.518020	1.550193	dec_nonsocial_reject	1.550193	32.000000	n/a	0	0	-5.048077e-02
146.518020	1.550193	dec_reject	1.550193	32.000000	n/a	0	0	-3.846154e-02
146.518020	1.550193	dec_nonsocial_low	1.550193	32.000000	n/a	0	-2.301136e-01	-2.301136e-01
146.518020	1.550193	dec_nonsocial_reject_low	1.550193	32.000000	n/a	2	-3.846154e-02	-1.009615e-01
153.351990	1.999435	dec_nonsocial_choice	1.999435	32.000000	n/a	8	1.597222e-02	1.597222e-02
153.351990	1.999435	dec_choice	1.999435	32.000000	n/a	8	1.988636e-02	1.988636e-02
153.351990	1.999435	dec_nonsocial_accept	1.999435	32.000000	n/a	8	-1.496711e-01	-1.496711e-01
153.351990	1.999435	dec_accept	1.999435	32.000000	n/a	8	-1.666667e-01	-1.666667e-01
153.351990	1.999435	dec_nonsocial_high	1.999435	32.000000	n/a	8	1.988636e-02	1.988636e-02
153.351990	1.999435	dec_nonsocial_accept_high	1.999435	32.000000	n/a	8	-1.666667e-01	-1.666667e-01
160.185040	1.566009	dec_nonsocial_choice	1.566009	32.000000	n/a	0	0	-2.340278e-01
160.185040	1.566009	dec_choice	1.566009	32.000000	n/a	0	0	-2.301136e-01
160.185040	1.566009	dec_nonsocial_reject	1.566009	32.000000	n/a	0	0	-1.923077e-02
160.185040	1.566009	dec_reject	1.566009	32.000000	n/a	0	0	-7.211538e-03
160.185040	1.566009	dec_nonsocial_low	1.566009	32.000000	n/a	0	-2.301136e-01	-2.301136e-01
160.185040	1.566009	dec_nonsocial_reject_low	1.566009	32.000000	n/a	3	-7.211538e-03	-1.009615e-01
171.051820	1.500068	dec_social_choice	1.500068	16.000000	n/a	0	0	-2.340278e-01
171.051820	1.500068	dec_choice	1.500068	16.000000	n/a	0	0	-2.377717e-01
171.051820	1.500068	dec_social_reject	1.500068	16.000000	n/a	0	0	1.201923e-02
171.051820	1.500068	dec_reject	1.500068	16.000000	n/a	0	0	0
171.051820	1.500068	dec_social_reject_low	1.500068	16.000000	n/a	2	-1.127717e-01	-2.377717e-01
178.685850	2.099292	dec_social_choice	2.099292	16.000000	n/a	8	2.659722e-01	2.659722e-01
178.685850	2.099292	dec_choice	2.099292	16.000000	n/a	8	2.622283e-01	2.622283e-01
178.685850	2.099292	dec_social_accept	2.099292	16.000000	n/a	8	1.003289e-01	1.003289e-01
178.685850	2.099292	dec_accept	2.099292	16.000000	n/a	8	1.156250e-01	1.156250e-01
178.685850	2.099292	dec_social_accept_high	2.099292	16.000000	n/a	8	2.622283e-01	2.622283e-01
185.518170	1.533092	dec_social_choice	1.533092	32.000000	n/a	0	0	-2.340278e-01
185.518170	1.533092	dec_choice	1.533092	32.000000	n/a	0	0	-2.377717e-01
185.518170	1.533092	dec_social_reject	1.533092	32.000000	n/a	0	0	-5.048077e-02
185.518170	1.533092	dec_reject	1.533092	32.000000	n/a	0	0	-6.250000e-02
185.518170	1.533092	dec_social_reject_low	1.533092	32.000000	n/a	2	-1.752717e-01	-2.377717e-01
193.169100	3.766946	missed_trial	3.766946	16.000000	n/a	n/a	n/a	n/a
200.018250	1.582992	dec_social_choice	1.582992	16.000000	n/a	0	0	-2.340278e-01
200.018250	1.582992	dec_choice	1.582992	16.000000	n/a	0	0	-2.377717e-01
200.018250	1.582992	dec_social_reject	1.582992	16.000000	n/a	0	0	-5.048077e-02
200.018250	1.582992	dec_reject	1.582992	16.000000	n/a	0	0	-6.250000e-02
200.018250	1.582992	dec_social_reject_low	1.582992	16.000000	n/a	1	-1.752717e-01	-2.377717e-01
207.668080	1.683774	dec_nonsocial_choice	1.683774	32.000000	n/a	16	2.659722e-01	2.659722e-01
207.668080	1.683774	dec_choice	1.683774	32.000000	n/a	16	2.698864e-01	2.698864e-01
207.668080	1.683774	dec_nonsocial_accept	1.683774	32.000000	n/a	16	1.003289e-01	1.003289e-01
207.668080	1.683774	dec_accept	1.683774	32.000000	n/a	16	8.333333e-02	8.333333e-02
207.668080	1.683774	dec_nonsocial_high	1.683774	32.000000	n/a	16	2.698864e-01	2.698864e-01
207.668080	1.683774	dec_nonsocial_accept_high	1.683774	32.000000	n/a	16	8.333333e-02	8.333333e-02
214.501080	1.866524	dec_social_choice	1.866524	16.000000	n/a	0	0	-2.340278e-01
214.501080	1.866524	dec_choice	1.866524	16.000000	n/a	0	0	-2.377717e-01
214.501080	1.866524	dec_social_reject	1.866524	16.000000	n/a	0	0	1.201923e-02
214.501080	1.866524	dec_reject	1.866524	16.000000	n/a	0	0	0
214.501080	1.866524	dec_social_low	1.866524	16.000000	n/a	0	-2.377717e-01	-2.377717e-01
214.501080	1.866524	dec_social_reject_low	1.866524	16.000000	n/a	2	-1.127717e-01	-2.377717e-01
221.334670	1.766631	dec_nonsocial_choice	1.766631	16.000000	n/a	0	0	-2.340278e-01
221.334670	1.766631	dec_choice	1.766631	16.000000	n/a	0	0	-2.301136e-01
221.334670	1.766631	dec_nonsocial_reject	1.766631	16.000000	n/a	0	0	1.201923e-02
221.334670	1.766631	dec_reject	1.766631	16.000000	n/a	0	0	2.403846e-02
221.334670	1.766631	dec_nonsocial_reject_low	1.766631	16.000000	n/a	2	0	-1.250000e-01
233.818940	2.415433	dec_nonsocial_choice	2.415433	16.000000	n/a	0	0	-2.340278e-01
233.818940	2.415433	dec_choice	2.415433	16.000000	n/a	0	0	-2.301136e-01
233.818940	2.415433	dec_nonsocial_reject	2.415433	16.000000	n/a	0	0	-5.048077e-02
233.818940	2.415433	dec_reject	2.415433	16.000000	n/a	0	0	-3.846154e-02
233.818940	2.415433	dec_nonsocial_low	2.415433	16.000000	n/a	0	-2.301136e-01	-2.301136e-01
233.818940	2.415433	dec_nonsocial_reject_low	2.415433	16.000000	n/a	1	-3.846154e-02	-1.009615e-01
243.085190	2.149872	dec_nonsocial_choice	2.149872	32.000000	n/a	0	0	-2.340278e-01
243.085190	2.149872	dec_choice	2.149872	32.000000	n/a	0	0	-2.301136e-01
243.085190	2.149872	dec_nonsocial_reject	2.149872	32.000000	n/a	0	0	-5.048077e-02
243.085190	2.149872	dec_reject	2.149872	32.000000	n/a	0	0	-3.846154e-02
243.085190	2.149872	dec_nonsocial_low	2.149872	32.000000	n/a	0	-2.301136e-01	-2.301136e-01
243.085190	2.149872	dec_nonsocial_reject_low	2.149872	32.000000	n/a	2	-3.846154e-02	-1.009615e-01
250.733900	2.334020	dec_nonsocial_choice	2.334020	16.000000	n/a	0	0	-2.340278e-01
250.733900	2.334020	dec_choice	2.334020	16.000000	n/a	0	0	-2.301136e-01
250.733900	2.334020	dec_nonsocial_reject	2.334020	16.000000	n/a	0	0	1.201923e-02
250.733900	2.334020	dec_reject	2.334020	16.000000	n/a	0	0	2.403846e-02
250.733900	2.334020	dec_nonsocial_low	2.334020	16.000000	n/a	0	-2.301136e-01	-2.301136e-01
250.733900	2.334020	dec_nonsocial_reject_low	2.334020	16.000000	n/a	2	2.403846e-02	-1.009615e-01
257.567170	2.101052	dec_nonsocial_choice	2.101052	32.000000	n/a	0	0	-2.340278e-01
257.567170	2.101052	dec_choice	2.101052	32.000000	n/a	0	0	-2.301136e-01
257.567170	2.101052	dec_nonsocial_reject	2.101052	32.000000	n/a	0	0	-1.923077e-02
257.567170	2.101052	dec_reject	2.101052	32.000000	n/a	0	0	-7.211538e-03
257.567170	2.101052	dec_nonsocial_reject_low	2.101052	32.000000	n/a	3	-3.125000e-02	-1.250000e-01
264.401280	2.066252	dec_nonsocial_choice	2.066252	32.000000	n/a	0	0	-2.340278e-01
264.401280	2.066252	dec_choice	2.066252	32.000000	n/a	0	0	-2.301136e-01
264.401280	2.066252	dec_nonsocial_reject	2.066252	32.000000	n/a	0	0	-5.048077e-02
264.401280	2.066252	dec_reject	2.066252	32.000000	n/a	0	0	-3.846154e-02
264.401280	2.066252	dec_nonsocial_low	2.066252	32.000000	n/a	0	-2.301136e-01	-2.301136e-01
264.401280	2.066252	dec_nonsocial_reject_low	2.066252	32.000000	n/a	2	-3.846154e-02	-1.009615e-01
272.051240	2.050027	dec_social_choice	2.050027	32.000000	n/a	0	0	-2.340278e-01
272.051240	2.050027	dec_choice	2.050027	32.000000	n/a	0	0	-2.377717e-01
272.051240	2.050027	dec_social_reject	2.050027	32.000000	n/a	0	0	-5.048077e-02
272.051240	2.050027	dec_reject	2.050027	32.000000	n/a	0	0	-6.250000e-02
272.051240	2.050027	dec_social_reject_low	2.050027	32.000000	n/a	2	-1.752717e-01	-2.377717e-01
278.884340	3.766946	missed_trial	3.766946	16.000000	n/a	n/a	n/a	n/a
285.717250	1.850631	dec_social_choice	1.850631	16.000000	n/a	0	0	-2.340278e-01
285.717250	1.850631	dec_choice	1.850631	16.000000	n/a	0	0	-2.377717e-01
285.717250	1.850631	dec_social_reject	1.850631	16.000000	n/a	0	0	1.370192e-01
285.717250	1.850631	dec_reject	1.850631	16.000000	n/a	0	0	1.250000e-01
285.717250	1.850631	dec_social_low	1.850631	16.000000	n/a	0	-2.377717e-01	-2.377717e-01
285.717250	1.850631	dec_social_reject_low	1.850631	16.000000	n/a	4	1.222826e-02	-2.377717e-01
294.967350	1.883574	dec_social_choice	1.883574	16.000000	n/a	0	0	-2.340278e-01
294.967350	1.883574	dec_choice	1.883574	16.000000	n/a	0	0	-2.377717e-01
294.967350	1.883574	dec_social_reject	1.883574	16.000000	n/a	0	0	1.370192e-01
294.967350	1.883574	dec_reject	1.883574	16.000000	n/a	0	0	1.250000e-01
294.967350	1.883574	dec_social_low	1.883574	16.000000	n/a	0	-2.377717e-01	-2.377717e-01
294.967350	1.883574	dec_social_reject_low	1.883574	16.000000	n/a	4	1.222826e-02	-2.377717e-01
301.801540	1.699799	dec_nonsocial_choice	1.699799	16.000000	n/a	0	0	-2.340278e-01
301.801540	1.699799	dec_choice	1.699799	16.000000	n/a	0	0	-2.301136e-01
301.801540	1.699799	dec_nonsocial_reject	1.699799	16.000000	n/a	0	0	1.370192e-01
301.801540	1.699799	dec_reject	1.699799	16.000000	n/a	0	0	1.490385e-01
301.801540	1.699799	dec_nonsocial_reject_low	1.699799	16.000000	n/a	4	1.250000e-01	-1.250000e-01
312.667240	1.683427	dec_social_choice	1.683427	16.000000	n/a	0	0	-2.340278e-01
312.667240	1.683427	dec_choice	1.683427	16.000000	n/a	0	0	-2.377717e-01
312.667240	1.683427	dec_social_reject	1.683427	16.000000	n/a	0	0	-5.048077e-02
312.667240	1.683427	dec_reject	1.683427	16.000000	n/a	0	0	-6.250000e-02
312.667240	1.683427	dec_social_low	1.683427	16.000000	n/a	0	-2.377717e-01	-2.377717e-01
312.667240	1.683427	dec_social_reject_low	1.683427	16.000000	n/a	1	-1.752717e-01	-2.377717e-01
319.501370	1.883236	dec_nonsocial_choice	1.883236	32.000000	n/a	8	1.597222e-02	1.597222e-02
319.501370	1.883236	dec_choice	1.883236	32.000000	n/a	8	1.988636e-02	1.988636e-02
319.501370	1.883236	dec_nonsocial_accept	1.883236	32.000000	n/a	8	-1.496711e-01	-1.496711e-01
319.501370	1.883236	dec_accept	1.883236	32.000000	n/a	8	-1.666667e-01	-1.666667e-01
319.501370	1.883236	dec_nonsocial_accept_high	1.883236	32.000000	n/a	8	-1.343750e-01	-1.343750e-01
328.752080	2.465161	dec_social_choice	2.465161	32.000000	n/a	8	1.597222e-02	1.597222e-02
328.752080	2.465161	dec_choice	2.465161	32.000000	n/a	8	1.222826e-02	1.222826e-02
328.752080	2.465161	dec_social_accept	2.465161	32.000000	n/a	8	-1.496711e-01	-1.496711e-01
328.752080	2.465161	dec_accept	2.465161	32.000000	n/a	8	-1.343750e-01	-1.343750e-01
328.752080	2.465161	dec_social_accept_high	2.465161	32.000000	n/a	8	1.222826e-02	1.222826e-02
336.401460	1.533388	dec_nonsocial_choice	1.533388	32.000000	n/a	16	2.659722e-01	2.659722e-01
336.401460	1.533388	dec_choice	1.533388	32.000000	n/a	16	2.698864e-01	2.698864e-01
336.401460	1.533388	dec_nonsocial_accept	1.533388	32.000000	n/a	16	1.003289e-01	1.003289e-01
336.401460	1.533388	dec_accept	1.533388	32.000000	n/a	16	8.333333e-02	8.333333e-02
336.401460	1.533388	dec_nonsocial_accept_high	1.533388	32.000000	n/a	16	1.156250e-01	1.156250e-01
344.051270	1.466403	dec_social_choice	1.466403	32.000000	n/a	0	0	-2.340278e-01
344.051270	1.466403	dec_choice	1.466403	32.000000	n/a	0	0	-2.377717e-01
344.051270	1.466403	dec_social_reject	1.466403	32.000000	n/a	0	0	-5.048077e-02
344.051270	1.466403	dec_reject	1.466403	32.000000	n/a	0	0	-6.250000e-02
344.051270	1.466403	dec_social_low	1.466403	32.000000	n/a	0	-2.377717e-01	-2.377717e-01
344.051270	1.466403	dec_social_reject_low	1.466403	32.000000	n/a	2	-1.752717e-01	-2.377717e-01
350.884340	3.083848	dec_social_choice	3.083848	16.000000	n/a	4	1.597222e-02	1.597222e-02
350.884340	3.083848	dec_choice	3.083848	16.000000	n/a	4	1.222826e-02	1.222826e-02
350.884340	3.083848	dec_social_accept	3.083848	16.000000	n/a	4	-1.496711e-01	-1.496711e-01
350.884340	3.083848	dec_accept	3.083848	16.000000	n/a	4	-1.343750e-01	-1.343750e-01
350.884340	3.083848	dec_social_high	3.083848	16.000000	n/a	4	1.222826e-02	1.222826e-02
350.884340	3.083848	dec_social_accept_high	3.083848	16.000000	n/a	4	1.222826e-02	1.222826e-02
357.718230	1.483072	dec_nonsocial_choice	1.483072	32.000000	n/a	16	2.659722e-01	2.659722e-01
357.718230	1.483072	dec_choice	1.483072	32.000000	n/a	16	2.698864e-01	2.698864e-01
357.718230	1.483072	dec_nonsocial_accept	1.483072	32.000000	n/a	16	1.003289e-01	1.003289e-01
357.718230	1.483072	dec_accept	1.483072	32.000000	n/a	16	8.333333e-02	8.333333e-02
357.718230	1.483072	dec_nonsocial_high	1.483072	32.000000	n/a	16	2.698864e-01	2.698864e-01
357.718230	1.483072	dec_nonsocial_accept_high	1.483072	32.000000	n/a	16	8.333333e-02	8.333333e-02
365.367520	2.416663	dec_social_choice	2.416663	16.000000	n/a	0	0	-2.340278e-01
365.367520	2.416663	dec_choice	2.416663	16.000000	n/a	0	0	-2.377717e-01
365.367520	2.416663	dec_social_reject	2.416663	16.000000	n/a	0	0	1.201923e-02
365.367520	2.416663	dec_reject	2.416663	16.000000	n/a	0	0	0
365.367520	2.416663	dec_social_low	2.416663	16.000000	n/a	0	-2.377717e-01	-2.377717e-01
365.367520	2.416663	dec_social_reject_low	2.416663	16.000000	n/a	2	-1.127717e-01	-2.377717e-01
372.201320	2.282637	dec_social_choice	2.282637	16.000000	n/a	8	2.659722e-01	2.659722e-01
372.201320	2.282637	dec_choice	2.282637	16.000000	n/a	8	2.622283e-01	2.622283e-01
372.201320	2.282637	dec_social_accept	2.282637	16.000000	n/a	8	1.003289e-01	1.003289e-01
372.201320	2.282637	dec_accept	2.282637	16.000000	n/a	8	1.156250e-01	1.156250e-01
372.201320	2.282637	dec_social_accept_high	2.282637	16.000000	n/a	8	2.622283e-01	2.622283e-01
