onset	duration	trial_type	response_time	Endowment	Endowment_pmod	Decision	Decision_pmod	Offer_pmod
4.576627	2	cue_social	n/a	16	-8	n/a	n/a	n/a
4.576627	2	cue_social_low	n/a	16	-11	n/a	n/a	n/a
11.362808	2	cue_social	n/a	16	-8	n/a	n/a	n/a
11.362808	2	cue_social_low	n/a	16	-11	n/a	n/a	n/a
18.171549	2	cue_nonsocial	n/a	16	-11	n/a	n/a	n/a
18.171549	2	cue_nonsocial_low	n/a	16	-8	n/a	n/a	n/a
25.064117	2	cue_social	n/a	16	-8	n/a	n/a	n/a
25.064117	2	cue_social_low	n/a	16	-11	n/a	n/a	n/a
32.708652	2	cue_social	n/a	16	-8	n/a	n/a	n/a
32.708652	2	cue_social_low	n/a	16	-11	n/a	n/a	n/a
43.618023	2	cue_social	n/a	32	8	n/a	n/a	n/a
43.618023	2	cue_social_high	n/a	32	5	n/a	n/a	n/a
50.338936	2	cue_nonsocial	n/a	32	5	n/a	n/a	n/a
50.338936	2	cue_nonsocial_high	n/a	32	8	n/a	n/a	n/a
57.988440	2	cue_nonsocial	n/a	32	5	n/a	n/a	n/a
57.988440	2	cue_nonsocial_high	n/a	32	8	n/a	n/a	n/a
68.855230	2	cue_nonsocial	n/a	32	5	n/a	n/a	n/a
68.855230	2	cue_nonsocial_high	n/a	32	8	n/a	n/a	n/a
75.688670	2	cue_nonsocial	n/a	16	-11	n/a	n/a	n/a
75.688670	2	cue_nonsocial_low	n/a	16	-8	n/a	n/a	n/a
82.521900	2	cue_nonsocial	n/a	32	5	n/a	n/a	n/a
82.521900	2	cue_nonsocial_high	n/a	32	8	n/a	n/a	n/a
91.771355	2	cue_nonsocial	n/a	32	5	n/a	n/a	n/a
91.771355	2	cue_nonsocial_high	n/a	32	8	n/a	n/a	n/a
99.421776	2	cue_nonsocial	n/a	32	5	n/a	n/a	n/a
99.421776	2	cue_nonsocial_high	n/a	32	8	n/a	n/a	n/a
108.751480	2	cue_social	n/a	32	8	n/a	n/a	n/a
108.751480	2	cue_social_high	n/a	32	5	n/a	n/a	n/a
119.554825	2	cue_nonsocial	n/a	32	5	n/a	n/a	n/a
119.554825	2	cue_nonsocial_high	n/a	32	8	n/a	n/a	n/a
126.388300	2	cue_nonsocial	n/a	16	-11	n/a	n/a	n/a
126.388300	2	cue_nonsocial_low	n/a	16	-8	n/a	n/a	n/a
133.221560	2	cue_nonsocial	n/a	32	5	n/a	n/a	n/a
133.221560	2	cue_nonsocial_high	n/a	32	8	n/a	n/a	n/a
140.054750	2	cue_nonsocial	n/a	16	-11	n/a	n/a	n/a
140.054750	2	cue_nonsocial_low	n/a	16	-8	n/a	n/a	n/a
147.759700	2	cue_social	n/a	16	-8	n/a	n/a	n/a
147.759700	2	cue_social_low	n/a	16	-11	n/a	n/a	n/a
154.589080	2	cue_social	n/a	32	8	n/a	n/a	n/a
154.589080	2	cue_social_high	n/a	32	5	n/a	n/a	n/a
163.846740	2	cue_social	n/a	32	8	n/a	n/a	n/a
163.846740	2	cue_social_high	n/a	32	5	n/a	n/a	n/a
170.675450	2	cue_social	n/a	32	8	n/a	n/a	n/a
170.675450	2	cue_social_high	n/a	32	5	n/a	n/a	n/a
183.104740	2	cue_nonsocial	n/a	32	5	n/a	n/a	n/a
183.104740	2	cue_nonsocial_high	n/a	32	8	n/a	n/a	n/a
190.024920	2	cue_social	n/a	16	-8	n/a	n/a	n/a
190.024920	2	cue_social_low	n/a	16	-11	n/a	n/a	n/a
196.820830	2	cue_social	n/a	32	8	n/a	n/a	n/a
196.820830	2	cue_social_high	n/a	32	5	n/a	n/a	n/a
203.604600	2	cue_nonsocial	n/a	32	5	n/a	n/a	n/a
203.604600	2	cue_nonsocial_high	n/a	32	8	n/a	n/a	n/a
210.438130	2	cue_nonsocial	n/a	32	5	n/a	n/a	n/a
210.438130	2	cue_nonsocial_high	n/a	32	8	n/a	n/a	n/a
218.143600	2	cue_social	n/a	32	8	n/a	n/a	n/a
218.143600	2	cue_social_high	n/a	32	5	n/a	n/a	n/a
225.028150	2	cue_social	n/a	16	-8	n/a	n/a	n/a
225.028150	2	cue_social_low	n/a	16	-11	n/a	n/a	n/a
231.831800	2	cue_social	n/a	32	8	n/a	n/a	n/a
231.831800	2	cue_social_high	n/a	32	5	n/a	n/a	n/a
239.458470	2	cue_social	n/a	32	8	n/a	n/a	n/a
239.458470	2	cue_social_high	n/a	32	5	n/a	n/a	n/a
247.109070	2	cue_social	n/a	32	8	n/a	n/a	n/a
247.109070	2	cue_social_high	n/a	32	5	n/a	n/a	n/a
254.760200	2	cue_social	n/a	16	-8	n/a	n/a	n/a
254.760200	2	cue_social_low	n/a	16	-11	n/a	n/a	n/a
262.428740	2	cue_social	n/a	16	-8	n/a	n/a	n/a
262.428740	2	cue_social_low	n/a	16	-11	n/a	n/a	n/a
270.004970	2	cue_nonsocial	n/a	16	-11	n/a	n/a	n/a
270.004970	2	cue_nonsocial_low	n/a	16	-8	n/a	n/a	n/a
276.903900	2	cue_social	n/a	16	-8	n/a	n/a	n/a
276.903900	2	cue_social_low	n/a	16	-11	n/a	n/a	n/a
283.671200	2	cue_nonsocial	n/a	32	5	n/a	n/a	n/a
283.671200	2	cue_nonsocial_high	n/a	32	8	n/a	n/a	n/a
290.504270	2	cue_nonsocial	n/a	32	5	n/a	n/a	n/a
290.504270	2	cue_nonsocial_high	n/a	32	8	n/a	n/a	n/a
297.397700	2	cue_social	n/a	16	-8	n/a	n/a	n/a
297.397700	2	cue_social_low	n/a	16	-11	n/a	n/a	n/a
306.604220	2	cue_nonsocial	n/a	32	5	n/a	n/a	n/a
306.604220	2	cue_nonsocial_high	n/a	32	8	n/a	n/a	n/a
314.318360	2	cue_social	n/a	32	8	n/a	n/a	n/a
314.318360	2	cue_social_high	n/a	32	5	n/a	n/a	n/a
321.904400	2	cue_nonsocial	n/a	16	-11	n/a	n/a	n/a
321.904400	2	cue_nonsocial_low	n/a	16	-8	n/a	n/a	n/a
328.737550	2	cue_nonsocial	n/a	32	5	n/a	n/a	n/a
328.737550	2	cue_nonsocial_high	n/a	32	8	n/a	n/a	n/a
335.570680	2	cue_nonsocial	n/a	16	-11	n/a	n/a	n/a
335.570680	2	cue_nonsocial_low	n/a	16	-8	n/a	n/a	n/a
344.881900	2	cue_social	n/a	16	-8	n/a	n/a	n/a
344.881900	2	cue_social_low	n/a	16	-11	n/a	n/a	n/a
354.070770	2	cue_nonsocial	n/a	16	-11	n/a	n/a	n/a
354.070770	2	cue_nonsocial_low	n/a	16	-8	n/a	n/a	n/a
361.004460	2	cue_social	n/a	32	8	n/a	n/a	n/a
361.004460	2	cue_social_high	n/a	32	5	n/a	n/a	n/a
370.170650	2	cue_nonsocial	n/a	32	5	n/a	n/a	n/a
370.170650	2	cue_nonsocial_high	n/a	32	8	n/a	n/a	n/a
6.511279	1.200651	dec_social_choice	1.200651	16.000000	n/a	4	2.018229e-02	2.018229e-02
6.511279	1.200651	dec_choice	1.200651	16.000000	n/a	4	2.083333e-02	2.083333e-02
6.511279	1.200651	dec_social_accept	1.200651	16.000000	n/a	4	-1.250000e-01	-1.250000e-01
6.511279	1.200651	dec_accept	1.200651	16.000000	n/a	4	-1.250000e-01	-1.250000e-01
6.511279	1.200651	dec_social_high	1.200651	16.000000	n/a	4	2.083333e-02	2.083333e-02
6.511279	1.200651	dec_social_accept_high	1.200651	16.000000	n/a	4	2.083333e-02	2.083333e-02
13.345306	0.833310	dec_social_choice	0.833310	16.000000	n/a	0	0	-2.298177e-01
13.345306	0.833310	dec_choice	0.833310	16.000000	n/a	0	0	-2.291667e-01
13.345306	0.833310	dec_social_reject	0.833310	16.000000	n/a	0	0	-2.213542e-02
13.345306	0.833310	dec_reject	0.833310	16.000000	n/a	0	0	-2.083333e-02
13.345306	0.833310	dec_social_reject_low	0.833310	16.000000	n/a	1	-1.666667e-01	-2.291667e-01
20.179178	0.849917	dec_nonsocial_choice	0.849917	16.000000	n/a	0	0	-2.298177e-01
20.179178	0.849917	dec_choice	0.849917	16.000000	n/a	0	0	-2.304688e-01
20.179178	0.849917	dec_nonsocial_reject	0.849917	16.000000	n/a	0	0	4.036458e-02
20.179178	0.849917	dec_reject	0.849917	16.000000	n/a	0	0	3.906250e-02
20.179178	0.849917	dec_nonsocial_reject_low	0.849917	16.000000	n/a	2	4.166667e-02	-8.333333e-02
27.012146	1.050095	dec_social_choice	1.050095	16.000000	n/a	0	0	-2.298177e-01
27.012146	1.050095	dec_choice	1.050095	16.000000	n/a	0	0	-2.291667e-01
27.012146	1.050095	dec_social_reject	1.050095	16.000000	n/a	0	0	-2.213542e-02
27.012146	1.050095	dec_reject	1.050095	16.000000	n/a	0	0	-2.083333e-02
27.012146	1.050095	dec_social_reject_low	1.050095	16.000000	n/a	1	-1.666667e-01	-2.291667e-01
34.646328	1.498694	dec_social_choice	1.498694	16.000000	n/a	8	2.701823e-01	2.701823e-01
34.646328	1.498694	dec_choice	1.498694	16.000000	n/a	8	2.708333e-01	2.708333e-01
34.646328	1.498694	dec_social_accept	1.498694	16.000000	n/a	8	1.250000e-01	1.250000e-01
34.646328	1.498694	dec_accept	1.498694	16.000000	n/a	8	1.250000e-01	1.250000e-01
34.646328	1.498694	dec_social_high	1.498694	16.000000	n/a	8	2.708333e-01	2.708333e-01
34.646328	1.498694	dec_social_accept_high	1.498694	16.000000	n/a	8	2.708333e-01	2.708333e-01
45.512146	0.833043	dec_social_choice	0.833043	32.000000	n/a	0	0	-2.298177e-01
45.512146	0.833043	dec_choice	0.833043	32.000000	n/a	0	0	-2.291667e-01
45.512146	0.833043	dec_social_reject	0.833043	32.000000	n/a	0	0	9.114583e-03
45.512146	0.833043	dec_reject	0.833043	32.000000	n/a	0	0	1.041667e-02
45.512146	0.833043	dec_social_reject_low	0.833043	32.000000	n/a	3	-1.354167e-01	-2.291667e-01
52.345158	1.033737	dec_nonsocial_choice	1.033737	32.000000	n/a	16	2.701823e-01	2.701823e-01
52.345158	1.033737	dec_choice	1.033737	32.000000	n/a	16	2.695312e-01	2.695312e-01
52.345158	1.033737	dec_nonsocial_accept	1.033737	32.000000	n/a	16	1.250000e-01	1.250000e-01
52.345158	1.033737	dec_accept	1.033737	32.000000	n/a	16	1.250000e-01	1.250000e-01
52.345158	1.033737	dec_nonsocial_high	1.033737	32.000000	n/a	16	2.695312e-01	2.695312e-01
52.345158	1.033737	dec_nonsocial_accept_high	1.033737	32.000000	n/a	16	1.250000e-01	1.250000e-01
59.996140	0.982801	dec_nonsocial_choice	0.982801	32.000000	n/a	8	2.018229e-02	2.018229e-02
59.996140	0.982801	dec_choice	0.982801	32.000000	n/a	8	1.953125e-02	1.953125e-02
59.996140	0.982801	dec_nonsocial_accept	0.982801	32.000000	n/a	8	-1.250000e-01	-1.250000e-01
59.996140	0.982801	dec_accept	0.982801	32.000000	n/a	8	-1.250000e-01	-1.250000e-01
59.996140	0.982801	dec_nonsocial_accept_high	0.982801	32.000000	n/a	8	-1.250000e-01	-1.250000e-01
70.863100	0.999149	dec_nonsocial_choice	0.999149	32.000000	n/a	16	2.701823e-01	2.701823e-01
70.863100	0.999149	dec_choice	0.999149	32.000000	n/a	16	2.695312e-01	2.695312e-01
70.863100	0.999149	dec_nonsocial_accept	0.999149	32.000000	n/a	16	1.250000e-01	1.250000e-01
70.863100	0.999149	dec_accept	0.999149	32.000000	n/a	16	1.250000e-01	1.250000e-01
70.863100	0.999149	dec_nonsocial_high	0.999149	32.000000	n/a	16	2.695312e-01	2.695312e-01
70.863100	0.999149	dec_nonsocial_accept_high	0.999149	32.000000	n/a	16	1.250000e-01	1.250000e-01
77.695150	1.016218	dec_nonsocial_choice	1.016218	16.000000	n/a	4	2.018229e-02	2.018229e-02
77.695150	1.016218	dec_choice	1.016218	16.000000	n/a	4	1.953125e-02	1.953125e-02
77.695150	1.016218	dec_nonsocial_accept	1.016218	16.000000	n/a	4	-1.250000e-01	-1.250000e-01
77.695150	1.016218	dec_accept	1.016218	16.000000	n/a	4	-1.250000e-01	-1.250000e-01
77.695150	1.016218	dec_nonsocial_high	1.016218	16.000000	n/a	4	1.953125e-02	1.953125e-02
77.695150	1.016218	dec_nonsocial_accept_high	1.016218	16.000000	n/a	4	-1.250000e-01	-1.250000e-01
84.528930	0.915808	dec_nonsocial_choice	0.915808	32.000000	n/a	0	0	-2.298177e-01
84.528930	0.915808	dec_choice	0.915808	32.000000	n/a	0	0	-2.304688e-01
84.528930	0.915808	dec_nonsocial_reject	0.915808	32.000000	n/a	0	0	-2.213542e-02
84.528930	0.915808	dec_reject	0.915808	32.000000	n/a	0	0	-2.343750e-02
84.528930	0.915808	dec_nonsocial_reject_low	0.915808	32.000000	n/a	2	-2.083333e-02	-8.333333e-02
93.779080	0.915463	dec_nonsocial_choice	0.915463	32.000000	n/a	8	2.018229e-02	2.018229e-02
93.779080	0.915463	dec_choice	0.915463	32.000000	n/a	8	1.953125e-02	1.953125e-02
93.779080	0.915463	dec_nonsocial_accept	0.915463	32.000000	n/a	8	-1.250000e-01	-1.250000e-01
93.779080	0.915463	dec_accept	0.915463	32.000000	n/a	8	-1.250000e-01	-1.250000e-01
93.779080	0.915463	dec_nonsocial_high	0.915463	32.000000	n/a	8	1.953125e-02	1.953125e-02
93.779080	0.915463	dec_nonsocial_accept_high	0.915463	32.000000	n/a	8	-1.250000e-01	-1.250000e-01
101.428820	1.166038	dec_nonsocial_choice	1.166038	32.000000	n/a	8	2.018229e-02	2.018229e-02
101.428820	1.166038	dec_choice	1.166038	32.000000	n/a	8	1.953125e-02	1.953125e-02
101.428820	1.166038	dec_nonsocial_accept	1.166038	32.000000	n/a	8	-1.250000e-01	-1.250000e-01
101.428820	1.166038	dec_accept	1.166038	32.000000	n/a	8	-1.250000e-01	-1.250000e-01
101.428820	1.166038	dec_nonsocial_high	1.166038	32.000000	n/a	8	1.953125e-02	1.953125e-02
101.428820	1.166038	dec_nonsocial_accept_high	1.166038	32.000000	n/a	8	-1.250000e-01	-1.250000e-01
110.696020	0.748895	dec_social_choice	0.748895	32.000000	n/a	0	0	-2.298177e-01
110.696020	0.748895	dec_choice	0.748895	32.000000	n/a	0	0	-2.291667e-01
110.696020	0.748895	dec_social_reject	0.748895	32.000000	n/a	0	0	-2.213542e-02
110.696020	0.748895	dec_reject	0.748895	32.000000	n/a	0	0	-2.083333e-02
110.696020	0.748895	dec_social_reject_low	0.748895	32.000000	n/a	2	-1.666667e-01	-2.291667e-01
121.561900	1.150197	dec_nonsocial_choice	1.150197	32.000000	n/a	0	0	-2.298177e-01
121.561900	1.150197	dec_choice	1.150197	32.000000	n/a	0	0	-2.304688e-01
121.561900	1.150197	dec_nonsocial_reject	1.150197	32.000000	n/a	0	0	-2.213542e-02
121.561900	1.150197	dec_reject	1.150197	32.000000	n/a	0	0	-2.343750e-02
121.561900	1.150197	dec_nonsocial_low	1.150197	32.000000	n/a	0	-2.304688e-01	-2.304688e-01
121.561900	1.150197	dec_nonsocial_reject_low	1.150197	32.000000	n/a	2	-2.343750e-02	-8.593750e-02
128.394030	0.984600	dec_nonsocial_choice	0.984600	16.000000	n/a	0	0	-2.298177e-01
128.394030	0.984600	dec_choice	0.984600	16.000000	n/a	0	0	-2.304688e-01
128.394030	0.984600	dec_nonsocial_reject	0.984600	16.000000	n/a	0	0	-2.213542e-02
128.394030	0.984600	dec_reject	0.984600	16.000000	n/a	0	0	-2.343750e-02
128.394030	0.984600	dec_nonsocial_low	0.984600	16.000000	n/a	0	-2.304688e-01	-2.304688e-01
128.394030	0.984600	dec_nonsocial_reject_low	0.984600	16.000000	n/a	1	-2.343750e-02	-8.593750e-02
135.228000	1.116771	dec_nonsocial_choice	1.116771	32.000000	n/a	16	2.701823e-01	2.701823e-01
135.228000	1.116771	dec_choice	1.116771	32.000000	n/a	16	2.695312e-01	2.695312e-01
135.228000	1.116771	dec_nonsocial_accept	1.116771	32.000000	n/a	16	1.250000e-01	1.250000e-01
135.228000	1.116771	dec_accept	1.116771	32.000000	n/a	16	1.250000e-01	1.250000e-01
135.228000	1.116771	dec_nonsocial_accept_high	1.116771	32.000000	n/a	16	1.250000e-01	1.250000e-01
142.061860	1.016165	dec_nonsocial_choice	1.016165	16.000000	n/a	8	2.701823e-01	2.701823e-01
142.061860	1.016165	dec_choice	1.016165	16.000000	n/a	8	2.695312e-01	2.695312e-01
142.061860	1.016165	dec_nonsocial_accept	1.016165	16.000000	n/a	8	1.250000e-01	1.250000e-01
142.061860	1.016165	dec_accept	1.016165	16.000000	n/a	8	1.250000e-01	1.250000e-01
142.061860	1.016165	dec_nonsocial_high	1.016165	16.000000	n/a	8	2.695312e-01	2.695312e-01
142.061860	1.016165	dec_nonsocial_accept_high	1.016165	16.000000	n/a	8	1.250000e-01	1.250000e-01
149.711750	1.033409	dec_social_choice	1.033409	16.000000	n/a	8	2.701823e-01	2.701823e-01
149.711750	1.033409	dec_choice	1.033409	16.000000	n/a	8	2.708333e-01	2.708333e-01
149.711750	1.033409	dec_social_accept	1.033409	16.000000	n/a	8	1.250000e-01	1.250000e-01
149.711750	1.033409	dec_accept	1.033409	16.000000	n/a	8	1.250000e-01	1.250000e-01
149.711750	1.033409	dec_social_accept_high	1.033409	16.000000	n/a	8	2.708333e-01	2.708333e-01
156.544860	1.533695	dec_social_choice	1.533695	32.000000	n/a	8	2.018229e-02	2.018229e-02
156.544860	1.533695	dec_choice	1.533695	32.000000	n/a	8	2.083333e-02	2.083333e-02
156.544860	1.533695	dec_social_accept	1.533695	32.000000	n/a	8	-1.250000e-01	-1.250000e-01
156.544860	1.533695	dec_accept	1.533695	32.000000	n/a	8	-1.250000e-01	-1.250000e-01
156.544860	1.533695	dec_social_high	1.533695	32.000000	n/a	8	2.083333e-02	2.083333e-02
156.544860	1.533695	dec_social_accept_high	1.533695	32.000000	n/a	8	2.083333e-02	2.083333e-02
165.795940	1.214972	dec_social_choice	1.214972	32.000000	n/a	8	2.018229e-02	2.018229e-02
165.795940	1.214972	dec_choice	1.214972	32.000000	n/a	8	2.083333e-02	2.083333e-02
165.795940	1.214972	dec_social_accept	1.214972	32.000000	n/a	8	-1.250000e-01	-1.250000e-01
165.795940	1.214972	dec_accept	1.214972	32.000000	n/a	8	-1.250000e-01	-1.250000e-01
165.795940	1.214972	dec_social_high	1.214972	32.000000	n/a	8	2.083333e-02	2.083333e-02
165.795940	1.214972	dec_social_accept_high	1.214972	32.000000	n/a	8	2.083333e-02	2.083333e-02
172.628890	1.032979	dec_social_choice	1.032979	32.000000	n/a	0	0	-2.298177e-01
172.628890	1.032979	dec_choice	1.032979	32.000000	n/a	0	0	-2.291667e-01
172.628890	1.032979	dec_social_reject	1.032979	32.000000	n/a	0	0	-2.213542e-02
172.628890	1.032979	dec_reject	1.032979	32.000000	n/a	0	0	-2.083333e-02
172.628890	1.032979	dec_social_low	1.032979	32.000000	n/a	0	-2.291667e-01	-2.291667e-01
172.628890	1.032979	dec_social_reject_low	1.032979	32.000000	n/a	2	-1.666667e-01	-2.291667e-01
185.111880	1.049823	dec_nonsocial_choice	1.049823	32.000000	n/a	0	0	-2.298177e-01
185.111880	1.049823	dec_choice	1.049823	32.000000	n/a	0	0	-2.304688e-01
185.111880	1.049823	dec_nonsocial_reject	1.049823	32.000000	n/a	0	0	9.114583e-03
185.111880	1.049823	dec_reject	1.049823	32.000000	n/a	0	0	7.812500e-03
185.111880	1.049823	dec_nonsocial_reject_low	1.049823	32.000000	n/a	3	1.041667e-02	-8.333333e-02
191.944930	1.149822	dec_social_choice	1.149822	16.000000	n/a	8	2.701823e-01	2.701823e-01
191.944930	1.149822	dec_choice	1.149822	16.000000	n/a	8	2.708333e-01	2.708333e-01
191.944930	1.149822	dec_social_accept	1.149822	16.000000	n/a	8	1.250000e-01	1.250000e-01
191.944930	1.149822	dec_accept	1.149822	16.000000	n/a	8	1.250000e-01	1.250000e-01
191.944930	1.149822	dec_social_accept_high	1.149822	16.000000	n/a	8	2.708333e-01	2.708333e-01
198.777970	1.166555	dec_social_choice	1.166555	32.000000	n/a	0	0	-2.298177e-01
198.777970	1.166555	dec_choice	1.166555	32.000000	n/a	0	0	-2.291667e-01
198.777970	1.166555	dec_social_reject	1.166555	32.000000	n/a	0	0	9.114583e-03
198.777970	1.166555	dec_reject	1.166555	32.000000	n/a	0	0	1.041667e-02
198.777970	1.166555	dec_social_reject_low	1.166555	32.000000	n/a	3	-1.354167e-01	-2.291667e-01
205.611000	1.016752	dec_nonsocial_choice	1.016752	32.000000	n/a	0	0	-2.298177e-01
205.611000	1.016752	dec_choice	1.016752	32.000000	n/a	0	0	-2.304688e-01
205.611000	1.016752	dec_nonsocial_reject	1.016752	32.000000	n/a	0	0	-2.213542e-02
205.611000	1.016752	dec_reject	1.016752	32.000000	n/a	0	0	-2.343750e-02
205.611000	1.016752	dec_nonsocial_reject_low	1.016752	32.000000	n/a	2	-2.083333e-02	-8.333333e-02
212.444920	1.150456	dec_nonsocial_choice	1.150456	32.000000	n/a	16	2.701823e-01	2.701823e-01
212.444920	1.150456	dec_choice	1.150456	32.000000	n/a	16	2.695312e-01	2.695312e-01
212.444920	1.150456	dec_nonsocial_accept	1.150456	32.000000	n/a	16	1.250000e-01	1.250000e-01
212.444920	1.150456	dec_accept	1.150456	32.000000	n/a	16	1.250000e-01	1.250000e-01
212.444920	1.150456	dec_nonsocial_high	1.150456	32.000000	n/a	16	2.695312e-01	2.695312e-01
212.444920	1.150456	dec_nonsocial_accept_high	1.150456	32.000000	n/a	16	1.250000e-01	1.250000e-01
220.094850	1.283107	dec_social_choice	1.283107	32.000000	n/a	0	0	-2.298177e-01
220.094850	1.283107	dec_choice	1.283107	32.000000	n/a	0	0	-2.291667e-01
220.094850	1.283107	dec_social_reject	1.283107	32.000000	n/a	0	0	9.114583e-03
220.094850	1.283107	dec_reject	1.283107	32.000000	n/a	0	0	1.041667e-02
220.094850	1.283107	dec_social_low	1.283107	32.000000	n/a	0	-2.291667e-01	-2.291667e-01
220.094850	1.283107	dec_social_reject_low	1.283107	32.000000	n/a	3	-1.354167e-01	-2.291667e-01
226.928860	0.999120	dec_social_choice	0.999120	16.000000	n/a	8	2.701823e-01	2.701823e-01
226.928860	0.999120	dec_choice	0.999120	16.000000	n/a	8	2.708333e-01	2.708333e-01
226.928860	0.999120	dec_social_accept	0.999120	16.000000	n/a	8	1.250000e-01	1.250000e-01
226.928860	0.999120	dec_accept	0.999120	16.000000	n/a	8	1.250000e-01	1.250000e-01
226.928860	0.999120	dec_social_accept_high	0.999120	16.000000	n/a	8	2.708333e-01	2.708333e-01
233.760960	1.516870	dec_social_choice	1.516870	32.000000	n/a	8	2.018229e-02	2.018229e-02
233.760960	1.516870	dec_choice	1.516870	32.000000	n/a	8	2.083333e-02	2.083333e-02
233.760960	1.516870	dec_social_accept	1.516870	32.000000	n/a	8	-1.250000e-01	-1.250000e-01
233.760960	1.516870	dec_accept	1.516870	32.000000	n/a	8	-1.250000e-01	-1.250000e-01
233.760960	1.516870	dec_social_high	1.516870	32.000000	n/a	8	2.083333e-02	2.083333e-02
233.760960	1.516870	dec_social_accept_high	1.516870	32.000000	n/a	8	2.083333e-02	2.083333e-02
241.411440	1.216100	dec_social_choice	1.216100	32.000000	n/a	8	2.018229e-02	2.018229e-02
241.411440	1.216100	dec_choice	1.216100	32.000000	n/a	8	2.083333e-02	2.083333e-02
241.411440	1.216100	dec_social_accept	1.216100	32.000000	n/a	8	-1.250000e-01	-1.250000e-01
241.411440	1.216100	dec_accept	1.216100	32.000000	n/a	8	-1.250000e-01	-1.250000e-01
241.411440	1.216100	dec_social_high	1.216100	32.000000	n/a	8	2.083333e-02	2.083333e-02
241.411440	1.216100	dec_social_accept_high	1.216100	32.000000	n/a	8	2.083333e-02	2.083333e-02
249.061650	1.065697	dec_social_choice	1.065697	32.000000	n/a	0	0	-2.298177e-01
249.061650	1.065697	dec_choice	1.065697	32.000000	n/a	0	0	-2.291667e-01
249.061650	1.065697	dec_social_reject	1.065697	32.000000	n/a	0	0	9.114583e-03
249.061650	1.065697	dec_reject	1.065697	32.000000	n/a	0	0	1.041667e-02
249.061650	1.065697	dec_social_reject_low	1.065697	32.000000	n/a	3	-1.354167e-01	-2.291667e-01
256.711600	0.899672	dec_social_choice	0.899672	16.000000	n/a	0	0	-2.298177e-01
256.711600	0.899672	dec_choice	0.899672	16.000000	n/a	0	0	-2.291667e-01
256.711600	0.899672	dec_social_reject	0.899672	16.000000	n/a	0	0	4.036458e-02
256.711600	0.899672	dec_reject	0.899672	16.000000	n/a	0	0	4.166667e-02
256.711600	0.899672	dec_social_reject_low	0.899672	16.000000	n/a	2	-1.041667e-01	-2.291667e-01
264.361850	1.032471	dec_social_choice	1.032471	16.000000	n/a	0	0	-2.298177e-01
264.361850	1.032471	dec_choice	1.032471	16.000000	n/a	0	0	-2.291667e-01
264.361850	1.032471	dec_social_reject	1.032471	16.000000	n/a	0	0	4.036458e-02
264.361850	1.032471	dec_reject	1.032471	16.000000	n/a	0	0	4.166667e-02
264.361850	1.032471	dec_social_reject_low	1.032471	16.000000	n/a	2	-1.041667e-01	-2.291667e-01
272.010860	1.333946	dec_nonsocial_choice	1.333946	16.000000	n/a	0	0	-2.298177e-01
272.010860	1.333946	dec_choice	1.333946	16.000000	n/a	0	0	-2.304688e-01
272.010860	1.333946	dec_nonsocial_reject	1.333946	16.000000	n/a	0	0	4.036458e-02
272.010860	1.333946	dec_reject	1.333946	16.000000	n/a	0	0	3.906250e-02
272.010860	1.333946	dec_nonsocial_low	1.333946	16.000000	n/a	0	-2.304688e-01	-2.304688e-01
272.010860	1.333946	dec_nonsocial_reject_low	1.333946	16.000000	n/a	2	3.906250e-02	-8.593750e-02
278.844640	0.982914	dec_social_choice	0.982914	16.000000	n/a	8	2.701823e-01	2.701823e-01
278.844640	0.982914	dec_choice	0.982914	16.000000	n/a	8	2.708333e-01	2.708333e-01
278.844640	0.982914	dec_social_accept	0.982914	16.000000	n/a	8	1.250000e-01	1.250000e-01
278.844640	0.982914	dec_accept	0.982914	16.000000	n/a	8	1.250000e-01	1.250000e-01
278.844640	0.982914	dec_social_high	0.982914	16.000000	n/a	8	2.708333e-01	2.708333e-01
278.844640	0.982914	dec_social_accept_high	0.982914	16.000000	n/a	8	2.708333e-01	2.708333e-01
285.678000	1.149603	dec_nonsocial_choice	1.149603	32.000000	n/a	0	0	-2.298177e-01
285.678000	1.149603	dec_choice	1.149603	32.000000	n/a	0	0	-2.304688e-01
285.678000	1.149603	dec_nonsocial_reject	1.149603	32.000000	n/a	0	0	-2.213542e-02
285.678000	1.149603	dec_reject	1.149603	32.000000	n/a	0	0	-2.343750e-02
285.678000	1.149603	dec_nonsocial_low	1.149603	32.000000	n/a	0	-2.304688e-01	-2.304688e-01
285.678000	1.149603	dec_nonsocial_reject_low	1.149603	32.000000	n/a	2	-2.343750e-02	-8.593750e-02
292.511260	1.499765	dec_nonsocial_choice	1.499765	32.000000	n/a	8	2.018229e-02	2.018229e-02
292.511260	1.499765	dec_choice	1.499765	32.000000	n/a	8	1.953125e-02	1.953125e-02
292.511260	1.499765	dec_nonsocial_accept	1.499765	32.000000	n/a	8	-1.250000e-01	-1.250000e-01
292.511260	1.499765	dec_accept	1.499765	32.000000	n/a	8	-1.250000e-01	-1.250000e-01
292.511260	1.499765	dec_nonsocial_high	1.499765	32.000000	n/a	8	1.953125e-02	1.953125e-02
292.511260	1.499765	dec_nonsocial_accept_high	1.499765	32.000000	n/a	8	-1.250000e-01	-1.250000e-01
299.344730	1.199697	dec_social_choice	1.199697	16.000000	n/a	8	2.701823e-01	2.701823e-01
299.344730	1.199697	dec_choice	1.199697	16.000000	n/a	8	2.708333e-01	2.708333e-01
299.344730	1.199697	dec_social_accept	1.199697	16.000000	n/a	8	1.250000e-01	1.250000e-01
299.344730	1.199697	dec_accept	1.199697	16.000000	n/a	8	1.250000e-01	1.250000e-01
299.344730	1.199697	dec_social_high	1.199697	16.000000	n/a	8	2.708333e-01	2.708333e-01
299.344730	1.199697	dec_social_accept_high	1.199697	16.000000	n/a	8	2.708333e-01	2.708333e-01
308.610720	1.000575	dec_nonsocial_choice	1.000575	32.000000	n/a	0	0	-2.298177e-01
308.610720	1.000575	dec_choice	1.000575	32.000000	n/a	0	0	-2.304688e-01
308.610720	1.000575	dec_nonsocial_reject	1.000575	32.000000	n/a	0	0	9.114583e-03
308.610720	1.000575	dec_reject	1.000575	32.000000	n/a	0	0	7.812500e-03
308.610720	1.000575	dec_nonsocial_reject_low	1.000575	32.000000	n/a	3	1.041667e-02	-8.333333e-02
316.261750	0.982949	dec_social_choice	0.982949	32.000000	n/a	0	0	-2.298177e-01
316.261750	0.982949	dec_choice	0.982949	32.000000	n/a	0	0	-2.291667e-01
316.261750	0.982949	dec_social_reject	0.982949	32.000000	n/a	0	0	-2.213542e-02
316.261750	0.982949	dec_reject	0.982949	32.000000	n/a	0	0	-2.083333e-02
316.261750	0.982949	dec_social_reject_low	0.982949	32.000000	n/a	2	-1.666667e-01	-2.291667e-01
323.911000	1.083305	dec_nonsocial_choice	1.083305	16.000000	n/a	0	0	-2.298177e-01
323.911000	1.083305	dec_choice	1.083305	16.000000	n/a	0	0	-2.304688e-01
323.911000	1.083305	dec_nonsocial_reject	1.083305	16.000000	n/a	0	0	4.036458e-02
323.911000	1.083305	dec_reject	1.083305	16.000000	n/a	0	0	3.906250e-02
323.911000	1.083305	dec_nonsocial_reject_low	1.083305	16.000000	n/a	2	4.166667e-02	-8.333333e-02
330.744050	1.200277	dec_nonsocial_choice	1.200277	32.000000	n/a	0	0	-2.298177e-01
330.744050	1.200277	dec_choice	1.200277	32.000000	n/a	0	0	-2.304688e-01
330.744050	1.200277	dec_nonsocial_reject	1.200277	32.000000	n/a	0	0	-2.213542e-02
330.744050	1.200277	dec_reject	1.200277	32.000000	n/a	0	0	-2.343750e-02
330.744050	1.200277	dec_nonsocial_low	1.200277	32.000000	n/a	0	-2.304688e-01	-2.304688e-01
330.744050	1.200277	dec_nonsocial_reject_low	1.200277	32.000000	n/a	2	-2.343750e-02	-8.593750e-02
337.577730	1.316211	dec_nonsocial_choice	1.316211	16.000000	n/a	4	2.018229e-02	2.018229e-02
337.577730	1.316211	dec_choice	1.316211	16.000000	n/a	4	1.953125e-02	1.953125e-02
337.577730	1.316211	dec_nonsocial_accept	1.316211	16.000000	n/a	4	-1.250000e-01	-1.250000e-01
337.577730	1.316211	dec_accept	1.316211	16.000000	n/a	4	-1.250000e-01	-1.250000e-01
337.577730	1.316211	dec_nonsocial_accept_high	1.316211	16.000000	n/a	4	-1.250000e-01	-1.250000e-01
346.827730	1.150287	dec_social_choice	1.150287	16.000000	n/a	0	0	-2.298177e-01
346.827730	1.150287	dec_choice	1.150287	16.000000	n/a	0	0	-2.291667e-01
346.827730	1.150287	dec_social_reject	1.150287	16.000000	n/a	0	0	-2.213542e-02
346.827730	1.150287	dec_reject	1.150287	16.000000	n/a	0	0	-2.083333e-02
346.827730	1.150287	dec_social_reject_low	1.150287	16.000000	n/a	1	-1.666667e-01	-2.291667e-01
356.077480	0.916424	dec_nonsocial_choice	0.916424	16.000000	n/a	8	2.701823e-01	2.701823e-01
356.077480	0.916424	dec_choice	0.916424	16.000000	n/a	8	2.695312e-01	2.695312e-01
356.077480	0.916424	dec_nonsocial_accept	0.916424	16.000000	n/a	8	1.250000e-01	1.250000e-01
356.077480	0.916424	dec_accept	0.916424	16.000000	n/a	8	1.250000e-01	1.250000e-01
356.077480	0.916424	dec_nonsocial_high	0.916424	16.000000	n/a	8	2.695312e-01	2.695312e-01
356.077480	0.916424	dec_nonsocial_accept_high	0.916424	16.000000	n/a	8	1.250000e-01	1.250000e-01
362.911470	1.149569	dec_social_choice	1.149569	32.000000	n/a	8	2.018229e-02	2.018229e-02
362.911470	1.149569	dec_choice	1.149569	32.000000	n/a	8	2.083333e-02	2.083333e-02
362.911470	1.149569	dec_social_accept	1.149569	32.000000	n/a	8	-1.250000e-01	-1.250000e-01
362.911470	1.149569	dec_accept	1.149569	32.000000	n/a	8	-1.250000e-01	-1.250000e-01
362.911470	1.149569	dec_social_accept_high	1.149569	32.000000	n/a	8	2.083333e-02	2.083333e-02
372.177580	1.249763	dec_nonsocial_choice	1.249763	32.000000	n/a	0	0	-2.298177e-01
372.177580	1.249763	dec_choice	1.249763	32.000000	n/a	0	0	-2.304688e-01
372.177580	1.249763	dec_nonsocial_reject	1.249763	32.000000	n/a	0	0	9.114583e-03
372.177580	1.249763	dec_reject	1.249763	32.000000	n/a	0	0	7.812500e-03
372.177580	1.249763	dec_nonsocial_low	1.249763	32.000000	n/a	0	-2.304688e-01	-2.304688e-01
372.177580	1.249763	dec_nonsocial_reject_low	1.249763	32.000000	n/a	3	7.812500e-03	-8.593750e-02
