onset	duration	trial_type	response_time	Endowment	Endowment_pmod	Decision	Decision_pmod	Offer_pmod
4.558257	2	cue_social	n/a	16	-8	n/a	n/a	n/a
4.558257	2	cue_social_low	n/a	16	-10	n/a	n/a	n/a
12.164383	2	cue_nonsocial	n/a	32	6	n/a	n/a	n/a
12.164383	2	cue_nonsocial_high	n/a	32	8	n/a	n/a	n/a
18.997747	2	cue_nonsocial	n/a	32	6	n/a	n/a	n/a
18.997747	2	cue_nonsocial_high	n/a	32	8	n/a	n/a	n/a
25.889503	2	cue_social	n/a	32	8	n/a	n/a	n/a
25.889503	2	cue_social_high	n/a	32	6	n/a	n/a	n/a
32.664010	2	cue_nonsocial	n/a	16	-10	n/a	n/a	n/a
32.664010	2	cue_nonsocial_low	n/a	16	-8	n/a	n/a	n/a
39.592957	2	cue_social	n/a	32	8	n/a	n/a	n/a
39.592957	2	cue_social_high	n/a	32	6	n/a	n/a	n/a
48.782223	2	cue_social	n/a	16	-8	n/a	n/a	n/a
48.782223	2	cue_social_low	n/a	16	-10	n/a	n/a	n/a
55.676003	2	cue_social	n/a	32	8	n/a	n/a	n/a
55.676003	2	cue_social_high	n/a	32	6	n/a	n/a	n/a
64.847786	2	cue_nonsocial	n/a	32	6	n/a	n/a	n/a
64.847786	2	cue_nonsocial_high	n/a	32	8	n/a	n/a	n/a
71.680860	2	cue_nonsocial	n/a	32	6	n/a	n/a	n/a
71.680860	2	cue_nonsocial_high	n/a	32	8	n/a	n/a	n/a
78.514260	2	cue_nonsocial	n/a	16	-10	n/a	n/a	n/a
78.514260	2	cue_nonsocial_low	n/a	16	-8	n/a	n/a	n/a
86.164340	2	cue_nonsocial	n/a	32	6	n/a	n/a	n/a
86.164340	2	cue_nonsocial_high	n/a	32	8	n/a	n/a	n/a
93.814125	2	cue_nonsocial	n/a	32	6	n/a	n/a	n/a
93.814125	2	cue_nonsocial_high	n/a	32	8	n/a	n/a	n/a
100.647480	2	cue_nonsocial	n/a	16	-10	n/a	n/a	n/a
100.647480	2	cue_nonsocial_low	n/a	16	-8	n/a	n/a	n/a
113.194460	2	cue_social	n/a	16	-8	n/a	n/a	n/a
113.194460	2	cue_social_low	n/a	16	-10	n/a	n/a	n/a
120.844540	2	cue_social	n/a	32	8	n/a	n/a	n/a
120.844540	2	cue_social_high	n/a	32	6	n/a	n/a	n/a
127.614136	2	cue_nonsocial	n/a	32	6	n/a	n/a	n/a
127.614136	2	cue_nonsocial_high	n/a	32	8	n/a	n/a	n/a
134.514530	2	cue_social	n/a	16	-8	n/a	n/a	n/a
134.514530	2	cue_social_low	n/a	16	-10	n/a	n/a	n/a
141.363880	2	cue_social	n/a	16	-8	n/a	n/a	n/a
141.363880	2	cue_social_low	n/a	16	-10	n/a	n/a	n/a
152.147750	2	cue_nonsocial	n/a	32	6	n/a	n/a	n/a
152.147750	2	cue_nonsocial_high	n/a	32	8	n/a	n/a	n/a
161.470210	2	cue_social	n/a	16	-8	n/a	n/a	n/a
161.470210	2	cue_social_low	n/a	16	-10	n/a	n/a	n/a
168.230790	2	cue_nonsocial	n/a	16	-10	n/a	n/a	n/a
168.230790	2	cue_nonsocial_low	n/a	16	-8	n/a	n/a	n/a
175.063520	2	cue_nonsocial	n/a	32	6	n/a	n/a	n/a
175.063520	2	cue_nonsocial_high	n/a	32	8	n/a	n/a	n/a
184.330730	2	cue_nonsocial	n/a	16	-10	n/a	n/a	n/a
184.330730	2	cue_nonsocial_low	n/a	16	-8	n/a	n/a	n/a
195.196990	2	cue_nonsocial	n/a	32	6	n/a	n/a	n/a
195.196990	2	cue_nonsocial_high	n/a	32	8	n/a	n/a	n/a
202.830430	2	cue_nonsocial	n/a	32	6	n/a	n/a	n/a
202.830430	2	cue_nonsocial_high	n/a	32	8	n/a	n/a	n/a
210.480590	2	cue_nonsocial	n/a	32	6	n/a	n/a	n/a
210.480590	2	cue_nonsocial_high	n/a	32	8	n/a	n/a	n/a
218.191900	2	cue_social	n/a	32	8	n/a	n/a	n/a
218.191900	2	cue_social_high	n/a	32	6	n/a	n/a	n/a
225.037960	2	cue_social	n/a	32	8	n/a	n/a	n/a
225.037960	2	cue_social_high	n/a	32	6	n/a	n/a	n/a
231.851520	2	cue_social	n/a	32	8	n/a	n/a	n/a
231.851520	2	cue_social_high	n/a	32	6	n/a	n/a	n/a
238.630480	2	cue_nonsocial	n/a	16	-10	n/a	n/a	n/a
238.630480	2	cue_nonsocial_low	n/a	16	-8	n/a	n/a	n/a
245.536250	2	cue_social	n/a	32	8	n/a	n/a	n/a
245.536250	2	cue_social_high	n/a	32	6	n/a	n/a	n/a
252.360780	2	cue_social	n/a	32	8	n/a	n/a	n/a
252.360780	2	cue_social_high	n/a	32	6	n/a	n/a	n/a
261.547100	2	cue_nonsocial	n/a	16	-10	n/a	n/a	n/a
261.547100	2	cue_nonsocial_low	n/a	16	-8	n/a	n/a	n/a
269.197020	2	cue_nonsocial	n/a	16	-10	n/a	n/a	n/a
269.197020	2	cue_nonsocial_low	n/a	16	-8	n/a	n/a	n/a
276.128200	2	cue_social	n/a	16	-8	n/a	n/a	n/a
276.128200	2	cue_social_low	n/a	16	-10	n/a	n/a	n/a
283.740570	2	cue_social	n/a	32	8	n/a	n/a	n/a
283.740570	2	cue_social_high	n/a	32	6	n/a	n/a	n/a
291.378940	2	cue_social	n/a	16	-8	n/a	n/a	n/a
291.378940	2	cue_social_low	n/a	16	-10	n/a	n/a	n/a
299.048100	2	cue_social	n/a	16	-8	n/a	n/a	n/a
299.048100	2	cue_social_low	n/a	16	-10	n/a	n/a	n/a
305.813720	2	cue_nonsocial	n/a	32	6	n/a	n/a	n/a
305.813720	2	cue_nonsocial_high	n/a	32	8	n/a	n/a	n/a
312.647200	2	cue_nonsocial	n/a	32	6	n/a	n/a	n/a
312.647200	2	cue_nonsocial_high	n/a	32	8	n/a	n/a	n/a
321.896850	2	cue_nonsocial	n/a	32	6	n/a	n/a	n/a
321.896850	2	cue_nonsocial_high	n/a	32	8	n/a	n/a	n/a
332.844540	2	cue_social	n/a	16	-8	n/a	n/a	n/a
332.844540	2	cue_social_low	n/a	16	-10	n/a	n/a	n/a
339.656980	2	cue_social	n/a	32	8	n/a	n/a	n/a
339.656980	2	cue_social_high	n/a	32	6	n/a	n/a	n/a
346.498870	2	cue_social	n/a	16	-8	n/a	n/a	n/a
346.498870	2	cue_social_low	n/a	16	-10	n/a	n/a	n/a
354.080200	2	cue_nonsocial	n/a	16	-10	n/a	n/a	n/a
354.080200	2	cue_nonsocial_low	n/a	16	-8	n/a	n/a	n/a
361.814360	2	cue_social	n/a	32	8	n/a	n/a	n/a
361.814360	2	cue_social_high	n/a	32	6	n/a	n/a	n/a
368.619140	2	cue_social	n/a	16	-8	n/a	n/a	n/a
368.619140	2	cue_social_low	n/a	16	-10	n/a	n/a	n/a
6.520945	1.299922	dec_social_choice	1.299922	16.000000	n/a	0	0	-2.298177e-01
6.520945	1.299922	dec_choice	1.299922	16.000000	n/a	0	0	-2.291667e-01
6.520945	1.299922	dec_social_reject	1.299922	16.000000	n/a	0	0	4.119318e-02
6.520945	1.299922	dec_reject	1.299922	16.000000	n/a	0	0	4.166667e-02
6.520945	1.299922	dec_social_low	1.299922	16.000000	n/a	0	-2.291667e-01	-2.291667e-01
6.520945	1.299922	dec_social_reject_low	1.299922	16.000000	n/a	2	-1.041667e-01	-2.291667e-01
14.172025	1.749041	dec_nonsocial_choice	1.749041	32.000000	n/a	0	0	-2.298177e-01
14.172025	1.749041	dec_choice	1.749041	32.000000	n/a	0	0	-2.304688e-01
14.172025	1.749041	dec_nonsocial_reject	1.749041	32.000000	n/a	0	0	-2.130682e-02
14.172025	1.749041	dec_reject	1.749041	32.000000	n/a	0	0	-2.187500e-02
14.172025	1.749041	dec_nonsocial_reject_low	1.749041	32.000000	n/a	2	-2.083333e-02	-8.333333e-02
21.003586	1.050504	dec_nonsocial_choice	1.050504	32.000000	n/a	0	0	-2.298177e-01
21.003586	1.050504	dec_choice	1.050504	32.000000	n/a	0	0	-2.304688e-01
21.003586	1.050504	dec_nonsocial_reject	1.050504	32.000000	n/a	0	0	-2.130682e-02
21.003586	1.050504	dec_reject	1.050504	32.000000	n/a	0	0	-2.187500e-02
21.003586	1.050504	dec_nonsocial_reject_low	1.050504	32.000000	n/a	2	-2.083333e-02	-8.333333e-02
27.837069	1.200580	dec_social_choice	1.200580	32.000000	n/a	16	2.701823e-01	2.701823e-01
27.837069	1.200580	dec_choice	1.200580	32.000000	n/a	16	2.708333e-01	2.708333e-01
27.837069	1.200580	dec_social_accept	1.200580	32.000000	n/a	16	1.466346e-01	1.466346e-01
27.837069	1.200580	dec_accept	1.200580	32.000000	n/a	16	1.250000e-01	1.250000e-01
27.837069	1.200580	dec_social_high	1.200580	32.000000	n/a	16	2.708333e-01	2.708333e-01
27.837069	1.200580	dec_social_accept_high	1.200580	32.000000	n/a	16	2.708333e-01	2.708333e-01
34.670950	1.066165	dec_nonsocial_choice	1.066165	16.000000	n/a	4	2.018229e-02	2.018229e-02
34.670950	1.066165	dec_choice	1.066165	16.000000	n/a	4	1.953125e-02	1.953125e-02
34.670950	1.066165	dec_nonsocial_accept	1.066165	16.000000	n/a	4	-1.033654e-01	-1.033654e-01
34.670950	1.066165	dec_accept	1.066165	16.000000	n/a	4	-8.482143e-02	-8.482143e-02
34.670950	1.066165	dec_nonsocial_high	1.066165	16.000000	n/a	4	1.953125e-02	1.953125e-02
34.670950	1.066165	dec_nonsocial_accept_high	1.066165	16.000000	n/a	4	-8.482143e-02	-8.482143e-02
41.504490	1.065881	dec_social_choice	1.065881	32.000000	n/a	16	2.701823e-01	2.701823e-01
41.504490	1.065881	dec_choice	1.065881	32.000000	n/a	16	2.708333e-01	2.708333e-01
41.504490	1.065881	dec_social_accept	1.065881	32.000000	n/a	16	1.466346e-01	1.466346e-01
41.504490	1.065881	dec_accept	1.065881	32.000000	n/a	16	1.250000e-01	1.250000e-01
41.504490	1.065881	dec_social_accept_high	1.065881	32.000000	n/a	16	2.708333e-01	2.708333e-01
50.770164	1.083797	dec_social_choice	1.083797	16.000000	n/a	0	0	-2.298177e-01
50.770164	1.083797	dec_choice	1.083797	16.000000	n/a	0	0	-2.291667e-01
50.770164	1.083797	dec_social_reject	1.083797	16.000000	n/a	0	0	-2.130682e-02
50.770164	1.083797	dec_reject	1.083797	16.000000	n/a	0	0	-2.083333e-02
50.770164	1.083797	dec_social_reject_low	1.083797	16.000000	n/a	1	-1.666667e-01	-2.291667e-01
57.604010	1.250217	dec_social_choice	1.250217	32.000000	n/a	0	0	-2.298177e-01
57.604010	1.250217	dec_choice	1.250217	32.000000	n/a	0	0	-2.291667e-01
57.604010	1.250217	dec_social_reject	1.250217	32.000000	n/a	0	0	9.943182e-03
57.604010	1.250217	dec_reject	1.250217	32.000000	n/a	0	0	1.041667e-02
57.604010	1.250217	dec_social_reject_low	1.250217	32.000000	n/a	3	-1.354167e-01	-2.291667e-01
66.854730	1.349490	dec_nonsocial_choice	1.349490	32.000000	n/a	8	2.018229e-02	2.018229e-02
66.854730	1.349490	dec_choice	1.349490	32.000000	n/a	8	1.953125e-02	1.953125e-02
66.854730	1.349490	dec_nonsocial_accept	1.349490	32.000000	n/a	8	-1.033654e-01	-1.033654e-01
66.854730	1.349490	dec_accept	1.349490	32.000000	n/a	8	-8.482143e-02	-8.482143e-02
66.854730	1.349490	dec_nonsocial_accept_high	1.349490	32.000000	n/a	8	-1.250000e-01	-1.250000e-01
73.687690	1.149780	dec_nonsocial_choice	1.149780	32.000000	n/a	0	0	-2.298177e-01
73.687690	1.149780	dec_choice	1.149780	32.000000	n/a	0	0	-2.304688e-01
73.687690	1.149780	dec_nonsocial_reject	1.149780	32.000000	n/a	0	0	-2.130682e-02
73.687690	1.149780	dec_reject	1.149780	32.000000	n/a	0	0	-2.187500e-02
73.687690	1.149780	dec_nonsocial_reject_low	1.149780	32.000000	n/a	2	-2.083333e-02	-8.333333e-02
80.520110	1.100599	dec_nonsocial_choice	1.100599	16.000000	n/a	8	2.701823e-01	2.701823e-01
80.520110	1.100599	dec_choice	1.100599	16.000000	n/a	8	2.695312e-01	2.695312e-01
80.520110	1.100599	dec_nonsocial_accept	1.100599	16.000000	n/a	8	1.466346e-01	1.466346e-01
80.520110	1.100599	dec_accept	1.100599	16.000000	n/a	8	1.651786e-01	1.651786e-01
80.520110	1.100599	dec_nonsocial_high	1.100599	16.000000	n/a	8	2.695312e-01	2.695312e-01
80.520110	1.100599	dec_nonsocial_accept_high	1.100599	16.000000	n/a	8	1.651786e-01	1.651786e-01
88.171010	1.149542	dec_nonsocial_choice	1.149542	32.000000	n/a	0	0	-2.298177e-01
88.171010	1.149542	dec_choice	1.149542	32.000000	n/a	0	0	-2.304688e-01
88.171010	1.149542	dec_nonsocial_reject	1.149542	32.000000	n/a	0	0	-2.130682e-02
88.171010	1.149542	dec_reject	1.149542	32.000000	n/a	0	0	-2.187500e-02
88.171010	1.149542	dec_nonsocial_low	1.149542	32.000000	n/a	0	-2.304688e-01	-2.304688e-01
88.171010	1.149542	dec_nonsocial_reject_low	1.149542	32.000000	n/a	2	-2.187500e-02	-8.437500e-02
95.820656	1.850098	dec_nonsocial_choice	1.850098	32.000000	n/a	0	0	-2.298177e-01
95.820656	1.850098	dec_choice	1.850098	32.000000	n/a	0	0	-2.304688e-01
95.820656	1.850098	dec_nonsocial_reject	1.850098	32.000000	n/a	0	0	9.943182e-03
95.820656	1.850098	dec_reject	1.850098	32.000000	n/a	0	0	9.375000e-03
95.820656	1.850098	dec_nonsocial_reject_low	1.850098	32.000000	n/a	3	1.041667e-02	-8.333333e-02
102.654060	0.933206	dec_nonsocial_choice	0.933206	16.000000	n/a	4	2.018229e-02	2.018229e-02
102.654060	0.933206	dec_choice	0.933206	16.000000	n/a	4	1.953125e-02	1.953125e-02
102.654060	0.933206	dec_nonsocial_accept	0.933206	16.000000	n/a	4	-1.033654e-01	-1.033654e-01
102.654060	0.933206	dec_accept	0.933206	16.000000	n/a	4	-8.482143e-02	-8.482143e-02
102.654060	0.933206	dec_nonsocial_accept_high	0.933206	16.000000	n/a	4	-1.250000e-01	-1.250000e-01
115.137085	0.933625	dec_social_choice	0.933625	16.000000	n/a	4	2.018229e-02	2.018229e-02
115.137085	0.933625	dec_choice	0.933625	16.000000	n/a	4	2.083333e-02	2.083333e-02
115.137085	0.933625	dec_social_accept	0.933625	16.000000	n/a	4	-1.033654e-01	-1.033654e-01
115.137085	0.933625	dec_accept	0.933625	16.000000	n/a	4	-1.250000e-01	-1.250000e-01
115.137085	0.933625	dec_social_accept_high	0.933625	16.000000	n/a	4	2.083333e-02	2.083333e-02
122.787270	1.166243	dec_social_choice	1.166243	32.000000	n/a	16	2.701823e-01	2.701823e-01
122.787270	1.166243	dec_choice	1.166243	32.000000	n/a	16	2.708333e-01	2.708333e-01
122.787270	1.166243	dec_social_accept	1.166243	32.000000	n/a	16	1.466346e-01	1.466346e-01
122.787270	1.166243	dec_accept	1.166243	32.000000	n/a	16	1.250000e-01	1.250000e-01
122.787270	1.166243	dec_social_accept_high	1.166243	32.000000	n/a	16	2.708333e-01	2.708333e-01
129.621540	2.049252	dec_nonsocial_choice	2.049252	32.000000	n/a	8	2.018229e-02	2.018229e-02
129.621540	2.049252	dec_choice	2.049252	32.000000	n/a	8	1.953125e-02	1.953125e-02
129.621540	2.049252	dec_nonsocial_accept	2.049252	32.000000	n/a	8	-1.033654e-01	-1.033654e-01
129.621540	2.049252	dec_accept	2.049252	32.000000	n/a	8	-8.482143e-02	-8.482143e-02
129.621540	2.049252	dec_nonsocial_accept_high	2.049252	32.000000	n/a	8	-1.250000e-01	-1.250000e-01
136.455030	1.232275	dec_social_choice	1.232275	16.000000	n/a	8	2.701823e-01	2.701823e-01
136.455030	1.232275	dec_choice	1.232275	16.000000	n/a	8	2.708333e-01	2.708333e-01
136.455030	1.232275	dec_social_accept	1.232275	16.000000	n/a	8	1.466346e-01	1.466346e-01
136.455030	1.232275	dec_accept	1.232275	16.000000	n/a	8	1.250000e-01	1.250000e-01
136.455030	1.232275	dec_social_high	1.232275	16.000000	n/a	8	2.708333e-01	2.708333e-01
136.455030	1.232275	dec_social_accept_high	1.232275	16.000000	n/a	8	2.708333e-01	2.708333e-01
143.287670	1.366365	dec_social_choice	1.366365	16.000000	n/a	4	2.018229e-02	2.018229e-02
143.287670	1.366365	dec_choice	1.366365	16.000000	n/a	4	2.083333e-02	2.083333e-02
143.287670	1.366365	dec_social_accept	1.366365	16.000000	n/a	4	-1.033654e-01	-1.033654e-01
143.287670	1.366365	dec_accept	1.366365	16.000000	n/a	4	-1.250000e-01	-1.250000e-01
143.287670	1.366365	dec_social_accept_high	1.366365	16.000000	n/a	4	2.083333e-02	2.083333e-02
154.153950	1.283649	dec_nonsocial_choice	1.283649	32.000000	n/a	0	0	-2.298177e-01
154.153950	1.283649	dec_choice	1.283649	32.000000	n/a	0	0	-2.304688e-01
154.153950	1.283649	dec_nonsocial_reject	1.283649	32.000000	n/a	0	0	-2.130682e-02
154.153950	1.283649	dec_reject	1.283649	32.000000	n/a	0	0	-2.187500e-02
154.153950	1.283649	dec_nonsocial_low	1.283649	32.000000	n/a	0	-2.304688e-01	-2.304688e-01
154.153950	1.283649	dec_nonsocial_reject_low	1.283649	32.000000	n/a	2	-2.187500e-02	-8.437500e-02
163.402820	1.184065	dec_social_choice	1.184065	16.000000	n/a	4	2.018229e-02	2.018229e-02
163.402820	1.184065	dec_choice	1.184065	16.000000	n/a	4	2.083333e-02	2.083333e-02
163.402820	1.184065	dec_social_accept	1.184065	16.000000	n/a	4	-1.033654e-01	-1.033654e-01
163.402820	1.184065	dec_accept	1.184065	16.000000	n/a	4	-1.250000e-01	-1.250000e-01
163.402820	1.184065	dec_social_accept_high	1.184065	16.000000	n/a	4	2.083333e-02	2.083333e-02
170.237000	0.916365	dec_nonsocial_choice	0.916365	16.000000	n/a	0	0	-2.298177e-01
170.237000	0.916365	dec_choice	0.916365	16.000000	n/a	0	0	-2.304688e-01
170.237000	0.916365	dec_nonsocial_reject	0.916365	16.000000	n/a	0	0	4.119318e-02
170.237000	0.916365	dec_reject	0.916365	16.000000	n/a	0	0	4.062500e-02
170.237000	0.916365	dec_nonsocial_reject_low	0.916365	16.000000	n/a	2	4.166667e-02	-8.333333e-02
177.070940	0.915792	dec_nonsocial_choice	0.915792	32.000000	n/a	16	2.701823e-01	2.701823e-01
177.070940	0.915792	dec_choice	0.915792	32.000000	n/a	16	2.695312e-01	2.695312e-01
177.070940	0.915792	dec_nonsocial_accept	0.915792	32.000000	n/a	16	1.466346e-01	1.466346e-01
177.070940	0.915792	dec_accept	0.915792	32.000000	n/a	16	1.651786e-01	1.651786e-01
177.070940	0.915792	dec_nonsocial_accept_high	0.915792	32.000000	n/a	16	1.250000e-01	1.250000e-01
186.336640	0.833788	dec_nonsocial_choice	0.833788	16.000000	n/a	2	-1.048177e-01	-1.048177e-01
186.336640	0.833788	dec_choice	0.833788	16.000000	n/a	2	-1.054688e-01	-1.054688e-01
186.336640	0.833788	dec_nonsocial_accept	0.833788	16.000000	n/a	2	-2.283654e-01	-2.283654e-01
186.336640	0.833788	dec_accept	0.833788	16.000000	n/a	2	-2.098214e-01	-2.098214e-01
186.336640	0.833788	dec_nonsocial_accept_low	0.833788	16.000000	n/a	2	-2.500000e-01	-2.500000e-01
197.203750	1.050003	dec_nonsocial_choice	1.050003	32.000000	n/a	0	0	-2.298177e-01
197.203750	1.050003	dec_choice	1.050003	32.000000	n/a	0	0	-2.304688e-01
197.203750	1.050003	dec_nonsocial_reject	1.050003	32.000000	n/a	0	0	9.943182e-03
197.203750	1.050003	dec_reject	1.050003	32.000000	n/a	0	0	9.375000e-03
197.203750	1.050003	dec_nonsocial_low	1.050003	32.000000	n/a	0	-2.304688e-01	-2.304688e-01
197.203750	1.050003	dec_nonsocial_reject_low	1.050003	32.000000	n/a	3	9.375000e-03	-8.437500e-02
204.837360	1.099829	dec_nonsocial_choice	1.099829	32.000000	n/a	8	2.018229e-02	2.018229e-02
204.837360	1.099829	dec_choice	1.099829	32.000000	n/a	8	1.953125e-02	1.953125e-02
204.837360	1.099829	dec_nonsocial_accept	1.099829	32.000000	n/a	8	-1.033654e-01	-1.033654e-01
204.837360	1.099829	dec_accept	1.099829	32.000000	n/a	8	-8.482143e-02	-8.482143e-02
204.837360	1.099829	dec_nonsocial_high	1.099829	32.000000	n/a	8	1.953125e-02	1.953125e-02
204.837360	1.099829	dec_nonsocial_accept_high	1.099829	32.000000	n/a	8	-8.482143e-02	-8.482143e-02
212.487980	1.132519	dec_nonsocial_choice	1.132519	32.000000	n/a	0	0	-2.298177e-01
212.487980	1.132519	dec_choice	1.132519	32.000000	n/a	0	0	-2.304688e-01
212.487980	1.132519	dec_nonsocial_reject	1.132519	32.000000	n/a	0	0	9.943182e-03
212.487980	1.132519	dec_reject	1.132519	32.000000	n/a	0	0	9.375000e-03
212.487980	1.132519	dec_nonsocial_reject_low	1.132519	32.000000	n/a	3	1.041667e-02	-8.333333e-02
220.137790	1.299081	dec_social_choice	1.299081	32.000000	n/a	0	0	-2.298177e-01
220.137790	1.299081	dec_choice	1.299081	32.000000	n/a	0	0	-2.291667e-01
220.137790	1.299081	dec_social_reject	1.299081	32.000000	n/a	0	0	9.943182e-03
220.137790	1.299081	dec_reject	1.299081	32.000000	n/a	0	0	1.041667e-02
220.137790	1.299081	dec_social_low	1.299081	32.000000	n/a	0	-2.291667e-01	-2.291667e-01
220.137790	1.299081	dec_social_reject_low	1.299081	32.000000	n/a	3	-1.354167e-01	-2.291667e-01
226.969770	1.267243	dec_social_choice	1.267243	32.000000	n/a	0	0	-2.298177e-01
226.969770	1.267243	dec_choice	1.267243	32.000000	n/a	0	0	-2.291667e-01
226.969770	1.267243	dec_social_reject	1.267243	32.000000	n/a	0	0	-2.130682e-02
226.969770	1.267243	dec_reject	1.267243	32.000000	n/a	0	0	-2.083333e-02
226.969770	1.267243	dec_social_reject_low	1.267243	32.000000	n/a	2	-1.666667e-01	-2.291667e-01
233.803650	1.649929	dec_social_choice	1.649929	32.000000	n/a	16	2.701823e-01	2.701823e-01
233.803650	1.649929	dec_choice	1.649929	32.000000	n/a	16	2.708333e-01	2.708333e-01
233.803650	1.649929	dec_social_accept	1.649929	32.000000	n/a	16	1.466346e-01	1.466346e-01
233.803650	1.649929	dec_accept	1.649929	32.000000	n/a	16	1.250000e-01	1.250000e-01
233.803650	1.649929	dec_social_high	1.649929	32.000000	n/a	16	2.708333e-01	2.708333e-01
233.803650	1.649929	dec_social_accept_high	1.649929	32.000000	n/a	16	2.708333e-01	2.708333e-01
240.636730	1.066586	dec_nonsocial_choice	1.066586	16.000000	n/a	8	2.701823e-01	2.701823e-01
240.636730	1.066586	dec_choice	1.066586	16.000000	n/a	8	2.695312e-01	2.695312e-01
240.636730	1.066586	dec_nonsocial_accept	1.066586	16.000000	n/a	8	1.466346e-01	1.466346e-01
240.636730	1.066586	dec_accept	1.066586	16.000000	n/a	8	1.651786e-01	1.651786e-01
240.636730	1.066586	dec_nonsocial_accept_high	1.066586	16.000000	n/a	8	1.250000e-01	1.250000e-01
247.469830	1.501034	dec_social_choice	1.501034	32.000000	n/a	0	0	-2.298177e-01
247.469830	1.501034	dec_choice	1.501034	32.000000	n/a	0	0	-2.291667e-01
247.469830	1.501034	dec_social_reject	1.501034	32.000000	n/a	0	0	9.943182e-03
247.469830	1.501034	dec_reject	1.501034	32.000000	n/a	0	0	1.041667e-02
247.469830	1.501034	dec_social_reject_low	1.501034	32.000000	n/a	3	-1.354167e-01	-2.291667e-01
254.304080	1.432998	dec_social_choice	1.432998	32.000000	n/a	0	0	-2.298177e-01
254.304080	1.432998	dec_choice	1.432998	32.000000	n/a	0	0	-2.291667e-01
254.304080	1.432998	dec_social_reject	1.432998	32.000000	n/a	0	0	9.943182e-03
254.304080	1.432998	dec_reject	1.432998	32.000000	n/a	0	0	1.041667e-02
254.304080	1.432998	dec_social_reject_low	1.432998	32.000000	n/a	3	-1.354167e-01	-2.291667e-01
263.553560	0.966316	dec_nonsocial_choice	0.966316	16.000000	n/a	0	0	-2.298177e-01
263.553560	0.966316	dec_choice	0.966316	16.000000	n/a	0	0	-2.304688e-01
263.553560	0.966316	dec_nonsocial_reject	0.966316	16.000000	n/a	0	0	4.119318e-02
263.553560	0.966316	dec_reject	0.966316	16.000000	n/a	0	0	4.062500e-02
263.553560	0.966316	dec_nonsocial_reject_low	0.966316	16.000000	n/a	2	4.166667e-02	-8.333333e-02
271.203950	1.099664	dec_nonsocial_choice	1.099664	16.000000	n/a	8	2.701823e-01	2.701823e-01
271.203950	1.099664	dec_choice	1.099664	16.000000	n/a	8	2.695312e-01	2.695312e-01
271.203950	1.099664	dec_nonsocial_accept	1.099664	16.000000	n/a	8	1.466346e-01	1.466346e-01
271.203950	1.099664	dec_accept	1.099664	16.000000	n/a	8	1.651786e-01	1.651786e-01
271.203950	1.099664	dec_nonsocial_accept_high	1.099664	16.000000	n/a	8	1.250000e-01	1.250000e-01
278.037930	1.065181	dec_social_choice	1.065181	16.000000	n/a	8	2.701823e-01	2.701823e-01
278.037930	1.065181	dec_choice	1.065181	16.000000	n/a	8	2.708333e-01	2.708333e-01
278.037930	1.065181	dec_social_accept	1.065181	16.000000	n/a	8	1.466346e-01	1.466346e-01
278.037930	1.065181	dec_accept	1.065181	16.000000	n/a	8	1.250000e-01	1.250000e-01
278.037930	1.065181	dec_social_high	1.065181	16.000000	n/a	8	2.708333e-01	2.708333e-01
278.037930	1.065181	dec_social_accept_high	1.065181	16.000000	n/a	8	2.708333e-01	2.708333e-01
285.687040	1.116230	dec_social_choice	1.116230	32.000000	n/a	0	0	-2.298177e-01
285.687040	1.116230	dec_choice	1.116230	32.000000	n/a	0	0	-2.291667e-01
285.687040	1.116230	dec_social_reject	1.116230	32.000000	n/a	0	0	-2.130682e-02
285.687040	1.116230	dec_reject	1.116230	32.000000	n/a	0	0	-2.083333e-02
285.687040	1.116230	dec_social_low	1.116230	32.000000	n/a	0	-2.291667e-01	-2.291667e-01
285.687040	1.116230	dec_social_reject_low	1.116230	32.000000	n/a	2	-1.666667e-01	-2.291667e-01
293.336100	2.000732	dec_social_choice	2.000732	16.000000	n/a	0	0	-2.298177e-01
293.336100	2.000732	dec_choice	2.000732	16.000000	n/a	0	0	-2.291667e-01
293.336100	2.000732	dec_social_reject	2.000732	16.000000	n/a	0	0	-2.130682e-02
293.336100	2.000732	dec_reject	2.000732	16.000000	n/a	0	0	-2.083333e-02
293.336100	2.000732	dec_social_low	2.000732	16.000000	n/a	0	-2.291667e-01	-2.291667e-01
293.336100	2.000732	dec_social_reject_low	2.000732	16.000000	n/a	1	-1.666667e-01	-2.291667e-01
300.986970	1.233327	dec_social_choice	1.233327	16.000000	n/a	4	2.018229e-02	2.018229e-02
300.986970	1.233327	dec_choice	1.233327	16.000000	n/a	4	2.083333e-02	2.083333e-02
300.986970	1.233327	dec_social_accept	1.233327	16.000000	n/a	4	-1.033654e-01	-1.033654e-01
300.986970	1.233327	dec_accept	1.233327	16.000000	n/a	4	-1.250000e-01	-1.250000e-01
300.986970	1.233327	dec_social_high	1.233327	16.000000	n/a	4	2.083333e-02	2.083333e-02
300.986970	1.233327	dec_social_accept_high	1.233327	16.000000	n/a	4	2.083333e-02	2.083333e-02
307.819950	1.250274	dec_nonsocial_choice	1.250274	32.000000	n/a	8	2.018229e-02	2.018229e-02
307.819950	1.250274	dec_choice	1.250274	32.000000	n/a	8	1.953125e-02	1.953125e-02
307.819950	1.250274	dec_nonsocial_accept	1.250274	32.000000	n/a	8	-1.033654e-01	-1.033654e-01
307.819950	1.250274	dec_accept	1.250274	32.000000	n/a	8	-8.482143e-02	-8.482143e-02
307.819950	1.250274	dec_nonsocial_accept_high	1.250274	32.000000	n/a	8	-1.250000e-01	-1.250000e-01
314.654020	1.149751	dec_nonsocial_choice	1.149751	32.000000	n/a	16	2.701823e-01	2.701823e-01
314.654020	1.149751	dec_choice	1.149751	32.000000	n/a	16	2.695312e-01	2.695312e-01
314.654020	1.149751	dec_nonsocial_accept	1.149751	32.000000	n/a	16	1.466346e-01	1.466346e-01
314.654020	1.149751	dec_accept	1.149751	32.000000	n/a	16	1.651786e-01	1.651786e-01
314.654020	1.149751	dec_nonsocial_high	1.149751	32.000000	n/a	16	2.695312e-01	2.695312e-01
314.654020	1.149751	dec_nonsocial_accept_high	1.149751	32.000000	n/a	16	1.651786e-01	1.651786e-01
323.903930	1.115818	dec_nonsocial_choice	1.115818	32.000000	n/a	2	-1.673177e-01	-1.673177e-01
323.903930	1.115818	dec_choice	1.115818	32.000000	n/a	2	-1.679688e-01	-1.679688e-01
323.903930	1.115818	dec_nonsocial_accept	1.115818	32.000000	n/a	2	-2.908654e-01	-2.908654e-01
323.903930	1.115818	dec_accept	1.115818	32.000000	n/a	2	-2.723214e-01	-2.723214e-01
323.903930	1.115818	dec_nonsocial_low	1.115818	32.000000	n/a	2	-1.679688e-01	-1.679688e-01
323.903930	1.115818	dec_nonsocial_accept_low	1.115818	32.000000	n/a	2	-2.723214e-01	-2.723214e-01
334.769000	1.651167	dec_social_choice	1.651167	16.000000	n/a	0	0	-2.298177e-01
334.769000	1.651167	dec_choice	1.651167	16.000000	n/a	0	0	-2.291667e-01
334.769000	1.651167	dec_social_reject	1.651167	16.000000	n/a	0	0	4.119318e-02
334.769000	1.651167	dec_reject	1.651167	16.000000	n/a	0	0	4.166667e-02
334.769000	1.651167	dec_social_reject_low	1.651167	16.000000	n/a	2	-1.041667e-01	-2.291667e-01
341.604200	1.365524	dec_social_choice	1.365524	32.000000	n/a	8	2.018229e-02	2.018229e-02
341.604200	1.365524	dec_choice	1.365524	32.000000	n/a	8	2.083333e-02	2.083333e-02
341.604200	1.365524	dec_social_accept	1.365524	32.000000	n/a	8	-1.033654e-01	-1.033654e-01
341.604200	1.365524	dec_accept	1.365524	32.000000	n/a	8	-1.250000e-01	-1.250000e-01
341.604200	1.365524	dec_social_high	1.365524	32.000000	n/a	8	2.083333e-02	2.083333e-02
341.604200	1.365524	dec_social_accept_high	1.365524	32.000000	n/a	8	2.083333e-02	2.083333e-02
348.436920	0.799948	dec_social_choice	0.799948	16.000000	n/a	0	0	-2.298177e-01
348.436920	0.799948	dec_choice	0.799948	16.000000	n/a	0	0	-2.291667e-01
348.436920	0.799948	dec_social_reject	0.799948	16.000000	n/a	0	0	-2.130682e-02
348.436920	0.799948	dec_reject	0.799948	16.000000	n/a	0	0	-2.083333e-02
348.436920	0.799948	dec_social_reject_low	0.799948	16.000000	n/a	1	-1.666667e-01	-2.291667e-01
356.085900	1.534057	dec_nonsocial_choice	1.534057	16.000000	n/a	8	2.701823e-01	2.701823e-01
356.085900	1.534057	dec_choice	1.534057	16.000000	n/a	8	2.695312e-01	2.695312e-01
356.085900	1.534057	dec_nonsocial_accept	1.534057	16.000000	n/a	8	1.466346e-01	1.466346e-01
356.085900	1.534057	dec_accept	1.534057	16.000000	n/a	8	1.651786e-01	1.651786e-01
356.085900	1.534057	dec_nonsocial_accept_high	1.534057	16.000000	n/a	8	1.250000e-01	1.250000e-01
363.719900	1.133514	dec_social_choice	1.133514	32.000000	n/a	8	2.018229e-02	2.018229e-02
363.719900	1.133514	dec_choice	1.133514	32.000000	n/a	8	2.083333e-02	2.083333e-02
363.719900	1.133514	dec_social_accept	1.133514	32.000000	n/a	8	-1.033654e-01	-1.033654e-01
363.719900	1.133514	dec_accept	1.133514	32.000000	n/a	8	-1.250000e-01	-1.250000e-01
363.719900	1.133514	dec_social_high	1.133514	32.000000	n/a	8	2.083333e-02	2.083333e-02
363.719900	1.133514	dec_social_accept_high	1.133514	32.000000	n/a	8	2.083333e-02	2.083333e-02
370.553070	1.100160	dec_social_choice	1.100160	16.000000	n/a	0	0	-2.298177e-01
370.553070	1.100160	dec_choice	1.100160	16.000000	n/a	0	0	-2.291667e-01
370.553070	1.100160	dec_social_reject	1.100160	16.000000	n/a	0	0	-2.130682e-02
370.553070	1.100160	dec_reject	1.100160	16.000000	n/a	0	0	-2.083333e-02
370.553070	1.100160	dec_social_low	1.100160	16.000000	n/a	0	-2.291667e-01	-2.291667e-01
370.553070	1.100160	dec_social_reject_low	1.100160	16.000000	n/a	1	-1.666667e-01	-2.291667e-01
