onset	duration	trial_type	response_time	Endowment	Endowment_pmod	Decision	Decision_pmod	Offer_pmod
4.510287	2	cue_nonsocial	n/a	32	7	n/a	n/a	n/a
4.510287	2	cue_nonsocial_high	n/a	32	7	n/a	n/a	n/a
11.431235	2	cue_social	n/a	16	-9	n/a	n/a	n/a
11.431235	2	cue_social_low	n/a	16	-9	n/a	n/a	n/a
18.993484	2	cue_nonsocial	n/a	32	7	n/a	n/a	n/a
18.993484	2	cue_nonsocial_high	n/a	32	7	n/a	n/a	n/a
26.722551	2	cue_social	n/a	16	-9	n/a	n/a	n/a
26.722551	2	cue_social_low	n/a	16	-9	n/a	n/a	n/a
33.476620	2	cue_nonsocial	n/a	32	7	n/a	n/a	n/a
33.476620	2	cue_nonsocial_high	n/a	32	7	n/a	n/a	n/a
40.412270	2	cue_social	n/a	16	-9	n/a	n/a	n/a
40.412270	2	cue_social_low	n/a	16	-9	n/a	n/a	n/a
47.143540	2	cue_nonsocial	n/a	32	7	n/a	n/a	n/a
47.143540	2	cue_nonsocial_high	n/a	32	7	n/a	n/a	n/a
54.855300	2	cue_social	n/a	32	7	n/a	n/a	n/a
54.855300	2	cue_social_high	n/a	32	7	n/a	n/a	n/a
61.701046	2	cue_social	n/a	32	7	n/a	n/a	n/a
61.701046	2	cue_social_high	n/a	32	7	n/a	n/a	n/a
70.876930	2	cue_nonsocial	n/a	16	-9	n/a	n/a	n/a
70.876930	2	cue_nonsocial_low	n/a	16	-9	n/a	n/a	n/a
80.126810	2	cue_nonsocial	n/a	32	7	n/a	n/a	n/a
80.126810	2	cue_nonsocial_high	n/a	32	7	n/a	n/a	n/a
87.880570	2	cue_social	n/a	32	7	n/a	n/a	n/a
87.880570	2	cue_social_high	n/a	32	7	n/a	n/a	n/a
95.426460	2	cue_nonsocial	n/a	16	-9	n/a	n/a	n/a
95.426460	2	cue_nonsocial_low	n/a	16	-9	n/a	n/a	n/a
103.076780	2	cue_nonsocial	n/a	16	-9	n/a	n/a	n/a
103.076780	2	cue_nonsocial_low	n/a	16	-9	n/a	n/a	n/a
109.910080	2	cue_nonsocial	n/a	32	7	n/a	n/a	n/a
109.910080	2	cue_nonsocial_high	n/a	32	7	n/a	n/a	n/a
119.159996	2	cue_nonsocial	n/a	32	7	n/a	n/a	n/a
119.159996	2	cue_nonsocial_high	n/a	32	7	n/a	n/a	n/a
126.810265	2	cue_nonsocial	n/a	16	-9	n/a	n/a	n/a
126.810265	2	cue_nonsocial_low	n/a	16	-9	n/a	n/a	n/a
137.746610	2	cue_social	n/a	32	7	n/a	n/a	n/a
137.746610	2	cue_social_high	n/a	32	7	n/a	n/a	n/a
144.578370	2	cue_social	n/a	32	7	n/a	n/a	n/a
144.578370	2	cue_social_high	n/a	32	7	n/a	n/a	n/a
155.450670	2	cue_social	n/a	32	7	n/a	n/a	n/a
155.450670	2	cue_social_high	n/a	32	7	n/a	n/a	n/a
162.209900	2	cue_nonsocial	n/a	16	-9	n/a	n/a	n/a
162.209900	2	cue_nonsocial_low	n/a	16	-9	n/a	n/a	n/a
173.076800	2	cue_nonsocial	n/a	32	7	n/a	n/a	n/a
173.076800	2	cue_nonsocial_high	n/a	32	7	n/a	n/a	n/a
180.790590	2	cue_social	n/a	16	-9	n/a	n/a	n/a
180.790590	2	cue_social_low	n/a	16	-9	n/a	n/a	n/a
187.630580	2	cue_social	n/a	32	7	n/a	n/a	n/a
187.630580	2	cue_social_high	n/a	32	7	n/a	n/a	n/a
194.459550	2	cue_social	n/a	16	-9	n/a	n/a	n/a
194.459550	2	cue_social_low	n/a	16	-9	n/a	n/a	n/a
202.106310	2	cue_social	n/a	32	7	n/a	n/a	n/a
202.106310	2	cue_social_high	n/a	32	7	n/a	n/a	n/a
209.752760	2	cue_social	n/a	32	7	n/a	n/a	n/a
209.752760	2	cue_social_high	n/a	32	7	n/a	n/a	n/a
219.046780	2	cue_social	n/a	16	-9	n/a	n/a	n/a
219.046780	2	cue_social_low	n/a	16	-9	n/a	n/a	n/a
231.426440	2	cue_nonsocial	n/a	16	-9	n/a	n/a	n/a
231.426440	2	cue_nonsocial_low	n/a	16	-9	n/a	n/a	n/a
239.076520	2	cue_nonsocial	n/a	16	-9	n/a	n/a	n/a
239.076520	2	cue_nonsocial_low	n/a	16	-9	n/a	n/a	n/a
245.983000	2	cue_social	n/a	32	7	n/a	n/a	n/a
245.983000	2	cue_social_high	n/a	32	7	n/a	n/a	n/a
252.803300	2	cue_social	n/a	32	7	n/a	n/a	n/a
252.803300	2	cue_social_high	n/a	32	7	n/a	n/a	n/a
262.064580	2	cue_social	n/a	16	-9	n/a	n/a	n/a
262.064580	2	cue_social_low	n/a	16	-9	n/a	n/a	n/a
271.276200	2	cue_nonsocial	n/a	16	-9	n/a	n/a	n/a
271.276200	2	cue_nonsocial_low	n/a	16	-9	n/a	n/a	n/a
278.109560	2	cue_nonsocial	n/a	16	-9	n/a	n/a	n/a
278.109560	2	cue_nonsocial_low	n/a	16	-9	n/a	n/a	n/a
285.006160	2	cue_social	n/a	32	7	n/a	n/a	n/a
285.006160	2	cue_social_high	n/a	32	7	n/a	n/a	n/a
291.776200	2	cue_nonsocial	n/a	16	-9	n/a	n/a	n/a
291.776200	2	cue_nonsocial_low	n/a	16	-9	n/a	n/a	n/a
298.609600	2	cue_nonsocial	n/a	32	7	n/a	n/a	n/a
298.609600	2	cue_nonsocial_high	n/a	32	7	n/a	n/a	n/a
305.547600	2	cue_social	n/a	16	-9	n/a	n/a	n/a
305.547600	2	cue_social_low	n/a	16	-9	n/a	n/a	n/a
312.276030	2	cue_nonsocial	n/a	32	7	n/a	n/a	n/a
312.276030	2	cue_nonsocial_high	n/a	32	7	n/a	n/a	n/a
319.109500	2	cue_nonsocial	n/a	32	7	n/a	n/a	n/a
319.109500	2	cue_nonsocial_high	n/a	32	7	n/a	n/a	n/a
326.777370	2	cue_social	n/a	16	-9	n/a	n/a	n/a
326.777370	2	cue_social_low	n/a	16	-9	n/a	n/a	n/a
333.687100	2	cue_social	n/a	16	-9	n/a	n/a	n/a
333.687100	2	cue_social_low	n/a	16	-9	n/a	n/a	n/a
340.495500	2	cue_social	n/a	32	7	n/a	n/a	n/a
340.495500	2	cue_social_high	n/a	32	7	n/a	n/a	n/a
349.749800	2	cue_social	n/a	32	7	n/a	n/a	n/a
349.749800	2	cue_social_high	n/a	32	7	n/a	n/a	n/a
356.509670	2	cue_nonsocial	n/a	32	7	n/a	n/a	n/a
356.509670	2	cue_nonsocial_high	n/a	32	7	n/a	n/a	n/a
364.159520	2	cue_nonsocial	n/a	16	-9	n/a	n/a	n/a
364.159520	2	cue_nonsocial_low	n/a	16	-9	n/a	n/a	n/a
370.992900	2	cue_nonsocial	n/a	32	7	n/a	n/a	n/a
370.992900	2	cue_nonsocial_high	n/a	32	7	n/a	n/a	n/a
6.516717	2.233452	dec_nonsocial_choice	2.233452	32.000000	n/a	8	1.953125e-02	1.953125e-02
6.516717	2.233452	dec_choice	2.233452	32.000000	n/a	8	1.953125e-02	1.953125e-02
6.516717	2.233452	dec_nonsocial_accept	2.233452	32.000000	n/a	8	-1.195652e-01	-1.195652e-01
6.516717	2.233452	dec_accept	2.233452	32.000000	n/a	8	-1.250000e-01	-1.250000e-01
6.516717	2.233452	dec_nonsocial_accept_high	2.233452	32.000000	n/a	8	-1.136364e-01	-1.136364e-01
13.349524	1.450532	dec_social_choice	1.450532	16.000000	n/a	0	0	-2.304688e-01
13.349524	1.450532	dec_choice	1.450532	16.000000	n/a	0	0	-2.304688e-01
13.349524	1.450532	dec_social_reject	1.450532	16.000000	n/a	0	0	-4.000000e-02
13.349524	1.450532	dec_reject	1.450532	16.000000	n/a	0	0	-5.528846e-02
13.349524	1.450532	dec_social_low	1.450532	16.000000	n/a	0	-2.304688e-01	-2.304688e-01
13.349524	1.450532	dec_social_reject_low	1.450532	16.000000	n/a	1	-1.679688e-01	-2.304688e-01
21.000273	2.299996	dec_nonsocial_choice	2.299996	32.000000	n/a	0	0	-2.304688e-01
21.000273	2.299996	dec_choice	2.299996	32.000000	n/a	0	0	-2.304688e-01
21.000273	2.299996	dec_nonsocial_reject	2.299996	32.000000	n/a	0	0	-4.000000e-02
21.000273	2.299996	dec_reject	2.299996	32.000000	n/a	0	0	-2.343750e-02
21.000273	2.299996	dec_nonsocial_reject_low	2.299996	32.000000	n/a	2	-5.528846e-02	-1.177885e-01
28.650333	1.049738	dec_social_choice	1.049738	16.000000	n/a	8	2.695312e-01	2.695312e-01
28.650333	1.049738	dec_choice	1.049738	16.000000	n/a	8	2.695312e-01	2.695312e-01
28.650333	1.049738	dec_social_accept	1.049738	16.000000	n/a	8	1.304348e-01	1.304348e-01
28.650333	1.049738	dec_accept	1.049738	16.000000	n/a	8	1.363636e-01	1.363636e-01
28.650333	1.049738	dec_social_high	1.049738	16.000000	n/a	8	2.695312e-01	2.695312e-01
28.650333	1.049738	dec_social_accept_high	1.049738	16.000000	n/a	8	2.695312e-01	2.695312e-01
35.483932	0.932879	dec_nonsocial_choice	0.932879	32.000000	n/a	16	2.695312e-01	2.695312e-01
35.483932	0.932879	dec_choice	0.932879	32.000000	n/a	16	2.695312e-01	2.695312e-01
35.483932	0.932879	dec_nonsocial_accept	0.932879	32.000000	n/a	16	1.304348e-01	1.304348e-01
35.483932	0.932879	dec_accept	0.932879	32.000000	n/a	16	1.250000e-01	1.250000e-01
35.483932	0.932879	dec_nonsocial_high	0.932879	32.000000	n/a	16	2.695312e-01	2.695312e-01
35.483932	0.932879	dec_nonsocial_accept_high	0.932879	32.000000	n/a	16	1.250000e-01	1.250000e-01
42.316895	0.883575	dec_social_choice	0.883575	16.000000	n/a	0	0	-2.304688e-01
42.316895	0.883575	dec_choice	0.883575	16.000000	n/a	0	0	-2.304688e-01
42.316895	0.883575	dec_social_reject	0.883575	16.000000	n/a	0	0	3.975000e-01
42.316895	0.883575	dec_reject	0.883575	16.000000	n/a	0	0	3.822115e-01
42.316895	0.883575	dec_social_low	0.883575	16.000000	n/a	0	-2.304688e-01	-2.304688e-01
42.316895	0.883575	dec_social_reject_low	0.883575	16.000000	n/a	8	2.695312e-01	-2.304688e-01
49.150158	1.966213	dec_nonsocial_choice	1.966213	32.000000	n/a	0	0	-2.304688e-01
49.150158	1.966213	dec_choice	1.966213	32.000000	n/a	0	0	-2.304688e-01
49.150158	1.966213	dec_nonsocial_reject	1.966213	32.000000	n/a	0	0	-8.750000e-03
49.150158	1.966213	dec_reject	1.966213	32.000000	n/a	0	0	7.812500e-03
49.150158	1.966213	dec_nonsocial_reject_low	1.966213	32.000000	n/a	3	-2.403846e-02	-1.177885e-01
56.800297	1.283142	dec_social_choice	1.283142	32.000000	n/a	8	1.953125e-02	1.953125e-02
56.800297	1.283142	dec_choice	1.283142	32.000000	n/a	8	1.953125e-02	1.953125e-02
56.800297	1.283142	dec_social_accept	1.283142	32.000000	n/a	8	-1.195652e-01	-1.195652e-01
56.800297	1.283142	dec_accept	1.283142	32.000000	n/a	8	-1.136364e-01	-1.136364e-01
56.800297	1.283142	dec_social_high	1.283142	32.000000	n/a	8	1.953125e-02	1.953125e-02
56.800297	1.283142	dec_social_accept_high	1.283142	32.000000	n/a	8	1.953125e-02	1.953125e-02
63.633120	1.333157	dec_social_choice	1.333157	32.000000	n/a	8	1.953125e-02	1.953125e-02
63.633120	1.333157	dec_choice	1.333157	32.000000	n/a	8	1.953125e-02	1.953125e-02
63.633120	1.333157	dec_social_accept	1.333157	32.000000	n/a	8	-1.195652e-01	-1.195652e-01
63.633120	1.333157	dec_accept	1.333157	32.000000	n/a	8	-1.136364e-01	-1.136364e-01
63.633120	1.333157	dec_social_accept_high	1.333157	32.000000	n/a	8	1.953125e-02	1.953125e-02
72.883660	1.033089	dec_nonsocial_choice	1.033089	16.000000	n/a	8	2.695312e-01	2.695312e-01
72.883660	1.033089	dec_choice	1.033089	16.000000	n/a	8	2.695312e-01	2.695312e-01
72.883660	1.033089	dec_nonsocial_accept	1.033089	16.000000	n/a	8	1.304348e-01	1.304348e-01
72.883660	1.033089	dec_accept	1.033089	16.000000	n/a	8	1.250000e-01	1.250000e-01
72.883660	1.033089	dec_nonsocial_accept_high	1.033089	16.000000	n/a	8	1.363636e-01	1.363636e-01
82.134020	1.282733	dec_nonsocial_choice	1.282733	32.000000	n/a	0	0	-2.304688e-01
82.134020	1.282733	dec_choice	1.282733	32.000000	n/a	0	0	-2.304688e-01
82.134020	1.282733	dec_nonsocial_reject	1.282733	32.000000	n/a	0	0	-4.000000e-02
82.134020	1.282733	dec_reject	1.282733	32.000000	n/a	0	0	-2.343750e-02
82.134020	1.282733	dec_nonsocial_low	1.282733	32.000000	n/a	0	-2.304688e-01	-2.304688e-01
82.134020	1.282733	dec_nonsocial_reject_low	1.282733	32.000000	n/a	2	-2.343750e-02	-8.593750e-02
89.783330	1.533473	dec_social_choice	1.533473	32.000000	n/a	0	0	-2.304688e-01
89.783330	1.533473	dec_choice	1.533473	32.000000	n/a	0	0	-2.304688e-01
89.783330	1.533473	dec_social_reject	1.533473	32.000000	n/a	0	0	-4.000000e-02
89.783330	1.533473	dec_reject	1.533473	32.000000	n/a	0	0	-5.528846e-02
89.783330	1.533473	dec_social_reject_low	1.533473	32.000000	n/a	2	-1.679688e-01	-2.304688e-01
97.433030	1.616594	dec_nonsocial_choice	1.616594	16.000000	n/a	0	0	-2.304688e-01
97.433030	1.616594	dec_choice	1.616594	16.000000	n/a	0	0	-2.304688e-01
97.433030	1.616594	dec_nonsocial_reject	1.616594	16.000000	n/a	0	0	2.250000e-02
97.433030	1.616594	dec_reject	1.616594	16.000000	n/a	0	0	3.906250e-02
97.433030	1.616594	dec_nonsocial_reject_low	1.616594	16.000000	n/a	2	7.211538e-03	-1.177885e-01
105.083340	1.883577	dec_nonsocial_choice	1.883577	16.000000	n/a	0	0	-2.304688e-01
105.083340	1.883577	dec_choice	1.883577	16.000000	n/a	0	0	-2.304688e-01
105.083340	1.883577	dec_nonsocial_reject	1.883577	16.000000	n/a	0	0	2.250000e-02
105.083340	1.883577	dec_reject	1.883577	16.000000	n/a	0	0	3.906250e-02
105.083340	1.883577	dec_nonsocial_low	1.883577	16.000000	n/a	0	-2.304688e-01	-2.304688e-01
105.083340	1.883577	dec_nonsocial_reject_low	1.883577	16.000000	n/a	2	3.906250e-02	-8.593750e-02
111.916940	1.299634	dec_nonsocial_choice	1.299634	32.000000	n/a	0	0	-2.304688e-01
111.916940	1.299634	dec_choice	1.299634	32.000000	n/a	0	0	-2.304688e-01
111.916940	1.299634	dec_nonsocial_reject	1.299634	32.000000	n/a	0	0	-4.000000e-02
111.916940	1.299634	dec_reject	1.299634	32.000000	n/a	0	0	-2.343750e-02
111.916940	1.299634	dec_nonsocial_low	1.299634	32.000000	n/a	0	-2.304688e-01	-2.304688e-01
111.916940	1.299634	dec_nonsocial_reject_low	1.299634	32.000000	n/a	2	-2.343750e-02	-8.593750e-02
121.166880	1.033072	dec_nonsocial_choice	1.033072	32.000000	n/a	16	2.695312e-01	2.695312e-01
121.166880	1.033072	dec_choice	1.033072	32.000000	n/a	16	2.695312e-01	2.695312e-01
121.166880	1.033072	dec_nonsocial_accept	1.033072	32.000000	n/a	16	1.304348e-01	1.304348e-01
121.166880	1.033072	dec_accept	1.033072	32.000000	n/a	16	1.250000e-01	1.250000e-01
121.166880	1.033072	dec_nonsocial_high	1.033072	32.000000	n/a	16	2.695312e-01	2.695312e-01
121.166880	1.033072	dec_nonsocial_accept_high	1.033072	32.000000	n/a	16	1.250000e-01	1.250000e-01
128.815930	1.901061	dec_nonsocial_choice	1.901061	16.000000	n/a	4	1.953125e-02	1.953125e-02
128.815930	1.901061	dec_choice	1.901061	16.000000	n/a	4	1.953125e-02	1.953125e-02
128.815930	1.901061	dec_nonsocial_accept	1.901061	16.000000	n/a	4	-1.195652e-01	-1.195652e-01
128.815930	1.901061	dec_accept	1.901061	16.000000	n/a	4	-1.250000e-01	-1.250000e-01
128.815930	1.901061	dec_nonsocial_accept_high	1.901061	16.000000	n/a	4	-1.136364e-01	-1.136364e-01
139.683760	1.149640	dec_social_choice	1.149640	32.000000	n/a	8	1.953125e-02	1.953125e-02
139.683760	1.149640	dec_choice	1.149640	32.000000	n/a	8	1.953125e-02	1.953125e-02
139.683760	1.149640	dec_social_accept	1.149640	32.000000	n/a	8	-1.195652e-01	-1.195652e-01
139.683760	1.149640	dec_accept	1.149640	32.000000	n/a	8	-1.136364e-01	-1.136364e-01
139.683760	1.149640	dec_social_high	1.149640	32.000000	n/a	8	1.953125e-02	1.953125e-02
139.683760	1.149640	dec_social_accept_high	1.149640	32.000000	n/a	8	1.953125e-02	1.953125e-02
146.516590	1.183240	dec_social_choice	1.183240	32.000000	n/a	8	1.953125e-02	1.953125e-02
146.516590	1.183240	dec_choice	1.183240	32.000000	n/a	8	1.953125e-02	1.953125e-02
146.516590	1.183240	dec_social_accept	1.183240	32.000000	n/a	8	-1.195652e-01	-1.195652e-01
146.516590	1.183240	dec_accept	1.183240	32.000000	n/a	8	-1.136364e-01	-1.136364e-01
146.516590	1.183240	dec_social_high	1.183240	32.000000	n/a	8	1.953125e-02	1.953125e-02
146.516590	1.183240	dec_social_accept_high	1.183240	32.000000	n/a	8	1.953125e-02	1.953125e-02
157.383670	1.365970	dec_social_choice	1.365970	32.000000	n/a	0	0	-2.304688e-01
157.383670	1.365970	dec_choice	1.365970	32.000000	n/a	0	0	-2.304688e-01
157.383670	1.365970	dec_social_reject	1.365970	32.000000	n/a	0	0	-8.750000e-03
157.383670	1.365970	dec_reject	1.365970	32.000000	n/a	0	0	-2.403846e-02
157.383670	1.365970	dec_social_reject_low	1.365970	32.000000	n/a	3	-1.367188e-01	-2.304688e-01
164.216770	1.383082	dec_nonsocial_choice	1.383082	16.000000	n/a	0	0	-2.304688e-01
164.216770	1.383082	dec_choice	1.383082	16.000000	n/a	0	0	-2.304688e-01
164.216770	1.383082	dec_nonsocial_reject	1.383082	16.000000	n/a	0	0	2.250000e-02
164.216770	1.383082	dec_reject	1.383082	16.000000	n/a	0	0	3.906250e-02
164.216770	1.383082	dec_nonsocial_low	1.383082	16.000000	n/a	0	-2.304688e-01	-2.304688e-01
164.216770	1.383082	dec_nonsocial_reject_low	1.383082	16.000000	n/a	2	3.906250e-02	-8.593750e-02
175.083400	1.383097	dec_nonsocial_choice	1.383097	32.000000	n/a	0	0	-2.304688e-01
175.083400	1.383097	dec_choice	1.383097	32.000000	n/a	0	0	-2.304688e-01
175.083400	1.383097	dec_nonsocial_reject	1.383097	32.000000	n/a	0	0	-8.750000e-03
175.083400	1.383097	dec_reject	1.383097	32.000000	n/a	0	0	7.812500e-03
175.083400	1.383097	dec_nonsocial_low	1.383097	32.000000	n/a	0	-2.304688e-01	-2.304688e-01
175.083400	1.383097	dec_nonsocial_reject_low	1.383097	32.000000	n/a	3	7.812500e-03	-8.593750e-02
182.732910	1.433515	dec_social_choice	1.433515	16.000000	n/a	0	0	-2.304688e-01
182.732910	1.433515	dec_choice	1.433515	16.000000	n/a	0	0	-2.304688e-01
182.732910	1.433515	dec_social_reject	1.433515	16.000000	n/a	0	0	-4.000000e-02
182.732910	1.433515	dec_reject	1.433515	16.000000	n/a	0	0	-5.528846e-02
182.732910	1.433515	dec_social_reject_low	1.433515	16.000000	n/a	1	-1.679688e-01	-2.304688e-01
189.566040	1.700324	dec_social_choice	1.700324	32.000000	n/a	0	0	-2.304688e-01
189.566040	1.700324	dec_choice	1.700324	32.000000	n/a	0	0	-2.304688e-01
189.566040	1.700324	dec_social_reject	1.700324	32.000000	n/a	0	0	-8.750000e-03
189.566040	1.700324	dec_reject	1.700324	32.000000	n/a	0	0	-2.403846e-02
189.566040	1.700324	dec_social_reject_low	1.700324	32.000000	n/a	3	-1.367188e-01	-2.304688e-01
196.399000	1.267066	dec_social_choice	1.267066	16.000000	n/a	8	2.695312e-01	2.695312e-01
196.399000	1.267066	dec_choice	1.267066	16.000000	n/a	8	2.695312e-01	2.695312e-01
196.399000	1.267066	dec_social_accept	1.267066	16.000000	n/a	8	1.304348e-01	1.304348e-01
196.399000	1.267066	dec_accept	1.267066	16.000000	n/a	8	1.363636e-01	1.363636e-01
196.399000	1.267066	dec_social_accept_high	1.267066	16.000000	n/a	8	2.695312e-01	2.695312e-01
204.049880	0.799843	dec_social_choice	0.799843	32.000000	n/a	8	1.953125e-02	1.953125e-02
204.049880	0.799843	dec_choice	0.799843	32.000000	n/a	8	1.953125e-02	1.953125e-02
204.049880	0.799843	dec_social_accept	0.799843	32.000000	n/a	8	-1.195652e-01	-1.195652e-01
204.049880	0.799843	dec_accept	0.799843	32.000000	n/a	8	-1.136364e-01	-1.136364e-01
204.049880	0.799843	dec_social_accept_high	0.799843	32.000000	n/a	8	1.953125e-02	1.953125e-02
211.698970	2.017054	dec_social_choice	2.017054	32.000000	n/a	8	1.953125e-02	1.953125e-02
211.698970	2.017054	dec_choice	2.017054	32.000000	n/a	8	1.953125e-02	1.953125e-02
211.698970	2.017054	dec_social_accept	2.017054	32.000000	n/a	8	-1.195652e-01	-1.195652e-01
211.698970	2.017054	dec_accept	2.017054	32.000000	n/a	8	-1.136364e-01	-1.136364e-01
211.698970	2.017054	dec_social_accept_high	2.017054	32.000000	n/a	8	1.953125e-02	1.953125e-02
220.948910	1.167078	dec_social_choice	1.167078	16.000000	n/a	0	0	-2.304688e-01
220.948910	1.167078	dec_choice	1.167078	16.000000	n/a	0	0	-2.304688e-01
220.948910	1.167078	dec_social_reject	1.167078	16.000000	n/a	0	0	2.250000e-02
220.948910	1.167078	dec_reject	1.167078	16.000000	n/a	0	0	7.211538e-03
220.948910	1.167078	dec_social_reject_low	1.167078	16.000000	n/a	2	-1.054688e-01	-2.304688e-01
233.433880	0.882659	dec_nonsocial_choice	0.882659	16.000000	n/a	4	1.953125e-02	1.953125e-02
233.433880	0.882659	dec_choice	0.882659	16.000000	n/a	4	1.953125e-02	1.953125e-02
233.433880	0.882659	dec_nonsocial_accept	0.882659	16.000000	n/a	4	-1.195652e-01	-1.195652e-01
233.433880	0.882659	dec_accept	0.882659	16.000000	n/a	4	-1.250000e-01	-1.250000e-01
233.433880	0.882659	dec_nonsocial_accept_high	0.882659	16.000000	n/a	4	-1.136364e-01	-1.136364e-01
241.083970	1.382286	dec_nonsocial_choice	1.382286	16.000000	n/a	4	1.953125e-02	1.953125e-02
241.083970	1.382286	dec_choice	1.382286	16.000000	n/a	4	1.953125e-02	1.953125e-02
241.083970	1.382286	dec_nonsocial_accept	1.382286	16.000000	n/a	4	-1.195652e-01	-1.195652e-01
241.083970	1.382286	dec_accept	1.382286	16.000000	n/a	4	-1.250000e-01	-1.250000e-01
241.083970	1.382286	dec_nonsocial_accept_high	1.382286	16.000000	n/a	4	-1.136364e-01	-1.136364e-01
247.916240	1.100114	dec_social_choice	1.100114	32.000000	n/a	0	0	-2.304688e-01
247.916240	1.100114	dec_choice	1.100114	32.000000	n/a	0	0	-2.304688e-01
247.916240	1.100114	dec_social_reject	1.100114	32.000000	n/a	0	0	-8.750000e-03
247.916240	1.100114	dec_reject	1.100114	32.000000	n/a	0	0	-2.403846e-02
247.916240	1.100114	dec_social_low	1.100114	32.000000	n/a	0	-2.304688e-01	-2.304688e-01
247.916240	1.100114	dec_social_reject_low	1.100114	32.000000	n/a	3	-1.367188e-01	-2.304688e-01
254.749700	1.033381	dec_social_choice	1.033381	32.000000	n/a	0	0	-2.304688e-01
254.749700	1.033381	dec_choice	1.033381	32.000000	n/a	0	0	-2.304688e-01
254.749700	1.033381	dec_social_reject	1.033381	32.000000	n/a	0	0	-4.000000e-02
254.749700	1.033381	dec_reject	1.033381	32.000000	n/a	0	0	-5.528846e-02
254.749700	1.033381	dec_social_reject_low	1.033381	32.000000	n/a	2	-1.679688e-01	-2.304688e-01
264.015930	1.216557	dec_social_choice	1.216557	16.000000	n/a	0	0	-2.304688e-01
264.015930	1.216557	dec_choice	1.216557	16.000000	n/a	0	0	-2.304688e-01
264.015930	1.216557	dec_social_reject	1.216557	16.000000	n/a	0	0	2.250000e-02
264.015930	1.216557	dec_reject	1.216557	16.000000	n/a	0	0	7.211538e-03
264.015930	1.216557	dec_social_low	1.216557	16.000000	n/a	0	-2.304688e-01	-2.304688e-01
264.015930	1.216557	dec_social_reject_low	1.216557	16.000000	n/a	2	-1.054688e-01	-2.304688e-01
273.283050	1.333240	dec_nonsocial_choice	1.333240	16.000000	n/a	0	0	-2.304688e-01
273.283050	1.333240	dec_choice	1.333240	16.000000	n/a	0	0	-2.304688e-01
273.283050	1.333240	dec_nonsocial_reject	1.333240	16.000000	n/a	0	0	-4.000000e-02
273.283050	1.333240	dec_reject	1.333240	16.000000	n/a	0	0	-2.343750e-02
273.283050	1.333240	dec_nonsocial_reject_low	1.333240	16.000000	n/a	1	-5.528846e-02	-1.177885e-01
280.116000	1.250310	dec_nonsocial_choice	1.250310	16.000000	n/a	4	1.953125e-02	1.953125e-02
280.116000	1.250310	dec_choice	1.250310	16.000000	n/a	4	1.953125e-02	1.953125e-02
280.116000	1.250310	dec_nonsocial_accept	1.250310	16.000000	n/a	4	-1.195652e-01	-1.195652e-01
280.116000	1.250310	dec_accept	1.250310	16.000000	n/a	4	-1.250000e-01	-1.250000e-01
280.116000	1.250310	dec_nonsocial_accept_high	1.250310	16.000000	n/a	4	-1.136364e-01	-1.136364e-01
286.948970	1.150621	dec_social_choice	1.150621	32.000000	n/a	16	2.695312e-01	2.695312e-01
286.948970	1.150621	dec_choice	1.150621	32.000000	n/a	16	2.695312e-01	2.695312e-01
286.948970	1.150621	dec_social_accept	1.150621	32.000000	n/a	16	1.304348e-01	1.304348e-01
286.948970	1.150621	dec_accept	1.150621	32.000000	n/a	16	1.363636e-01	1.363636e-01
286.948970	1.150621	dec_social_accept_high	1.150621	32.000000	n/a	16	2.695312e-01	2.695312e-01
293.782870	0.883487	dec_nonsocial_choice	0.883487	16.000000	n/a	8	2.695312e-01	2.695312e-01
293.782870	0.883487	dec_choice	0.883487	16.000000	n/a	8	2.695312e-01	2.695312e-01
293.782870	0.883487	dec_nonsocial_accept	0.883487	16.000000	n/a	8	1.304348e-01	1.304348e-01
293.782870	0.883487	dec_accept	0.883487	16.000000	n/a	8	1.250000e-01	1.250000e-01
293.782870	0.883487	dec_nonsocial_accept_high	0.883487	16.000000	n/a	8	1.363636e-01	1.363636e-01
300.615880	1.016547	dec_nonsocial_choice	1.016547	32.000000	n/a	16	2.695312e-01	2.695312e-01
300.615880	1.016547	dec_choice	1.016547	32.000000	n/a	16	2.695312e-01	2.695312e-01
300.615880	1.016547	dec_nonsocial_accept	1.016547	32.000000	n/a	16	1.304348e-01	1.304348e-01
300.615880	1.016547	dec_accept	1.016547	32.000000	n/a	16	1.250000e-01	1.250000e-01
300.615880	1.016547	dec_nonsocial_high	1.016547	32.000000	n/a	16	2.695312e-01	2.695312e-01
300.615880	1.016547	dec_nonsocial_accept_high	1.016547	32.000000	n/a	16	1.250000e-01	1.250000e-01
307.449280	0.966553	dec_social_choice	0.966553	16.000000	n/a	0	0	-2.304688e-01
307.449280	0.966553	dec_choice	0.966553	16.000000	n/a	0	0	-2.304688e-01
307.449280	0.966553	dec_social_reject	0.966553	16.000000	n/a	0	0	2.250000e-02
307.449280	0.966553	dec_reject	0.966553	16.000000	n/a	0	0	7.211538e-03
307.449280	0.966553	dec_social_reject_low	0.966553	16.000000	n/a	2	-1.054688e-01	-2.304688e-01
314.282100	0.950776	dec_nonsocial_choice	0.950776	32.000000	n/a	0	0	-2.304688e-01
314.282100	0.950776	dec_choice	0.950776	32.000000	n/a	0	0	-2.304688e-01
314.282100	0.950776	dec_nonsocial_reject	0.950776	32.000000	n/a	0	0	-4.000000e-02
314.282100	0.950776	dec_reject	0.950776	32.000000	n/a	0	0	-2.343750e-02
314.282100	0.950776	dec_nonsocial_reject_low	0.950776	32.000000	n/a	2	-5.528846e-02	-1.177885e-01
321.116120	1.583208	dec_nonsocial_choice	1.583208	32.000000	n/a	0	0	-2.304688e-01
321.116120	1.583208	dec_choice	1.583208	32.000000	n/a	0	0	-2.304688e-01
321.116120	1.583208	dec_nonsocial_reject	1.583208	32.000000	n/a	0	0	-8.750000e-03
321.116120	1.583208	dec_reject	1.583208	32.000000	n/a	0	0	7.812500e-03
321.116120	1.583208	dec_nonsocial_reject_low	1.583208	32.000000	n/a	3	-2.403846e-02	-1.177885e-01
328.766940	0.965202	dec_social_choice	0.965202	16.000000	n/a	0	0	-2.304688e-01
328.766940	0.965202	dec_choice	0.965202	16.000000	n/a	0	0	-2.304688e-01
328.766940	0.965202	dec_social_reject	0.965202	16.000000	n/a	0	0	-4.000000e-02
328.766940	0.965202	dec_reject	0.965202	16.000000	n/a	0	0	-5.528846e-02
328.766940	0.965202	dec_social_reject_low	0.965202	16.000000	n/a	1	-1.679688e-01	-2.304688e-01
335.599880	1.315724	dec_social_choice	1.315724	16.000000	n/a	8	2.695312e-01	2.695312e-01
335.599880	1.315724	dec_choice	1.315724	16.000000	n/a	8	2.695312e-01	2.695312e-01
335.599880	1.315724	dec_social_accept	1.315724	16.000000	n/a	8	1.304348e-01	1.304348e-01
335.599880	1.315724	dec_accept	1.315724	16.000000	n/a	8	1.363636e-01	1.363636e-01
335.599880	1.315724	dec_social_high	1.315724	16.000000	n/a	8	2.695312e-01	2.695312e-01
335.599880	1.315724	dec_social_accept_high	1.315724	16.000000	n/a	8	2.695312e-01	2.695312e-01
342.432460	1.133518	dec_social_choice	1.133518	32.000000	n/a	16	2.695312e-01	2.695312e-01
342.432460	1.133518	dec_choice	1.133518	32.000000	n/a	16	2.695312e-01	2.695312e-01
342.432460	1.133518	dec_social_accept	1.133518	32.000000	n/a	16	1.304348e-01	1.304348e-01
342.432460	1.133518	dec_accept	1.133518	32.000000	n/a	16	1.363636e-01	1.363636e-01
342.432460	1.133518	dec_social_high	1.133518	32.000000	n/a	16	2.695312e-01	2.695312e-01
342.432460	1.133518	dec_social_accept_high	1.133518	32.000000	n/a	16	2.695312e-01	2.695312e-01
351.682770	1.032838	dec_social_choice	1.032838	32.000000	n/a	0	0	-2.304688e-01
351.682770	1.032838	dec_choice	1.032838	32.000000	n/a	0	0	-2.304688e-01
351.682770	1.032838	dec_social_reject	1.032838	32.000000	n/a	0	0	-4.000000e-02
351.682770	1.032838	dec_reject	1.032838	32.000000	n/a	0	0	-5.528846e-02
351.682770	1.032838	dec_social_reject_low	1.032838	32.000000	n/a	2	-1.679688e-01	-2.304688e-01
358.516700	1.182483	dec_nonsocial_choice	1.182483	32.000000	n/a	16	2.695312e-01	2.695312e-01
358.516700	1.182483	dec_choice	1.182483	32.000000	n/a	16	2.695312e-01	2.695312e-01
358.516700	1.182483	dec_nonsocial_accept	1.182483	32.000000	n/a	16	1.304348e-01	1.304348e-01
358.516700	1.182483	dec_accept	1.182483	32.000000	n/a	16	1.250000e-01	1.250000e-01
358.516700	1.182483	dec_nonsocial_accept_high	1.182483	32.000000	n/a	16	1.363636e-01	1.363636e-01
366.166600	1.549507	dec_nonsocial_choice	1.549507	16.000000	n/a	0	0	-2.304688e-01
366.166600	1.549507	dec_choice	1.549507	16.000000	n/a	0	0	-2.304688e-01
366.166600	1.549507	dec_nonsocial_reject	1.549507	16.000000	n/a	0	0	-4.000000e-02
366.166600	1.549507	dec_reject	1.549507	16.000000	n/a	0	0	-2.343750e-02
366.166600	1.549507	dec_nonsocial_low	1.549507	16.000000	n/a	0	-2.304688e-01	-2.304688e-01
366.166600	1.549507	dec_nonsocial_reject_low	1.549507	16.000000	n/a	1	-2.343750e-02	-8.593750e-02
372.998700	1.184030	dec_nonsocial_choice	1.184030	32.000000	n/a	8	1.953125e-02	1.953125e-02
372.998700	1.184030	dec_choice	1.184030	32.000000	n/a	8	1.953125e-02	1.953125e-02
372.998700	1.184030	dec_nonsocial_accept	1.184030	32.000000	n/a	8	-1.195652e-01	-1.195652e-01
372.998700	1.184030	dec_accept	1.184030	32.000000	n/a	8	-1.250000e-01	-1.250000e-01
372.998700	1.184030	dec_nonsocial_accept_high	1.184030	32.000000	n/a	8	-1.136364e-01	-1.136364e-01
