TrialNumber,Trialn,TrialType,Partner,Feedback,ITI,ISI,ran,order,studyStart,InitFixOnset,decision_onset,resp,resp_onset,rt,ISI_onset,isi_for_trial,ISI_offset,outcome_val,outcome_onset,outcome_offset,trialDuration,ITIonset,ITIoffset,final_fix_offset
1,1,7,3,1,2.422500e+00,8.075000e-01,1.0,0.0,2.4996698e-06,0.0094419,4.0293827,2.0,6.093151,2.0637684,6.19357,1.4437317,7.6400213,4.0,7.640166,8.249141,4.219758,8.249339,10.674628,--
2,2,1,1,1,8.075000e-01,2.422500e+00,1.0,1.0,--,--,10.680924,2.0,11.626622,0.945698,11.72697,4.176802,15.905759,2.0,15.905875,16.510513,5.8295894,16.510685,17.32101,--
3,3,9,3,3,8.075000e-01,8.075000e-01,1.0,2.0,--,--,17.337347,1.0,19.609844,2.2724955,19.710175,1.2350044,20.948362,2.0,20.948488,21.554092,4.216745,21.55425,22.363968,--
4,4,6,2,3,8.075000e-01,1.615000e+00,1.0,3.0,--,--,22.377594,2.0,23.526709,1.1491141,23.627092,3.165886,26.794973,8.0,26.795088,27.400705,5.0231113,27.400871,28.21097,--
5,5,6,2,3,2.422500e+00,1.615000e+00,1.0,4.0,--,--,28.221264,1.0,29.259703,1.0384381,29.360033,3.276562,32.639,4.0,32.639114,33.243263,5.0219984,33.243427,35.66748,--
6,6,1,1,1,4.037500e+00,1.615000e+00,1.0,5.0,--,--,35.671223,1.0,36.610016,0.938794,36.710365,3.376206,40.088844,7.0,40.088955,40.695,5.0237765,40.69516,44.73497,--
7,7,7,3,1,8.075000e-01,1.615000e+00,1.0,6.0,--,--,44.75086,2.0,46.40979,1.6589308,46.510128,2.6560693,49.16827,3.0,49.168385,49.773064,5.0222073,49.77323,50.582947,--
8,8,4,2,1,2.422500e+00,8.075000e-01,1.0,7.0,--,--,50.59469,2.0,51.743317,1.1486291,51.843693,2.358871,54.20397,4.0,54.204086,54.80869,4.214002,54.80884,57.233334,--
9,9,6,2,3,4.037500e+00,1.615000e+00,1.0,8.0,--,--,57.24395,1.0,58.7943,1.5503529,58.894707,2.764647,61.660973,3.0,61.6611,62.265648,5.021698,62.265797,66.30592,--
10,10,1,1,1,8.075000e-01,8.075000e-01,1.0,9.0,--,--,66.309326,1.0,66.943504,0.6341773,67.04392,2.8733227,69.91951,6.0,69.91964,70.52611,4.2167797,70.526276,71.33594,--
11,11,4,2,1,8.075000e-01,8.075000e-01,1.0,10.0,--,--,71.34741,1.0,72.177376,0.829965,72.27774,2.677535,74.95702,6.0,74.95714,75.56106,4.213648,75.56121,76.37059,--
12,12,9,3,3,8.075000e-01,8.075000e-01,1.0,11.0,--,--,76.386345,1.0,78.3596,1.9732498,78.45997,1.5342503,79.99697,2.0,79.997086,80.60281,4.216466,80.60297,81.412346,--
13,13,7,3,1,8.075000e-01,1.615000e+00,1.0,12.0,--,--,81.42657,2.0,83.49305,2.0664804,83.59344,2.2485194,85.84401,3.0,85.844124,86.44906,5.022489,86.44922,87.2586,--
14,14,8,3,2,4.037500e+00,8.075000e-01,1.0,13.0,--,--,87.272644,2.0,89.5429,2.2702546,89.64325,1.2372454,90.8839,5.0,90.88402,91.491035,4.218386,91.491196,95.532234,--
15,15,3,1,3,4.037500e+00,1.615000e+00,1.0,14.0,--,--,95.53581,1.0,96.47636,0.9405421,96.57672,3.3744578,99.95391,3.0,99.95403,100.55866,5.0228505,100.55883,104.5989,--
16,16,3,1,3,8.075000e-01,1.615000e+00,1.0,15.0,--,--,104.60081,2.0,105.32718,0.7263777,105.42757,3.5886223,109.017914,9.0,109.01805,109.62265,5.0218434,109.62281,110.43197,--
17,17,4,2,1,2.422500e+00,8.075000e-01,1.0,16.0,--,--,110.443504,1.0,111.79283,1.3493246,111.89318,2.1581755,114.052925,8.0,114.05304,114.65877,4.215262,114.65897,117.08411,--
18,18,7,3,1,8.075000e-01,8.075000e-01,1.0,17.0,--,--,117.09973,2.0,117.62627,0.52654,117.72662,2.98096,120.70993,3.0,120.710045,121.314445,4.2147136,121.31461,122.12406,--
19,19,1,1,1,2.422500e+00,2.422500e+00,1.0,18.0,--,--,122.12735,2.0,123.17635,1.0490073,123.27672,4.0734925,127.35258,1.0,127.35269,127.95712,5.8297796,127.957275,130.38152,--
20,20,6,2,3,8.075000e-01,2.422500e+00,1.0,19.0,--,--,130.39284,1.0,131.12627,0.7334215,131.22664,4.3890786,135.61787,2.0,135.618,136.22299,5.8301587,136.22316,137.0329,--
21,21,6,2,3,2.422500e+00,8.075000e-01,1.0,20.0,--,--,137.04344,1.0,137.57646,0.533027,137.67688,2.974473,140.6539,1.0,140.65402,141.25772,4.2142797,141.25787,143.68205,--
22,22,6,2,3,8.075000e-01,1.615000e+00,1.0,21.0,--,--,143.69307,1.0,145.24258,1.549519,145.34293,2.765481,148.10982,3.0,148.10994,148.71408,5.021006,148.71422,149.52486,--
23,23,9,3,3,5.652500e+00,1.615000e+00,1.0,22.0,--,--,149.5406,2.0,151.60953,2.0689235,151.70988,2.2460766,153.95895,8.0,153.95908,154.56264,5.022037,154.5628,160.21783,--
24,24,6,2,3,8.075000e-01,2.422500e+00,1.0,23.0,--,--,160.22902,1.0,161.89278,1.6637597,161.99315,3.4587402,165.45485,3.0,165.45496,166.05862,5.8295927,166.05882,166.86885,--
25,25,9,3,3,8.075000e-01,2.422500e+00,1.0,24.0,--,--,166.88527,2.0,169.15929,2.2740102,169.25964,2.84849,172.11,8.0,172.11012,172.71394,5.8286705,172.71411,173.52388,--
26,26,7,3,1,8.075000e-01,1.615000e+00,1.0,25.0,--,--,173.53809,2.0,175.5093,1.9712045,175.60965,2.3437955,177.95586,3.0,177.95598,178.56297,5.0248737,178.56313,179.3725,--
27,27,2,1,2,2.422500e+00,8.075000e-01,1.0,26.0,--,--,179.37602,1.0,180.00931,0.6332832,180.10968,2.8742168,182.98682,5.0,182.98694,183.59158,4.215569,183.59175,186.01685,--
28,28,1,1,1,8.075000e-01,8.075000e-01,1.0,27.0,--,--,186.01872,1.0,186.6427,0.6239838,186.74304,2.8835163,189.62949,9.0,189.62961,190.23393,4.2152085,190.2341,191.0434,--
29,29,4,2,1,4.037500e+00,1.615000e+00,1.0,28.0,--,--,191.05536,2.0,192.5093,1.453935,192.60965,2.861065,195.47385,3.0,195.47395,196.0787,5.0233436,196.07887,200.11807,--
30,30,3,1,3,8.075000e-01,1.615000e+00,1.0,29.0,--,--,200.1217,1.0,200.64243,0.5207311,200.74281,3.7942688,204.53983,4.0,204.53995,205.1456,5.0239015,205.14575,205.95583,--
31,31,4,2,1,5.652500e+00,8.075000e-01,1.0,30.0,--,--,205.96744,1.0,207.94264,1.9752061,208.04298,1.5322939,209.57797,6.0,209.5781,210.18289,4.2154574,210.18304,215.8374,--
32,32,9,3,3,8.075000e-01,2.422500e+00,1.0,31.0,--,--,215.8528,2.0,217.10944,1.2566313,217.2098,3.8658688,221.0782,7.0,221.07832,221.68289,5.8300953,221.68306,222.49278,--
33,33,3,1,3,7.267500e+00,2.422500e+00,1.0,32.0,--,--,222.49629,1.0,223.5428,1.0465093,223.64317,4.0759907,227.72067,4.0,227.72078,228.33191,5.8356085,228.33205,235.60172,--
34,34,4,2,1,8.075000e-01,2.422500e+00,1.0,33.0,--,--,235.61316,1.0,236.34254,0.7293798,236.44296,4.3931203,240.83876,7.0,240.83887,241.44353,5.830375,241.44368,242.25375,--
35,35,7,3,1,2.422500e+00,2.422500e+00,1.0,34.0,--,--,242.26968,2.0,244.64261,2.372923,244.743,2.749577,247.49484,4.0,247.49495,248.09888,5.8291984,248.09904,250.52339,--
36,36,9,3,3,8.075000e-01,8.075000e-01,1.0,35.0,--,--,250.53757,2.0,252.19255,1.6549932,252.29291,1.8525068,254.14774,9.0,254.14786,254.7525,4.21494,254.75267,255.56192,--
37,37,3,1,3,2.422500e+00,2.422500e+00,1.0,36.0,--,--,255.56558,1.0,256.29272,0.7271456,256.3931,4.3953543,260.79074,1.0,260.79086,261.395,5.8294115,261.39517,263.81976,--
38,38,1,1,1,2.422500e+00,8.075000e-01,1.0,37.0,--,--,263.82162,1.0,264.45932,0.6376956,264.5597,2.8698044,267.43176,9.0,267.43185,268.0365,4.2148876,268.03665,270.46176,--
39,39,3,1,3,4.037500e+00,2.422500e+00,1.0,38.0,--,--,270.46362,2.0,271.40924,0.9456257,271.50964,4.176874,275.68872,8.0,275.68884,276.29385,5.8302145,276.294,280.33337,--
40,40,7,3,1,2.422500e+00,1.615000e+00,1.0,39.0,--,--,280.3488,1.0,282.10904,1.7602434,282.20938,2.5547566,284.76572,8.0,284.76584,285.37048,5.021692,285.37064,287.79483,--
41,41,2,1,2,8.075000e-01,1.615000e+00,1.0,40.0,--,--,287.79773,1.0,288.94244,1.1447184,289.0428,3.1702816,292.21573,5.0,292.21585,292.8208,5.023082,292.82098,293.6307,--
42,42,1,1,1,8.882500e+00,2.422500e+00,1.0,41.0,--,--,293.63257,1.0,295.29208,1.65952,295.39252,3.46298,298.85675,6.0,298.85687,299.46292,5.830351,299.46307,308.34747,--
43,43,5,2,2,8.075000e-01,8.075000e-01,1.0,42.0,--,--,308.359,1.0,309.40912,1.0501276,309.50952,2.4573724,311.96878,5.0,311.9689,312.5736,4.2146077,312.57376,313.38315,--
44,44,5,2,2,2.422500e+00,2.422500e+00,1.0,43.0,--,--,313.39395,1.0,314.9442,1.5502656,315.0446,3.5722344,318.6197,5.0,318.6198,319.2245,5.830529,319.22464,321.6497,--
45,45,6,2,3,8.075000e-01,1.615000e+00,1.0,44.0,--,--,321.6604,2.0,322.3931,0.7326988,322.49353,3.5823011,326.07858,8.0,326.0787,326.6838,5.0234284,326.68396,327.49472,--
46,46,3,1,3,8.075000e-01,1.615000e+00,1.0,45.0,--,--,327.4984,2.0,328.44238,0.9439644,328.54276,3.3710356,331.91647,9.0,331.91656,332.5208,5.0223947,332.52097,333.33038,--
47,47,9,3,3,5.652500e+00,2.422500e+00,1.0,46.0,--,--,333.34595,1.0,335.82568,2.4797196,335.92603,2.6427803,338.57068,3.0,338.57077,339.17453,5.828587,339.17468,344.8291,--
48,48,1,1,1,5.652500e+00,1.615000e+00,1.0,47.0,--,--,344.83203,1.0,346.1764,1.3443713,346.27673,2.9706287,349.24966,7.0,349.24976,349.85477,5.0227375,349.85492,355.50964,--
49,49,8,3,2,8.075000e-01,8.075000e-01,1.0,48.0,--,--,355.5252,2.0,356.77536,1.2501467,356.87567,2.2573533,359.13626,5.0,359.13638,359.74158,4.216375,359.74173,360.55167,--
50,50,9,3,3,8.075000e-01,2.422500e+00,1.0,49.0,--,--,360.56567,2.0,362.64227,2.0765922,362.74268,3.0459077,365.79065,9.0,365.79077,366.39676,5.8310776,366.3969,367.2065,--
51,51,3,1,3,8.075000e-01,8.075000e-01,1.0,50.0,--,--,367.20947,1.0,367.9422,0.7327269,368.04254,2.7747731,370.81952,3.0,370.81964,371.42386,4.2143874,371.42404,372.23346,--
52,52,4,2,1,4.037500e+00,2.422500e+00,1.0,51.0,--,--,372.2448,2.0,373.69196,1.447141,373.79242,3.675359,377.4706,4.0,377.47073,378.07675,5.831918,378.0769,382.11612,--
53,53,4,2,1,7.267500e+00,2.422500e+00,1.0,52.0,--,--,382.12704,1.0,383.2754,1.1483355,383.37573,3.9741645,387.3526,9.0,387.35272,387.95642,5.829366,387.95657,395.22577,--
54,54,7,3,1,2.422500e+00,2.422500e+00,1.0,53.0,--,--,395.24106,2.0,395.8757,0.6346567,395.97604,4.4878435,400.46558,4.0,400.46567,401.07074,5.8296733,401.0709,403.49564,412.00058
