onset	duration	trial_type	response_time	Endowment	Endowment_pmod	Decision	Decision_pmod	Offer_pmod
4.607087	2	cue_social	n/a	32	8	n/a	n/a	n/a
4.607087	2	cue_social_high	n/a	32	7	n/a	n/a	n/a
13.858417	2	cue_social	n/a	32	8	n/a	n/a	n/a
13.858417	2	cue_social_high	n/a	32	7	n/a	n/a	n/a
20.618265	2	cue_nonsocial	n/a	16	-9	n/a	n/a	n/a
20.618265	2	cue_nonsocial_low	n/a	16	-8	n/a	n/a	n/a
27.522852	2	cue_social	n/a	16	-8	n/a	n/a	n/a
27.522852	2	cue_social_low	n/a	16	-9	n/a	n/a	n/a
34.353190	2	cue_social	n/a	32	8	n/a	n/a	n/a
34.353190	2	cue_social_high	n/a	32	7	n/a	n/a	n/a
41.935062	2	cue_nonsocial	n/a	32	7	n/a	n/a	n/a
41.935062	2	cue_nonsocial_high	n/a	32	8	n/a	n/a	n/a
52.898113	2	cue_social	n/a	32	8	n/a	n/a	n/a
52.898113	2	cue_social_high	n/a	32	7	n/a	n/a	n/a
59.635020	2	cue_nonsocial	n/a	16	-9	n/a	n/a	n/a
59.635020	2	cue_nonsocial_low	n/a	16	-8	n/a	n/a	n/a
68.901470	2	cue_nonsocial	n/a	32	7	n/a	n/a	n/a
68.901470	2	cue_nonsocial_high	n/a	32	8	n/a	n/a	n/a
75.812065	2	cue_social	n/a	32	8	n/a	n/a	n/a
75.812065	2	cue_social_high	n/a	32	7	n/a	n/a	n/a
84.984430	2	cue_nonsocial	n/a	16	-9	n/a	n/a	n/a
84.984430	2	cue_nonsocial_low	n/a	16	-8	n/a	n/a	n/a
91.818060	2	cue_nonsocial	n/a	16	-9	n/a	n/a	n/a
91.818060	2	cue_nonsocial_low	n/a	16	-8	n/a	n/a	n/a
98.736050	2	cue_social	n/a	32	8	n/a	n/a	n/a
98.736050	2	cue_social_high	n/a	32	7	n/a	n/a	n/a
107.901050	2	cue_nonsocial	n/a	32	7	n/a	n/a	n/a
107.901050	2	cue_nonsocial_high	n/a	32	8	n/a	n/a	n/a
115.551346	2	cue_nonsocial	n/a	32	7	n/a	n/a	n/a
115.551346	2	cue_nonsocial_high	n/a	32	8	n/a	n/a	n/a
122.465400	2	cue_social	n/a	32	8	n/a	n/a	n/a
122.465400	2	cue_social_high	n/a	32	7	n/a	n/a	n/a
130.111360	2	cue_social	n/a	16	-8	n/a	n/a	n/a
130.111360	2	cue_social_low	n/a	16	-9	n/a	n/a	n/a
137.757520	2	cue_social	n/a	32	8	n/a	n/a	n/a
137.757520	2	cue_social_high	n/a	32	7	n/a	n/a	n/a
144.518360	2	cue_nonsocial	n/a	32	7	n/a	n/a	n/a
144.518360	2	cue_nonsocial_high	n/a	32	8	n/a	n/a	n/a
151.351410	2	cue_nonsocial	n/a	32	7	n/a	n/a	n/a
151.351410	2	cue_nonsocial_high	n/a	32	8	n/a	n/a	n/a
158.184890	2	cue_nonsocial	n/a	32	7	n/a	n/a	n/a
158.184890	2	cue_nonsocial_high	n/a	32	8	n/a	n/a	n/a
169.119380	2	cue_social	n/a	16	-8	n/a	n/a	n/a
169.119380	2	cue_social_low	n/a	16	-9	n/a	n/a	n/a
176.762940	2	cue_social	n/a	16	-8	n/a	n/a	n/a
176.762940	2	cue_social_low	n/a	16	-9	n/a	n/a	n/a
183.609970	2	cue_social	n/a	32	8	n/a	n/a	n/a
183.609970	2	cue_social_high	n/a	32	7	n/a	n/a	n/a
191.184840	2	cue_nonsocial	n/a	16	-9	n/a	n/a	n/a
191.184840	2	cue_nonsocial_low	n/a	16	-8	n/a	n/a	n/a
198.084730	2	cue_social	n/a	16	-8	n/a	n/a	n/a
198.084730	2	cue_social_low	n/a	16	-9	n/a	n/a	n/a
205.668000	2	cue_nonsocial	n/a	32	7	n/a	n/a	n/a
205.668000	2	cue_nonsocial_high	n/a	32	8	n/a	n/a	n/a
212.563520	2	cue_social	n/a	16	-8	n/a	n/a	n/a
212.563520	2	cue_social_low	n/a	16	-9	n/a	n/a	n/a
219.334430	2	cue_nonsocial	n/a	16	-9	n/a	n/a	n/a
219.334430	2	cue_nonsocial_low	n/a	16	-8	n/a	n/a	n/a
231.817800	2	cue_nonsocial	n/a	16	-9	n/a	n/a	n/a
231.817800	2	cue_nonsocial_low	n/a	16	-8	n/a	n/a	n/a
241.067800	2	cue_nonsocial	n/a	32	7	n/a	n/a	n/a
241.067800	2	cue_nonsocial_high	n/a	32	8	n/a	n/a	n/a
248.700680	2	cue_nonsocial	n/a	16	-9	n/a	n/a	n/a
248.700680	2	cue_nonsocial_low	n/a	16	-8	n/a	n/a	n/a
255.534100	2	cue_nonsocial	n/a	32	7	n/a	n/a	n/a
255.534100	2	cue_nonsocial_high	n/a	32	8	n/a	n/a	n/a
262.367650	2	cue_nonsocial	n/a	32	7	n/a	n/a	n/a
262.367650	2	cue_nonsocial_high	n/a	32	8	n/a	n/a	n/a
270.095200	2	cue_social	n/a	32	8	n/a	n/a	n/a
270.095200	2	cue_social_high	n/a	32	7	n/a	n/a	n/a
276.851140	2	cue_nonsocial	n/a	16	-9	n/a	n/a	n/a
276.851140	2	cue_nonsocial_low	n/a	16	-8	n/a	n/a	n/a
283.730870	2	cue_social	n/a	16	-8	n/a	n/a	n/a
283.730870	2	cue_social_low	n/a	16	-9	n/a	n/a	n/a
293.010500	2	cue_social	n/a	16	-8	n/a	n/a	n/a
293.010500	2	cue_social_low	n/a	16	-9	n/a	n/a	n/a
299.784150	2	cue_nonsocial	n/a	16	-9	n/a	n/a	n/a
299.784150	2	cue_nonsocial_low	n/a	16	-8	n/a	n/a	n/a
310.717250	2	cue_social	n/a	16	-8	n/a	n/a	n/a
310.717250	2	cue_social_low	n/a	16	-9	n/a	n/a	n/a
317.484000	2	cue_nonsocial	n/a	32	7	n/a	n/a	n/a
317.484000	2	cue_nonsocial_high	n/a	32	8	n/a	n/a	n/a
326.792500	2	cue_social	n/a	32	8	n/a	n/a	n/a
326.792500	2	cue_social_high	n/a	32	7	n/a	n/a	n/a
334.400270	2	cue_nonsocial	n/a	32	7	n/a	n/a	n/a
334.400270	2	cue_nonsocial_high	n/a	32	8	n/a	n/a	n/a
342.093350	2	cue_social	n/a	32	8	n/a	n/a	n/a
342.093350	2	cue_social_high	n/a	32	7	n/a	n/a	n/a
348.948500	2	cue_social	n/a	16	-8	n/a	n/a	n/a
348.948500	2	cue_social_low	n/a	16	-9	n/a	n/a	n/a
355.717320	2	cue_nonsocial	n/a	32	7	n/a	n/a	n/a
355.717320	2	cue_nonsocial_high	n/a	32	8	n/a	n/a	n/a
363.409300	2	cue_social	n/a	16	-8	n/a	n/a	n/a
363.409300	2	cue_social_low	n/a	16	-9	n/a	n/a	n/a
370.269600	2	cue_social	n/a	16	-8	n/a	n/a	n/a
370.269600	2	cue_social_low	n/a	16	-9	n/a	n/a	n/a
6.525081	1.182854	dec_social_choice	1.182854	32.000000	n/a	16	2.686170e-01	2.686170e-01
6.525081	1.182854	dec_choice	1.182854	32.000000	n/a	16	2.690217e-01	2.690217e-01
6.525081	1.182854	dec_social_accept	1.182854	32.000000	n/a	16	1.317935e-01	1.317935e-01
6.525081	1.182854	dec_accept	1.182854	32.000000	n/a	16	1.000000e-01	1.000000e-01
6.525081	1.182854	dec_social_high	1.182854	32.000000	n/a	16	2.690217e-01	2.690217e-01
6.525081	1.182854	dec_social_accept_high	1.182854	32.000000	n/a	16	2.690217e-01	2.690217e-01
15.791068	0.816781	dec_social_choice	0.816781	32.000000	n/a	0	0	-2.313830e-01
15.791068	0.816781	dec_choice	0.816781	32.000000	n/a	0	0	-2.309783e-01
15.791068	0.816781	dec_social_reject	0.816781	32.000000	n/a	0	0	-6.510417e-03
15.791068	0.816781	dec_reject	0.816781	32.000000	n/a	0	0	-7.211538e-03
15.791068	0.816781	dec_social_reject_low	0.816781	32.000000	n/a	3	-1.372283e-01	-2.309783e-01
22.624020	0.516836	dec_nonsocial_choice	0.516836	16.000000	n/a	8	2.686170e-01	2.686170e-01
22.624020	0.516836	dec_choice	0.516836	16.000000	n/a	8	2.682292e-01	2.682292e-01
22.624020	0.516836	dec_nonsocial_accept	0.516836	16.000000	n/a	8	1.317935e-01	1.317935e-01
22.624020	0.516836	dec_accept	0.516836	16.000000	n/a	8	1.562500e-01	1.562500e-01
22.624020	0.516836	dec_nonsocial_high	0.516836	16.000000	n/a	8	2.682292e-01	2.682292e-01
22.624020	0.516836	dec_nonsocial_accept_high	0.516836	16.000000	n/a	8	1.562500e-01	1.562500e-01
29.456978	0.767209	dec_social_choice	0.767209	16.000000	n/a	0	0	-2.313830e-01
29.456978	0.767209	dec_choice	0.767209	16.000000	n/a	0	0	-2.309783e-01
29.456978	0.767209	dec_social_reject	0.767209	16.000000	n/a	0	0	2.473958e-02
29.456978	0.767209	dec_reject	0.767209	16.000000	n/a	0	0	2.403846e-02
29.456978	0.767209	dec_social_reject_low	0.767209	16.000000	n/a	2	-1.059783e-01	-2.309783e-01
36.291546	0.799825	dec_social_choice	0.799825	32.000000	n/a	16	2.686170e-01	2.686170e-01
36.291546	0.799825	dec_choice	0.799825	32.000000	n/a	16	2.690217e-01	2.690217e-01
36.291546	0.799825	dec_social_accept	0.799825	32.000000	n/a	16	1.317935e-01	1.317935e-01
36.291546	0.799825	dec_accept	0.799825	32.000000	n/a	16	1.000000e-01	1.000000e-01
36.291546	0.799825	dec_social_high	0.799825	32.000000	n/a	16	2.690217e-01	2.690217e-01
36.291546	0.799825	dec_social_accept_high	0.799825	32.000000	n/a	16	2.690217e-01	2.690217e-01
43.940450	0.500581	dec_nonsocial_choice	0.500581	32.000000	n/a	8	1.861702e-02	1.861702e-02
43.940450	0.500581	dec_choice	0.500581	32.000000	n/a	8	1.822917e-02	1.822917e-02
43.940450	0.500581	dec_nonsocial_accept	0.500581	32.000000	n/a	8	-1.182065e-01	-1.182065e-01
43.940450	0.500581	dec_accept	0.500581	32.000000	n/a	8	-9.375000e-02	-9.375000e-02
43.940450	0.500581	dec_nonsocial_high	0.500581	32.000000	n/a	8	1.822917e-02	1.822917e-02
43.940450	0.500581	dec_nonsocial_accept_high	0.500581	32.000000	n/a	8	-9.375000e-02	-9.375000e-02
54.807180	0.533717	dec_social_choice	0.533717	32.000000	n/a	16	2.686170e-01	2.686170e-01
54.807180	0.533717	dec_choice	0.533717	32.000000	n/a	16	2.690217e-01	2.690217e-01
54.807180	0.533717	dec_social_accept	0.533717	32.000000	n/a	16	1.317935e-01	1.317935e-01
54.807180	0.533717	dec_accept	0.533717	32.000000	n/a	16	1.000000e-01	1.000000e-01
54.807180	0.533717	dec_social_high	0.533717	32.000000	n/a	16	2.690217e-01	2.690217e-01
54.807180	0.533717	dec_social_accept_high	0.533717	32.000000	n/a	16	2.690217e-01	2.690217e-01
61.640690	0.866448	dec_nonsocial_choice	0.866448	16.000000	n/a	0	0	-2.313830e-01
61.640690	0.866448	dec_choice	0.866448	16.000000	n/a	0	0	-2.317708e-01
61.640690	0.866448	dec_nonsocial_reject	0.866448	16.000000	n/a	0	0	2.473958e-02
61.640690	0.866448	dec_reject	0.866448	16.000000	n/a	0	0	2.556818e-02
61.640690	0.866448	dec_nonsocial_reject_low	0.866448	16.000000	n/a	2	2.403846e-02	-1.009615e-01
70.907590	0.600518	dec_nonsocial_choice	0.600518	32.000000	n/a	0	0	-2.313830e-01
70.907590	0.600518	dec_choice	0.600518	32.000000	n/a	0	0	-2.317708e-01
70.907590	0.600518	dec_nonsocial_reject	0.600518	32.000000	n/a	0	0	-3.776042e-02
70.907590	0.600518	dec_reject	0.600518	32.000000	n/a	0	0	-3.693182e-02
70.907590	0.600518	dec_nonsocial_reject_low	0.600518	32.000000	n/a	2	-3.846154e-02	-1.009615e-01
77.741020	1.466670	dec_social_choice	1.466670	32.000000	n/a	0	0	-2.313830e-01
77.741020	1.466670	dec_choice	1.466670	32.000000	n/a	0	0	-2.309783e-01
77.741020	1.466670	dec_social_reject	1.466670	32.000000	n/a	0	0	-6.510417e-03
77.741020	1.466670	dec_reject	1.466670	32.000000	n/a	0	0	-7.211538e-03
77.741020	1.466670	dec_social_low	1.466670	32.000000	n/a	0	-2.309783e-01	-2.309783e-01
77.741020	1.466670	dec_social_reject_low	1.466670	32.000000	n/a	3	-1.372283e-01	-2.309783e-01
86.991100	0.649940	dec_nonsocial_choice	0.649940	16.000000	n/a	2	-1.063830e-01	-1.063830e-01
86.991100	0.649940	dec_choice	0.649940	16.000000	n/a	2	-1.067708e-01	-1.067708e-01
86.991100	0.649940	dec_nonsocial_accept	0.649940	16.000000	n/a	2	-2.432065e-01	-2.432065e-01
86.991100	0.649940	dec_accept	0.649940	16.000000	n/a	2	-2.187500e-01	-2.187500e-01
86.991100	0.649940	dec_nonsocial_accept_low	0.649940	16.000000	n/a	2	-2.750000e-01	-2.750000e-01
93.824750	0.765963	dec_nonsocial_choice	0.765963	16.000000	n/a	8	2.686170e-01	2.686170e-01
93.824750	0.765963	dec_choice	0.765963	16.000000	n/a	8	2.682292e-01	2.682292e-01
93.824750	0.765963	dec_nonsocial_accept	0.765963	16.000000	n/a	8	1.317935e-01	1.317935e-01
93.824750	0.765963	dec_accept	0.765963	16.000000	n/a	8	1.562500e-01	1.562500e-01
93.824750	0.765963	dec_nonsocial_accept_high	0.765963	16.000000	n/a	8	1.000000e-01	1.000000e-01
100.656940	0.967507	dec_social_choice	0.967507	32.000000	n/a	0	0	-2.313830e-01
100.656940	0.967507	dec_choice	0.967507	32.000000	n/a	0	0	-2.309783e-01
100.656940	0.967507	dec_social_reject	0.967507	32.000000	n/a	0	0	-3.776042e-02
100.656940	0.967507	dec_reject	0.967507	32.000000	n/a	0	0	-3.846154e-02
100.656940	0.967507	dec_social_low	0.967507	32.000000	n/a	0	-2.309783e-01	-2.309783e-01
100.656940	0.967507	dec_social_reject_low	0.967507	32.000000	n/a	2	-1.684783e-01	-2.309783e-01
109.908980	1.114928	dec_nonsocial_choice	1.114928	32.000000	n/a	0	0	-2.313830e-01
109.908980	1.114928	dec_choice	1.114928	32.000000	n/a	0	0	-2.317708e-01
109.908980	1.114928	dec_nonsocial_reject	1.114928	32.000000	n/a	0	0	-3.776042e-02
109.908980	1.114928	dec_reject	1.114928	32.000000	n/a	0	0	-3.693182e-02
109.908980	1.114928	dec_nonsocial_reject_low	1.114928	32.000000	n/a	2	-3.846154e-02	-1.009615e-01
117.558650	0.815242	dec_nonsocial_choice	0.815242	32.000000	n/a	16	2.686170e-01	2.686170e-01
117.558650	0.815242	dec_choice	0.815242	32.000000	n/a	16	2.682292e-01	2.682292e-01
117.558650	0.815242	dec_nonsocial_accept	0.815242	32.000000	n/a	16	1.317935e-01	1.317935e-01
117.558650	0.815242	dec_accept	0.815242	32.000000	n/a	16	1.562500e-01	1.562500e-01
117.558650	0.815242	dec_nonsocial_high	0.815242	32.000000	n/a	16	2.682292e-01	2.682292e-01
117.558650	0.815242	dec_nonsocial_accept_high	0.815242	32.000000	n/a	16	1.562500e-01	1.562500e-01
124.390280	1.400708	dec_social_choice	1.400708	32.000000	n/a	8	1.861702e-02	1.861702e-02
124.390280	1.400708	dec_choice	1.400708	32.000000	n/a	8	1.902174e-02	1.902174e-02
124.390280	1.400708	dec_social_accept	1.400708	32.000000	n/a	8	-1.182065e-01	-1.182065e-01
124.390280	1.400708	dec_accept	1.400708	32.000000	n/a	8	-1.500000e-01	-1.500000e-01
124.390280	1.400708	dec_social_accept_high	1.400708	32.000000	n/a	8	1.902174e-02	1.902174e-02
132.040340	1.433596	dec_social_choice	1.433596	16.000000	n/a	0	0	-2.313830e-01
132.040340	1.433596	dec_choice	1.433596	16.000000	n/a	0	0	-2.309783e-01
132.040340	1.433596	dec_social_reject	1.433596	16.000000	n/a	0	0	1.497396e-01
132.040340	1.433596	dec_reject	1.433596	16.000000	n/a	0	0	1.490385e-01
132.040340	1.433596	dec_social_reject_low	1.433596	16.000000	n/a	4	1.902174e-02	-2.309783e-01
139.690160	0.817806	dec_social_choice	0.817806	32.000000	n/a	16	2.686170e-01	2.686170e-01
139.690160	0.817806	dec_choice	0.817806	32.000000	n/a	16	2.690217e-01	2.690217e-01
139.690160	0.817806	dec_social_accept	0.817806	32.000000	n/a	16	1.317935e-01	1.317935e-01
139.690160	0.817806	dec_accept	0.817806	32.000000	n/a	16	1.000000e-01	1.000000e-01
139.690160	0.817806	dec_social_high	0.817806	32.000000	n/a	16	2.690217e-01	2.690217e-01
139.690160	0.817806	dec_social_accept_high	0.817806	32.000000	n/a	16	2.690217e-01	2.690217e-01
146.524870	1.415671	dec_nonsocial_choice	1.415671	32.000000	n/a	0	0	-2.313830e-01
146.524870	1.415671	dec_choice	1.415671	32.000000	n/a	0	0	-2.317708e-01
146.524870	1.415671	dec_nonsocial_reject	1.415671	32.000000	n/a	0	0	-3.776042e-02
146.524870	1.415671	dec_reject	1.415671	32.000000	n/a	0	0	-3.693182e-02
146.524870	1.415671	dec_nonsocial_low	1.415671	32.000000	n/a	0	-2.317708e-01	-2.317708e-01
146.524870	1.415671	dec_nonsocial_reject_low	1.415671	32.000000	n/a	2	-3.693182e-02	-9.943182e-02
153.358780	0.865057	dec_nonsocial_choice	0.865057	32.000000	n/a	8	1.861702e-02	1.861702e-02
153.358780	0.865057	dec_choice	0.865057	32.000000	n/a	8	1.822917e-02	1.822917e-02
153.358780	0.865057	dec_nonsocial_accept	0.865057	32.000000	n/a	8	-1.182065e-01	-1.182065e-01
153.358780	0.865057	dec_accept	0.865057	32.000000	n/a	8	-9.375000e-02	-9.375000e-02
153.358780	0.865057	dec_nonsocial_high	0.865057	32.000000	n/a	8	1.822917e-02	1.822917e-02
153.358780	0.865057	dec_nonsocial_accept_high	0.865057	32.000000	n/a	8	-9.375000e-02	-9.375000e-02
160.190080	1.600519	dec_nonsocial_choice	1.600519	32.000000	n/a	3	-1.376330e-01	-1.376330e-01
160.190080	1.600519	dec_choice	1.600519	32.000000	n/a	3	-1.380208e-01	-1.380208e-01
160.190080	1.600519	dec_nonsocial_accept	1.600519	32.000000	n/a	3	-2.744565e-01	-2.744565e-01
160.190080	1.600519	dec_accept	1.600519	32.000000	n/a	3	-2.500000e-01	-2.500000e-01
160.190080	1.600519	dec_nonsocial_accept_low	1.600519	32.000000	n/a	3	-3.062500e-01	-3.062500e-01
171.057600	1.000079	dec_social_choice	1.000079	16.000000	n/a	0	0	-2.313830e-01
171.057600	1.000079	dec_choice	1.000079	16.000000	n/a	0	0	-2.309783e-01
171.057600	1.000079	dec_social_reject	1.000079	16.000000	n/a	0	0	2.473958e-02
171.057600	1.000079	dec_reject	1.000079	16.000000	n/a	0	0	2.403846e-02
171.057600	1.000079	dec_social_reject_low	1.000079	16.000000	n/a	2	-1.059783e-01	-2.309783e-01
178.707920	1.232979	dec_social_choice	1.232979	16.000000	n/a	8	2.686170e-01	2.686170e-01
178.707920	1.232979	dec_choice	1.232979	16.000000	n/a	8	2.690217e-01	2.690217e-01
178.707920	1.232979	dec_social_accept	1.232979	16.000000	n/a	8	1.317935e-01	1.317935e-01
178.707920	1.232979	dec_accept	1.232979	16.000000	n/a	8	1.000000e-01	1.000000e-01
178.707920	1.232979	dec_social_accept_high	1.232979	16.000000	n/a	8	2.690217e-01	2.690217e-01
185.540050	1.233780	dec_social_choice	1.233780	32.000000	n/a	0	0	-2.313830e-01
185.540050	1.233780	dec_choice	1.233780	32.000000	n/a	0	0	-2.309783e-01
185.540050	1.233780	dec_social_reject	1.233780	32.000000	n/a	0	0	-3.776042e-02
185.540050	1.233780	dec_reject	1.233780	32.000000	n/a	0	0	-3.846154e-02
185.540050	1.233780	dec_social_reject_low	1.233780	32.000000	n/a	2	-1.684783e-01	-2.309783e-01
193.189970	1.051342	dec_nonsocial_choice	1.051342	16.000000	n/a	4	1.861702e-02	1.861702e-02
193.189970	1.051342	dec_choice	1.051342	16.000000	n/a	4	1.822917e-02	1.822917e-02
193.189970	1.051342	dec_nonsocial_accept	1.051342	16.000000	n/a	4	-1.182065e-01	-1.182065e-01
193.189970	1.051342	dec_accept	1.051342	16.000000	n/a	4	-9.375000e-02	-9.375000e-02
193.189970	1.051342	dec_nonsocial_accept_high	1.051342	16.000000	n/a	4	-1.500000e-01	-1.500000e-01
200.024020	0.983511	dec_social_choice	0.983511	16.000000	n/a	0	0	-2.313830e-01
200.024020	0.983511	dec_choice	0.983511	16.000000	n/a	0	0	-2.309783e-01
200.024020	0.983511	dec_social_reject	0.983511	16.000000	n/a	0	0	-3.776042e-02
200.024020	0.983511	dec_reject	0.983511	16.000000	n/a	0	0	-3.846154e-02
200.024020	0.983511	dec_social_reject_low	0.983511	16.000000	n/a	1	-1.684783e-01	-2.309783e-01
207.674000	0.966377	dec_nonsocial_choice	0.966377	32.000000	n/a	16	2.686170e-01	2.686170e-01
207.674000	0.966377	dec_choice	0.966377	32.000000	n/a	16	2.682292e-01	2.682292e-01
207.674000	0.966377	dec_nonsocial_accept	0.966377	32.000000	n/a	16	1.317935e-01	1.317935e-01
207.674000	0.966377	dec_accept	0.966377	32.000000	n/a	16	1.562500e-01	1.562500e-01
207.674000	0.966377	dec_nonsocial_high	0.966377	32.000000	n/a	16	2.682292e-01	2.682292e-01
207.674000	0.966377	dec_nonsocial_accept_high	0.966377	32.000000	n/a	16	1.562500e-01	1.562500e-01
214.507890	0.982927	dec_social_choice	0.982927	16.000000	n/a	0	0	-2.313830e-01
214.507890	0.982927	dec_choice	0.982927	16.000000	n/a	0	0	-2.309783e-01
214.507890	0.982927	dec_social_reject	0.982927	16.000000	n/a	0	0	2.473958e-02
214.507890	0.982927	dec_reject	0.982927	16.000000	n/a	0	0	2.403846e-02
214.507890	0.982927	dec_social_low	0.982927	16.000000	n/a	0	-2.309783e-01	-2.309783e-01
214.507890	0.982927	dec_social_reject_low	0.982927	16.000000	n/a	2	-1.059783e-01	-2.309783e-01
221.341050	1.166296	dec_nonsocial_choice	1.166296	16.000000	n/a	0	0	-2.313830e-01
221.341050	1.166296	dec_choice	1.166296	16.000000	n/a	0	0	-2.317708e-01
221.341050	1.166296	dec_nonsocial_reject	1.166296	16.000000	n/a	0	0	2.473958e-02
221.341050	1.166296	dec_reject	1.166296	16.000000	n/a	0	0	2.556818e-02
221.341050	1.166296	dec_nonsocial_reject_low	1.166296	16.000000	n/a	2	2.403846e-02	-1.009615e-01
233.824360	1.749730	dec_nonsocial_choice	1.749730	16.000000	n/a	0	0	-2.313830e-01
233.824360	1.749730	dec_choice	1.749730	16.000000	n/a	0	0	-2.317708e-01
233.824360	1.749730	dec_nonsocial_reject	1.749730	16.000000	n/a	0	0	-3.776042e-02
233.824360	1.749730	dec_reject	1.749730	16.000000	n/a	0	0	-3.693182e-02
233.824360	1.749730	dec_nonsocial_low	1.749730	16.000000	n/a	0	-2.317708e-01	-2.317708e-01
233.824360	1.749730	dec_nonsocial_reject_low	1.749730	16.000000	n/a	1	-3.693182e-02	-9.943182e-02
243.074040	0.933693	dec_nonsocial_choice	0.933693	32.000000	n/a	0	0	-2.313830e-01
243.074040	0.933693	dec_choice	0.933693	32.000000	n/a	0	0	-2.317708e-01
243.074040	0.933693	dec_nonsocial_reject	0.933693	32.000000	n/a	0	0	-3.776042e-02
243.074040	0.933693	dec_reject	0.933693	32.000000	n/a	0	0	-3.693182e-02
243.074040	0.933693	dec_nonsocial_low	0.933693	32.000000	n/a	0	-2.317708e-01	-2.317708e-01
243.074040	0.933693	dec_nonsocial_reject_low	0.933693	32.000000	n/a	2	-3.693182e-02	-9.943182e-02
250.706970	1.050468	dec_nonsocial_choice	1.050468	16.000000	n/a	0	0	-2.313830e-01
250.706970	1.050468	dec_choice	1.050468	16.000000	n/a	0	0	-2.317708e-01
250.706970	1.050468	dec_nonsocial_reject	1.050468	16.000000	n/a	0	0	2.473958e-02
250.706970	1.050468	dec_reject	1.050468	16.000000	n/a	0	0	2.556818e-02
250.706970	1.050468	dec_nonsocial_low	1.050468	16.000000	n/a	0	-2.317708e-01	-2.317708e-01
250.706970	1.050468	dec_nonsocial_reject_low	1.050468	16.000000	n/a	2	2.556818e-02	-9.943182e-02
257.541000	1.765885	dec_nonsocial_choice	1.765885	32.000000	n/a	0	0	-2.313830e-01
257.541000	1.765885	dec_choice	1.765885	32.000000	n/a	0	0	-2.317708e-01
257.541000	1.765885	dec_nonsocial_reject	1.765885	32.000000	n/a	0	0	-6.510417e-03
257.541000	1.765885	dec_reject	1.765885	32.000000	n/a	0	0	-5.681818e-03
257.541000	1.765885	dec_nonsocial_reject_low	1.765885	32.000000	n/a	3	-7.211538e-03	-1.009615e-01
264.375000	1.432263	dec_nonsocial_choice	1.432263	32.000000	n/a	0	0	-2.313830e-01
264.375000	1.432263	dec_choice	1.432263	32.000000	n/a	0	0	-2.317708e-01
264.375000	1.432263	dec_nonsocial_reject	1.432263	32.000000	n/a	0	0	-3.776042e-02
264.375000	1.432263	dec_reject	1.432263	32.000000	n/a	0	0	-3.693182e-02
264.375000	1.432263	dec_nonsocial_low	1.432263	32.000000	n/a	0	-2.317708e-01	-2.317708e-01
264.375000	1.432263	dec_nonsocial_reject_low	1.432263	32.000000	n/a	2	-3.693182e-02	-9.943182e-02
272.023900	0.633082	dec_social_choice	0.633082	32.000000	n/a	0	0	-2.313830e-01
272.023900	0.633082	dec_choice	0.633082	32.000000	n/a	0	0	-2.309783e-01
272.023900	0.633082	dec_social_reject	0.633082	32.000000	n/a	0	0	-3.776042e-02
272.023900	0.633082	dec_reject	0.633082	32.000000	n/a	0	0	-3.846154e-02
272.023900	0.633082	dec_social_reject_low	0.633082	32.000000	n/a	2	-1.684783e-01	-2.309783e-01
278.857360	1.400195	dec_nonsocial_choice	1.400195	16.000000	n/a	4	1.861702e-02	1.861702e-02
278.857360	1.400195	dec_choice	1.400195	16.000000	n/a	4	1.822917e-02	1.822917e-02
278.857360	1.400195	dec_nonsocial_accept	1.400195	16.000000	n/a	4	-1.182065e-01	-1.182065e-01
278.857360	1.400195	dec_accept	1.400195	16.000000	n/a	4	-9.375000e-02	-9.375000e-02
278.857360	1.400195	dec_nonsocial_accept_high	1.400195	16.000000	n/a	4	-1.500000e-01	-1.500000e-01
285.690580	3.766946	missed_trial	3.766946	16.000000	n/a	n/a	n/a	n/a
294.956970	1.116499	dec_social_choice	1.116499	16.000000	n/a	4	1.861702e-02	1.861702e-02
294.956970	1.116499	dec_choice	1.116499	16.000000	n/a	4	1.902174e-02	1.902174e-02
294.956970	1.116499	dec_social_accept	1.116499	16.000000	n/a	4	-1.182065e-01	-1.182065e-01
294.956970	1.116499	dec_accept	1.116499	16.000000	n/a	4	-1.500000e-01	-1.500000e-01
294.956970	1.116499	dec_social_accept_high	1.116499	16.000000	n/a	4	1.902174e-02	1.902174e-02
301.790600	1.383348	dec_nonsocial_choice	1.383348	16.000000	n/a	0	0	-2.313830e-01
301.790600	1.383348	dec_choice	1.383348	16.000000	n/a	0	0	-2.317708e-01
301.790600	1.383348	dec_nonsocial_reject	1.383348	16.000000	n/a	0	0	1.497396e-01
301.790600	1.383348	dec_reject	1.383348	16.000000	n/a	0	0	1.505682e-01
301.790600	1.383348	dec_nonsocial_reject_low	1.383348	16.000000	n/a	4	1.490385e-01	-1.009615e-01
312.657200	1.233173	dec_social_choice	1.233173	16.000000	n/a	0	0	-2.313830e-01
312.657200	1.233173	dec_choice	1.233173	16.000000	n/a	0	0	-2.309783e-01
312.657200	1.233173	dec_social_reject	1.233173	16.000000	n/a	0	0	-3.776042e-02
312.657200	1.233173	dec_reject	1.233173	16.000000	n/a	0	0	-3.846154e-02
312.657200	1.233173	dec_social_low	1.233173	16.000000	n/a	0	-2.309783e-01	-2.309783e-01
312.657200	1.233173	dec_social_reject_low	1.233173	16.000000	n/a	1	-1.684783e-01	-2.309783e-01
319.490630	1.515892	dec_nonsocial_choice	1.515892	32.000000	n/a	8	1.861702e-02	1.861702e-02
319.490630	1.515892	dec_choice	1.515892	32.000000	n/a	8	1.822917e-02	1.822917e-02
319.490630	1.515892	dec_nonsocial_accept	1.515892	32.000000	n/a	8	-1.182065e-01	-1.182065e-01
319.490630	1.515892	dec_accept	1.515892	32.000000	n/a	8	-9.375000e-02	-9.375000e-02
319.490630	1.515892	dec_nonsocial_accept_high	1.515892	32.000000	n/a	8	-1.500000e-01	-1.500000e-01
328.757840	1.765463	dec_social_choice	1.765463	32.000000	n/a	8	1.861702e-02	1.861702e-02
328.757840	1.765463	dec_choice	1.765463	32.000000	n/a	8	1.902174e-02	1.902174e-02
328.757840	1.765463	dec_social_accept	1.765463	32.000000	n/a	8	-1.182065e-01	-1.182065e-01
328.757840	1.765463	dec_accept	1.765463	32.000000	n/a	8	-1.500000e-01	-1.500000e-01
328.757840	1.765463	dec_social_accept_high	1.765463	32.000000	n/a	8	1.902174e-02	1.902174e-02
336.407620	1.299589	dec_nonsocial_choice	1.299589	32.000000	n/a	16	2.686170e-01	2.686170e-01
336.407620	1.299589	dec_choice	1.299589	32.000000	n/a	16	2.682292e-01	2.682292e-01
336.407620	1.299589	dec_nonsocial_accept	1.299589	32.000000	n/a	16	1.317935e-01	1.317935e-01
336.407620	1.299589	dec_accept	1.299589	32.000000	n/a	16	1.562500e-01	1.562500e-01
336.407620	1.299589	dec_nonsocial_accept_high	1.299589	32.000000	n/a	16	1.000000e-01	1.000000e-01
344.057370	1.015813	dec_social_choice	1.015813	32.000000	n/a	0	0	-2.313830e-01
344.057370	1.015813	dec_choice	1.015813	32.000000	n/a	0	0	-2.309783e-01
344.057370	1.015813	dec_social_reject	1.015813	32.000000	n/a	0	0	-3.776042e-02
344.057370	1.015813	dec_reject	1.015813	32.000000	n/a	0	0	-3.846154e-02
344.057370	1.015813	dec_social_low	1.015813	32.000000	n/a	0	-2.309783e-01	-2.309783e-01
344.057370	1.015813	dec_social_reject_low	1.015813	32.000000	n/a	2	-1.684783e-01	-2.309783e-01
350.889700	1.534042	dec_social_choice	1.534042	16.000000	n/a	4	1.861702e-02	1.861702e-02
350.889700	1.534042	dec_choice	1.534042	16.000000	n/a	4	1.902174e-02	1.902174e-02
350.889700	1.534042	dec_social_accept	1.534042	16.000000	n/a	4	-1.182065e-01	-1.182065e-01
350.889700	1.534042	dec_accept	1.534042	16.000000	n/a	4	-1.500000e-01	-1.500000e-01
350.889700	1.534042	dec_social_high	1.534042	16.000000	n/a	4	1.902174e-02	1.902174e-02
350.889700	1.534042	dec_social_accept_high	1.534042	16.000000	n/a	4	1.902174e-02	1.902174e-02
357.723880	1.083271	dec_nonsocial_choice	1.083271	32.000000	n/a	16	2.686170e-01	2.686170e-01
357.723880	1.083271	dec_choice	1.083271	32.000000	n/a	16	2.682292e-01	2.682292e-01
357.723880	1.083271	dec_nonsocial_accept	1.083271	32.000000	n/a	16	1.317935e-01	1.317935e-01
357.723880	1.083271	dec_accept	1.083271	32.000000	n/a	16	1.562500e-01	1.562500e-01
357.723880	1.083271	dec_nonsocial_high	1.083271	32.000000	n/a	16	2.682292e-01	2.682292e-01
357.723880	1.083271	dec_nonsocial_accept_high	1.083271	32.000000	n/a	16	1.562500e-01	1.562500e-01
365.373900	0.933309	dec_social_choice	0.933309	16.000000	n/a	0	0	-2.313830e-01
365.373900	0.933309	dec_choice	0.933309	16.000000	n/a	0	0	-2.309783e-01
365.373900	0.933309	dec_social_reject	0.933309	16.000000	n/a	0	0	2.473958e-02
365.373900	0.933309	dec_reject	0.933309	16.000000	n/a	0	0	2.403846e-02
365.373900	0.933309	dec_social_low	0.933309	16.000000	n/a	0	-2.309783e-01	-2.309783e-01
365.373900	0.933309	dec_social_reject_low	0.933309	16.000000	n/a	2	-1.059783e-01	-2.309783e-01
372.206360	1.016958	dec_social_choice	1.016958	16.000000	n/a	8	2.686170e-01	2.686170e-01
372.206360	1.016958	dec_choice	1.016958	16.000000	n/a	8	2.690217e-01	2.690217e-01
372.206360	1.016958	dec_social_accept	1.016958	16.000000	n/a	8	1.317935e-01	1.317935e-01
372.206360	1.016958	dec_accept	1.016958	16.000000	n/a	8	1.000000e-01	1.000000e-01
372.206360	1.016958	dec_social_accept_high	1.016958	16.000000	n/a	8	2.690217e-01	2.690217e-01
