TrialNumber,nTrial,Block,Endowment,ITI,ISI,L_Option,R_Option,ran,order,cue_Onset,endowment_onset,endowment_offset,ISI_onset,ISI_offset,decision_onset,resp,rt,resp_onset,decision_offset,trialDuration,ITIonset,ITIoffset
1,1,2,32,0.5575,1,0,8,1.0,0.0,4.504327,5.493265,5.510779,5.5109534,6.510936,6.5111055,2.0,3.000189,9.511294,10.277414,3.7669327,10.278163,10.836836
2,2,3,16,0.5575,1,8,0,1.0,1.0,11.4015255,12.326815,12.343789,12.343864,13.344507,13.344658,1.0,1.1830726,14.52773,17.11184,3.767738,17.112505,17.672255
3,3,2,32,0.5575,1,3,0,1.0,2.0,18.172455,19.160051,19.1772,19.177326,20.17709,20.177244,1.0,1.1833245,21.360567,23.944136,3.7674382,23.94479,24.503752
4,4,2,16,0.5575,1,4,0,1.0,3.0,25.004267,25.993282,26.010462,26.010569,27.011057,27.011204,1.0,1.2331886,28.244392,30.777193,3.766576,30.777884,31.337671
5,5,2,32,4.595,1,3,0,1.0,4.0,31.83746,32.826614,32.84374,32.84382,33.84393,33.844074,1.0,1.0661911,34.910263,37.610893,3.7673473,37.61154,42.20843
6,6,3,32,2.98,1,0,8,1.0,5.0,42.765827,43.693546,43.71085,43.711006,44.71084,44.710983,1.0,0.6158915,45.326874,48.478443,3.7680078,48.4791,51.460865
7,7,2,32,0.5575,1,16,0,1.0,6.0,51.97113,52.95989,52.977028,52.9771,53.97727,53.977413,1.0,1.2833838,55.260796,57.74402,3.767234,57.744755,58.304836
8,8,2,32,0.5575,1,0,3,1.0,7.0,58.803974,59.793213,59.81051,59.81064,60.81085,60.810993,2.0,2.783175,63.59417,64.577774,3.7673254,64.57843,65.13749
9,9,3,32,2.98,1,2,0,1.0,8.0,65.706825,66.62651,66.643654,66.64374,67.64393,67.64407,1.0,2.4503014,70.094376,71.409805,3.7662854,71.41047,74.39183
10,10,2,16,1.365,1,0,8,1.0,9.0,74.88734,75.87686,75.89382,75.89396,76.89473,76.89489,2.0,2.015652,78.91054,80.6625,3.7681766,80.663185,82.030716
11,11,3,32,0.5575,1,0,2,1.0,10.0,82.60715,83.526855,83.54379,83.54392,84.54478,84.54492,2.0,2.09948,86.6444,88.31104,3.7667007,88.31174,88.87084
12,12,2,16,1.365,1,0,2,1.0,11.0,89.37078,90.359886,90.377,90.377075,91.37736,91.3775,2.0,1.2496433,92.62715,95.14414,3.7672412,95.14487,96.51083
13,13,3,32,0.5575,1,0,16,1.0,12.0,97.07921,98.00978,98.027054,98.027145,99.0281,99.028244,2.0,0.8654548,99.8937,102.79578,3.768082,102.79644,103.35549
14,14,2,16,1.365,1,0,1,1.0,13.0,103.85368,104.84311,104.860214,104.86029,105.86095,105.86109,1.0,1.8493469,107.71044,109.62807,3.76755,109.62876,110.99478
15,15,3,32,1.365,1,0,8,1.0,14.0,111.55699,112.493546,112.51029,112.510376,113.51062,113.510765,2.0,1.1160846,114.626854,117.27793,3.7677019,117.27859,118.64465
16,16,3,16,0.5575,1,0,1,1.0,15.0,119.224464,120.14318,120.16066,120.16079,121.16061,121.16074,1.0,1.3660935,122.52684,124.92698,3.7667966,124.92766,125.48671
17,17,2,32,1.365,1,16,0,1.0,16.0,125.98768,126.9769,126.9936,126.993744,127.9947,127.99484,1.0,1.1489756,129.14381,131.762,3.767682,131.76263,133.12866
18,18,2,16,1.365,1,1,0,1.0,17.0,133.63736,134.62642,134.64352,134.6436,135.6437,135.64384,2.0,1.5334649,137.1773,139.41003,3.7667198,139.41068,140.77676
19,19,3,16,0.5575,1,0,8,1.0,18.0,141.33667,142.27692,142.29356,142.2937,143.29381,143.29396,2.0,1.7497346,145.0437,147.06082,3.7674148,147.06148,147.62083
20,20,2,16,0.5575,1,2,0,1.0,19.0,148.12079,149.10965,149.12679,149.12688,150.1268,150.12694,1.0,2.484056,152.611,153.89375,3.7673604,153.89441,154.4536
21,21,2,32,0.5575,1,0,16,1.0,20.0,154.95416,155.9431,155.96017,155.96025,156.95982,156.95998,2.0,1.6667825,158.62675,160.72673,3.7673202,160.7274,161.28781
22,22,3,32,2.98,1,0,3,1.0,21.0,161.87077,162.77676,162.79306,162.79314,163.79385,163.79399,2.0,1.1667604,164.96075,167.55995,3.7665193,167.56065,170.5415
23,23,2,16,2.98,1,4,0,1.0,22.0,171.03732,172.02625,172.04347,172.04355,173.04315,173.0433,1.0,1.3165935,174.3599,176.81128,3.7685275,176.81194,179.79272
24,24,3,16,1.365,1,0,8,1.0,23.0,180.36433,181.2768,181.29306,181.2932,182.29346,182.29361,2.0,0.9832424,183.27686,186.06096,3.767911,186.06163,187.4277
25,25,3,32,0.5575,1,2,0,1.0,24.0,187.9973,188.92636,188.94374,188.94388,189.94386,189.94402,1.0,1.5999469,191.54396,193.71175,3.7683067,193.71242,194.27225
26,26,3,32,0.5575,1,0,3,1.0,25.0,194.87038,195.76009,195.77669,195.77676,196.77692,196.77707,2.0,1.1000242,197.87709,200.54306,3.766572,200.54375,201.1026
27,27,3,32,0.5575,1,3,0,1.0,26.0,201.67496,202.59401,202.60979,202.60992,203.60982,203.60995,1.0,1.0006318,204.61058,207.37585,3.7665284,207.3766,207.93707
28,28,3,16,0.5575,1,0,4,1.0,27.0,208.53554,209.42656,209.44362,209.44376,210.44376,210.44391,2.0,1.4162782,211.86018,214.21161,3.7682214,214.21225,214.77286
29,29,3,16,2.98,1,4,0,1.0,28.0,215.34137,216.25987,216.27678,216.27692,217.27751,217.27766,1.0,1.1826878,218.46034,221.04541,3.7683077,221.04608,224.02692
30,30,3,16,0.5575,1,0,1,1.0,29.0,224.59097,225.52652,225.54326,225.54335,226.54308,226.54323,1.0,1.2169125,227.76015,230.31082,3.7681665,230.31151,230.87148
31,31,2,16,0.5575,1,1,0,1.0,30.0,231.37051,232.35954,232.3765,232.37659,233.37584,233.37598,2.0,1.2011688,234.57715,237.14192,3.7665067,237.14261,237.7015
32,32,3,16,0.5575,1,0,4,1.0,31.0,238.25343,239.19337,239.20995,239.21004,240.21075,240.2109,2.0,1.3158237,241.52672,243.97823,3.7678547,243.97888,244.53893
33,33,2,32,0.5575,1,8,0,1.0,32.0,245.03676,246.02612,246.0437,246.04384,247.0438,247.04393,1.0,1.0330027,248.07693,250.80981,3.7664144,250.81046,251.36957
34,34,3,32,1.365,1,2,0,1.0,33.0,251.92708,252.85922,252.87679,252.87692,253.87782,253.87798,1.0,1.4484282,255.3264,257.64536,3.7679517,257.64603,259.01263
35,35,2,32,1.365,1,2,0,1.0,34.0,259.52032,260.50946,260.52646,260.52652,261.5267,261.52686,1.0,1.4662194,262.99307,265.29385,3.7675362,265.2945,266.66055
36,36,2,16,1.365,1,0,4,1.0,35.0,267.17087,268.15924,268.17703,268.17715,269.17685,269.177,2.0,1.1495894,270.32657,272.9439,3.7674606,272.94455,274.31082
37,37,3,16,0.5575,1,2,0,1.0,36.0,274.8681,275.8099,275.82642,275.8265,276.82663,276.82675,1.0,1.3999432,278.2267,280.59387,3.7676606,280.59454,281.15396
38,38,2,32,1.365,1,3,0,1.0,37.0,281.65335,282.64294,282.66,282.66013,283.6598,283.65994,1.0,0.9504006,284.61035,287.42572,3.766317,287.42636,288.7928
39,39,3,32,0.5575,1,0,3,1.0,38.0,289.37518,290.27682,290.29346,290.2936,291.29285,291.293,2.0,1.1506753,292.4437,295.0596,3.7671633,295.06027,295.6191
40,40,3,16,2.98,1,0,8,1.0,39.0,296.1958,297.10995,297.12634,297.12646,298.1268,298.12695,999.0,999.0,999.0,301.3771,3.767215,301.89432,304.87585
41,41,3,16,4.595,1,2,0,1.0,40.0,305.46304,306.35983,306.3767,306.37686,307.37683,307.37698,1.0,2.8331785,310.21014,311.1438,3.7673924,311.14447,315.7418
42,42,3,16,2.98,1,4,0,1.0,41.0,316.30127,317.22592,317.2429,317.24295,318.24362,318.24377,1.0,0.9330366,319.1768,322.0108,3.7676086,322.0115,324.9935
43,43,2,32,0.5575,1,0,16,1.0,42.0,325.5036,326.49286,326.50986,326.51,327.5108,327.51096,2.0,1.1992096,328.71017,331.2766,3.7661867,331.27725,331.83685
44,44,3,32,1.365,1,0,16,1.0,43.0,332.3984,333.3259,333.343,333.34305,334.34283,334.343,2.0,1.5164858,335.85947,338.11002,3.7675765,338.1107,339.47748
45,45,2,32,4.595,1,2,0,1.0,44.0,339.98672,340.97623,340.99316,340.9933,341.9933,341.99344,1.0,1.683675,343.67712,345.75983,3.7669132,345.76047,350.3568
46,46,2,32,0.5575,1,8,0,1.0,45.0,350.85385,351.84232,351.8596,351.85965,352.85983,352.86,1.0,0.9161267,353.77612,356.62613,3.7667365,356.62686,357.18753
47,47,2,32,1.365,1,2,0,1.0,46.0,357.6866,358.6758,358.69296,358.69305,359.69345,359.6936,1.0,1.5660603,361.25967,363.4602,3.7671454,363.46085,364.82672
48,48,2,32,6.21,1,16,0,1.0,47.0,365.33652,366.3258,366.34286,366.34296,367.34277,367.34293,1.0,1.450138,368.79306,371.1086,3.7662647,371.10928,377.32083
