TrialNumber,nTrial,Block,Endowment,ITI,ISI,L_Option,R_Option,ran,order,cue_Onset,endowment_onset,endowment_offset,ISI_onset,ISI_offset,decision_onset,resp,rt,resp_onset,decision_offset,trialDuration,ITIonset,ITIoffset
1,1,2,16,0.5575,1,0,1,1.0,0.0,4.5058274,5.495218,5.512358,5.512467,6.5127583,6.512935,2.0,1.5996957,8.112631,10.280007,3.7677312,10.280802,10.839649
2,2,3,32,1.365,1,8,0,1.0,1.0,11.440265,12.329055,12.345793,12.345925,13.345661,13.345821,1.0,1.6499947,14.995815,17.112534,3.7672727,17.113209,18.480917
3,3,3,16,1.365,1,0,8,1.0,2.0,19.075197,19.979044,19.99532,19.995447,20.996027,20.996181,2.0,2.082725,23.078905,24.763512,3.7679029,24.7642,26.130531
4,4,2,32,0.5575,1,0,2,1.0,3.0,26.63953,27.628618,27.646011,27.646101,28.645601,28.645744,1.0,2.9501538,31.5959,32.41206,3.7668521,32.41272,32.97262
5,5,2,32,0.5575,1,0,3,1.0,4.0,33.472267,34.461926,34.479294,34.479424,35.47931,35.479458,1.0,1.8995892,37.379047,39.24614,3.7672405,39.246815,39.806133
6,6,2,32,0.5575,1,8,0,1.0,5.0,40.306316,41.295216,41.312325,41.31245,42.312645,42.312798,1.0,1.8997821,44.212578,46.080166,3.7679236,46.080833,46.64002
7,7,2,16,4.595,1,8,0,1.0,6.0,47.139652,48.128395,48.145657,48.14579,49.145985,49.146145,1.0,1.8331431,50.97929,52.912235,3.766649,52.91291,57.509983
8,8,3,32,6.21,1,0,8,1.0,7.0,58.095665,58.995567,59.012154,59.01228,60.011734,60.011894,1.0,2.4343128,62.446205,63.77811,3.7667892,63.778797,69.990555
9,9,3,32,1.365,1,0,2,1.0,8.0,70.58246,71.478966,71.49584,71.49598,72.49646,72.49661,1.0,2.4154966,74.91211,76.263954,3.767918,76.26465,77.63089
10,10,3,16,0.5575,1,0,4,1.0,9.0,78.21227,79.128876,79.14514,79.14527,80.145584,80.145744,2.0,1.7499319,81.895676,83.91375,3.7685676,83.91443,84.47377
11,11,2,16,1.365,1,8,0,1.0,10.0,84.97285,85.96181,85.9789,85.97903,86.97887,86.97903,1.0,1.2834941,88.26253,90.74602,3.767538,90.74667,92.11279
12,12,3,32,2.98,1,2,0,1.0,11.0,92.689026,93.6121,93.62911,93.62926,94.62942,94.629555,2.0,1.9992367,96.62879,98.3959,3.766901,98.396576,101.377625
13,13,2,16,0.5575,1,1,0,1.0,12.0,101.87276,102.86169,102.87878,102.87888,103.87935,103.87951,1.0,1.6159028,105.495415,107.64657,3.7676039,107.647224,108.20698
14,14,2,32,2.98,1,0,3,1.0,13.0,108.705666,109.69535,109.71248,109.71261,110.71294,110.71308,1.0,2.0153453,112.72843,114.48086,3.7683284,114.48152,117.46265
15,15,2,32,4.595,1,16,0,1.0,14.0,117.972664,118.961716,118.97881,118.97894,119.97888,119.97904,1.0,1.5165813,121.49563,123.745705,3.7671952,123.746346,128.34248
16,16,2,16,0.5575,1,4,0,1.0,15.0,128.83942,129.82848,129.8454,129.84552,130.8451,130.84525,1.0,1.3665527,132.21179,134.61284,3.768129,134.61348,135.1723
17,17,3,32,2.98,1,0,3,1.0,16.0,135.76389,136.66232,136.67879,136.67892,137.67978,137.67992,1.0,1.8326534,139.51257,141.44623,3.7668636,141.4469,144.42863
18,18,2,32,0.5575,1,8,0,1.0,17.0,144.93945,145.92831,145.9454,145.94553,146.94598,146.94614,1.0,1.4829503,148.4291,150.71384,3.7682247,150.71448,151.27434
19,19,3,16,0.5575,1,1,0,1.0,18.0,151.89008,152.76187,152.77914,152.77928,153.7794,153.77956,1.0,1.2659221,155.04547,157.5465,3.7675052,157.54716,158.10606
20,20,2,16,0.5575,1,8,0,1.0,19.0,158.60526,159.59494,159.61201,159.6121,160.61305,160.6132,1.0,2.149142,162.76236,164.3806,3.767953,164.38129,164.94022
21,21,3,16,0.5575,1,0,8,1.0,20.0,165.53107,166.4287,166.4454,166.44553,167.44495,167.44511,2.0,2.0014281,169.44653,171.21048,3.7659345,171.21117,171.76997
22,22,3,16,4.595,1,0,2,1.0,21.0,172.3561,173.26198,173.27824,173.27837,174.2788,174.27896,2.0,1.749929,176.02888,178.04605,3.7676673,178.04674,182.64441
23,23,2,32,0.5575,1,0,3,1.0,22.0,183.13875,184.12823,184.14525,184.14537,185.14534,185.14551,1.0,1.4663125,186.61182,188.91293,3.7679906,188.9136,189.47324
24,24,2,32,0.5575,1,0,16,1.0,23.0,189.97256,190.9615,190.97855,190.97868,191.9786,191.97878,2.0,1.3000267,193.2788,195.7449,3.766693,195.74557,196.30495
25,25,3,32,0.5575,1,8,0,1.0,24.0,196.87088,197.7948,197.81189,197.81197,198.81189,198.81203,1.0,2.1002865,200.91232,202.57843,3.7669497,202.5791,203.138
26,26,3,16,0.5575,1,0,8,1.0,25.0,203.699,204.62822,204.64525,204.64534,205.64648,205.64662,2.0,1.4822309,207.12886,209.41267,3.7666192,209.41336,209.97278
27,27,2,32,0.5575,1,2,0,1.0,26.0,210.4724,211.46161,211.4785,211.47858,212.47871,212.47887,2.0,1.8659956,214.34486,216.24707,3.7687607,216.24774,216.807
28,28,3,16,2.98,1,2,0,1.0,27.0,217.37158,218.29474,218.31184,218.31198,219.3119,219.31207,2.0,2.3162374,221.62831,223.07968,3.7681696,223.08035,226.06133
29,29,3,16,2.98,1,2,0,1.0,28.0,226.62993,227.54533,227.56165,227.56178,228.56148,228.56163,2.0,2.1001873,230.6618,232.32784,3.7667592,232.32849,235.30934
30,30,3,32,1.365,1,8,0,1.0,29.0,235.89597,236.79503,236.81168,236.81177,237.8127,237.81285,1.0,1.3326032,239.14545,241.57964,3.767351,241.5803,242.94647
31,31,2,32,0.5575,1,0,2,1.0,30.0,243.45567,244.44469,244.4618,244.46194,245.46242,245.46257,1.0,1.4325874,246.89517,249.22916,3.7671425,249.22983,249.78867
32,32,2,16,1.365,1,8,0,1.0,31.0,250.28912,251.27802,251.2951,251.29524,252.29558,252.29576,1.0,1.5329356,253.82869,256.0629,3.7676978,256.06357,257.43024
33,33,2,32,0.5575,1,2,0,1.0,32.0,257.93915,258.92798,258.94513,258.94525,259.9449,259.94504,2.0,1.6167483,261.5618,263.71274,3.768247,263.7134,264.27283
34,34,3,16,1.365,1,2,0,1.0,33.0,264.84384,265.7618,265.77826,265.77838,266.77887,266.77902,2.0,1.6496284,268.42865,270.546,3.7675562,270.5467,271.9136
35,35,2,16,1.365,1,0,4,1.0,34.0,272.42227,273.41125,273.42834,273.42847,274.42838,274.42853,2.0,2.033436,276.46194,278.1957,3.767751,278.19638,279.56253
36,36,3,16,0.5575,1,0,4,1.0,35.0,280.13123,281.06128,281.07837,281.0785,282.0789,282.07904,2.0,0.9493376,283.02838,285.84586,3.767341,285.8465,286.40558
37,37,2,16,0.5575,1,4,0,1.0,36.0,286.9056,287.89453,287.91162,287.91174,288.91107,288.91122,1.0,1.2340465,290.14526,292.67755,3.766876,292.67822,293.2377
38,38,2,16,1.365,1,2,0,1.0,37.0,293.73883,294.72775,294.7449,294.74496,295.7458,295.74594,2.0,2.2326643,297.9786,299.5133,3.7679186,299.51398,300.8802
39,39,3,32,2.98,1,3,0,1.0,38.0,301.44873,302.37787,302.39496,302.39508,303.39478,303.39493,2.0,1.6502587,305.0452,307.16156,3.7671945,307.16226,310.14352
40,40,3,16,0.5575,1,0,1,1.0,39.0,310.70187,311.62772,311.64514,311.64526,312.64572,312.64587,1.0,1.3828099,314.0287,316.41296,3.7676437,316.41364,316.9728
41,41,3,32,2.98,1,2,0,1.0,40.0,317.57727,318.46115,318.47824,318.47836,319.47897,319.47913,2.0,2.1827724,321.6619,323.24615,3.7676103,323.24686,326.22812
42,42,2,32,0.5575,1,0,3,1.0,41.0,326.73874,327.72806,327.74493,327.74506,328.74576,328.7459,1.0,1.8825408,330.62845,332.5127,3.7673485,332.51337,333.07397
43,43,3,16,1.365,1,0,8,1.0,42.0,333.63223,334.56107,334.5784,334.57852,335.5791,335.57925,2.0,1.4154711,336.99472,339.34674,3.768059,339.3474,340.71338
44,44,2,32,0.5575,1,0,3,1.0,43.0,341.222,342.21106,342.22806,342.22818,343.22888,343.22903,1.0,2.0326533,345.2617,346.99588,3.7674308,346.99658,347.5555
45,45,3,32,1.365,1,2,0,1.0,44.0,348.15723,349.04483,349.0616,349.06177,350.0609,350.06107,2.0,1.9507235,352.01178,353.82718,3.7666564,353.82782,355.19446
46,46,2,32,0.5575,1,0,8,1.0,45.0,355.70502,356.69424,356.71146,356.71152,357.71167,357.71182,2.0,1.6161361,359.32794,361.47894,3.7677078,361.47964,362.0389
47,47,3,32,1.365,1,16,0,1.0,46.0,362.60608,363.52765,363.54465,363.54474,364.54446,364.54462,1.0,1.8667276,366.41135,368.31192,3.767875,368.3126,369.67914
48,48,3,16,1.365,1,8,0,1.0,47.0,370.23737,371.17807,371.19476,371.1949,372.19522,372.1954,1.0,1.9995668,374.19498,375.96143,3.7666101,375.96213,377.3281
