onset	duration	trial_type	response_time	Endowment	Endowment_pmod	Decision	Decision_pmod	Offer_pmod
4.565914	2	cue_social	n/a	32	8	n/a	n/a	n/a
4.565914	2	cue_social_high	n/a	32	7	n/a	n/a	n/a
13.846152	2	cue_social	n/a	32	8	n/a	n/a	n/a
13.846152	2	cue_social_high	n/a	32	7	n/a	n/a	n/a
20.604320	2	cue_nonsocial	n/a	16	-9	n/a	n/a	n/a
20.604320	2	cue_nonsocial_low	n/a	16	-8	n/a	n/a	n/a
27.506697	2	cue_social	n/a	16	-8	n/a	n/a	n/a
27.506697	2	cue_social_low	n/a	16	-9	n/a	n/a	n/a
34.369053	2	cue_social	n/a	32	8	n/a	n/a	n/a
34.369053	2	cue_social_high	n/a	32	7	n/a	n/a	n/a
41.920730	2	cue_nonsocial	n/a	32	7	n/a	n/a	n/a
41.920730	2	cue_nonsocial_high	n/a	32	8	n/a	n/a	n/a
52.867275	2	cue_social	n/a	32	8	n/a	n/a	n/a
52.867275	2	cue_social_high	n/a	32	7	n/a	n/a	n/a
59.621513	2	cue_nonsocial	n/a	16	-9	n/a	n/a	n/a
59.621513	2	cue_nonsocial_low	n/a	16	-8	n/a	n/a	n/a
68.887750	2	cue_nonsocial	n/a	32	7	n/a	n/a	n/a
68.887750	2	cue_nonsocial_high	n/a	32	8	n/a	n/a	n/a
75.794430	2	cue_social	n/a	32	8	n/a	n/a	n/a
75.794430	2	cue_social_high	n/a	32	7	n/a	n/a	n/a
84.971810	2	cue_nonsocial	n/a	16	-9	n/a	n/a	n/a
84.971810	2	cue_nonsocial_low	n/a	16	-8	n/a	n/a	n/a
91.804150	2	cue_nonsocial	n/a	16	-9	n/a	n/a	n/a
91.804150	2	cue_nonsocial_low	n/a	16	-8	n/a	n/a	n/a
98.709530	2	cue_social	n/a	32	8	n/a	n/a	n/a
98.709530	2	cue_social_high	n/a	32	7	n/a	n/a	n/a
107.887380	2	cue_nonsocial	n/a	32	7	n/a	n/a	n/a
107.887380	2	cue_nonsocial_high	n/a	32	8	n/a	n/a	n/a
115.537384	2	cue_nonsocial	n/a	32	7	n/a	n/a	n/a
115.537384	2	cue_nonsocial_high	n/a	32	8	n/a	n/a	n/a
122.424360	2	cue_social	n/a	32	8	n/a	n/a	n/a
122.424360	2	cue_social_high	n/a	32	7	n/a	n/a	n/a
130.071910	2	cue_social	n/a	16	-8	n/a	n/a	n/a
130.071910	2	cue_social_low	n/a	16	-9	n/a	n/a	n/a
137.706200	2	cue_social	n/a	32	8	n/a	n/a	n/a
137.706200	2	cue_social_high	n/a	32	7	n/a	n/a	n/a
144.487150	2	cue_nonsocial	n/a	32	7	n/a	n/a	n/a
144.487150	2	cue_nonsocial_high	n/a	32	8	n/a	n/a	n/a
151.320540	2	cue_nonsocial	n/a	32	7	n/a	n/a	n/a
151.320540	2	cue_nonsocial_high	n/a	32	8	n/a	n/a	n/a
158.153780	2	cue_nonsocial	n/a	32	7	n/a	n/a	n/a
158.153780	2	cue_nonsocial_high	n/a	32	8	n/a	n/a	n/a
169.087200	2	cue_social	n/a	16	-8	n/a	n/a	n/a
169.087200	2	cue_social_low	n/a	16	-9	n/a	n/a	n/a
176.717600	2	cue_social	n/a	16	-8	n/a	n/a	n/a
176.717600	2	cue_social_low	n/a	16	-9	n/a	n/a	n/a
183.565930	2	cue_social	n/a	32	8	n/a	n/a	n/a
183.565930	2	cue_social_high	n/a	32	7	n/a	n/a	n/a
191.136860	2	cue_nonsocial	n/a	16	-9	n/a	n/a	n/a
191.136860	2	cue_nonsocial_low	n/a	16	-8	n/a	n/a	n/a
198.015720	2	cue_social	n/a	16	-8	n/a	n/a	n/a
198.015720	2	cue_social_low	n/a	16	-9	n/a	n/a	n/a
205.620880	2	cue_nonsocial	n/a	32	7	n/a	n/a	n/a
205.620880	2	cue_nonsocial_high	n/a	32	8	n/a	n/a	n/a
212.552780	2	cue_social	n/a	16	-8	n/a	n/a	n/a
212.552780	2	cue_social_low	n/a	16	-9	n/a	n/a	n/a
219.287170	2	cue_nonsocial	n/a	16	-9	n/a	n/a	n/a
219.287170	2	cue_nonsocial_low	n/a	16	-8	n/a	n/a	n/a
231.770480	2	cue_nonsocial	n/a	16	-9	n/a	n/a	n/a
231.770480	2	cue_nonsocial_low	n/a	16	-8	n/a	n/a	n/a
241.020300	2	cue_nonsocial	n/a	32	7	n/a	n/a	n/a
241.020300	2	cue_nonsocial_high	n/a	32	8	n/a	n/a	n/a
248.670030	2	cue_nonsocial	n/a	16	-9	n/a	n/a	n/a
248.670030	2	cue_nonsocial_low	n/a	16	-8	n/a	n/a	n/a
255.503390	2	cue_nonsocial	n/a	32	7	n/a	n/a	n/a
255.503390	2	cue_nonsocial_high	n/a	32	8	n/a	n/a	n/a
262.337300	2	cue_nonsocial	n/a	32	7	n/a	n/a	n/a
262.337300	2	cue_nonsocial_high	n/a	32	8	n/a	n/a	n/a
270.066070	2	cue_social	n/a	32	8	n/a	n/a	n/a
270.066070	2	cue_social_high	n/a	32	7	n/a	n/a	n/a
276.803400	2	cue_nonsocial	n/a	16	-9	n/a	n/a	n/a
276.803400	2	cue_nonsocial_low	n/a	16	-8	n/a	n/a	n/a
283.677340	2	cue_social	n/a	16	-8	n/a	n/a	n/a
283.677340	2	cue_social_low	n/a	16	-9	n/a	n/a	n/a
292.954280	2	cue_social	n/a	16	-8	n/a	n/a	n/a
292.954280	2	cue_social_low	n/a	16	-9	n/a	n/a	n/a
299.737030	2	cue_nonsocial	n/a	16	-9	n/a	n/a	n/a
299.737030	2	cue_nonsocial_low	n/a	16	-8	n/a	n/a	n/a
310.675870	2	cue_social	n/a	16	-8	n/a	n/a	n/a
310.675870	2	cue_social_low	n/a	16	-9	n/a	n/a	n/a
317.436550	2	cue_nonsocial	n/a	32	7	n/a	n/a	n/a
317.436550	2	cue_nonsocial_high	n/a	32	8	n/a	n/a	n/a
326.765500	2	cue_social	n/a	32	8	n/a	n/a	n/a
326.765500	2	cue_social_high	n/a	32	7	n/a	n/a	n/a
334.353500	2	cue_nonsocial	n/a	32	7	n/a	n/a	n/a
334.353500	2	cue_nonsocial_high	n/a	32	8	n/a	n/a	n/a
342.040130	2	cue_social	n/a	32	8	n/a	n/a	n/a
342.040130	2	cue_social_high	n/a	32	7	n/a	n/a	n/a
348.912600	2	cue_social	n/a	16	-8	n/a	n/a	n/a
348.912600	2	cue_social_low	n/a	16	-9	n/a	n/a	n/a
355.669920	2	cue_nonsocial	n/a	32	7	n/a	n/a	n/a
355.669920	2	cue_nonsocial_high	n/a	32	8	n/a	n/a	n/a
363.373260	2	cue_social	n/a	16	-8	n/a	n/a	n/a
363.373260	2	cue_social_low	n/a	16	-9	n/a	n/a	n/a
370.208860	2	cue_social	n/a	16	-8	n/a	n/a	n/a
370.208860	2	cue_social_low	n/a	16	-9	n/a	n/a	n/a
6.511482	3.766946	missed_trial	3.766946	32.000000	n/a	n/a	n/a	n/a
15.777995	1.866769	dec_social_choice	1.866769	32.000000	n/a	3	-1.323138e-01	-1.323138e-01
15.777995	1.866769	dec_choice	1.866769	32.000000	n/a	3	-1.263587e-01	-1.263587e-01
15.777995	1.866769	dec_social_accept	1.866769	32.000000	n/a	3	-1.351902e-01	-1.351902e-01
15.777995	1.866769	dec_accept	1.866769	32.000000	n/a	3	-1.321023e-01	-1.321023e-01
15.777995	1.866769	dec_social_low	1.866769	32.000000	n/a	3	-1.263587e-01	-1.263587e-01
15.777995	1.866769	dec_social_accept_low	1.866769	32.000000	n/a	3	-1.263587e-01	-1.263587e-01
22.610205	2.101061	dec_nonsocial_choice	2.101061	16.000000	n/a	8	2.739362e-01	2.739362e-01
22.610205	2.101061	dec_choice	2.101061	16.000000	n/a	8	2.682292e-01	2.682292e-01
22.610205	2.101061	dec_nonsocial_accept	2.101061	16.000000	n/a	8	2.710598e-01	2.710598e-01
22.610205	2.101061	dec_accept	2.101061	16.000000	n/a	8	2.682292e-01	2.682292e-01
22.610205	2.101061	dec_nonsocial_high	2.101061	16.000000	n/a	8	2.682292e-01	2.682292e-01
22.610205	2.101061	dec_nonsocial_accept_high	2.101061	16.000000	n/a	8	2.682292e-01	2.682292e-01
29.443949	1.584191	dec_social_choice	1.584191	16.000000	n/a	2	-1.010638e-01	-1.010638e-01
29.443949	1.584191	dec_choice	1.584191	16.000000	n/a	2	-9.510870e-02	-9.510870e-02
29.443949	1.584191	dec_social_accept	1.584191	16.000000	n/a	2	-1.039402e-01	-1.039402e-01
29.443949	1.584191	dec_accept	1.584191	16.000000	n/a	2	-1.008523e-01	-1.008523e-01
29.443949	1.584191	dec_social_low	1.584191	16.000000	n/a	2	-9.510870e-02	-9.510870e-02
29.443949	1.584191	dec_social_accept_low	1.584191	16.000000	n/a	2	-9.510870e-02	-9.510870e-02
36.277960	1.349756	dec_social_choice	1.349756	32.000000	n/a	16	2.739362e-01	2.739362e-01
36.277960	1.349756	dec_choice	1.349756	32.000000	n/a	16	2.798913e-01	2.798913e-01
36.277960	1.349756	dec_social_accept	1.349756	32.000000	n/a	16	2.710598e-01	2.710598e-01
36.277960	1.349756	dec_accept	1.349756	32.000000	n/a	16	2.741477e-01	2.741477e-01
36.277960	1.349756	dec_social_high	1.349756	32.000000	n/a	16	2.798913e-01	2.798913e-01
36.277960	1.349756	dec_social_accept_high	1.349756	32.000000	n/a	16	2.798913e-01	2.798913e-01
43.927970	0.950125	dec_nonsocial_choice	0.950125	32.000000	n/a	8	2.393617e-02	2.393617e-02
43.927970	0.950125	dec_choice	0.950125	32.000000	n/a	8	1.822917e-02	1.822917e-02
43.927970	0.950125	dec_nonsocial_accept	0.950125	32.000000	n/a	8	2.105978e-02	2.105978e-02
43.927970	0.950125	dec_accept	0.950125	32.000000	n/a	8	1.822917e-02	1.822917e-02
43.927970	0.950125	dec_nonsocial_high	0.950125	32.000000	n/a	8	1.822917e-02	1.822917e-02
43.927970	0.950125	dec_nonsocial_accept_high	0.950125	32.000000	n/a	8	1.822917e-02	1.822917e-02
54.794956	1.199603	dec_social_choice	1.199603	32.000000	n/a	16	2.739362e-01	2.739362e-01
54.794956	1.199603	dec_choice	1.199603	32.000000	n/a	16	2.798913e-01	2.798913e-01
54.794956	1.199603	dec_social_accept	1.199603	32.000000	n/a	16	2.710598e-01	2.710598e-01
54.794956	1.199603	dec_accept	1.199603	32.000000	n/a	16	2.741477e-01	2.741477e-01
54.794956	1.199603	dec_social_high	1.199603	32.000000	n/a	16	2.798913e-01	2.798913e-01
54.794956	1.199603	dec_social_accept_high	1.199603	32.000000	n/a	16	2.798913e-01	2.798913e-01
61.628520	1.582201	dec_nonsocial_choice	1.582201	16.000000	n/a	2	-1.010638e-01	-1.010638e-01
61.628520	1.582201	dec_choice	1.582201	16.000000	n/a	2	-1.067708e-01	-1.067708e-01
61.628520	1.582201	dec_nonsocial_accept	1.582201	16.000000	n/a	2	-1.039402e-01	-1.039402e-01
61.628520	1.582201	dec_accept	1.582201	16.000000	n/a	2	-1.067708e-01	-1.067708e-01
61.628520	1.582201	dec_nonsocial_low	1.582201	16.000000	n/a	2	-1.067708e-01	-1.067708e-01
61.628520	1.582201	dec_nonsocial_accept_low	1.582201	16.000000	n/a	2	-1.067708e-01	-1.067708e-01
70.894950	1.299492	dec_nonsocial_choice	1.299492	32.000000	n/a	2	-1.635638e-01	-1.635638e-01
70.894950	1.299492	dec_choice	1.299492	32.000000	n/a	2	-1.692708e-01	-1.692708e-01
70.894950	1.299492	dec_nonsocial_accept	1.299492	32.000000	n/a	2	-1.664402e-01	-1.664402e-01
70.894950	1.299492	dec_accept	1.299492	32.000000	n/a	2	-1.692708e-01	-1.692708e-01
70.894950	1.299492	dec_nonsocial_low	1.299492	32.000000	n/a	2	-1.692708e-01	-1.692708e-01
70.894950	1.299492	dec_nonsocial_accept_low	1.299492	32.000000	n/a	2	-1.692708e-01	-1.692708e-01
77.726906	1.617328	dec_social_choice	1.617328	32.000000	n/a	0	0	-2.260638e-01
77.726906	1.617328	dec_choice	1.617328	32.000000	n/a	0	0	-2.201087e-01
77.726906	1.617328	dec_social_reject	1.617328	32.000000	n/a	0	0	4.687500e-02
77.726906	1.617328	dec_reject	1.617328	32.000000	n/a	0	0	0
77.726906	1.617328	dec_social_low	1.617328	32.000000	n/a	0	-2.201087e-01	-2.201087e-01
77.726906	1.617328	dec_social_reject_low	1.617328	32.000000	n/a	3	-1.263587e-01	-2.201087e-01
86.978100	1.499617	dec_nonsocial_choice	1.499617	16.000000	n/a	2	-1.010638e-01	-1.010638e-01
86.978100	1.499617	dec_choice	1.499617	16.000000	n/a	2	-1.067708e-01	-1.067708e-01
86.978100	1.499617	dec_nonsocial_accept	1.499617	16.000000	n/a	2	-1.039402e-01	-1.039402e-01
86.978100	1.499617	dec_accept	1.499617	16.000000	n/a	2	-1.067708e-01	-1.067708e-01
86.978100	1.499617	dec_nonsocial_accept_low	1.499617	16.000000	n/a	2	-1.008523e-01	-1.008523e-01
93.810905	1.783675	dec_nonsocial_choice	1.783675	16.000000	n/a	8	2.739362e-01	2.739362e-01
93.810905	1.783675	dec_choice	1.783675	16.000000	n/a	8	2.682292e-01	2.682292e-01
93.810905	1.783675	dec_nonsocial_accept	1.783675	16.000000	n/a	8	2.710598e-01	2.710598e-01
93.810905	1.783675	dec_accept	1.783675	16.000000	n/a	8	2.682292e-01	2.682292e-01
93.810905	1.783675	dec_nonsocial_accept_high	1.783675	16.000000	n/a	8	2.741477e-01	2.741477e-01
100.643425	0.833731	dec_social_choice	0.833731	32.000000	n/a	2	-1.635638e-01	-1.635638e-01
100.643425	0.833731	dec_choice	0.833731	32.000000	n/a	2	-1.576087e-01	-1.576087e-01
100.643425	0.833731	dec_social_accept	0.833731	32.000000	n/a	2	-1.664402e-01	-1.664402e-01
100.643425	0.833731	dec_accept	0.833731	32.000000	n/a	2	-1.633523e-01	-1.633523e-01
100.643425	0.833731	dec_social_accept_low	0.833731	32.000000	n/a	2	-1.576087e-01	-1.576087e-01
109.894900	2.049444	dec_nonsocial_choice	2.049444	32.000000	n/a	2	-1.635638e-01	-1.635638e-01
109.894900	2.049444	dec_choice	2.049444	32.000000	n/a	2	-1.692708e-01	-1.692708e-01
109.894900	2.049444	dec_nonsocial_accept	2.049444	32.000000	n/a	2	-1.664402e-01	-1.664402e-01
109.894900	2.049444	dec_accept	2.049444	32.000000	n/a	2	-1.692708e-01	-1.692708e-01
109.894900	2.049444	dec_nonsocial_low	2.049444	32.000000	n/a	2	-1.692708e-01	-1.692708e-01
109.894900	2.049444	dec_nonsocial_accept_low	2.049444	32.000000	n/a	2	-1.692708e-01	-1.692708e-01
117.544205	1.183442	dec_nonsocial_choice	1.183442	32.000000	n/a	16	2.739362e-01	2.739362e-01
117.544205	1.183442	dec_choice	1.183442	32.000000	n/a	16	2.682292e-01	2.682292e-01
117.544205	1.183442	dec_nonsocial_accept	1.183442	32.000000	n/a	16	2.710598e-01	2.710598e-01
117.544205	1.183442	dec_accept	1.183442	32.000000	n/a	16	2.682292e-01	2.682292e-01
117.544205	1.183442	dec_nonsocial_high	1.183442	32.000000	n/a	16	2.682292e-01	2.682292e-01
117.544205	1.183442	dec_nonsocial_accept_high	1.183442	32.000000	n/a	16	2.682292e-01	2.682292e-01
124.376945	1.800877	dec_social_choice	1.800877	32.000000	n/a	8	2.393617e-02	2.393617e-02
124.376945	1.800877	dec_choice	1.800877	32.000000	n/a	8	2.989130e-02	2.989130e-02
124.376945	1.800877	dec_social_accept	1.800877	32.000000	n/a	8	2.105978e-02	2.105978e-02
124.376945	1.800877	dec_accept	1.800877	32.000000	n/a	8	2.414773e-02	2.414773e-02
124.376945	1.800877	dec_social_accept_high	1.800877	32.000000	n/a	8	2.989130e-02	2.989130e-02
132.010850	1.650014	dec_social_choice	1.650014	16.000000	n/a	4	2.393617e-02	2.393617e-02
132.010850	1.650014	dec_choice	1.650014	16.000000	n/a	4	2.989130e-02	2.989130e-02
132.010850	1.650014	dec_social_accept	1.650014	16.000000	n/a	4	2.105978e-02	2.105978e-02
132.010850	1.650014	dec_accept	1.650014	16.000000	n/a	4	2.414773e-02	2.414773e-02
132.010850	1.650014	dec_social_high	1.650014	16.000000	n/a	4	2.989130e-02	2.989130e-02
132.010850	1.650014	dec_social_accept_high	1.650014	16.000000	n/a	4	2.989130e-02	2.989130e-02
139.659880	1.667428	dec_social_choice	1.667428	32.000000	n/a	16	2.739362e-01	2.739362e-01
139.659880	1.667428	dec_choice	1.667428	32.000000	n/a	16	2.798913e-01	2.798913e-01
139.659880	1.667428	dec_social_accept	1.667428	32.000000	n/a	16	2.710598e-01	2.710598e-01
139.659880	1.667428	dec_accept	1.667428	32.000000	n/a	16	2.741477e-01	2.741477e-01
139.659880	1.667428	dec_social_high	1.667428	32.000000	n/a	16	2.798913e-01	2.798913e-01
139.659880	1.667428	dec_social_accept_high	1.667428	32.000000	n/a	16	2.798913e-01	2.798913e-01
146.494810	1.115716	dec_nonsocial_choice	1.115716	32.000000	n/a	2	-1.635638e-01	-1.635638e-01
146.494810	1.115716	dec_choice	1.115716	32.000000	n/a	2	-1.692708e-01	-1.692708e-01
146.494810	1.115716	dec_nonsocial_accept	1.115716	32.000000	n/a	2	-1.664402e-01	-1.664402e-01
146.494810	1.115716	dec_accept	1.115716	32.000000	n/a	2	-1.692708e-01	-1.692708e-01
146.494810	1.115716	dec_nonsocial_accept_low	1.115716	32.000000	n/a	2	-1.633523e-01	-1.633523e-01
153.327850	1.382848	dec_nonsocial_choice	1.382848	32.000000	n/a	8	2.393617e-02	2.393617e-02
153.327850	1.382848	dec_choice	1.382848	32.000000	n/a	8	1.822917e-02	1.822917e-02
153.327850	1.382848	dec_nonsocial_accept	1.382848	32.000000	n/a	8	2.105978e-02	2.105978e-02
153.327850	1.382848	dec_accept	1.382848	32.000000	n/a	8	1.822917e-02	1.822917e-02
153.327850	1.382848	dec_nonsocial_high	1.382848	32.000000	n/a	8	1.822917e-02	1.822917e-02
153.327850	1.382848	dec_nonsocial_accept_high	1.382848	32.000000	n/a	8	1.822917e-02	1.822917e-02
160.161040	2.050027	dec_nonsocial_choice	2.050027	32.000000	n/a	3	-1.323138e-01	-1.323138e-01
160.161040	2.050027	dec_choice	2.050027	32.000000	n/a	3	-1.380208e-01	-1.380208e-01
160.161040	2.050027	dec_nonsocial_accept	2.050027	32.000000	n/a	3	-1.351902e-01	-1.351902e-01
160.161040	2.050027	dec_accept	2.050027	32.000000	n/a	3	-1.380208e-01	-1.380208e-01
160.161040	2.050027	dec_nonsocial_accept_low	2.050027	32.000000	n/a	3	-1.321023e-01	-1.321023e-01
171.027860	1.799823	dec_social_choice	1.799823	16.000000	n/a	2	-1.010638e-01	-1.010638e-01
171.027860	1.799823	dec_choice	1.799823	16.000000	n/a	2	-9.510870e-02	-9.510870e-02
171.027860	1.799823	dec_social_accept	1.799823	16.000000	n/a	2	-1.039402e-01	-1.039402e-01
171.027860	1.799823	dec_accept	1.799823	16.000000	n/a	2	-1.008523e-01	-1.008523e-01
171.027860	1.799823	dec_social_low	1.799823	16.000000	n/a	2	-9.510870e-02	-9.510870e-02
171.027860	1.799823	dec_social_accept_low	1.799823	16.000000	n/a	2	-9.510870e-02	-9.510870e-02
178.677830	1.483264	dec_social_choice	1.483264	16.000000	n/a	8	2.739362e-01	2.739362e-01
178.677830	1.483264	dec_choice	1.483264	16.000000	n/a	8	2.798913e-01	2.798913e-01
178.677830	1.483264	dec_social_accept	1.483264	16.000000	n/a	8	2.710598e-01	2.710598e-01
178.677830	1.483264	dec_accept	1.483264	16.000000	n/a	8	2.741477e-01	2.741477e-01
178.677830	1.483264	dec_social_accept_high	1.483264	16.000000	n/a	8	2.798913e-01	2.798913e-01
185.509900	1.267067	dec_social_choice	1.267067	32.000000	n/a	2	-1.635638e-01	-1.635638e-01
185.509900	1.267067	dec_choice	1.267067	32.000000	n/a	2	-1.576087e-01	-1.576087e-01
185.509900	1.267067	dec_social_accept	1.267067	32.000000	n/a	2	-1.664402e-01	-1.664402e-01
185.509900	1.267067	dec_accept	1.267067	32.000000	n/a	2	-1.633523e-01	-1.633523e-01
185.509900	1.267067	dec_social_low	1.267067	32.000000	n/a	2	-1.576087e-01	-1.576087e-01
185.509900	1.267067	dec_social_accept_low	1.267067	32.000000	n/a	2	-1.576087e-01	-1.576087e-01
193.144820	1.515680	dec_nonsocial_choice	1.515680	16.000000	n/a	4	2.393617e-02	2.393617e-02
193.144820	1.515680	dec_choice	1.515680	16.000000	n/a	4	1.822917e-02	1.822917e-02
193.144820	1.515680	dec_nonsocial_accept	1.515680	16.000000	n/a	4	2.105978e-02	2.105978e-02
193.144820	1.515680	dec_accept	1.515680	16.000000	n/a	4	1.822917e-02	1.822917e-02
193.144820	1.515680	dec_nonsocial_accept_high	1.515680	16.000000	n/a	4	2.414773e-02	2.414773e-02
199.977660	1.150215	dec_social_choice	1.150215	16.000000	n/a	1	-1.635638e-01	-1.635638e-01
199.977660	1.150215	dec_choice	1.150215	16.000000	n/a	1	-1.576087e-01	-1.576087e-01
199.977660	1.150215	dec_social_accept	1.150215	16.000000	n/a	1	-1.664402e-01	-1.664402e-01
199.977660	1.150215	dec_accept	1.150215	16.000000	n/a	1	-1.633523e-01	-1.633523e-01
199.977660	1.150215	dec_social_low	1.150215	16.000000	n/a	1	-1.576087e-01	-1.576087e-01
199.977660	1.150215	dec_social_accept_low	1.150215	16.000000	n/a	1	-1.576087e-01	-1.576087e-01
207.627870	1.333031	dec_nonsocial_choice	1.333031	32.000000	n/a	16	2.739362e-01	2.739362e-01
207.627870	1.333031	dec_choice	1.333031	32.000000	n/a	16	2.682292e-01	2.682292e-01
207.627870	1.333031	dec_nonsocial_accept	1.333031	32.000000	n/a	16	2.710598e-01	2.710598e-01
207.627870	1.333031	dec_accept	1.333031	32.000000	n/a	16	2.682292e-01	2.682292e-01
207.627870	1.333031	dec_nonsocial_high	1.333031	32.000000	n/a	16	2.682292e-01	2.682292e-01
207.627870	1.333031	dec_nonsocial_accept_high	1.333031	32.000000	n/a	16	2.682292e-01	2.682292e-01
214.460720	1.782991	dec_social_choice	1.782991	16.000000	n/a	2	-1.010638e-01	-1.010638e-01
214.460720	1.782991	dec_choice	1.782991	16.000000	n/a	2	-9.510870e-02	-9.510870e-02
214.460720	1.782991	dec_social_accept	1.782991	16.000000	n/a	2	-1.039402e-01	-1.039402e-01
214.460720	1.782991	dec_accept	1.782991	16.000000	n/a	2	-1.008523e-01	-1.008523e-01
214.460720	1.782991	dec_social_accept_low	1.782991	16.000000	n/a	2	-9.510870e-02	-9.510870e-02
221.293780	1.466387	dec_nonsocial_choice	1.466387	16.000000	n/a	2	-1.010638e-01	-1.010638e-01
221.293780	1.466387	dec_choice	1.466387	16.000000	n/a	2	-1.067708e-01	-1.067708e-01
221.293780	1.466387	dec_nonsocial_accept	1.466387	16.000000	n/a	2	-1.039402e-01	-1.039402e-01
221.293780	1.466387	dec_accept	1.466387	16.000000	n/a	2	-1.067708e-01	-1.067708e-01
221.293780	1.466387	dec_nonsocial_low	1.466387	16.000000	n/a	2	-1.067708e-01	-1.067708e-01
221.293780	1.466387	dec_nonsocial_accept_low	1.466387	16.000000	n/a	2	-1.067708e-01	-1.067708e-01
233.777770	1.732979	dec_nonsocial_choice	1.732979	16.000000	n/a	1	-1.635638e-01	-1.635638e-01
233.777770	1.732979	dec_choice	1.732979	16.000000	n/a	1	-1.692708e-01	-1.692708e-01
233.777770	1.732979	dec_nonsocial_accept	1.732979	16.000000	n/a	1	-1.664402e-01	-1.664402e-01
233.777770	1.732979	dec_accept	1.732979	16.000000	n/a	1	-1.692708e-01	-1.692708e-01
233.777770	1.732979	dec_nonsocial_accept_low	1.732979	16.000000	n/a	1	-1.633523e-01	-1.633523e-01
243.027860	1.732989	dec_nonsocial_choice	1.732989	32.000000	n/a	2	-1.635638e-01	-1.635638e-01
243.027860	1.732989	dec_choice	1.732989	32.000000	n/a	2	-1.692708e-01	-1.692708e-01
243.027860	1.732989	dec_nonsocial_accept	1.732989	32.000000	n/a	2	-1.664402e-01	-1.664402e-01
243.027860	1.732989	dec_accept	1.732989	32.000000	n/a	2	-1.692708e-01	-1.692708e-01
243.027860	1.732989	dec_nonsocial_accept_low	1.732989	32.000000	n/a	2	-1.633523e-01	-1.633523e-01
250.677750	1.915697	dec_nonsocial_choice	1.915697	16.000000	n/a	2	-1.010638e-01	-1.010638e-01
250.677750	1.915697	dec_choice	1.915697	16.000000	n/a	2	-1.067708e-01	-1.067708e-01
250.677750	1.915697	dec_nonsocial_accept	1.915697	16.000000	n/a	2	-1.039402e-01	-1.039402e-01
250.677750	1.915697	dec_accept	1.915697	16.000000	n/a	2	-1.067708e-01	-1.067708e-01
250.677750	1.915697	dec_nonsocial_accept_low	1.915697	16.000000	n/a	2	-1.008523e-01	-1.008523e-01
257.510620	1.366191	dec_nonsocial_choice	1.366191	32.000000	n/a	3	-1.323138e-01	-1.323138e-01
257.510620	1.366191	dec_choice	1.366191	32.000000	n/a	3	-1.380208e-01	-1.380208e-01
257.510620	1.366191	dec_nonsocial_accept	1.366191	32.000000	n/a	3	-1.351902e-01	-1.351902e-01
257.510620	1.366191	dec_accept	1.366191	32.000000	n/a	3	-1.380208e-01	-1.380208e-01
257.510620	1.366191	dec_nonsocial_low	1.366191	32.000000	n/a	3	-1.380208e-01	-1.380208e-01
257.510620	1.366191	dec_nonsocial_accept_low	1.366191	32.000000	n/a	3	-1.380208e-01	-1.380208e-01
264.342800	1.667387	dec_nonsocial_choice	1.667387	32.000000	n/a	2	-1.635638e-01	-1.635638e-01
264.342800	1.667387	dec_choice	1.667387	32.000000	n/a	2	-1.692708e-01	-1.692708e-01
264.342800	1.667387	dec_nonsocial_accept	1.667387	32.000000	n/a	2	-1.664402e-01	-1.664402e-01
264.342800	1.667387	dec_accept	1.667387	32.000000	n/a	2	-1.692708e-01	-1.692708e-01
264.342800	1.667387	dec_nonsocial_accept_low	1.667387	32.000000	n/a	2	-1.633523e-01	-1.633523e-01
271.976700	1.884192	dec_social_choice	1.884192	32.000000	n/a	2	-1.635638e-01	-1.635638e-01
271.976700	1.884192	dec_choice	1.884192	32.000000	n/a	2	-1.576087e-01	-1.576087e-01
271.976700	1.884192	dec_social_accept	1.884192	32.000000	n/a	2	-1.664402e-01	-1.664402e-01
271.976700	1.884192	dec_accept	1.884192	32.000000	n/a	2	-1.633523e-01	-1.633523e-01
271.976700	1.884192	dec_social_low	1.884192	32.000000	n/a	2	-1.576087e-01	-1.576087e-01
271.976700	1.884192	dec_social_accept_low	1.884192	32.000000	n/a	2	-1.576087e-01	-1.576087e-01
278.810600	1.582988	dec_nonsocial_choice	1.582988	16.000000	n/a	4	2.393617e-02	2.393617e-02
278.810600	1.582988	dec_choice	1.582988	16.000000	n/a	4	1.822917e-02	1.822917e-02
278.810600	1.582988	dec_nonsocial_accept	1.582988	16.000000	n/a	4	2.105978e-02	2.105978e-02
278.810600	1.582988	dec_accept	1.582988	16.000000	n/a	4	1.822917e-02	1.822917e-02
278.810600	1.582988	dec_nonsocial_accept_high	1.582988	16.000000	n/a	4	2.414773e-02	2.414773e-02
285.644700	1.765211	dec_social_choice	1.765211	16.000000	n/a	4	2.393617e-02	2.393617e-02
285.644700	1.765211	dec_choice	1.765211	16.000000	n/a	4	2.989130e-02	2.989130e-02
285.644700	1.765211	dec_social_accept	1.765211	16.000000	n/a	4	2.105978e-02	2.105978e-02
285.644700	1.765211	dec_accept	1.765211	16.000000	n/a	4	2.414773e-02	2.414773e-02
285.644700	1.765211	dec_social_accept_high	1.765211	16.000000	n/a	4	2.989130e-02	2.989130e-02
294.910000	1.483801	dec_social_choice	1.483801	16.000000	n/a	4	2.393617e-02	2.393617e-02
294.910000	1.483801	dec_choice	1.483801	16.000000	n/a	4	2.989130e-02	2.989130e-02
294.910000	1.483801	dec_social_accept	1.483801	16.000000	n/a	4	2.105978e-02	2.105978e-02
294.910000	1.483801	dec_accept	1.483801	16.000000	n/a	4	2.414773e-02	2.414773e-02
294.910000	1.483801	dec_social_accept_high	1.483801	16.000000	n/a	4	2.989130e-02	2.989130e-02
301.743700	1.450190	dec_nonsocial_choice	1.450190	16.000000	n/a	4	2.393617e-02	2.393617e-02
301.743700	1.450190	dec_choice	1.450190	16.000000	n/a	4	1.822917e-02	1.822917e-02
301.743700	1.450190	dec_nonsocial_accept	1.450190	16.000000	n/a	4	2.105978e-02	2.105978e-02
301.743700	1.450190	dec_accept	1.450190	16.000000	n/a	4	1.822917e-02	1.822917e-02
301.743700	1.450190	dec_nonsocial_high	1.450190	16.000000	n/a	4	1.822917e-02	1.822917e-02
301.743700	1.450190	dec_nonsocial_accept_high	1.450190	16.000000	n/a	4	1.822917e-02	1.822917e-02
312.610080	2.517151	dec_social_choice	2.517151	16.000000	n/a	1	-1.635638e-01	-1.635638e-01
312.610080	2.517151	dec_choice	2.517151	16.000000	n/a	1	-1.576087e-01	-1.576087e-01
312.610080	2.517151	dec_social_accept	2.517151	16.000000	n/a	1	-1.664402e-01	-1.664402e-01
312.610080	2.517151	dec_accept	2.517151	16.000000	n/a	1	-1.633523e-01	-1.633523e-01
312.610080	2.517151	dec_social_accept_low	2.517151	16.000000	n/a	1	-1.576087e-01	-1.576087e-01
319.444340	1.465263	dec_nonsocial_choice	1.465263	32.000000	n/a	8	2.393617e-02	2.393617e-02
319.444340	1.465263	dec_choice	1.465263	32.000000	n/a	8	1.822917e-02	1.822917e-02
319.444340	1.465263	dec_nonsocial_accept	1.465263	32.000000	n/a	8	2.105978e-02	2.105978e-02
319.444340	1.465263	dec_accept	1.465263	32.000000	n/a	8	1.822917e-02	1.822917e-02
319.444340	1.465263	dec_nonsocial_accept_high	1.465263	32.000000	n/a	8	2.414773e-02	2.414773e-02
328.710700	1.783083	dec_social_choice	1.783083	32.000000	n/a	8	2.393617e-02	2.393617e-02
328.710700	1.783083	dec_choice	1.783083	32.000000	n/a	8	2.989130e-02	2.989130e-02
328.710700	1.783083	dec_social_accept	1.783083	32.000000	n/a	8	2.105978e-02	2.105978e-02
328.710700	1.783083	dec_accept	1.783083	32.000000	n/a	8	2.414773e-02	2.414773e-02
328.710700	1.783083	dec_social_accept_high	1.783083	32.000000	n/a	8	2.989130e-02	2.989130e-02
336.359620	2.033994	dec_nonsocial_choice	2.033994	32.000000	n/a	16	2.739362e-01	2.739362e-01
336.359620	2.033994	dec_choice	2.033994	32.000000	n/a	16	2.682292e-01	2.682292e-01
336.359620	2.033994	dec_nonsocial_accept	2.033994	32.000000	n/a	16	2.710598e-01	2.710598e-01
336.359620	2.033994	dec_accept	2.033994	32.000000	n/a	16	2.682292e-01	2.682292e-01
336.359620	2.033994	dec_nonsocial_accept_high	2.033994	32.000000	n/a	16	2.741477e-01	2.741477e-01
344.009670	1.283658	dec_social_choice	1.283658	32.000000	n/a	2	-1.635638e-01	-1.635638e-01
344.009670	1.283658	dec_choice	1.283658	32.000000	n/a	2	-1.576087e-01	-1.576087e-01
344.009670	1.283658	dec_social_accept	1.283658	32.000000	n/a	2	-1.664402e-01	-1.664402e-01
344.009670	1.283658	dec_accept	1.283658	32.000000	n/a	2	-1.633523e-01	-1.633523e-01
344.009670	1.283658	dec_social_accept_low	1.283658	32.000000	n/a	2	-1.576087e-01	-1.576087e-01
350.842680	1.017778	dec_social_choice	1.017778	16.000000	n/a	4	2.393617e-02	2.393617e-02
350.842680	1.017778	dec_choice	1.017778	16.000000	n/a	4	2.989130e-02	2.989130e-02
350.842680	1.017778	dec_social_accept	1.017778	16.000000	n/a	4	2.105978e-02	2.105978e-02
350.842680	1.017778	dec_accept	1.017778	16.000000	n/a	4	2.414773e-02	2.414773e-02
350.842680	1.017778	dec_social_high	1.017778	16.000000	n/a	4	2.989130e-02	2.989130e-02
350.842680	1.017778	dec_social_accept_high	1.017778	16.000000	n/a	4	2.989130e-02	2.989130e-02
357.677300	1.233029	dec_nonsocial_choice	1.233029	32.000000	n/a	16	2.739362e-01	2.739362e-01
357.677300	1.233029	dec_choice	1.233029	32.000000	n/a	16	2.682292e-01	2.682292e-01
357.677300	1.233029	dec_nonsocial_accept	1.233029	32.000000	n/a	16	2.710598e-01	2.710598e-01
357.677300	1.233029	dec_accept	1.233029	32.000000	n/a	16	2.682292e-01	2.682292e-01
357.677300	1.233029	dec_nonsocial_high	1.233029	32.000000	n/a	16	2.682292e-01	2.682292e-01
357.677300	1.233029	dec_nonsocial_accept_high	1.233029	32.000000	n/a	16	2.682292e-01	2.682292e-01
365.326660	1.483065	dec_social_choice	1.483065	16.000000	n/a	2	-1.010638e-01	-1.010638e-01
365.326660	1.483065	dec_choice	1.483065	16.000000	n/a	2	-9.510870e-02	-9.510870e-02
365.326660	1.483065	dec_social_accept	1.483065	16.000000	n/a	2	-1.039402e-01	-1.039402e-01
365.326660	1.483065	dec_accept	1.483065	16.000000	n/a	2	-1.008523e-01	-1.008523e-01
365.326660	1.483065	dec_social_accept_low	1.483065	16.000000	n/a	2	-9.510870e-02	-9.510870e-02
372.160430	1.849959	dec_social_choice	1.849959	16.000000	n/a	8	2.739362e-01	2.739362e-01
372.160430	1.849959	dec_choice	1.849959	16.000000	n/a	8	2.798913e-01	2.798913e-01
372.160430	1.849959	dec_social_accept	1.849959	16.000000	n/a	8	2.710598e-01	2.710598e-01
372.160430	1.849959	dec_accept	1.849959	16.000000	n/a	8	2.741477e-01	2.741477e-01
372.160430	1.849959	dec_social_accept_high	1.849959	16.000000	n/a	8	2.798913e-01	2.798913e-01
