onset	duration	trial_type	response_time	Endowment	Endowment_pmod	Decision	Decision_pmod	Offer_pmod
4.512259	2	cue_nonsocial	n/a	32	6	n/a	n/a	n/a
4.512259	2	cue_nonsocial_high	n/a	32	9	n/a	n/a	n/a
11.345738	2	cue_nonsocial	n/a	32	6	n/a	n/a	n/a
11.345738	2	cue_nonsocial_high	n/a	32	9	n/a	n/a	n/a
18.995941	2	cue_nonsocial	n/a	16	-10	n/a	n/a	n/a
18.995941	2	cue_nonsocial_low	n/a	16	-7	n/a	n/a	n/a
25.860498	2	cue_social	n/a	16	-7	n/a	n/a	n/a
25.860498	2	cue_social_low	n/a	16	-10	n/a	n/a	n/a
32.709274	2	cue_social	n/a	16	-7	n/a	n/a	n/a
32.709274	2	cue_social_low	n/a	16	-10	n/a	n/a	n/a
41.912700	2	cue_nonsocial	n/a	32	6	n/a	n/a	n/a
41.912700	2	cue_nonsocial_high	n/a	32	9	n/a	n/a	n/a
49.562300	2	cue_nonsocial	n/a	32	6	n/a	n/a	n/a
49.562300	2	cue_nonsocial_high	n/a	32	9	n/a	n/a	n/a
56.395570	2	cue_nonsocial	n/a	16	-10	n/a	n/a	n/a
56.395570	2	cue_nonsocial_low	n/a	16	-7	n/a	n/a	n/a
65.693620	2	cue_social	n/a	16	-7	n/a	n/a	n/a
65.693620	2	cue_social_low	n/a	16	-10	n/a	n/a	n/a
73.351500	2	cue_social	n/a	32	9	n/a	n/a	n/a
73.351500	2	cue_social_high	n/a	32	6	n/a	n/a	n/a
82.602710	2	cue_social	n/a	16	-7	n/a	n/a	n/a
82.602710	2	cue_social_low	n/a	16	-10	n/a	n/a	n/a
89.395430	2	cue_nonsocial	n/a	32	6	n/a	n/a	n/a
89.395430	2	cue_nonsocial_high	n/a	32	9	n/a	n/a	n/a
96.228850	2	cue_nonsocial	n/a	32	6	n/a	n/a	n/a
96.228850	2	cue_nonsocial_high	n/a	32	9	n/a	n/a	n/a
105.479126	2	cue_nonsocial	n/a	32	6	n/a	n/a	n/a
105.479126	2	cue_nonsocial_high	n/a	32	9	n/a	n/a	n/a
112.312500	2	cue_nonsocial	n/a	32	6	n/a	n/a	n/a
112.312500	2	cue_nonsocial_high	n/a	32	9	n/a	n/a	n/a
121.636880	2	cue_social	n/a	16	-7	n/a	n/a	n/a
121.636880	2	cue_social_low	n/a	16	-10	n/a	n/a	n/a
128.395480	2	cue_nonsocial	n/a	16	-10	n/a	n/a	n/a
128.395480	2	cue_nonsocial_low	n/a	16	-7	n/a	n/a	n/a
139.323760	2	cue_social	n/a	16	-7	n/a	n/a	n/a
139.323760	2	cue_social_low	n/a	16	-10	n/a	n/a	n/a
146.149980	2	cue_social	n/a	32	9	n/a	n/a	n/a
146.149980	2	cue_social_high	n/a	32	6	n/a	n/a	n/a
152.928740	2	cue_nonsocial	n/a	32	6	n/a	n/a	n/a
152.928740	2	cue_nonsocial_high	n/a	32	9	n/a	n/a	n/a
160.658580	2	cue_social	n/a	16	-7	n/a	n/a	n/a
160.658580	2	cue_social_low	n/a	16	-10	n/a	n/a	n/a
168.228800	2	cue_nonsocial	n/a	16	-10	n/a	n/a	n/a
168.228800	2	cue_nonsocial_low	n/a	16	-7	n/a	n/a	n/a
175.113390	2	cue_social	n/a	32	9	n/a	n/a	n/a
175.113390	2	cue_social_high	n/a	32	6	n/a	n/a	n/a
181.931320	2	cue_social	n/a	32	9	n/a	n/a	n/a
181.931320	2	cue_social_high	n/a	32	6	n/a	n/a	n/a
188.781190	2	cue_social	n/a	32	9	n/a	n/a	n/a
188.781190	2	cue_social_high	n/a	32	6	n/a	n/a	n/a
199.595410	2	cue_nonsocial	n/a	32	6	n/a	n/a	n/a
199.595410	2	cue_nonsocial_high	n/a	32	9	n/a	n/a	n/a
207.322460	2	cue_social	n/a	32	9	n/a	n/a	n/a
207.322460	2	cue_social_high	n/a	32	6	n/a	n/a	n/a
214.895190	2	cue_nonsocial	n/a	32	6	n/a	n/a	n/a
214.895190	2	cue_nonsocial_high	n/a	32	9	n/a	n/a	n/a
221.818050	2	cue_social	n/a	16	-7	n/a	n/a	n/a
221.818050	2	cue_social_low	n/a	16	-10	n/a	n/a	n/a
228.655800	2	cue_social	n/a	16	-7	n/a	n/a	n/a
228.655800	2	cue_social_low	n/a	16	-10	n/a	n/a	n/a
235.394910	2	cue_nonsocial	n/a	16	-10	n/a	n/a	n/a
235.394910	2	cue_nonsocial_low	n/a	16	-7	n/a	n/a	n/a
242.271510	2	cue_social	n/a	32	9	n/a	n/a	n/a
242.271510	2	cue_social_high	n/a	32	6	n/a	n/a	n/a
249.929800	2	cue_social	n/a	32	9	n/a	n/a	n/a
249.929800	2	cue_social_high	n/a	32	6	n/a	n/a	n/a
256.773350	2	cue_social	n/a	32	9	n/a	n/a	n/a
256.773350	2	cue_social_high	n/a	32	6	n/a	n/a	n/a
263.545170	2	cue_nonsocial	n/a	32	6	n/a	n/a	n/a
263.545170	2	cue_nonsocial_high	n/a	32	9	n/a	n/a	n/a
272.868100	2	cue_social	n/a	16	-7	n/a	n/a	n/a
272.868100	2	cue_social_low	n/a	16	-10	n/a	n/a	n/a
279.628480	2	cue_nonsocial	n/a	16	-10	n/a	n/a	n/a
279.628480	2	cue_nonsocial_low	n/a	16	-7	n/a	n/a	n/a
286.513460	2	cue_social	n/a	32	9	n/a	n/a	n/a
286.513460	2	cue_social_high	n/a	32	6	n/a	n/a	n/a
294.158700	2	cue_social	n/a	32	9	n/a	n/a	n/a
294.158700	2	cue_social_high	n/a	32	6	n/a	n/a	n/a
306.595100	2	cue_nonsocial	n/a	16	-10	n/a	n/a	n/a
306.595100	2	cue_nonsocial_low	n/a	16	-7	n/a	n/a	n/a
313.427920	2	cue_nonsocial	n/a	16	-10	n/a	n/a	n/a
313.427920	2	cue_nonsocial_low	n/a	16	-7	n/a	n/a	n/a
320.311220	2	cue_social	n/a	16	-7	n/a	n/a	n/a
320.311220	2	cue_social_low	n/a	16	-10	n/a	n/a	n/a
327.911300	2	cue_nonsocial	n/a	16	-10	n/a	n/a	n/a
327.911300	2	cue_nonsocial_low	n/a	16	-7	n/a	n/a	n/a
334.744840	2	cue_nonsocial	n/a	32	6	n/a	n/a	n/a
334.744840	2	cue_nonsocial_high	n/a	32	9	n/a	n/a	n/a
343.994930	2	cue_nonsocial	n/a	32	6	n/a	n/a	n/a
343.994930	2	cue_nonsocial_high	n/a	32	9	n/a	n/a	n/a
354.861480	2	cue_nonsocial	n/a	32	6	n/a	n/a	n/a
354.861480	2	cue_nonsocial_high	n/a	32	9	n/a	n/a	n/a
362.560000	2	cue_social	n/a	16	-7	n/a	n/a	n/a
362.560000	2	cue_social_low	n/a	16	-10	n/a	n/a	n/a
370.222020	2	cue_social	n/a	16	-7	n/a	n/a	n/a
370.222020	2	cue_social_low	n/a	16	-10	n/a	n/a	n/a
6.520042	1.666042	dec_nonsocial_choice	1.666042	32.000000	n/a	16	2.682292e-01	2.682292e-01
6.520042	1.666042	dec_choice	1.666042	32.000000	n/a	16	2.682292e-01	2.682292e-01
6.520042	1.666042	dec_nonsocial_accept	1.666042	32.000000	n/a	16	2.682292e-01	2.682292e-01
6.520042	1.666042	dec_accept	1.666042	32.000000	n/a	16	2.682292e-01	2.682292e-01
6.520042	1.666042	dec_nonsocial_high	1.666042	32.000000	n/a	16	2.682292e-01	2.682292e-01
6.520042	1.666042	dec_nonsocial_accept_high	1.666042	32.000000	n/a	16	2.682292e-01	2.682292e-01
13.354010	2.582056	dec_nonsocial_choice	2.582056	32.000000	n/a	8	1.822917e-02	1.822917e-02
13.354010	2.582056	dec_choice	2.582056	32.000000	n/a	8	1.822917e-02	1.822917e-02
13.354010	2.582056	dec_nonsocial_accept	2.582056	32.000000	n/a	8	1.822917e-02	1.822917e-02
13.354010	2.582056	dec_accept	2.582056	32.000000	n/a	8	1.822917e-02	1.822917e-02
13.354010	2.582056	dec_nonsocial_accept_high	2.582056	32.000000	n/a	8	1.822917e-02	1.822917e-02
21.002970	1.366387	dec_nonsocial_choice	1.366387	16.000000	n/a	2	-1.067708e-01	-1.067708e-01
21.002970	1.366387	dec_choice	1.366387	16.000000	n/a	2	-1.067708e-01	-1.067708e-01
21.002970	1.366387	dec_nonsocial_accept	1.366387	16.000000	n/a	2	-1.067708e-01	-1.067708e-01
21.002970	1.366387	dec_accept	1.366387	16.000000	n/a	2	-1.067708e-01	-1.067708e-01
21.002970	1.366387	dec_nonsocial_low	1.366387	16.000000	n/a	2	-1.067708e-01	-1.067708e-01
21.002970	1.366387	dec_nonsocial_accept_low	1.366387	16.000000	n/a	2	-1.067708e-01	-1.067708e-01
27.835087	1.301072	dec_social_choice	1.301072	16.000000	n/a	8	2.682292e-01	2.682292e-01
27.835087	1.301072	dec_choice	1.301072	16.000000	n/a	8	2.682292e-01	2.682292e-01
27.835087	1.301072	dec_social_accept	1.301072	16.000000	n/a	8	2.682292e-01	2.682292e-01
27.835087	1.301072	dec_accept	1.301072	16.000000	n/a	8	2.682292e-01	2.682292e-01
27.835087	1.301072	dec_social_accept_high	1.301072	16.000000	n/a	8	2.682292e-01	2.682292e-01
34.669440	1.400336	dec_social_choice	1.400336	16.000000	n/a	8	2.682292e-01	2.682292e-01
34.669440	1.400336	dec_choice	1.400336	16.000000	n/a	8	2.682292e-01	2.682292e-01
34.669440	1.400336	dec_social_accept	1.400336	16.000000	n/a	8	2.682292e-01	2.682292e-01
34.669440	1.400336	dec_accept	1.400336	16.000000	n/a	8	2.682292e-01	2.682292e-01
34.669440	1.400336	dec_social_high	1.400336	16.000000	n/a	8	2.682292e-01	2.682292e-01
34.669440	1.400336	dec_social_accept_high	1.400336	16.000000	n/a	8	2.682292e-01	2.682292e-01
43.919630	1.899911	dec_nonsocial_choice	1.899911	32.000000	n/a	8	1.822917e-02	1.822917e-02
43.919630	1.899911	dec_choice	1.899911	32.000000	n/a	8	1.822917e-02	1.822917e-02
43.919630	1.899911	dec_nonsocial_accept	1.899911	32.000000	n/a	8	1.822917e-02	1.822917e-02
43.919630	1.899911	dec_accept	1.899911	32.000000	n/a	8	1.822917e-02	1.822917e-02
43.919630	1.899911	dec_nonsocial_high	1.899911	32.000000	n/a	8	1.822917e-02	1.822917e-02
43.919630	1.899911	dec_nonsocial_accept_high	1.899911	32.000000	n/a	8	1.822917e-02	1.822917e-02
51.569984	1.415702	dec_nonsocial_choice	1.415702	32.000000	n/a	16	2.682292e-01	2.682292e-01
51.569984	1.415702	dec_choice	1.415702	32.000000	n/a	16	2.682292e-01	2.682292e-01
51.569984	1.415702	dec_nonsocial_accept	1.415702	32.000000	n/a	16	2.682292e-01	2.682292e-01
51.569984	1.415702	dec_accept	1.415702	32.000000	n/a	16	2.682292e-01	2.682292e-01
51.569984	1.415702	dec_nonsocial_high	1.415702	32.000000	n/a	16	2.682292e-01	2.682292e-01
51.569984	1.415702	dec_nonsocial_accept_high	1.415702	32.000000	n/a	16	2.682292e-01	2.682292e-01
58.402210	0.833978	dec_nonsocial_choice	0.833978	16.000000	n/a	2	-1.067708e-01	-1.067708e-01
58.402210	0.833978	dec_choice	0.833978	16.000000	n/a	2	-1.067708e-01	-1.067708e-01
58.402210	0.833978	dec_nonsocial_accept	0.833978	16.000000	n/a	2	-1.067708e-01	-1.067708e-01
58.402210	0.833978	dec_accept	0.833978	16.000000	n/a	2	-1.067708e-01	-1.067708e-01
58.402210	0.833978	dec_nonsocial_low	0.833978	16.000000	n/a	2	-1.067708e-01	-1.067708e-01
58.402210	0.833978	dec_nonsocial_accept_low	0.833978	16.000000	n/a	2	-1.067708e-01	-1.067708e-01
67.668915	0.950229	dec_social_choice	0.950229	16.000000	n/a	2	-1.067708e-01	-1.067708e-01
67.668915	0.950229	dec_choice	0.950229	16.000000	n/a	2	-1.067708e-01	-1.067708e-01
67.668915	0.950229	dec_social_accept	0.950229	16.000000	n/a	2	-1.067708e-01	-1.067708e-01
67.668915	0.950229	dec_accept	0.950229	16.000000	n/a	2	-1.067708e-01	-1.067708e-01
67.668915	0.950229	dec_social_low	0.950229	16.000000	n/a	2	-1.067708e-01	-1.067708e-01
67.668915	0.950229	dec_social_accept_low	0.950229	16.000000	n/a	2	-1.067708e-01	-1.067708e-01
75.302990	1.815735	dec_social_choice	1.815735	32.000000	n/a	8	1.822917e-02	1.822917e-02
75.302990	1.815735	dec_choice	1.815735	32.000000	n/a	8	1.822917e-02	1.822917e-02
75.302990	1.815735	dec_social_accept	1.815735	32.000000	n/a	8	1.822917e-02	1.822917e-02
75.302990	1.815735	dec_accept	1.815735	32.000000	n/a	8	1.822917e-02	1.822917e-02
75.302990	1.815735	dec_social_accept_high	1.815735	32.000000	n/a	8	1.822917e-02	1.822917e-02
84.569430	1.450251	dec_social_choice	1.450251	16.000000	n/a	2	-1.067708e-01	-1.067708e-01
84.569430	1.450251	dec_choice	1.450251	16.000000	n/a	2	-1.067708e-01	-1.067708e-01
84.569430	1.450251	dec_social_accept	1.450251	16.000000	n/a	2	-1.067708e-01	-1.067708e-01
84.569430	1.450251	dec_accept	1.450251	16.000000	n/a	2	-1.067708e-01	-1.067708e-01
84.569430	1.450251	dec_social_accept_low	1.450251	16.000000	n/a	2	-1.067708e-01	-1.067708e-01
91.403070	2.183533	dec_nonsocial_choice	2.183533	32.000000	n/a	8	1.822917e-02	1.822917e-02
91.403070	2.183533	dec_choice	2.183533	32.000000	n/a	8	1.822917e-02	1.822917e-02
91.403070	2.183533	dec_nonsocial_accept	2.183533	32.000000	n/a	8	1.822917e-02	1.822917e-02
91.403070	2.183533	dec_accept	2.183533	32.000000	n/a	8	1.822917e-02	1.822917e-02
91.403070	2.183533	dec_nonsocial_accept_high	2.183533	32.000000	n/a	8	1.822917e-02	1.822917e-02
98.236380	1.883052	dec_nonsocial_choice	1.883052	32.000000	n/a	3	-1.380208e-01	-1.380208e-01
98.236380	1.883052	dec_choice	1.883052	32.000000	n/a	3	-1.380208e-01	-1.380208e-01
98.236380	1.883052	dec_nonsocial_accept	1.883052	32.000000	n/a	3	-1.380208e-01	-1.380208e-01
98.236380	1.883052	dec_accept	1.883052	32.000000	n/a	3	-1.380208e-01	-1.380208e-01
98.236380	1.883052	dec_nonsocial_low	1.883052	32.000000	n/a	3	-1.380208e-01	-1.380208e-01
98.236380	1.883052	dec_nonsocial_accept_low	1.883052	32.000000	n/a	3	-1.380208e-01	-1.380208e-01
107.485916	1.699761	dec_nonsocial_choice	1.699761	32.000000	n/a	8	1.822917e-02	1.822917e-02
107.485916	1.699761	dec_choice	1.699761	32.000000	n/a	8	1.822917e-02	1.822917e-02
107.485916	1.699761	dec_nonsocial_accept	1.699761	32.000000	n/a	8	1.822917e-02	1.822917e-02
107.485916	1.699761	dec_accept	1.699761	32.000000	n/a	8	1.822917e-02	1.822917e-02
107.485916	1.699761	dec_nonsocial_accept_high	1.699761	32.000000	n/a	8	1.822917e-02	1.822917e-02
114.319890	1.499508	dec_nonsocial_choice	1.499508	32.000000	n/a	2	-1.692708e-01	-1.692708e-01
114.319890	1.499508	dec_choice	1.499508	32.000000	n/a	2	-1.692708e-01	-1.692708e-01
114.319890	1.499508	dec_nonsocial_accept	1.499508	32.000000	n/a	2	-1.692708e-01	-1.692708e-01
114.319890	1.499508	dec_accept	1.499508	32.000000	n/a	2	-1.692708e-01	-1.692708e-01
114.319890	1.499508	dec_nonsocial_accept_low	1.499508	32.000000	n/a	2	-1.692708e-01	-1.692708e-01
123.569016	1.383076	dec_social_choice	1.383076	16.000000	n/a	8	2.682292e-01	2.682292e-01
123.569016	1.383076	dec_choice	1.383076	16.000000	n/a	8	2.682292e-01	2.682292e-01
123.569016	1.383076	dec_social_accept	1.383076	16.000000	n/a	8	2.682292e-01	2.682292e-01
123.569016	1.383076	dec_accept	1.383076	16.000000	n/a	8	2.682292e-01	2.682292e-01
123.569016	1.383076	dec_social_accept_high	1.383076	16.000000	n/a	8	2.682292e-01	2.682292e-01
130.403060	1.349626	dec_nonsocial_choice	1.349626	16.000000	n/a	8	2.682292e-01	2.682292e-01
130.403060	1.349626	dec_choice	1.349626	16.000000	n/a	8	2.682292e-01	2.682292e-01
130.403060	1.349626	dec_nonsocial_accept	1.349626	16.000000	n/a	8	2.682292e-01	2.682292e-01
130.403060	1.349626	dec_accept	1.349626	16.000000	n/a	8	2.682292e-01	2.682292e-01
130.403060	1.349626	dec_nonsocial_accept_high	1.349626	16.000000	n/a	8	2.682292e-01	2.682292e-01
141.269910	1.432284	dec_social_choice	1.432284	16.000000	n/a	2	-1.067708e-01	-1.067708e-01
141.269910	1.432284	dec_choice	1.432284	16.000000	n/a	2	-1.067708e-01	-1.067708e-01
141.269910	1.432284	dec_social_accept	1.432284	16.000000	n/a	2	-1.067708e-01	-1.067708e-01
141.269910	1.432284	dec_accept	1.432284	16.000000	n/a	2	-1.067708e-01	-1.067708e-01
141.269910	1.432284	dec_social_low	1.432284	16.000000	n/a	2	-1.067708e-01	-1.067708e-01
141.269910	1.432284	dec_social_accept_low	1.432284	16.000000	n/a	2	-1.067708e-01	-1.067708e-01
148.101880	1.416684	dec_social_choice	1.416684	32.000000	n/a	8	1.822917e-02	1.822917e-02
148.101880	1.416684	dec_choice	1.416684	32.000000	n/a	8	1.822917e-02	1.822917e-02
148.101880	1.416684	dec_social_accept	1.416684	32.000000	n/a	8	1.822917e-02	1.822917e-02
148.101880	1.416684	dec_accept	1.416684	32.000000	n/a	8	1.822917e-02	1.822917e-02
148.101880	1.416684	dec_social_high	1.416684	32.000000	n/a	8	1.822917e-02	1.822917e-02
148.101880	1.416684	dec_social_accept_high	1.416684	32.000000	n/a	8	1.822917e-02	1.822917e-02
154.936310	2.482850	dec_nonsocial_choice	2.482850	32.000000	n/a	8	1.822917e-02	1.822917e-02
154.936310	2.482850	dec_choice	2.482850	32.000000	n/a	8	1.822917e-02	1.822917e-02
154.936310	2.482850	dec_nonsocial_accept	2.482850	32.000000	n/a	8	1.822917e-02	1.822917e-02
154.936310	2.482850	dec_accept	2.482850	32.000000	n/a	8	1.822917e-02	1.822917e-02
154.936310	2.482850	dec_nonsocial_accept_high	2.482850	32.000000	n/a	8	1.822917e-02	1.822917e-02
162.585860	1.966760	dec_social_choice	1.966760	16.000000	n/a	1	-1.692708e-01	-1.692708e-01
162.585860	1.966760	dec_choice	1.966760	16.000000	n/a	1	-1.692708e-01	-1.692708e-01
162.585860	1.966760	dec_social_accept	1.966760	16.000000	n/a	1	-1.692708e-01	-1.692708e-01
162.585860	1.966760	dec_accept	1.966760	16.000000	n/a	1	-1.692708e-01	-1.692708e-01
162.585860	1.966760	dec_social_low	1.966760	16.000000	n/a	1	-1.692708e-01	-1.692708e-01
162.585860	1.966760	dec_social_accept_low	1.966760	16.000000	n/a	1	-1.692708e-01	-1.692708e-01
170.235020	1.717134	dec_nonsocial_choice	1.717134	16.000000	n/a	2	-1.067708e-01	-1.067708e-01
170.235020	1.717134	dec_choice	1.717134	16.000000	n/a	2	-1.067708e-01	-1.067708e-01
170.235020	1.717134	dec_nonsocial_accept	1.717134	16.000000	n/a	2	-1.067708e-01	-1.067708e-01
170.235020	1.717134	dec_accept	1.717134	16.000000	n/a	2	-1.067708e-01	-1.067708e-01
170.235020	1.717134	dec_nonsocial_low	1.717134	16.000000	n/a	2	-1.067708e-01	-1.067708e-01
170.235020	1.717134	dec_nonsocial_accept_low	1.717134	16.000000	n/a	2	-1.067708e-01	-1.067708e-01
177.068880	2.149946	dec_social_choice	2.149946	32.000000	n/a	2	-1.692708e-01	-1.692708e-01
177.068880	2.149946	dec_choice	2.149946	32.000000	n/a	2	-1.692708e-01	-1.692708e-01
177.068880	2.149946	dec_social_accept	2.149946	32.000000	n/a	2	-1.692708e-01	-1.692708e-01
177.068880	2.149946	dec_accept	2.149946	32.000000	n/a	2	-1.692708e-01	-1.692708e-01
177.068880	2.149946	dec_social_accept_low	2.149946	32.000000	n/a	2	-1.692708e-01	-1.692708e-01
183.901340	1.483927	dec_social_choice	1.483927	32.000000	n/a	2	-1.692708e-01	-1.692708e-01
183.901340	1.483927	dec_choice	1.483927	32.000000	n/a	2	-1.692708e-01	-1.692708e-01
183.901340	1.483927	dec_social_accept	1.483927	32.000000	n/a	2	-1.692708e-01	-1.692708e-01
183.901340	1.483927	dec_accept	1.483927	32.000000	n/a	2	-1.692708e-01	-1.692708e-01
183.901340	1.483927	dec_social_accept_low	1.483927	32.000000	n/a	2	-1.692708e-01	-1.692708e-01
190.735730	1.683788	dec_social_choice	1.683788	32.000000	n/a	16	2.682292e-01	2.682292e-01
190.735730	1.683788	dec_choice	1.683788	32.000000	n/a	16	2.682292e-01	2.682292e-01
190.735730	1.683788	dec_social_accept	1.683788	32.000000	n/a	16	2.682292e-01	2.682292e-01
190.735730	1.683788	dec_accept	1.683788	32.000000	n/a	16	2.682292e-01	2.682292e-01
190.735730	1.683788	dec_social_high	1.683788	32.000000	n/a	16	2.682292e-01	2.682292e-01
190.735730	1.683788	dec_social_accept_high	1.683788	32.000000	n/a	16	2.682292e-01	2.682292e-01
201.601880	1.484155	dec_nonsocial_choice	1.484155	32.000000	n/a	16	2.682292e-01	2.682292e-01
201.601880	1.484155	dec_choice	1.484155	32.000000	n/a	16	2.682292e-01	2.682292e-01
201.601880	1.484155	dec_nonsocial_accept	1.484155	32.000000	n/a	16	2.682292e-01	2.682292e-01
201.601880	1.484155	dec_accept	1.484155	32.000000	n/a	16	2.682292e-01	2.682292e-01
201.601880	1.484155	dec_nonsocial_high	1.484155	32.000000	n/a	16	2.682292e-01	2.682292e-01
201.601880	1.484155	dec_nonsocial_accept_high	1.484155	32.000000	n/a	16	2.682292e-01	2.682292e-01
209.250930	2.534253	dec_social_choice	2.534253	32.000000	n/a	3	-1.380208e-01	-1.380208e-01
209.250930	2.534253	dec_choice	2.534253	32.000000	n/a	3	-1.380208e-01	-1.380208e-01
209.250930	2.534253	dec_social_accept	2.534253	32.000000	n/a	3	-1.380208e-01	-1.380208e-01
209.250930	2.534253	dec_accept	2.534253	32.000000	n/a	3	-1.380208e-01	-1.380208e-01
209.250930	2.534253	dec_social_low	2.534253	32.000000	n/a	3	-1.380208e-01	-1.380208e-01
209.250930	2.534253	dec_social_accept_low	2.534253	32.000000	n/a	3	-1.380208e-01	-1.380208e-01
216.902220	1.900244	dec_nonsocial_choice	1.900244	32.000000	n/a	2	-1.692708e-01	-1.692708e-01
216.902220	1.900244	dec_choice	1.900244	32.000000	n/a	2	-1.692708e-01	-1.692708e-01
216.902220	1.900244	dec_nonsocial_accept	1.900244	32.000000	n/a	2	-1.692708e-01	-1.692708e-01
216.902220	1.900244	dec_accept	1.900244	32.000000	n/a	2	-1.692708e-01	-1.692708e-01
216.902220	1.900244	dec_nonsocial_low	1.900244	32.000000	n/a	2	-1.692708e-01	-1.692708e-01
216.902220	1.900244	dec_nonsocial_accept_low	1.900244	32.000000	n/a	2	-1.692708e-01	-1.692708e-01
223.735800	1.549868	dec_social_choice	1.549868	16.000000	n/a	2	-1.067708e-01	-1.067708e-01
223.735800	1.549868	dec_choice	1.549868	16.000000	n/a	2	-1.067708e-01	-1.067708e-01
223.735800	1.549868	dec_social_accept	1.549868	16.000000	n/a	2	-1.067708e-01	-1.067708e-01
223.735800	1.549868	dec_accept	1.549868	16.000000	n/a	2	-1.067708e-01	-1.067708e-01
223.735800	1.549868	dec_social_accept_low	1.549868	16.000000	n/a	2	-1.067708e-01	-1.067708e-01
230.568800	1.666252	dec_social_choice	1.666252	16.000000	n/a	8	2.682292e-01	2.682292e-01
230.568800	1.666252	dec_choice	1.666252	16.000000	n/a	8	2.682292e-01	2.682292e-01
230.568800	1.666252	dec_social_accept	1.666252	16.000000	n/a	8	2.682292e-01	2.682292e-01
230.568800	1.666252	dec_accept	1.666252	16.000000	n/a	8	2.682292e-01	2.682292e-01
230.568800	1.666252	dec_social_high	1.666252	16.000000	n/a	8	2.682292e-01	2.682292e-01
230.568800	1.666252	dec_social_accept_high	1.666252	16.000000	n/a	8	2.682292e-01	2.682292e-01
237.402070	2.149894	dec_nonsocial_choice	2.149894	16.000000	n/a	4	1.822917e-02	1.822917e-02
237.402070	2.149894	dec_choice	2.149894	16.000000	n/a	4	1.822917e-02	1.822917e-02
237.402070	2.149894	dec_nonsocial_accept	2.149894	16.000000	n/a	4	1.822917e-02	1.822917e-02
237.402070	2.149894	dec_accept	2.149894	16.000000	n/a	4	1.822917e-02	1.822917e-02
237.402070	2.149894	dec_nonsocial_accept_high	2.149894	16.000000	n/a	4	1.822917e-02	1.822917e-02
244.234760	1.533927	dec_social_choice	1.533927	32.000000	n/a	8	1.822917e-02	1.822917e-02
244.234760	1.533927	dec_choice	1.533927	32.000000	n/a	8	1.822917e-02	1.822917e-02
244.234760	1.533927	dec_social_accept	1.533927	32.000000	n/a	8	1.822917e-02	1.822917e-02
244.234760	1.533927	dec_accept	1.533927	32.000000	n/a	8	1.822917e-02	1.822917e-02
244.234760	1.533927	dec_social_accept_high	1.533927	32.000000	n/a	8	1.822917e-02	1.822917e-02
251.886340	1.332550	dec_social_choice	1.332550	32.000000	n/a	2	-1.692708e-01	-1.692708e-01
251.886340	1.332550	dec_choice	1.332550	32.000000	n/a	2	-1.692708e-01	-1.692708e-01
251.886340	1.332550	dec_social_accept	1.332550	32.000000	n/a	2	-1.692708e-01	-1.692708e-01
251.886340	1.332550	dec_accept	1.332550	32.000000	n/a	2	-1.692708e-01	-1.692708e-01
251.886340	1.332550	dec_social_low	1.332550	32.000000	n/a	2	-1.692708e-01	-1.692708e-01
251.886340	1.332550	dec_social_accept_low	1.332550	32.000000	n/a	2	-1.692708e-01	-1.692708e-01
258.719240	2.032773	dec_social_choice	2.032773	32.000000	n/a	8	1.822917e-02	1.822917e-02
258.719240	2.032773	dec_choice	2.032773	32.000000	n/a	8	1.822917e-02	1.822917e-02
258.719240	2.032773	dec_social_accept	2.032773	32.000000	n/a	8	1.822917e-02	1.822917e-02
258.719240	2.032773	dec_accept	2.032773	32.000000	n/a	8	1.822917e-02	1.822917e-02
258.719240	2.032773	dec_social_accept_high	2.032773	32.000000	n/a	8	1.822917e-02	1.822917e-02
265.550960	1.501412	dec_nonsocial_choice	1.501412	32.000000	n/a	2	-1.692708e-01	-1.692708e-01
265.550960	1.501412	dec_choice	1.501412	32.000000	n/a	2	-1.692708e-01	-1.692708e-01
265.550960	1.501412	dec_nonsocial_accept	1.501412	32.000000	n/a	2	-1.692708e-01	-1.692708e-01
265.550960	1.501412	dec_accept	1.501412	32.000000	n/a	2	-1.692708e-01	-1.692708e-01
265.550960	1.501412	dec_nonsocial_low	1.501412	32.000000	n/a	2	-1.692708e-01	-1.692708e-01
265.550960	1.501412	dec_nonsocial_accept_low	1.501412	32.000000	n/a	2	-1.692708e-01	-1.692708e-01
274.801800	1.700454	dec_social_choice	1.700454	16.000000	n/a	4	1.822917e-02	1.822917e-02
274.801800	1.700454	dec_choice	1.700454	16.000000	n/a	4	1.822917e-02	1.822917e-02
274.801800	1.700454	dec_social_accept	1.700454	16.000000	n/a	4	1.822917e-02	1.822917e-02
274.801800	1.700454	dec_accept	1.700454	16.000000	n/a	4	1.822917e-02	1.822917e-02
274.801800	1.700454	dec_social_high	1.700454	16.000000	n/a	4	1.822917e-02	1.822917e-02
274.801800	1.700454	dec_social_accept_high	1.700454	16.000000	n/a	4	1.822917e-02	1.822917e-02
281.636380	1.565450	dec_nonsocial_choice	1.565450	16.000000	n/a	8	2.682292e-01	2.682292e-01
281.636380	1.565450	dec_choice	1.565450	16.000000	n/a	8	2.682292e-01	2.682292e-01
281.636380	1.565450	dec_nonsocial_accept	1.565450	16.000000	n/a	8	2.682292e-01	2.682292e-01
281.636380	1.565450	dec_accept	1.565450	16.000000	n/a	8	2.682292e-01	2.682292e-01
281.636380	1.565450	dec_nonsocial_high	1.565450	16.000000	n/a	8	2.682292e-01	2.682292e-01
281.636380	1.565450	dec_nonsocial_accept_high	1.565450	16.000000	n/a	8	2.682292e-01	2.682292e-01
288.468720	2.399822	dec_social_choice	2.399822	32.000000	n/a	2	-1.692708e-01	-1.692708e-01
288.468720	2.399822	dec_choice	2.399822	32.000000	n/a	2	-1.692708e-01	-1.692708e-01
288.468720	2.399822	dec_social_accept	2.399822	32.000000	n/a	2	-1.692708e-01	-1.692708e-01
288.468720	2.399822	dec_accept	2.399822	32.000000	n/a	2	-1.692708e-01	-1.692708e-01
288.468720	2.399822	dec_social_accept_low	2.399822	32.000000	n/a	2	-1.692708e-01	-1.692708e-01
296.118740	2.000151	dec_social_choice	2.000151	32.000000	n/a	3	-1.380208e-01	-1.380208e-01
296.118740	2.000151	dec_choice	2.000151	32.000000	n/a	3	-1.380208e-01	-1.380208e-01
296.118740	2.000151	dec_social_accept	2.000151	32.000000	n/a	3	-1.380208e-01	-1.380208e-01
296.118740	2.000151	dec_accept	2.000151	32.000000	n/a	3	-1.380208e-01	-1.380208e-01
296.118740	2.000151	dec_social_accept_low	2.000151	32.000000	n/a	3	-1.380208e-01	-1.380208e-01
308.601700	1.866478	dec_nonsocial_choice	1.866478	16.000000	n/a	8	2.682292e-01	2.682292e-01
308.601700	1.866478	dec_choice	1.866478	16.000000	n/a	8	2.682292e-01	2.682292e-01
308.601700	1.866478	dec_nonsocial_accept	1.866478	16.000000	n/a	8	2.682292e-01	2.682292e-01
308.601700	1.866478	dec_accept	1.866478	16.000000	n/a	8	2.682292e-01	2.682292e-01
308.601700	1.866478	dec_nonsocial_high	1.866478	16.000000	n/a	8	2.682292e-01	2.682292e-01
308.601700	1.866478	dec_nonsocial_accept_high	1.866478	16.000000	n/a	8	2.682292e-01	2.682292e-01
315.435760	1.549352	dec_nonsocial_choice	1.549352	16.000000	n/a	2	-1.067708e-01	-1.067708e-01
315.435760	1.549352	dec_choice	1.549352	16.000000	n/a	2	-1.067708e-01	-1.067708e-01
315.435760	1.549352	dec_nonsocial_accept	1.549352	16.000000	n/a	2	-1.067708e-01	-1.067708e-01
315.435760	1.549352	dec_accept	1.549352	16.000000	n/a	2	-1.067708e-01	-1.067708e-01
315.435760	1.549352	dec_nonsocial_low	1.549352	16.000000	n/a	2	-1.067708e-01	-1.067708e-01
315.435760	1.549352	dec_nonsocial_accept_low	1.549352	16.000000	n/a	2	-1.067708e-01	-1.067708e-01
322.268740	1.583195	dec_social_choice	1.583195	16.000000	n/a	8	2.682292e-01	2.682292e-01
322.268740	1.583195	dec_choice	1.583195	16.000000	n/a	8	2.682292e-01	2.682292e-01
322.268740	1.583195	dec_social_accept	1.583195	16.000000	n/a	8	2.682292e-01	2.682292e-01
322.268740	1.583195	dec_accept	1.583195	16.000000	n/a	8	2.682292e-01	2.682292e-01
322.268740	1.583195	dec_social_high	1.583195	16.000000	n/a	8	2.682292e-01	2.682292e-01
322.268740	1.583195	dec_social_accept_high	1.583195	16.000000	n/a	8	2.682292e-01	2.682292e-01
329.919340	1.865575	dec_nonsocial_choice	1.865575	16.000000	n/a	1	-1.692708e-01	-1.692708e-01
329.919340	1.865575	dec_choice	1.865575	16.000000	n/a	1	-1.692708e-01	-1.692708e-01
329.919340	1.865575	dec_nonsocial_accept	1.865575	16.000000	n/a	1	-1.692708e-01	-1.692708e-01
329.919340	1.865575	dec_accept	1.865575	16.000000	n/a	1	-1.692708e-01	-1.692708e-01
329.919340	1.865575	dec_nonsocial_accept_low	1.865575	16.000000	n/a	1	-1.692708e-01	-1.692708e-01
336.751600	2.250285	dec_nonsocial_choice	2.250285	32.000000	n/a	2	-1.692708e-01	-1.692708e-01
336.751600	2.250285	dec_choice	2.250285	32.000000	n/a	2	-1.692708e-01	-1.692708e-01
336.751600	2.250285	dec_nonsocial_accept	2.250285	32.000000	n/a	2	-1.692708e-01	-1.692708e-01
336.751600	2.250285	dec_accept	2.250285	32.000000	n/a	2	-1.692708e-01	-1.692708e-01
336.751600	2.250285	dec_nonsocial_accept_low	2.250285	32.000000	n/a	2	-1.692708e-01	-1.692708e-01
346.000800	2.351081	dec_nonsocial_choice	2.351081	32.000000	n/a	3	-1.380208e-01	-1.380208e-01
346.000800	2.351081	dec_choice	2.351081	32.000000	n/a	3	-1.380208e-01	-1.380208e-01
346.000800	2.351081	dec_nonsocial_accept	2.351081	32.000000	n/a	3	-1.380208e-01	-1.380208e-01
346.000800	2.351081	dec_accept	2.351081	32.000000	n/a	3	-1.380208e-01	-1.380208e-01
346.000800	2.351081	dec_nonsocial_accept_low	2.351081	32.000000	n/a	3	-1.380208e-01	-1.380208e-01
356.869700	2.282024	dec_nonsocial_choice	2.282024	32.000000	n/a	2	-1.692708e-01	-1.692708e-01
356.869700	2.282024	dec_choice	2.282024	32.000000	n/a	2	-1.692708e-01	-1.692708e-01
356.869700	2.282024	dec_nonsocial_accept	2.282024	32.000000	n/a	2	-1.692708e-01	-1.692708e-01
356.869700	2.282024	dec_accept	2.282024	32.000000	n/a	2	-1.692708e-01	-1.692708e-01
356.869700	2.282024	dec_nonsocial_accept_low	2.282024	32.000000	n/a	2	-1.692708e-01	-1.692708e-01
364.518830	1.349731	dec_social_choice	1.349731	16.000000	n/a	4	1.822917e-02	1.822917e-02
364.518830	1.349731	dec_choice	1.349731	16.000000	n/a	4	1.822917e-02	1.822917e-02
364.518830	1.349731	dec_social_accept	1.349731	16.000000	n/a	4	1.822917e-02	1.822917e-02
364.518830	1.349731	dec_accept	1.349731	16.000000	n/a	4	1.822917e-02	1.822917e-02
364.518830	1.349731	dec_social_high	1.349731	16.000000	n/a	4	1.822917e-02	1.822917e-02
364.518830	1.349731	dec_social_accept_high	1.349731	16.000000	n/a	4	1.822917e-02	1.822917e-02
372.168700	1.900062	dec_social_choice	1.900062	16.000000	n/a	1	-1.692708e-01	-1.692708e-01
372.168700	1.900062	dec_choice	1.900062	16.000000	n/a	1	-1.692708e-01	-1.692708e-01
372.168700	1.900062	dec_social_accept	1.900062	16.000000	n/a	1	-1.692708e-01	-1.692708e-01
372.168700	1.900062	dec_accept	1.900062	16.000000	n/a	1	-1.692708e-01	-1.692708e-01
372.168700	1.900062	dec_social_accept_low	1.900062	16.000000	n/a	1	-1.692708e-01	-1.692708e-01
