onset	duration	trial_type	rt	resp
0.0003853999078273773	0.5987980000209063	fixation_1	999	999
0.5992382999975234	3.001774000003934	face	1.5328186000697315	1
3.601051500067115	0.5987980000209063	fixation_2	999	999
4.1490265999455005	1.0001348000951111	feedback loss	999	999
5.149163499940187	5.316011700080708	ITI	999	999
10.482801199890673	0.6163196000270545	fixation_1	999	999
11.099162699887529	3.0018639999907464	face	2.032876100158319	2
14.101067800074816	0.6163196000270545	fixation_2	999	999
14.649484599940479	1.0165407999884337	feedback win	999	999
15.666027500061318	5.315951499855146	ITI	999	999
20.985093799885362	0.5973979001864791	fixation_1	999	999
21.582547900034115	3.001513499999419	face	1.7833952999208122	1
24.584105300018564	0.5973979001864791	fixation_2	999	999
25.13240300002508	1.000150099862367	feedback loss	999	999
26.13255520001985	5.316414499888197	ITI	999	999
31.452356999972835	0.5966101000085473	fixation_1	999	999
32.04901110008359	3.001505799824372	face	1.7829926998820156	2
35.05055669997819	0.5966101000085473	fixation_2	999	999
35.59952599997632	1.0164850000292063	feedback loss	999	999
36.61601349990815	1.1167218000628054	ITI	999	999
37.73584900004789	0.5965698999352753	fixation_1	999	999
38.33247860008851	3.0014904998242855	face	2.28336129989475	1
41.334009799873456	0.5965698999352753	fixation_2	999	999
41.88236530008726	1.0003731998149306	feedback loss	999	999
42.88274069991894	1.1172346000093967	ITI	999	999
44.00319699989632	0.5962294000200927	fixation_1	999	999
44.59949880000204	3.0014758000615984	face	2.281965000089258	1
47.6010153000243	0.5962294000200927	fixation_2	999	999
48.14932069997303	1.0163573001045734	feedback win	999	999
49.165680000092834	1.1180519999470562	ITI	999	999
50.28696949989535	0.5957593000493944	fixation_1	999	999
50.88280089991167	3.0006711001042277	face	2.0331542000640184	2
53.88351449999027	0.5957593000493944	fixation_2	999	999
54.43228539987467	1.0006066001951694	feedback win	999	999
55.432894200086594	3.2170542997773737	ITI	999	999
58.65322059998289	0.6123669999651611	fixation_1	999	999
59.26564139989205	3.000678600044921	face	2.0331578000914305	2
62.2663568998687	0.6123669999651611	fixation_2	999	999
62.815997400088236	1.0165148999076337	feedback loss	999	999
63.832514700014144	3.2164618999231607	ITI	999	999
67.05236410000362	0.596457599895075	fixation_1	999	999
67.6488719000481	3.000747799873352	face	1.7830427000299096	1
70.64965929999016	0.596457599895075	fixation_2	999	999
71.19896980002522	1.0005399000365287	feedback win	999	999
72.19951170007698	1.118381599895656	ITI	999	999
73.32126179989427	0.5943710000719875	fixation_1	999	999
73.91569330007769	3.0009041000157595	face	2.283231999957934	1
76.91663770005107	0.5943710000719875	fixation_2	999	999
77.46556010004133	1.0166461998596787	feedback win	999	999
78.48220840003341	3.2176679000258446	ITI	999	999
81.70330350007862	0.6121446997858584	fixation_1	999	999
82.31551069999114	3.001153999939561	face	2.283395600039512	2
85.31670539989136	0.6121446997858584	fixation_2	999	999
85.86582259996794	1.0000026999041438	feedback loss	999	999
86.86582760000601	5.317048599943519	ITI	999	999
92.18622660008259	0.5960540999658406	fixation_1	999	999
92.78233209997416	3.0010406000074	face	2.5334145999513566	2
95.78341310005635	0.5960540999658406	fixation_2	999	999
96.33223579986952	1.00033890013583	feedback loss	999	999
97.33257799991407	3.216424700105563	ITI	999	999
100.55258079990745	0.5965456000994891	fixation_1	999	999
101.14919500006363	3.00070309988223	face	2.282318799989298	1
104.14993939991109	0.5965456000994891	fixation_2	999	999
104.69928509998135	1.0163384000770748	feedback win	999	999
105.715625599958	5.316073900088668	ITI	999	999
111.03516520000994	0.5808401999529451	fixation_1	999	999
111.61607329989783	3.0019318000413477	face	2.0318465000018477	2
114.61804579989985	0.5808401999529451	fixation_2	999	999
115.16542400000617	1.0003269999288023	feedback win	999	999
116.1657533000689	3.2169188999105245	ITI	999	999
119.38615139992908	0.5960336001589894	fixation_1	999	999
119.98224109993316	3.0012356000952423	face	2.2826102001126856	2
122.98351359996013	0.5960336001589894	fixation_2	999	999
123.53204259998165	1.0165379999671131	feedback win	999	999
124.54858270008117	1.1190235000103712	ITI	999	999
125.67116150003858	0.5947809000499547	fixation_1	999	999
126.26601199992001	3.0018609000835568	face	2.2817715001292527	1
129.267911599949	0.5947809000499547	fixation_2	999	999
129.81581069994718	1.0166730999480933	feedback win	999	999
130.83248590002768	1.1183290998451412	ITI	999	999
131.95424359990284	0.6113919999916106	fixation_1	999	999
132.56571189989336	3.001124800182879	face	2.282002800144255	2
135.56687809992582	0.6113919999916106	fixation_2	999	999
136.11567400000058	1.016360699897632	feedback loss	999	999
137.13203720003366	1.1176038000267	ITI	999	999
138.25315829995088	0.5955483000725508	fixation_1	999	999
138.84885980002582	3.0015020999126136	face	2.032903000013903	1
141.85040459991433	0.5955483000725508	fixation_2	999	999
142.39854789990932	1.0000448999926448	feedback loss	999	999
143.39859490003437	11.618038999848068	ITI	999	999
155.02038470003754	0.6113380999304354	fixation_1	999	999
155.63179360004142	3.0015503000468016	face	1.7838720998261124	2
158.63338160002604	0.6113380999304354	fixation_2	999	999
159.18183930008672	1.0004927997943014	feedback loss	999	999
160.18233420001343	3.2164761999156326	ITI	999	999
163.40241919993423	0.5965456999838352	fixation_1	999	999
163.99903930001892	3.0007718000561	face	1.5322344000451267	1
166.9998480998911	0.5965456999838352	fixation_2	999	999
167.54851830005646	1.0000075998250395	feedback win	999	999
168.54852789989673	1.1178400001954287	ITI	999	999
169.6700039000716	0.6284099000040442	fixation_1	999	999
170.29847999988124	3.0017895000055432	face	2.2828202000819147	2
173.30030889995396	0.6284099000040442	fixation_2	999	999
173.84877180005424	1.0164264999330044	feedback loss	999	999
174.86520030000247	5.316639800090343	ITI	999	999
180.1855953000486	0.6132628000341356	fixation_1	999	999
180.79893349995837	3.001846499973908	face	2.282823200104758	2
183.80081989988685	0.6132628000341356	fixation_2	999	999
184.34844470000826	1.0003450999502093	feedback loss	999	999
185.34879190009087	3.216946999775246	ITI	999	999
188.56950380001217	0.5957237998954952	fixation_1	999	999
189.16530989995226	3.0011199000291526	face	1.782518400112167	1
192.16646949993446	0.5957237998954952	fixation_2	999	999
192.71544679999352	1.016211099922657	feedback win	999	999
193.73166000004858	1.118086399976164	ITI	999	999
194.85350820003077	0.6281609998550266	fixation_1	999	999
195.48173239990138	3.001013900153339	face	2.2826523000840098	1
198.48278729990125	0.6281609998550266	fixation_2	999	999
199.03177429991774	1.0167140001431108	feedback win	999	999
200.04849030007608	5.3164850999601185	ITI	999	999
205.36867039999925	0.5966453000437468	fixation_1	999	999
205.96541410009377	3.0023670999798924	face	2.03190299984999	1
208.9678251000587	0.5966453000437468	fixation_2	999	999
209.51515270001255	1.0166024998761714	feedback loss	999	999
210.53175730002113	5.315885399933904	ITI	999	999
215.85140269994736	0.5968120000325143	fixation_1	999	999
216.4482807999011	3.001440200023353	face	2.0334263001568615	2
219.44976249989122	0.5968120000325143	fixation_2	999	999
219.9985627999995	1.0165230999700725	feedback loss	999	999
221.01508819987066	3.2157223999965936	ITI	999	999
224.23467510007322	0.5970118998084217	fixation_1	999	999
224.83179820002988	3.000777499983087	face	2.0324574999976903	1
227.8326133999508	0.5970118998084217	fixation_2	999	999
228.38165379990824	1.000090999994427	feedback loss	999	999
229.38174690003507	1.1179402999114245	ITI	999	999
230.503630500054	0.6113123998511583	fixation_1	999	999
231.11500940006226	3.000679799821228	face	1.5325972998980433	2
234.115731399972	0.6113123998511583	fixation_2	999	999
234.6650241999887	1.0003376000095159	feedback loss	999	999
235.66536389989778	5.3163573001511395	ITI	999	999
240.9854897998739	0.5962927001528442	fixation_1	999	999
241.5818499000743	3.0018517000135034	face	2.0327967000193894	1
244.58374339994043	0.5962927001528442	fixation_2	999	999
245.13146229996346	1.000224499963224	feedback loss	999	999
246.13168899994344	1.116987300105393	ITI	999	999
247.25248140003532	0.5962088999804109	fixation_1	999	999
247.84878790006042	3.0013812999241054	face	2.03201249986887	1
250.8502076000441	0.5962088999804109	fixation_2	999	999
251.39820889988914	1.0003238001372665	feedback win	999	999
252.39853490004316	1.1179237000178546	ITI	999	999
253.5204050000757	0.5946562997996807	fixation_1	999	999
254.11515460000373	3.001501499908045	face	1.532591599971056	2
257.11669300007634	0.5946562997996807	fixation_2	999	999
257.66486290004104	1.0165691999718547	feedback loss	999	999
258.6814341999125	1.1182073999661952	ITI	999	999
259.80361979990266	0.5949198000598699	fixation_1	999	999
260.3986247999128	3.001896700123325	face	1.7829780001193285	1
263.4005612998735	0.5949198000598699	fixation_2	999	999
263.94838549988344	1.000332900090143	feedback win	999	999
264.94872049987316	3.2159307000692934	ITI	999	999
268.1686660000123	0.5964546999894083	fixation_1	999	999
268.7652066000737	3.0008227999787778	face	1.533199799945578	1
271.76606799988076	0.5964546999894083	fixation_2	999	999
272.3148745999206	1.016524099977687	feedback win	999	999
273.3314008000307	1.1168488999828696	ITI	999	999
274.4525259998627	0.5955707000102848	fixation_1	999	999
275.04816960007884	3.001457499805838	face	1.782459900015965	2
278.0496656000614	0.5955707000102848	fixation_2	999	999
278.5985610000789	1.0165285000111908	feedback win	999	999
279.61509169987403	3.2154733000788838	ITI	999	999
282.83474129997194	0.5968573000282049	fixation_1	999	999
283.4316879999824	3.0015281999949366	face	2.0328548999968916	1
286.4332548000384	0.5968573000282049	fixation_2	999	999
286.98144109989516	1.0166716000530869	feedback win	999	999
287.99811480008066	5.316488599870354	ITI	999	999
293.31856409995817	0.5963286000769585	fixation_1	999	999
293.91497229994275	3.001001900061965	face	2.2823864000383765	2
296.9160174999852	0.5963286000769585	fixation_2	999	999
297.4647605000064	1.0166605000849813	feedback win	999	999
298.48142309999093	5.316866900073364	ITI	999	999
303.8023777999915	0.6127069999929518	fixation_1	999	999
304.4151729999576	3.001182399922982	face	1.7826646000612527	2
307.41639419994317	0.6127069999929518	fixation_2	999	999
307.9646534000058	1.0168284000828862	feedback win	999	999
308.9814839998726	1.1181224000174552	ITI	999	999
310.10361379990354	0.594372299965471	fixation_1	999	999
310.6980612000916	3.0015139000024647	face	2.032529699848965	1
313.6996174999513	0.594372299965471	fixation_2	999	999
314.2484237998724	1.0164719000458717	feedback loss	999	999
315.264897899935	1.1186927000526339	ITI	999	999
316.3876984999515	0.5934931000228971	fixation_1	999	999
316.981268200092	3.0005445999559015	face	1.7832699997816235	2
319.98185199988075	0.5934931000228971	fixation_2	999	999
320.53143360000104	1.016568599967286	feedback win	999	999
321.54800419998355	3.2166500000748783	ITI	999	999
324.76896320004016	0.5956659000366926	fixation_1	999	999
325.3647157000378	3.000779799884185	face	1.7830590999219567	1
328.3655326999724	0.5956659000366926	fixation_2	999	999
328.91463929996826	1.0165087999776006	feedback loss	999	999
329.93115020007826	5.316370699787512	ITI	999	999
