onset	duration	trial_type	rt	resp	gender	image_left	image_right
0.634012599941343	3.00056590000167	decision	2.03310880006757	right	M	MF001.jpg	MF002.jpg
4.1839926999528	1.01653430005535	win	NaN	n/a	n/a	MF001.jpg	MF002.jpg
11.1504569000099	3.00078809994739	decision	1.53319849993568	left	M	MF003.jpg	MF004.jpg
14.7006349998992	1.01665740006138	loss	NaN	n/a	n/a	MF003.jpg	MF004.jpg
17.4673566999845	3.00123299995903	decision	1.7833691999549	right	M	MF005.jpg	MF006.jpg
21.0172658999218	1.00006750004832	win	NaN	n/a	n/a	MF005.jpg	MF006.jpg
23.7673946999712	3.00123379996512	decision	1.28418980003335	left	F	FF001.jpg	FF002.jpg
27.3174557999009	1.01630640006624	win	NaN	n/a	n/a	FF001.jpg	FF002.jpg
32.1840055999346	3.00222420005593	decision	1.78275919996668	right	F	FF003.jpg	FF004.jpg
35.7339473000029	1.00006479991134	loss	NaN	n/a	n/a	FF003.jpg	FF004.jpg
42.6840149000054	3.00162439991254	decision	1.78258249990176	right	M	MF007.jpg	MF008.jpg
46.2338134999154	1.00012840004638	loss	NaN	n/a	n/a	MF007.jpg	MF008.jpg
51.0840218999656	3.00052320002578	decision	1.28250670002308	right	M	MF009.jpg	MF010.jpg
54.6340349999955	1.01643879991025	win	NaN	n/a	n/a	MF009.jpg	MF010.jpg
59.5005164999748	3.00214350002352	decision	1.78275639994536	left	F	FF005.jpg	FF006.jpg
63.0504156999523	1.01683009997942	loss	NaN	n/a	n/a	FF005.jpg	FF006.jpg
65.8173427999718	3.00148229999468	decision	2.28240759996697	left	F	FF007.jpg	FF008.jpg
69.3671868999954	1.01665509992745	win	NaN	n/a	n/a	FF007.jpg	FF008.jpg
72.1339868999785	3.00063759996556	decision	2.03273229999468	right	F	FF009.jpg	FF010.jpg
75.6837748999242	1.00056760001462	win	NaN	n/a	n/a	FF009.jpg	FF010.jpg
78.433907300001	3.00233199994545	decision	1.78299390000757	left	F	FF011.jpg	FF012.jpg
81.9838225999847	1.00006120000035	loss	NaN	n/a	n/a	FF011.jpg	FF012.jpg
86.8338866999839	3.001251699985	decision	1.78265359997749	left	M	MF011.jpg	MF012.jpg
90.3838964999886	1.00003499991726	loss	NaN	n/a	n/a	MF011.jpg	MF012.jpg
93.1340785999782	3.00154879991896	decision	1.7827417999506	left	M	MF013.jpg	MF014.jpg
96.683702899958	1.00016629998572	win	NaN	n/a	n/a	MF013.jpg	MF014.jpg
103.633921099943	3.00187529996037	decision	2.0327245000517	left	M	MF015.jpg	MF016.jpg
107.183882099926	1.01651330001187	win	NaN	n/a	n/a	MF015.jpg	MF016.jpg
109.950691399979	3.00067079998553	decision	1.78304439992644	right	F	FF013.jpg	FF014.jpg
113.5005045	1.0165757999057	win	NaN	n/a	n/a	FF013.jpg	FF014.jpg
120.46729099995	3.00117089995183	decision	2.0325456999708	right	M	MF017.jpg	MF018.jpg
124.017033100012	1.00009409990162	win	NaN	n/a	n/a	MF017.jpg	MF018.jpg
128.867209899938	3.00132869998924	decision	2.28246710007079	left	F	FF015.jpg	FF016.jpg
132.417201699922	1.01648460002616	win	NaN	n/a	n/a	FF015.jpg	FF016.jpg
137.284073499963	3.00112619996071	decision	1.53246140002739	left	M	MF019.jpg	MF020.jpg
140.833824099973	1.01657550001983	win	NaN	n/a	n/a	MF019.jpg	MF020.jpg
145.700529499911	3.00217910006177	decision	2.03291330009233	left	F	FF017.jpg	FF018.jpg
149.25041619991	1.01663180009928	win	NaN	n/a	n/a	FF017.jpg	FF018.jpg
162.517165899975	3.00178219994996	decision	1.78252120001707	right	M	MF021.jpg	MF022.jpg
166.067073199898	1.00006430002395	loss	NaN	n/a	n/a	MF021.jpg	MF022.jpg
173.017194999964	3.00148109998554	decision	2.03395770001225	left	M	MF023.jpg	MF024.jpg
176.566838399973	1.00023160001729	win	NaN	n/a	n/a	MF023.jpg	MF024.jpg
183.517206599936	3.00155839999206	decision	2.28354850003961	left	M	MF025.jpg	MF026.jpg
187.067042599898	1.00004510011058	loss	NaN	n/a	n/a	MF025.jpg	MF026.jpg
191.917077099904	3.001081500086	decision	1.53351520001888	right	M	MF027.jpg	MF028.jpg
195.4670397999	1.01654480001889	loss	NaN	n/a	n/a	MF027.jpg	MF028.jpg
198.233606699971	3.00090129999444	decision	1.78332389995921	right	F	FF019.jpg	FF020.jpg
201.783591799904	1.0167642000597	loss	NaN	n/a	n/a	FF019.jpg	FF020.jpg
204.550385599956	3.00232660002075	decision	1.78273940004874	right	F	FF021.jpg	FF022.jpg
208.100255599944	1.00007660000119	win	NaN	n/a	n/a	FF021.jpg	FF022.jpg
215.050418999977	3.0005529000191	decision	1.53323990001809	left	M	MF029.jpg	MF030.jpg
218.600177899934	1.00013080006465	loss	NaN	n/a	n/a	MF029.jpg	MF030.jpg
225.550554999965	3.00229380000383	decision	1.53294329997152	right	M	MF031.jpg	MF032.jpg
229.100175599917	1.01678970002104	win	NaN	n/a	n/a	MF031.jpg	MF032.jpg
233.967165899929	3.00156390003394	decision	2.03242509998381	right	F	FF023.jpg	FF024.jpg
237.516913699917	1.00005170004442	loss	NaN	n/a	n/a	FF023.jpg	FF024.jpg
240.267075999989	3.00049140001647	decision	1.53310190001503	left	F	FF025.jpg	FF026.jpg
243.816909399931	1.01658110006247	win	NaN	n/a	n/a	FF025.jpg	FF026.jpg
248.683582799975	3.00114559999201	decision	2.28361329995096	left	F	FF027.jpg	FF028.jpg
252.23350829992	1.01669409999158	loss	NaN	n/a	n/a	FF027.jpg	FF028.jpg
255.00039489998	3.00114049995318	decision	1.28232200001366	right	M	MF033.jpg	MF034.jpg
258.550428999937	1.01632070005871	loss	NaN	n/a	n/a	MF033.jpg	MF034.jpg
261.317008099984	3.00053770001978	decision	1.53301219991408	right	M	MF035.jpg	MF036.jpg
264.866829399951	1.00002619996667	loss	NaN	n/a	n/a	MF035.jpg	MF036.jpg
267.617000199971	3.00172800000291	decision	1.78273029997945	right	M	MF037.jpg	MF038.jpg
271.166797699989	1.00019089994021	win	NaN	n/a	n/a	MF037.jpg	MF038.jpg
278.116986299981	3.00118060002569	decision	1.7825011999812	left	F	FF029.jpg	FF030.jpg
281.6668298	1.00004929990973	loss	NaN	n/a	n/a	FF029.jpg	FF030.jpg
284.416987199918	3.00124750006944	decision	2.28282830002718	left	F	FF031.jpg	FF032.jpg
287.966822499991	1.00013099994976	loss	NaN	n/a	n/a	FF031.jpg	FF032.jpg
292.817113899975	3.00176180002745	decision	1.53266569995321	right	F	FF033.jpg	FF034.jpg
296.366850199993	1.01662529993337	win	NaN	n/a	n/a	FF033.jpg	FF034.jpg
303.333551799995	3.00120549998246	decision	2.28235389990732	left	M	MF039.jpg	MF040.jpg
306.883356699953	1.0003242000239	loss	NaN	n/a	n/a	MF039.jpg	MF040.jpg
313.83355380001	3.00084279989824	decision	1.28321359993424	right	F	FF035.jpg	FF036.jpg
317.383522599936	1.00003980007023	win	NaN	n/a	n/a	FF035.jpg	FF036.jpg
320.133438399993	3.00139869994018	decision	2.03280859999359	right	F	FF037.jpg	FF038.jpg
323.683353799977	1.00008129992057	loss	NaN	n/a	n/a	FF037.jpg	FF038.jpg
326.433478399995	3.00127080001403	decision	2.53328109998256	right	F	FF039.jpg	FF040.jpg
329.983410599991	1.00003939995077	loss	NaN	n/a	n/a	FF039.jpg	FF040.jpg
