onset	duration	trial_type	response_time	Endowment	Endowment_pmod	Decision	Decision_pmod	Offer_pmod
4.508355	2	cue_social	n/a	32	7	n/a	n/a	n/a
4.508355	2	cue_social_high	n/a	32	9	n/a	n/a	n/a
15.374819	2	cue_nonsocial	n/a	16	-7	n/a	n/a	n/a
15.374819	2	cue_nonsocial_low	n/a	16	-9	n/a	n/a	n/a
22.247568	2	cue_social	n/a	16	-9	n/a	n/a	n/a
22.247568	2	cue_social_low	n/a	16	-7	n/a	n/a	n/a
29.858020	2	cue_nonsocial	n/a	16	-7	n/a	n/a	n/a
29.858020	2	cue_nonsocial_low	n/a	16	-9	n/a	n/a	n/a
39.199310	2	cue_social	n/a	32	7	n/a	n/a	n/a
39.199310	2	cue_social_high	n/a	32	9	n/a	n/a	n/a
45.941338	2	cue_nonsocial	n/a	32	9	n/a	n/a	n/a
45.941338	2	cue_nonsocial_high	n/a	32	7	n/a	n/a	n/a
55.190914	2	cue_nonsocial	n/a	16	-7	n/a	n/a	n/a
55.190914	2	cue_nonsocial_low	n/a	16	-9	n/a	n/a	n/a
67.674590	2	cue_nonsocial	n/a	32	9	n/a	n/a	n/a
67.674590	2	cue_nonsocial_high	n/a	32	7	n/a	n/a	n/a
77.010770	2	cue_social	n/a	16	-9	n/a	n/a	n/a
77.010770	2	cue_social_low	n/a	16	-7	n/a	n/a	n/a
84.564610	2	cue_social	n/a	32	7	n/a	n/a	n/a
84.564610	2	cue_social_high	n/a	32	9	n/a	n/a	n/a
92.224790	2	cue_nonsocial	n/a	32	9	n/a	n/a	n/a
92.224790	2	cue_nonsocial_high	n/a	32	7	n/a	n/a	n/a
99.057630	2	cue_nonsocial	n/a	16	-7	n/a	n/a	n/a
99.057630	2	cue_nonsocial_low	n/a	16	-9	n/a	n/a	n/a
106.769940	2	cue_social	n/a	16	-9	n/a	n/a	n/a
106.769940	2	cue_social_low	n/a	16	-7	n/a	n/a	n/a
113.619350	2	cue_social	n/a	16	-9	n/a	n/a	n/a
113.619350	2	cue_social_low	n/a	16	-7	n/a	n/a	n/a
120.374540	2	cue_nonsocial	n/a	16	-7	n/a	n/a	n/a
120.374540	2	cue_nonsocial_low	n/a	16	-9	n/a	n/a	n/a
127.307930	2	cue_social	n/a	16	-9	n/a	n/a	n/a
127.307930	2	cue_social_low	n/a	16	-7	n/a	n/a	n/a
136.457810	2	cue_nonsocial	n/a	16	-7	n/a	n/a	n/a
136.457810	2	cue_nonsocial_low	n/a	16	-9	n/a	n/a	n/a
143.369320	2	cue_social	n/a	16	-9	n/a	n/a	n/a
143.369320	2	cue_social_low	n/a	16	-7	n/a	n/a	n/a
150.200590	2	cue_social	n/a	32	7	n/a	n/a	n/a
150.200590	2	cue_social_high	n/a	32	9	n/a	n/a	n/a
157.032870	2	cue_social	n/a	32	7	n/a	n/a	n/a
157.032870	2	cue_social_high	n/a	32	9	n/a	n/a	n/a
163.879410	2	cue_social	n/a	16	-9	n/a	n/a	n/a
163.879410	2	cue_social_low	n/a	16	-7	n/a	n/a	n/a
174.733430	2	cue_social	n/a	32	7	n/a	n/a	n/a
174.733430	2	cue_social_high	n/a	32	9	n/a	n/a	n/a
182.386470	2	cue_social	n/a	32	7	n/a	n/a	n/a
182.386470	2	cue_social_high	n/a	32	9	n/a	n/a	n/a
189.214460	2	cue_social	n/a	32	7	n/a	n/a	n/a
189.214460	2	cue_social_high	n/a	32	9	n/a	n/a	n/a
195.974230	2	cue_nonsocial	n/a	16	-7	n/a	n/a	n/a
195.974230	2	cue_nonsocial_low	n/a	16	-9	n/a	n/a	n/a
202.884840	2	cue_social	n/a	16	-9	n/a	n/a	n/a
202.884840	2	cue_social_low	n/a	16	-7	n/a	n/a	n/a
213.674150	2	cue_nonsocial	n/a	32	9	n/a	n/a	n/a
213.674150	2	cue_nonsocial_high	n/a	32	7	n/a	n/a	n/a
222.999220	2	cue_social	n/a	16	-9	n/a	n/a	n/a
222.999220	2	cue_social_low	n/a	16	-7	n/a	n/a	n/a
230.630890	2	cue_social	n/a	32	7	n/a	n/a	n/a
230.630890	2	cue_social_high	n/a	32	9	n/a	n/a	n/a
237.407620	2	cue_nonsocial	n/a	16	-7	n/a	n/a	n/a
237.407620	2	cue_nonsocial_low	n/a	16	-9	n/a	n/a	n/a
246.657410	2	cue_nonsocial	n/a	16	-7	n/a	n/a	n/a
246.657410	2	cue_nonsocial_low	n/a	16	-9	n/a	n/a	n/a
253.490550	2	cue_nonsocial	n/a	32	9	n/a	n/a	n/a
253.490550	2	cue_nonsocial_high	n/a	32	7	n/a	n/a	n/a
260.324000	2	cue_nonsocial	n/a	32	9	n/a	n/a	n/a
260.324000	2	cue_nonsocial_high	n/a	32	7	n/a	n/a	n/a
267.973940	2	cue_nonsocial	n/a	32	9	n/a	n/a	n/a
267.973940	2	cue_nonsocial_high	n/a	32	7	n/a	n/a	n/a
277.223800	2	cue_nonsocial	n/a	16	-7	n/a	n/a	n/a
277.223800	2	cue_nonsocial_low	n/a	16	-9	n/a	n/a	n/a
284.937380	2	cue_social	n/a	16	-9	n/a	n/a	n/a
284.937380	2	cue_social_low	n/a	16	-7	n/a	n/a	n/a
292.524050	2	cue_nonsocial	n/a	16	-7	n/a	n/a	n/a
292.524050	2	cue_nonsocial_low	n/a	16	-9	n/a	n/a	n/a
300.174700	2	cue_nonsocial	n/a	32	9	n/a	n/a	n/a
300.174700	2	cue_nonsocial_high	n/a	32	7	n/a	n/a	n/a
307.110020	2	cue_social	n/a	32	7	n/a	n/a	n/a
307.110020	2	cue_social_high	n/a	32	9	n/a	n/a	n/a
313.907530	2	cue_social	n/a	32	7	n/a	n/a	n/a
313.907530	2	cue_social_high	n/a	32	9	n/a	n/a	n/a
320.674350	2	cue_nonsocial	n/a	32	9	n/a	n/a	n/a
320.674350	2	cue_nonsocial_high	n/a	32	7	n/a	n/a	n/a
327.559020	2	cue_social	n/a	32	7	n/a	n/a	n/a
327.559020	2	cue_social_high	n/a	32	9	n/a	n/a	n/a
335.174160	2	cue_social	n/a	16	-9	n/a	n/a	n/a
335.174160	2	cue_social_low	n/a	16	-7	n/a	n/a	n/a
342.852420	2	cue_social	n/a	32	7	n/a	n/a	n/a
342.852420	2	cue_social_high	n/a	32	9	n/a	n/a	n/a
350.457120	2	cue_nonsocial	n/a	32	9	n/a	n/a	n/a
350.457120	2	cue_nonsocial_high	n/a	32	7	n/a	n/a	n/a
357.290440	2	cue_nonsocial	n/a	16	-7	n/a	n/a	n/a
357.290440	2	cue_nonsocial_low	n/a	16	-9	n/a	n/a	n/a
364.123500	2	cue_nonsocial	n/a	32	9	n/a	n/a	n/a
364.123500	2	cue_nonsocial_high	n/a	32	7	n/a	n/a	n/a
370.956700	2	cue_nonsocial	n/a	16	-7	n/a	n/a	n/a
370.956700	2	cue_nonsocial_low	n/a	16	-9	n/a	n/a	n/a
6.515245	1.299629	dec_social_choice	1.299629	32.000000	n/a	8	2.083333e-02	2.083333e-02
6.515245	1.299629	dec_choice	1.299629	32.000000	n/a	8	1.953125e-02	1.953125e-02
6.515245	1.299629	dec_social_accept	1.299629	32.000000	n/a	8	-1.150000e-01	-1.150000e-01
6.515245	1.299629	dec_accept	1.299629	32.000000	n/a	8	-1.057692e-01	-1.057692e-01
6.515245	1.299629	dec_social_high	1.299629	32.000000	n/a	8	1.953125e-02	1.953125e-02
6.515245	1.299629	dec_social_accept_high	1.299629	32.000000	n/a	8	1.953125e-02	1.953125e-02
17.382465	0.898863	dec_nonsocial_choice	0.898863	16.000000	n/a	4	2.083333e-02	2.083333e-02
17.382465	0.898863	dec_choice	0.898863	16.000000	n/a	4	2.213542e-02	2.213542e-02
17.382465	0.898863	dec_nonsocial_accept	0.898863	16.000000	n/a	4	-1.150000e-01	-1.150000e-01
17.382465	0.898863	dec_accept	0.898863	16.000000	n/a	4	-1.250000e-01	-1.250000e-01
17.382465	0.898863	dec_nonsocial_high	0.898863	16.000000	n/a	4	2.213542e-02	2.213542e-02
17.382465	0.898863	dec_nonsocial_accept_high	0.898863	16.000000	n/a	4	-1.250000e-01	-1.250000e-01
24.214764	1.566248	dec_social_choice	1.566248	16.000000	n/a	0	0	-2.291667e-01
24.214764	1.566248	dec_choice	1.566248	16.000000	n/a	0	0	-2.304688e-01
24.214764	1.566248	dec_social_reject	1.566248	16.000000	n/a	0	0	-1.902174e-02
24.214764	1.566248	dec_reject	1.566248	16.000000	n/a	0	0	-1.988636e-02
24.214764	1.566248	dec_social_low	1.566248	16.000000	n/a	0	-2.304688e-01	-2.304688e-01
24.214764	1.566248	dec_social_reject_low	1.566248	16.000000	n/a	1	-1.679688e-01	-2.304688e-01
31.863945	1.783893	dec_nonsocial_choice	1.783893	16.000000	n/a	0	0	-2.291667e-01
31.863945	1.783893	dec_choice	1.783893	16.000000	n/a	0	0	-2.278646e-01
31.863945	1.783893	dec_nonsocial_reject	1.783893	16.000000	n/a	0	0	-1.902174e-02
31.863945	1.783893	dec_reject	1.783893	16.000000	n/a	0	0	-1.822917e-02
31.863945	1.783893	dec_nonsocial_low	1.783893	16.000000	n/a	0	-2.278646e-01	-2.278646e-01
31.863945	1.783893	dec_nonsocial_reject_low	1.783893	16.000000	n/a	1	-1.822917e-02	-8.072917e-02
41.113950	1.516673	dec_social_choice	1.516673	32.000000	n/a	8	2.083333e-02	2.083333e-02
41.113950	1.516673	dec_choice	1.516673	32.000000	n/a	8	1.953125e-02	1.953125e-02
41.113950	1.516673	dec_social_accept	1.516673	32.000000	n/a	8	-1.150000e-01	-1.150000e-01
41.113950	1.516673	dec_accept	1.516673	32.000000	n/a	8	-1.057692e-01	-1.057692e-01
41.113950	1.516673	dec_social_accept_high	1.516673	32.000000	n/a	8	1.953125e-02	1.953125e-02
47.947094	1.984037	dec_nonsocial_choice	1.984037	32.000000	n/a	16	2.708333e-01	2.708333e-01
47.947094	1.984037	dec_choice	1.984037	32.000000	n/a	16	2.721354e-01	2.721354e-01
47.947094	1.984037	dec_nonsocial_accept	1.984037	32.000000	n/a	16	1.350000e-01	1.350000e-01
47.947094	1.984037	dec_accept	1.984037	32.000000	n/a	16	1.250000e-01	1.250000e-01
47.947094	1.984037	dec_nonsocial_high	1.984037	32.000000	n/a	16	2.721354e-01	2.721354e-01
47.947094	1.984037	dec_nonsocial_accept_high	1.984037	32.000000	n/a	16	1.250000e-01	1.250000e-01
57.197890	1.616228	dec_nonsocial_choice	1.616228	16.000000	n/a	4	2.083333e-02	2.083333e-02
57.197890	1.616228	dec_choice	1.616228	16.000000	n/a	4	2.213542e-02	2.213542e-02
57.197890	1.616228	dec_nonsocial_accept	1.616228	16.000000	n/a	4	-1.150000e-01	-1.150000e-01
57.197890	1.616228	dec_accept	1.616228	16.000000	n/a	4	-1.250000e-01	-1.250000e-01
57.197890	1.616228	dec_nonsocial_accept_high	1.616228	16.000000	n/a	4	-1.057692e-01	-1.057692e-01
69.681260	1.133469	dec_nonsocial_choice	1.133469	32.000000	n/a	0	0	-2.291667e-01
69.681260	1.133469	dec_choice	1.133469	32.000000	n/a	0	0	-2.278646e-01
69.681260	1.133469	dec_nonsocial_reject	1.133469	32.000000	n/a	0	0	1.222826e-02
69.681260	1.133469	dec_reject	1.133469	32.000000	n/a	0	0	1.302083e-02
69.681260	1.133469	dec_nonsocial_reject_low	1.133469	32.000000	n/a	3	1.136364e-02	-8.238636e-02
78.930320	1.583263	dec_social_choice	1.583263	16.000000	n/a	8	2.708333e-01	2.708333e-01
78.930320	1.583263	dec_choice	1.583263	16.000000	n/a	8	2.695312e-01	2.695312e-01
78.930320	1.583263	dec_social_accept	1.583263	16.000000	n/a	8	1.350000e-01	1.350000e-01
78.930320	1.583263	dec_accept	1.583263	16.000000	n/a	8	1.442308e-01	1.442308e-01
78.930320	1.583263	dec_social_high	1.583263	16.000000	n/a	8	2.695312e-01	2.695312e-01
78.930320	1.583263	dec_social_accept_high	1.583263	16.000000	n/a	8	2.695312e-01	2.695312e-01
86.580930	1.516205	dec_social_choice	1.516205	32.000000	n/a	0	0	-2.291667e-01
86.580930	1.516205	dec_choice	1.516205	32.000000	n/a	0	0	-2.304688e-01
86.580930	1.516205	dec_social_reject	1.516205	32.000000	n/a	0	0	-1.902174e-02
86.580930	1.516205	dec_reject	1.516205	32.000000	n/a	0	0	-1.988636e-02
86.580930	1.516205	dec_social_low	1.516205	32.000000	n/a	0	-2.304688e-01	-2.304688e-01
86.580930	1.516205	dec_social_reject_low	1.516205	32.000000	n/a	2	-1.679688e-01	-2.304688e-01
94.230870	1.850280	dec_nonsocial_choice	1.850280	32.000000	n/a	0	0	-2.291667e-01
94.230870	1.850280	dec_choice	1.850280	32.000000	n/a	0	0	-2.278646e-01
94.230870	1.850280	dec_nonsocial_reject	1.850280	32.000000	n/a	0	0	-1.902174e-02
94.230870	1.850280	dec_reject	1.850280	32.000000	n/a	0	0	-1.822917e-02
94.230870	1.850280	dec_nonsocial_low	1.850280	32.000000	n/a	0	-2.278646e-01	-2.278646e-01
94.230870	1.850280	dec_nonsocial_reject_low	1.850280	32.000000	n/a	2	-1.822917e-02	-8.072917e-02
101.064600	1.399493	dec_nonsocial_choice	1.399493	16.000000	n/a	4	2.083333e-02	2.083333e-02
101.064600	1.399493	dec_choice	1.399493	16.000000	n/a	4	2.213542e-02	2.213542e-02
101.064600	1.399493	dec_nonsocial_accept	1.399493	16.000000	n/a	4	-1.150000e-01	-1.150000e-01
101.064600	1.399493	dec_accept	1.399493	16.000000	n/a	4	-1.250000e-01	-1.250000e-01
101.064600	1.399493	dec_nonsocial_accept_high	1.399493	16.000000	n/a	4	-1.057692e-01	-1.057692e-01
108.714005	1.334110	dec_social_choice	1.334110	16.000000	n/a	0	0	-2.291667e-01
108.714005	1.334110	dec_choice	1.334110	16.000000	n/a	0	0	-2.304688e-01
108.714005	1.334110	dec_social_reject	1.334110	16.000000	n/a	0	0	4.347826e-02
108.714005	1.334110	dec_reject	1.334110	16.000000	n/a	0	0	4.261364e-02
108.714005	1.334110	dec_social_reject_low	1.334110	16.000000	n/a	2	-1.054688e-01	-2.304688e-01
115.546780	0.767538	dec_social_choice	0.767538	16.000000	n/a	8	2.708333e-01	2.708333e-01
115.546780	0.767538	dec_choice	0.767538	16.000000	n/a	8	2.695312e-01	2.695312e-01
115.546780	0.767538	dec_social_accept	0.767538	16.000000	n/a	8	1.350000e-01	1.350000e-01
115.546780	0.767538	dec_accept	0.767538	16.000000	n/a	8	1.442308e-01	1.442308e-01
115.546780	0.767538	dec_social_high	0.767538	16.000000	n/a	8	2.695312e-01	2.695312e-01
115.546780	0.767538	dec_social_accept_high	0.767538	16.000000	n/a	8	2.695312e-01	2.695312e-01
122.380890	1.150005	dec_nonsocial_choice	1.150005	16.000000	n/a	4	2.083333e-02	2.083333e-02
122.380890	1.150005	dec_choice	1.150005	16.000000	n/a	4	2.213542e-02	2.213542e-02
122.380890	1.150005	dec_nonsocial_accept	1.150005	16.000000	n/a	4	-1.150000e-01	-1.150000e-01
122.380890	1.150005	dec_accept	1.150005	16.000000	n/a	4	-1.250000e-01	-1.250000e-01
122.380890	1.150005	dec_nonsocial_high	1.150005	16.000000	n/a	4	2.213542e-02	2.213542e-02
122.380890	1.150005	dec_nonsocial_accept_high	1.150005	16.000000	n/a	4	-1.250000e-01	-1.250000e-01
129.213850	1.083780	dec_social_choice	1.083780	16.000000	n/a	2	-1.041667e-01	-1.041667e-01
129.213850	1.083780	dec_choice	1.083780	16.000000	n/a	2	-1.054688e-01	-1.054688e-01
129.213850	1.083780	dec_social_accept	1.083780	16.000000	n/a	2	-2.400000e-01	-2.400000e-01
129.213850	1.083780	dec_accept	1.083780	16.000000	n/a	2	-2.307692e-01	-2.307692e-01
129.213850	1.083780	dec_social_low	1.083780	16.000000	n/a	2	-1.054688e-01	-1.054688e-01
129.213850	1.083780	dec_social_accept_low	1.083780	16.000000	n/a	2	-1.054688e-01	-1.054688e-01
138.464500	1.082971	dec_nonsocial_choice	1.082971	16.000000	n/a	4	2.083333e-02	2.083333e-02
138.464500	1.082971	dec_choice	1.082971	16.000000	n/a	4	2.213542e-02	2.213542e-02
138.464500	1.082971	dec_nonsocial_accept	1.082971	16.000000	n/a	4	-1.150000e-01	-1.150000e-01
138.464500	1.082971	dec_accept	1.082971	16.000000	n/a	4	-1.250000e-01	-1.250000e-01
138.464500	1.082971	dec_nonsocial_accept_high	1.082971	16.000000	n/a	4	-1.057692e-01	-1.057692e-01
145.296630	1.117351	dec_social_choice	1.117351	16.000000	n/a	8	2.708333e-01	2.708333e-01
145.296630	1.117351	dec_choice	1.117351	16.000000	n/a	8	2.695312e-01	2.695312e-01
145.296630	1.117351	dec_social_accept	1.117351	16.000000	n/a	8	1.350000e-01	1.350000e-01
145.296630	1.117351	dec_accept	1.117351	16.000000	n/a	8	1.442308e-01	1.442308e-01
145.296630	1.117351	dec_social_high	1.117351	16.000000	n/a	8	2.695312e-01	2.695312e-01
145.296630	1.117351	dec_social_accept_high	1.117351	16.000000	n/a	8	2.695312e-01	2.695312e-01
152.130600	0.983196	dec_social_choice	0.983196	32.000000	n/a	16	2.708333e-01	2.708333e-01
152.130600	0.983196	dec_choice	0.983196	32.000000	n/a	16	2.695312e-01	2.695312e-01
152.130600	0.983196	dec_social_accept	0.983196	32.000000	n/a	16	1.350000e-01	1.350000e-01
152.130600	0.983196	dec_accept	0.983196	32.000000	n/a	16	1.442308e-01	1.442308e-01
152.130600	0.983196	dec_social_high	0.983196	32.000000	n/a	16	2.695312e-01	2.695312e-01
152.130600	0.983196	dec_social_accept_high	0.983196	32.000000	n/a	16	2.695312e-01	2.695312e-01
158.963600	1.417022	dec_social_choice	1.417022	32.000000	n/a	0	0	-2.291667e-01
158.963600	1.417022	dec_choice	1.417022	32.000000	n/a	0	0	-2.304688e-01
158.963600	1.417022	dec_social_reject	1.417022	32.000000	n/a	0	0	1.222826e-02
158.963600	1.417022	dec_reject	1.417022	32.000000	n/a	0	0	1.136364e-02
158.963600	1.417022	dec_social_low	1.417022	32.000000	n/a	0	-2.304688e-01	-2.304688e-01
158.963600	1.417022	dec_social_reject_low	1.417022	32.000000	n/a	3	-1.367188e-01	-2.304688e-01
165.797210	1.566577	dec_social_choice	1.566577	16.000000	n/a	4	2.083333e-02	2.083333e-02
165.797210	1.566577	dec_choice	1.566577	16.000000	n/a	4	1.953125e-02	1.953125e-02
165.797210	1.566577	dec_social_accept	1.566577	16.000000	n/a	4	-1.150000e-01	-1.150000e-01
165.797210	1.566577	dec_accept	1.566577	16.000000	n/a	4	-1.057692e-01	-1.057692e-01
165.797210	1.566577	dec_social_high	1.566577	16.000000	n/a	4	1.953125e-02	1.953125e-02
165.797210	1.566577	dec_social_accept_high	1.566577	16.000000	n/a	4	1.953125e-02	1.953125e-02
176.664550	0.882338	dec_social_choice	0.882338	32.000000	n/a	8	2.083333e-02	2.083333e-02
176.664550	0.882338	dec_choice	0.882338	32.000000	n/a	8	1.953125e-02	1.953125e-02
176.664550	0.882338	dec_social_accept	0.882338	32.000000	n/a	8	-1.150000e-01	-1.150000e-01
176.664550	0.882338	dec_accept	0.882338	32.000000	n/a	8	-1.057692e-01	-1.057692e-01
176.664550	0.882338	dec_social_high	0.882338	32.000000	n/a	8	1.953125e-02	1.953125e-02
176.664550	0.882338	dec_social_accept_high	0.882338	32.000000	n/a	8	1.953125e-02	1.953125e-02
184.313670	1.317001	dec_social_choice	1.317001	32.000000	n/a	0	0	-2.291667e-01
184.313670	1.317001	dec_choice	1.317001	32.000000	n/a	0	0	-2.304688e-01
184.313670	1.317001	dec_social_reject	1.317001	32.000000	n/a	0	0	1.222826e-02
184.313670	1.317001	dec_reject	1.317001	32.000000	n/a	0	0	1.136364e-02
184.313670	1.317001	dec_social_reject_low	1.317001	32.000000	n/a	3	-1.367188e-01	-2.304688e-01
191.147080	1.667426	dec_social_choice	1.667426	32.000000	n/a	0	0	-2.291667e-01
191.147080	1.667426	dec_choice	1.667426	32.000000	n/a	0	0	-2.304688e-01
191.147080	1.667426	dec_social_reject	1.667426	32.000000	n/a	0	0	-1.902174e-02
191.147080	1.667426	dec_reject	1.667426	32.000000	n/a	0	0	-1.988636e-02
191.147080	1.667426	dec_social_low	1.667426	32.000000	n/a	0	-2.304688e-01	-2.304688e-01
191.147080	1.667426	dec_social_reject_low	1.667426	32.000000	n/a	2	-1.679688e-01	-2.304688e-01
197.980710	1.199968	dec_nonsocial_choice	1.199968	16.000000	n/a	8	2.708333e-01	2.708333e-01
197.980710	1.199968	dec_choice	1.199968	16.000000	n/a	8	2.721354e-01	2.721354e-01
197.980710	1.199968	dec_nonsocial_accept	1.199968	16.000000	n/a	8	1.350000e-01	1.350000e-01
197.980710	1.199968	dec_accept	1.199968	16.000000	n/a	8	1.250000e-01	1.250000e-01
197.980710	1.199968	dec_nonsocial_high	1.199968	16.000000	n/a	8	2.721354e-01	2.721354e-01
197.980710	1.199968	dec_nonsocial_accept_high	1.199968	16.000000	n/a	8	1.250000e-01	1.250000e-01
204.813160	1.033788	dec_social_choice	1.033788	16.000000	n/a	4	2.083333e-02	2.083333e-02
204.813160	1.033788	dec_choice	1.033788	16.000000	n/a	4	1.953125e-02	1.953125e-02
204.813160	1.033788	dec_social_accept	1.033788	16.000000	n/a	4	-1.150000e-01	-1.150000e-01
204.813160	1.033788	dec_accept	1.033788	16.000000	n/a	4	-1.057692e-01	-1.057692e-01
204.813160	1.033788	dec_social_high	1.033788	16.000000	n/a	4	1.953125e-02	1.953125e-02
204.813160	1.033788	dec_social_accept_high	1.033788	16.000000	n/a	4	1.953125e-02	1.953125e-02
215.680710	1.283336	dec_nonsocial_choice	1.283336	32.000000	n/a	0	0	-2.291667e-01
215.680710	1.283336	dec_choice	1.283336	32.000000	n/a	0	0	-2.278646e-01
215.680710	1.283336	dec_nonsocial_reject	1.283336	32.000000	n/a	0	0	1.222826e-02
215.680710	1.283336	dec_reject	1.283336	32.000000	n/a	0	0	1.302083e-02
215.680710	1.283336	dec_nonsocial_low	1.283336	32.000000	n/a	0	-2.278646e-01	-2.278646e-01
215.680710	1.283336	dec_nonsocial_reject_low	1.283336	32.000000	n/a	3	1.302083e-02	-8.072917e-02
224.930630	1.349899	dec_social_choice	1.349899	16.000000	n/a	0	0	-2.291667e-01
224.930630	1.349899	dec_choice	1.349899	16.000000	n/a	0	0	-2.304688e-01
224.930630	1.349899	dec_social_reject	1.349899	16.000000	n/a	0	0	-1.902174e-02
224.930630	1.349899	dec_reject	1.349899	16.000000	n/a	0	0	-1.988636e-02
224.930630	1.349899	dec_social_low	1.349899	16.000000	n/a	0	-2.304688e-01	-2.304688e-01
224.930630	1.349899	dec_social_reject_low	1.349899	16.000000	n/a	1	-1.679688e-01	-2.304688e-01
232.581570	1.132355	dec_social_choice	1.132355	32.000000	n/a	0	0	-2.291667e-01
232.581570	1.132355	dec_choice	1.132355	32.000000	n/a	0	0	-2.304688e-01
232.581570	1.132355	dec_social_reject	1.132355	32.000000	n/a	0	0	1.222826e-02
232.581570	1.132355	dec_reject	1.132355	32.000000	n/a	0	0	1.136364e-02
232.581570	1.132355	dec_social_low	1.132355	32.000000	n/a	0	-2.304688e-01	-2.304688e-01
232.581570	1.132355	dec_social_reject_low	1.132355	32.000000	n/a	3	-1.367188e-01	-2.304688e-01
239.413600	1.283641	dec_nonsocial_choice	1.283641	16.000000	n/a	8	2.708333e-01	2.708333e-01
239.413600	1.283641	dec_choice	1.283641	16.000000	n/a	8	2.721354e-01	2.721354e-01
239.413600	1.283641	dec_nonsocial_accept	1.283641	16.000000	n/a	8	1.350000e-01	1.350000e-01
239.413600	1.283641	dec_accept	1.283641	16.000000	n/a	8	1.250000e-01	1.250000e-01
239.413600	1.283641	dec_nonsocial_accept_high	1.283641	16.000000	n/a	8	1.442308e-01	1.442308e-01
248.664960	1.414965	dec_nonsocial_choice	1.414965	16.000000	n/a	0	0	-2.291667e-01
248.664960	1.414965	dec_choice	1.414965	16.000000	n/a	0	0	-2.278646e-01
248.664960	1.414965	dec_nonsocial_reject	1.414965	16.000000	n/a	0	0	4.347826e-02
248.664960	1.414965	dec_reject	1.414965	16.000000	n/a	0	0	4.427083e-02
248.664960	1.414965	dec_nonsocial_reject_low	1.414965	16.000000	n/a	2	4.261364e-02	-8.238636e-02
255.497400	1.199768	dec_nonsocial_choice	1.199768	32.000000	n/a	0	0	-2.291667e-01
255.497400	1.199768	dec_choice	1.199768	32.000000	n/a	0	0	-2.278646e-01
255.497400	1.199768	dec_nonsocial_reject	1.199768	32.000000	n/a	0	0	1.222826e-02
255.497400	1.199768	dec_reject	1.199768	32.000000	n/a	0	0	1.302083e-02
255.497400	1.199768	dec_nonsocial_reject_low	1.199768	32.000000	n/a	3	1.136364e-02	-8.238636e-02
262.331480	1.065256	dec_nonsocial_choice	1.065256	32.000000	n/a	0	0	-2.291667e-01
262.331480	1.065256	dec_choice	1.065256	32.000000	n/a	0	0	-2.278646e-01
262.331480	1.065256	dec_nonsocial_reject	1.065256	32.000000	n/a	0	0	1.222826e-02
262.331480	1.065256	dec_reject	1.065256	32.000000	n/a	0	0	1.302083e-02
262.331480	1.065256	dec_nonsocial_reject_low	1.065256	32.000000	n/a	3	1.136364e-02	-8.238636e-02
269.980770	1.183202	dec_nonsocial_choice	1.183202	32.000000	n/a	0	0	-2.291667e-01
269.980770	1.183202	dec_choice	1.183202	32.000000	n/a	0	0	-2.278646e-01
269.980770	1.183202	dec_nonsocial_reject	1.183202	32.000000	n/a	0	0	1.222826e-02
269.980770	1.183202	dec_reject	1.183202	32.000000	n/a	0	0	1.302083e-02
269.980770	1.183202	dec_nonsocial_reject_low	1.183202	32.000000	n/a	3	1.136364e-02	-8.238636e-02
279.229800	1.184140	dec_nonsocial_choice	1.184140	16.000000	n/a	4	2.083333e-02	2.083333e-02
279.229800	1.184140	dec_choice	1.184140	16.000000	n/a	4	2.213542e-02	2.213542e-02
279.229800	1.184140	dec_nonsocial_accept	1.184140	16.000000	n/a	4	-1.150000e-01	-1.150000e-01
279.229800	1.184140	dec_accept	1.184140	16.000000	n/a	4	-1.250000e-01	-1.250000e-01
279.229800	1.184140	dec_nonsocial_high	1.184140	16.000000	n/a	4	2.213542e-02	2.213542e-02
279.229800	1.184140	dec_nonsocial_accept_high	1.184140	16.000000	n/a	4	-1.250000e-01	-1.250000e-01
286.880040	1.183662	dec_social_choice	1.183662	16.000000	n/a	0	0	-2.291667e-01
286.880040	1.183662	dec_choice	1.183662	16.000000	n/a	0	0	-2.304688e-01
286.880040	1.183662	dec_social_reject	1.183662	16.000000	n/a	0	0	-1.902174e-02
286.880040	1.183662	dec_reject	1.183662	16.000000	n/a	0	0	-1.988636e-02
286.880040	1.183662	dec_social_reject_low	1.183662	16.000000	n/a	1	-1.679688e-01	-2.304688e-01
294.530030	1.283646	dec_nonsocial_choice	1.283646	16.000000	n/a	8	2.708333e-01	2.708333e-01
294.530030	1.283646	dec_choice	1.283646	16.000000	n/a	8	2.721354e-01	2.721354e-01
294.530030	1.283646	dec_nonsocial_accept	1.283646	16.000000	n/a	8	1.350000e-01	1.350000e-01
294.530030	1.283646	dec_accept	1.283646	16.000000	n/a	8	1.250000e-01	1.250000e-01
294.530030	1.283646	dec_nonsocial_accept_high	1.283646	16.000000	n/a	8	1.442308e-01	1.442308e-01
302.181240	0.982467	dec_nonsocial_choice	0.982467	32.000000	n/a	16	2.708333e-01	2.708333e-01
302.181240	0.982467	dec_choice	0.982467	32.000000	n/a	16	2.721354e-01	2.721354e-01
302.181240	0.982467	dec_nonsocial_accept	0.982467	32.000000	n/a	16	1.350000e-01	1.350000e-01
302.181240	0.982467	dec_accept	0.982467	32.000000	n/a	16	1.250000e-01	1.250000e-01
302.181240	0.982467	dec_nonsocial_accept_high	0.982467	32.000000	n/a	16	1.442308e-01	1.442308e-01
309.013550	1.583376	dec_social_choice	1.583376	32.000000	n/a	0	0	-2.291667e-01
309.013550	1.583376	dec_choice	1.583376	32.000000	n/a	0	0	-2.304688e-01
309.013550	1.583376	dec_social_reject	1.583376	32.000000	n/a	0	0	-1.902174e-02
309.013550	1.583376	dec_reject	1.583376	32.000000	n/a	0	0	-1.988636e-02
309.013550	1.583376	dec_social_reject_low	1.583376	32.000000	n/a	2	-1.679688e-01	-2.304688e-01
315.847050	1.116119	dec_social_choice	1.116119	32.000000	n/a	8	2.083333e-02	2.083333e-02
315.847050	1.116119	dec_choice	1.116119	32.000000	n/a	8	1.953125e-02	1.953125e-02
315.847050	1.116119	dec_social_accept	1.116119	32.000000	n/a	8	-1.150000e-01	-1.150000e-01
315.847050	1.116119	dec_accept	1.116119	32.000000	n/a	8	-1.057692e-01	-1.057692e-01
315.847050	1.116119	dec_social_accept_high	1.116119	32.000000	n/a	8	1.953125e-02	1.953125e-02
322.679630	1.383880	dec_nonsocial_choice	1.383880	32.000000	n/a	0	0	-2.291667e-01
322.679630	1.383880	dec_choice	1.383880	32.000000	n/a	0	0	-2.278646e-01
322.679630	1.383880	dec_nonsocial_reject	1.383880	32.000000	n/a	0	0	-1.902174e-02
322.679630	1.383880	dec_reject	1.383880	32.000000	n/a	0	0	-1.822917e-02
322.679630	1.383880	dec_nonsocial_reject_low	1.383880	32.000000	n/a	2	-1.988636e-02	-8.238636e-02
329.513760	1.116060	dec_social_choice	1.116060	32.000000	n/a	16	2.708333e-01	2.708333e-01
329.513760	1.116060	dec_choice	1.116060	32.000000	n/a	16	2.695312e-01	2.695312e-01
329.513760	1.116060	dec_social_accept	1.116060	32.000000	n/a	16	1.350000e-01	1.350000e-01
329.513760	1.116060	dec_accept	1.116060	32.000000	n/a	16	1.442308e-01	1.442308e-01
329.513760	1.116060	dec_social_high	1.116060	32.000000	n/a	16	2.695312e-01	2.695312e-01
329.513760	1.116060	dec_social_accept_high	1.116060	32.000000	n/a	16	2.695312e-01	2.695312e-01
337.164580	1.448905	dec_social_choice	1.448905	16.000000	n/a	0	0	-2.291667e-01
337.164580	1.448905	dec_choice	1.448905	16.000000	n/a	0	0	-2.304688e-01
337.164580	1.448905	dec_social_reject	1.448905	16.000000	n/a	0	0	4.347826e-02
337.164580	1.448905	dec_reject	1.448905	16.000000	n/a	0	0	4.261364e-02
337.164580	1.448905	dec_social_low	1.448905	16.000000	n/a	0	-2.304688e-01	-2.304688e-01
337.164580	1.448905	dec_social_reject_low	1.448905	16.000000	n/a	2	-1.054688e-01	-2.304688e-01
344.814330	1.115446	dec_social_choice	1.115446	32.000000	n/a	16	2.708333e-01	2.708333e-01
344.814330	1.115446	dec_choice	1.115446	32.000000	n/a	16	2.695312e-01	2.695312e-01
344.814330	1.115446	dec_social_accept	1.115446	32.000000	n/a	16	1.350000e-01	1.350000e-01
344.814330	1.115446	dec_accept	1.115446	32.000000	n/a	16	1.442308e-01	1.442308e-01
344.814330	1.115446	dec_social_accept_high	1.115446	32.000000	n/a	16	2.695312e-01	2.695312e-01
352.463380	1.083337	dec_nonsocial_choice	1.083337	32.000000	n/a	0	0	-2.291667e-01
352.463380	1.083337	dec_choice	1.083337	32.000000	n/a	0	0	-2.278646e-01
352.463380	1.083337	dec_nonsocial_reject	1.083337	32.000000	n/a	0	0	-1.902174e-02
352.463380	1.083337	dec_reject	1.083337	32.000000	n/a	0	0	-1.822917e-02
352.463380	1.083337	dec_nonsocial_reject_low	1.083337	32.000000	n/a	2	-1.988636e-02	-8.238636e-02
359.296360	1.066210	dec_nonsocial_choice	1.066210	16.000000	n/a	0	0	-2.291667e-01
359.296360	1.066210	dec_choice	1.066210	16.000000	n/a	0	0	-2.278646e-01
359.296360	1.066210	dec_nonsocial_reject	1.066210	16.000000	n/a	0	0	-1.902174e-02
359.296360	1.066210	dec_reject	1.066210	16.000000	n/a	0	0	-1.822917e-02
359.296360	1.066210	dec_nonsocial_reject_low	1.066210	16.000000	n/a	1	-1.988636e-02	-8.238636e-02
366.130430	1.032900	dec_nonsocial_choice	1.032900	32.000000	n/a	0	0	-2.291667e-01
366.130430	1.032900	dec_choice	1.032900	32.000000	n/a	0	0	-2.278646e-01
366.130430	1.032900	dec_nonsocial_reject	1.032900	32.000000	n/a	0	0	-1.902174e-02
366.130430	1.032900	dec_reject	1.032900	32.000000	n/a	0	0	-1.822917e-02
366.130430	1.032900	dec_nonsocial_reject_low	1.032900	32.000000	n/a	2	-1.988636e-02	-8.238636e-02
372.962500	0.900855	dec_nonsocial_choice	0.900855	16.000000	n/a	8	2.708333e-01	2.708333e-01
372.962500	0.900855	dec_choice	0.900855	16.000000	n/a	8	2.721354e-01	2.721354e-01
372.962500	0.900855	dec_nonsocial_accept	0.900855	16.000000	n/a	8	1.350000e-01	1.350000e-01
372.962500	0.900855	dec_accept	0.900855	16.000000	n/a	8	1.250000e-01	1.250000e-01
372.962500	0.900855	dec_nonsocial_high	0.900855	16.000000	n/a	8	2.721354e-01	2.721354e-01
372.962500	0.900855	dec_nonsocial_accept_high	0.900855	16.000000	n/a	8	1.250000e-01	1.250000e-01
