onset	duration	trial_type	response_time	Endowment	Endowment_pmod	Decision	Decision_pmod	Offer_pmod
4.519456	2	cue_nonsocial	n/a	16	-5	n/a	n/a	n/a
4.519456	2	cue_nonsocial_low	n/a	16	-13	n/a	n/a	n/a
11.369795	2	cue_nonsocial	n/a	16	-5	n/a	n/a	n/a
11.369795	2	cue_nonsocial_low	n/a	16	-13	n/a	n/a	n/a
19.019293	2	cue_nonsocial	n/a	16	-5	n/a	n/a	n/a
19.019293	2	cue_nonsocial_low	n/a	16	-13	n/a	n/a	n/a
28.288439	2	cue_social	n/a	32	3	n/a	n/a	n/a
28.288439	2	cue_social_high	n/a	32	11	n/a	n/a	n/a
35.238785	2	cue_social	n/a	16	-13	n/a	n/a	n/a
35.238785	2	cue_social_low	n/a	16	-5	n/a	n/a	n/a
42.087470	2	cue_social	n/a	16	-13	n/a	n/a	n/a
42.087470	2	cue_social_low	n/a	16	-5	n/a	n/a	n/a
49.721256	2	cue_social	n/a	16	-13	n/a	n/a	n/a
49.721256	2	cue_social_low	n/a	16	-5	n/a	n/a	n/a
56.485930	2	cue_nonsocial	n/a	16	-5	n/a	n/a	n/a
56.485930	2	cue_nonsocial_low	n/a	16	-13	n/a	n/a	n/a
64.157080	2	cue_social	n/a	32	3	n/a	n/a	n/a
64.157080	2	cue_social_high	n/a	32	11	n/a	n/a	n/a
75.019295	2	cue_nonsocial	n/a	16	-5	n/a	n/a	n/a
75.019295	2	cue_nonsocial_low	n/a	16	-13	n/a	n/a	n/a
81.869820	2	cue_nonsocial	n/a	32	11	n/a	n/a	n/a
81.869820	2	cue_nonsocial_high	n/a	32	3	n/a	n/a	n/a
88.818726	2	cue_social	n/a	32	3	n/a	n/a	n/a
88.818726	2	cue_social_high	n/a	32	11	n/a	n/a	n/a
96.369255	2	cue_nonsocial	n/a	32	11	n/a	n/a	n/a
96.369255	2	cue_nonsocial_high	n/a	32	3	n/a	n/a	n/a
103.322180	2	cue_social	n/a	32	3	n/a	n/a	n/a
103.322180	2	cue_social_high	n/a	32	11	n/a	n/a	n/a
110.869514	2	cue_nonsocial	n/a	16	-5	n/a	n/a	n/a
110.869514	2	cue_nonsocial_low	n/a	16	-13	n/a	n/a	n/a
120.140620	2	cue_social	n/a	32	3	n/a	n/a	n/a
120.140620	2	cue_social_high	n/a	32	11	n/a	n/a	n/a
127.102070	2	cue_social	n/a	16	-13	n/a	n/a	n/a
127.102070	2	cue_social_low	n/a	16	-5	n/a	n/a	n/a
133.874820	2	cue_social	n/a	16	-13	n/a	n/a	n/a
133.874820	2	cue_social_low	n/a	16	-5	n/a	n/a	n/a
141.502670	2	cue_nonsocial	n/a	16	-5	n/a	n/a	n/a
141.502670	2	cue_nonsocial_low	n/a	16	-13	n/a	n/a	n/a
148.354250	2	cue_social	n/a	32	3	n/a	n/a	n/a
148.354250	2	cue_social_high	n/a	32	11	n/a	n/a	n/a
155.202560	2	cue_nonsocial	n/a	16	-5	n/a	n/a	n/a
155.202560	2	cue_nonsocial_low	n/a	16	-13	n/a	n/a	n/a
162.852900	2	cue_nonsocial	n/a	16	-5	n/a	n/a	n/a
162.852900	2	cue_nonsocial_low	n/a	16	-13	n/a	n/a	n/a
170.600170	2	cue_social	n/a	32	3	n/a	n/a	n/a
170.600170	2	cue_social_high	n/a	32	11	n/a	n/a	n/a
179.869260	2	cue_social	n/a	32	3	n/a	n/a	n/a
179.869260	2	cue_social_high	n/a	32	11	n/a	n/a	n/a
187.517750	2	cue_social	n/a	32	3	n/a	n/a	n/a
187.517750	2	cue_social_high	n/a	32	11	n/a	n/a	n/a
194.269040	2	cue_nonsocial	n/a	32	11	n/a	n/a	n/a
194.269040	2	cue_nonsocial_high	n/a	32	3	n/a	n/a	n/a
201.919390	2	cue_nonsocial	n/a	32	11	n/a	n/a	n/a
201.919390	2	cue_nonsocial_high	n/a	32	3	n/a	n/a	n/a
208.768830	2	cue_nonsocial	n/a	32	11	n/a	n/a	n/a
208.768830	2	cue_nonsocial_high	n/a	32	3	n/a	n/a	n/a
219.679110	2	cue_social	n/a	32	3	n/a	n/a	n/a
219.679110	2	cue_social_high	n/a	32	11	n/a	n/a	n/a
226.603840	2	cue_social	n/a	32	3	n/a	n/a	n/a
226.603840	2	cue_social_high	n/a	32	11	n/a	n/a	n/a
233.435260	2	cue_social	n/a	32	3	n/a	n/a	n/a
233.435260	2	cue_social_high	n/a	32	11	n/a	n/a	n/a
242.619460	2	cue_nonsocial	n/a	16	-5	n/a	n/a	n/a
242.619460	2	cue_nonsocial_low	n/a	16	-13	n/a	n/a	n/a
249.469000	2	cue_nonsocial	n/a	16	-5	n/a	n/a	n/a
249.469000	2	cue_nonsocial_low	n/a	16	-13	n/a	n/a	n/a
256.318970	2	cue_nonsocial	n/a	16	-5	n/a	n/a	n/a
256.318970	2	cue_nonsocial_low	n/a	16	-13	n/a	n/a	n/a
265.664520	2	cue_social	n/a	32	3	n/a	n/a	n/a
265.664520	2	cue_social_high	n/a	32	11	n/a	n/a	n/a
272.435420	2	cue_nonsocial	n/a	16	-5	n/a	n/a	n/a
272.435420	2	cue_nonsocial_low	n/a	16	-13	n/a	n/a	n/a
281.783170	2	cue_social	n/a	32	3	n/a	n/a	n/a
281.783170	2	cue_social_high	n/a	32	11	n/a	n/a	n/a
288.552340	2	cue_nonsocial	n/a	32	11	n/a	n/a	n/a
288.552340	2	cue_nonsocial_high	n/a	32	3	n/a	n/a	n/a
295.483400	2	cue_social	n/a	32	3	n/a	n/a	n/a
295.483400	2	cue_social_high	n/a	32	11	n/a	n/a	n/a
306.285770	2	cue_nonsocial	n/a	16	-5	n/a	n/a	n/a
306.285770	2	cue_nonsocial_low	n/a	16	-13	n/a	n/a	n/a
313.936680	2	cue_nonsocial	n/a	16	-5	n/a	n/a	n/a
313.936680	2	cue_nonsocial_low	n/a	16	-13	n/a	n/a	n/a
321.684700	2	cue_social	n/a	32	3	n/a	n/a	n/a
321.684700	2	cue_social_high	n/a	32	11	n/a	n/a	n/a
328.439670	2	cue_social	n/a	32	3	n/a	n/a	n/a
328.439670	2	cue_social_high	n/a	32	11	n/a	n/a	n/a
336.182860	2	cue_social	n/a	32	3	n/a	n/a	n/a
336.182860	2	cue_social_high	n/a	32	11	n/a	n/a	n/a
342.935300	2	cue_nonsocial	n/a	32	11	n/a	n/a	n/a
342.935300	2	cue_nonsocial_high	n/a	32	3	n/a	n/a	n/a
349.785280	2	cue_nonsocial	n/a	32	11	n/a	n/a	n/a
349.785280	2	cue_nonsocial_high	n/a	32	3	n/a	n/a	n/a
359.153200	2	cue_social	n/a	32	3	n/a	n/a	n/a
359.153200	2	cue_social_high	n/a	32	11	n/a	n/a	n/a
371.552030	2	cue_nonsocial	n/a	16	-5	n/a	n/a	n/a
371.552030	2	cue_nonsocial_low	n/a	16	-13	n/a	n/a	n/a
6.525591	2.216556	dec_nonsocial_choice	2.216556	16.000000	n/a	2	-1.077128e-01	-1.077128e-01
6.525591	2.216556	dec_choice	2.216556	16.000000	n/a	2	-1.141304e-01	-1.141304e-01
6.525591	2.216556	dec_nonsocial_accept	2.216556	16.000000	n/a	2	-1.279762e-01	-1.279762e-01
6.525591	2.216556	dec_accept	2.216556	16.000000	n/a	2	-1.406250e-01	-1.406250e-01
6.525591	2.216556	dec_nonsocial_low	2.216556	16.000000	n/a	2	-1.141304e-01	-1.141304e-01
6.525591	2.216556	dec_nonsocial_accept_low	2.216556	16.000000	n/a	2	-1.406250e-01	-1.406250e-01
13.375511	1.766764	dec_nonsocial_choice	1.766764	16.000000	n/a	1	-1.702128e-01	-1.702128e-01
13.375511	1.766764	dec_choice	1.766764	16.000000	n/a	1	-1.766304e-01	-1.766304e-01
13.375511	1.766764	dec_nonsocial_accept	1.766764	16.000000	n/a	1	-1.904762e-01	-1.904762e-01
13.375511	1.766764	dec_accept	1.766764	16.000000	n/a	1	-2.031250e-01	-2.031250e-01
13.375511	1.766764	dec_nonsocial_low	1.766764	16.000000	n/a	1	-1.766304e-01	-1.766304e-01
13.375511	1.766764	dec_nonsocial_accept_low	1.766764	16.000000	n/a	1	-2.031250e-01	-2.031250e-01
21.025640	1.666591	dec_nonsocial_choice	1.666591	16.000000	n/a	4	1.728723e-02	1.728723e-02
21.025640	1.666591	dec_choice	1.666591	16.000000	n/a	4	1.086957e-02	1.086957e-02
21.025640	1.666591	dec_nonsocial_accept	1.666591	16.000000	n/a	4	-2.976190e-03	-2.976190e-03
21.025640	1.666591	dec_accept	1.666591	16.000000	n/a	4	-1.562500e-02	-1.562500e-02
21.025640	1.666591	dec_nonsocial_accept_high	1.666591	16.000000	n/a	4	8.522727e-03	8.522727e-03
30.291607	1.900590	dec_social_choice	1.900590	32.000000	n/a	2	-1.702128e-01	-1.702128e-01
30.291607	1.900590	dec_choice	1.900590	32.000000	n/a	2	-1.640625e-01	-1.640625e-01
30.291607	1.900590	dec_social_accept	1.900590	32.000000	n/a	2	-1.904762e-01	-1.904762e-01
30.291607	1.900590	dec_accept	1.900590	32.000000	n/a	2	-1.789773e-01	-1.789773e-01
30.291607	1.900590	dec_social_accept_low	1.900590	32.000000	n/a	2	-1.640625e-01	-1.640625e-01
37.143100	1.932447	dec_social_choice	1.932447	16.000000	n/a	8	2.672872e-01	2.672872e-01
37.143100	1.932447	dec_choice	1.932447	16.000000	n/a	8	2.734375e-01	2.734375e-01
37.143100	1.932447	dec_social_accept	1.932447	16.000000	n/a	8	2.470238e-01	2.470238e-01
37.143100	1.932447	dec_accept	1.932447	16.000000	n/a	8	2.585227e-01	2.585227e-01
37.143100	1.932447	dec_social_high	1.932447	16.000000	n/a	8	2.734375e-01	2.734375e-01
37.143100	1.932447	dec_social_accept_high	1.932447	16.000000	n/a	8	2.734375e-01	2.734375e-01
43.991600	2.417321	dec_social_choice	2.417321	16.000000	n/a	1	-1.702128e-01	-1.702128e-01
43.991600	2.417321	dec_choice	2.417321	16.000000	n/a	1	-1.640625e-01	-1.640625e-01
43.991600	2.417321	dec_social_accept	2.417321	16.000000	n/a	1	-1.904762e-01	-1.904762e-01
43.991600	2.417321	dec_accept	2.417321	16.000000	n/a	1	-1.789773e-01	-1.789773e-01
43.991600	2.417321	dec_social_low	2.417321	16.000000	n/a	1	-1.640625e-01	-1.640625e-01
43.991600	2.417321	dec_social_accept_low	2.417321	16.000000	n/a	1	-1.640625e-01	-1.640625e-01
51.641678	1.500517	dec_social_choice	1.500517	16.000000	n/a	4	1.728723e-02	1.728723e-02
51.641678	1.500517	dec_choice	1.500517	16.000000	n/a	4	2.343750e-02	2.343750e-02
51.641678	1.500517	dec_social_accept	1.500517	16.000000	n/a	4	-2.976190e-03	-2.976190e-03
51.641678	1.500517	dec_accept	1.500517	16.000000	n/a	4	8.522727e-03	8.522727e-03
51.641678	1.500517	dec_social_accept_high	1.500517	16.000000	n/a	4	2.343750e-02	2.343750e-02
58.492630	1.549501	dec_nonsocial_choice	1.549501	16.000000	n/a	8	2.672872e-01	2.672872e-01
58.492630	1.549501	dec_choice	1.549501	16.000000	n/a	8	2.608696e-01	2.608696e-01
58.492630	1.549501	dec_nonsocial_accept	1.549501	16.000000	n/a	8	2.470238e-01	2.470238e-01
58.492630	1.549501	dec_accept	1.549501	16.000000	n/a	8	2.343750e-01	2.343750e-01
58.492630	1.549501	dec_nonsocial_high	1.549501	16.000000	n/a	8	2.608696e-01	2.608696e-01
58.492630	1.549501	dec_nonsocial_accept_high	1.549501	16.000000	n/a	8	2.343750e-01	2.343750e-01
66.142105	1.450027	dec_social_choice	1.450027	32.000000	n/a	16	2.672872e-01	2.672872e-01
66.142105	1.450027	dec_choice	1.450027	32.000000	n/a	16	2.734375e-01	2.734375e-01
66.142105	1.450027	dec_social_accept	1.450027	32.000000	n/a	16	2.470238e-01	2.470238e-01
66.142105	1.450027	dec_accept	1.450027	32.000000	n/a	16	2.585227e-01	2.585227e-01
66.142105	1.450027	dec_social_high	1.450027	32.000000	n/a	16	2.734375e-01	2.734375e-01
66.142105	1.450027	dec_social_accept_high	1.450027	32.000000	n/a	16	2.734375e-01	2.734375e-01
77.025490	1.549946	dec_nonsocial_choice	1.549946	16.000000	n/a	4	1.728723e-02	1.728723e-02
77.025490	1.549946	dec_choice	1.549946	16.000000	n/a	4	1.086957e-02	1.086957e-02
77.025490	1.549946	dec_nonsocial_accept	1.549946	16.000000	n/a	4	-2.976190e-03	-2.976190e-03
77.025490	1.549946	dec_accept	1.549946	16.000000	n/a	4	-1.562500e-02	-1.562500e-02
77.025490	1.549946	dec_nonsocial_high	1.549946	16.000000	n/a	4	1.086957e-02	1.086957e-02
77.025490	1.549946	dec_nonsocial_accept_high	1.549946	16.000000	n/a	4	-1.562500e-02	-1.562500e-02
83.874590	2.667478	dec_nonsocial_choice	2.667478	32.000000	n/a	2	-1.702128e-01	-1.702128e-01
83.874590	2.667478	dec_choice	2.667478	32.000000	n/a	2	-1.766304e-01	-1.766304e-01
83.874590	2.667478	dec_nonsocial_accept	2.667478	32.000000	n/a	2	-1.904762e-01	-1.904762e-01
83.874590	2.667478	dec_accept	2.667478	32.000000	n/a	2	-2.031250e-01	-2.031250e-01
83.874590	2.667478	dec_nonsocial_low	2.667478	32.000000	n/a	2	-1.766304e-01	-1.766304e-01
83.874590	2.667478	dec_nonsocial_accept_low	2.667478	32.000000	n/a	2	-2.031250e-01	-2.031250e-01
90.725174	1.500214	dec_social_choice	1.500214	32.000000	n/a	3	-1.389628e-01	-1.389628e-01
90.725174	1.500214	dec_choice	1.500214	32.000000	n/a	3	-1.328125e-01	-1.328125e-01
90.725174	1.500214	dec_social_accept	1.500214	32.000000	n/a	3	-1.592262e-01	-1.592262e-01
90.725174	1.500214	dec_accept	1.500214	32.000000	n/a	3	-1.477273e-01	-1.477273e-01
90.725174	1.500214	dec_social_low	1.500214	32.000000	n/a	3	-1.328125e-01	-1.328125e-01
90.725174	1.500214	dec_social_accept_low	1.500214	32.000000	n/a	3	-1.328125e-01	-1.328125e-01
98.374570	1.350819	dec_nonsocial_choice	1.350819	32.000000	n/a	16	2.672872e-01	2.672872e-01
98.374570	1.350819	dec_choice	1.350819	32.000000	n/a	16	2.608696e-01	2.608696e-01
98.374570	1.350819	dec_nonsocial_accept	1.350819	32.000000	n/a	16	2.470238e-01	2.470238e-01
98.374570	1.350819	dec_accept	1.350819	32.000000	n/a	16	2.343750e-01	2.343750e-01
98.374570	1.350819	dec_nonsocial_high	1.350819	32.000000	n/a	16	2.608696e-01	2.608696e-01
98.374570	1.350819	dec_nonsocial_accept_high	1.350819	32.000000	n/a	16	2.343750e-01	2.343750e-01
105.225500	1.133112	dec_social_choice	1.133112	32.000000	n/a	8	1.728723e-02	1.728723e-02
105.225500	1.133112	dec_choice	1.133112	32.000000	n/a	8	2.343750e-02	2.343750e-02
105.225500	1.133112	dec_social_accept	1.133112	32.000000	n/a	8	-2.976190e-03	-2.976190e-03
105.225500	1.133112	dec_accept	1.133112	32.000000	n/a	8	8.522727e-03	8.522727e-03
105.225500	1.133112	dec_social_high	1.133112	32.000000	n/a	8	2.343750e-02	2.343750e-02
105.225500	1.133112	dec_social_accept_high	1.133112	32.000000	n/a	8	2.343750e-02	2.343750e-02
112.875916	3.766946	missed_trial	3.766946	16.000000	n/a	n/a	n/a	n/a
122.158360	0.950298	dec_social_choice	0.950298	32.000000	n/a	3	-1.389628e-01	-1.389628e-01
122.158360	0.950298	dec_choice	0.950298	32.000000	n/a	3	-1.328125e-01	-1.328125e-01
122.158360	0.950298	dec_social_accept	0.950298	32.000000	n/a	3	-1.592262e-01	-1.592262e-01
122.158360	0.950298	dec_accept	0.950298	32.000000	n/a	3	-1.477273e-01	-1.477273e-01
122.158360	0.950298	dec_social_low	0.950298	32.000000	n/a	3	-1.328125e-01	-1.328125e-01
122.158360	0.950298	dec_social_accept_low	0.950298	32.000000	n/a	3	-1.328125e-01	-1.328125e-01
129.008220	1.200404	dec_social_choice	1.200404	16.000000	n/a	0	0	-2.327128e-01
129.008220	1.200404	dec_choice	1.200404	16.000000	n/a	0	0	-2.265625e-01
129.008220	1.200404	dec_social_reject	1.200404	16.000000	n/a	0	0	0
129.008220	1.200404	dec_reject	1.200404	16.000000	n/a	0	0	0
129.008220	1.200404	dec_social_low	1.200404	16.000000	n/a	0	-2.265625e-01	-2.265625e-01
129.008220	1.200404	dec_social_reject_low	1.200404	16.000000	n/a	1	-1.640625e-01	-2.265625e-01
135.858760	0.966572	dec_social_choice	0.966572	16.000000	n/a	8	2.672872e-01	2.672872e-01
135.858760	0.966572	dec_choice	0.966572	16.000000	n/a	8	2.734375e-01	2.734375e-01
135.858760	0.966572	dec_social_accept	0.966572	16.000000	n/a	8	2.470238e-01	2.470238e-01
135.858760	0.966572	dec_accept	0.966572	16.000000	n/a	8	2.585227e-01	2.585227e-01
135.858760	0.966572	dec_social_accept_high	0.966572	16.000000	n/a	8	2.734375e-01	2.734375e-01
143.509500	0.832388	dec_nonsocial_choice	0.832388	16.000000	n/a	8	2.672872e-01	2.672872e-01
143.509500	0.832388	dec_choice	0.832388	16.000000	n/a	8	2.608696e-01	2.608696e-01
143.509500	0.832388	dec_nonsocial_accept	0.832388	16.000000	n/a	8	2.470238e-01	2.470238e-01
143.509500	0.832388	dec_accept	0.832388	16.000000	n/a	8	2.343750e-01	2.343750e-01
143.509500	0.832388	dec_nonsocial_accept_high	0.832388	16.000000	n/a	8	2.585227e-01	2.585227e-01
150.358430	1.100209	dec_social_choice	1.100209	32.000000	n/a	2	-1.702128e-01	-1.702128e-01
150.358430	1.100209	dec_choice	1.100209	32.000000	n/a	2	-1.640625e-01	-1.640625e-01
150.358430	1.100209	dec_social_accept	1.100209	32.000000	n/a	2	-1.904762e-01	-1.904762e-01
150.358430	1.100209	dec_accept	1.100209	32.000000	n/a	2	-1.789773e-01	-1.789773e-01
150.358430	1.100209	dec_social_low	1.100209	32.000000	n/a	2	-1.640625e-01	-1.640625e-01
150.358430	1.100209	dec_social_accept_low	1.100209	32.000000	n/a	2	-1.640625e-01	-1.640625e-01
157.208530	1.083284	dec_nonsocial_choice	1.083284	16.000000	n/a	2	-1.077128e-01	-1.077128e-01
157.208530	1.083284	dec_choice	1.083284	16.000000	n/a	2	-1.141304e-01	-1.141304e-01
157.208530	1.083284	dec_nonsocial_accept	1.083284	16.000000	n/a	2	-1.279762e-01	-1.279762e-01
157.208530	1.083284	dec_accept	1.083284	16.000000	n/a	2	-1.406250e-01	-1.406250e-01
157.208530	1.083284	dec_nonsocial_low	1.083284	16.000000	n/a	2	-1.141304e-01	-1.141304e-01
157.208530	1.083284	dec_nonsocial_accept_low	1.083284	16.000000	n/a	2	-1.406250e-01	-1.406250e-01
164.858540	1.500097	dec_nonsocial_choice	1.500097	16.000000	n/a	0	0	-2.327128e-01
164.858540	1.500097	dec_choice	1.500097	16.000000	n/a	0	0	-2.391304e-01
164.858540	1.500097	dec_nonsocial_reject	1.500097	16.000000	n/a	0	0	0
164.858540	1.500097	dec_reject	1.500097	16.000000	n/a	0	0	0
164.858540	1.500097	dec_nonsocial_reject_low	1.500097	16.000000	n/a	1	0	-6.250000e-02
172.508360	1.283548	dec_social_choice	1.283548	32.000000	n/a	3	-1.389628e-01	-1.389628e-01
172.508360	1.283548	dec_choice	1.283548	32.000000	n/a	3	-1.328125e-01	-1.328125e-01
172.508360	1.283548	dec_social_accept	1.283548	32.000000	n/a	3	-1.592262e-01	-1.592262e-01
172.508360	1.283548	dec_accept	1.283548	32.000000	n/a	3	-1.477273e-01	-1.477273e-01
172.508360	1.283548	dec_social_accept_low	1.283548	32.000000	n/a	3	-1.328125e-01	-1.328125e-01
181.774660	1.050521	dec_social_choice	1.050521	32.000000	n/a	8	1.728723e-02	1.728723e-02
181.774660	1.050521	dec_choice	1.050521	32.000000	n/a	8	2.343750e-02	2.343750e-02
181.774660	1.050521	dec_social_accept	1.050521	32.000000	n/a	8	-2.976190e-03	-2.976190e-03
181.774660	1.050521	dec_accept	1.050521	32.000000	n/a	8	8.522727e-03	8.522727e-03
181.774660	1.050521	dec_social_high	1.050521	32.000000	n/a	8	2.343750e-02	2.343750e-02
181.774660	1.050521	dec_social_accept_high	1.050521	32.000000	n/a	8	2.343750e-02	2.343750e-02
189.425060	1.200589	dec_social_choice	1.200589	32.000000	n/a	16	2.672872e-01	2.672872e-01
189.425060	1.200589	dec_choice	1.200589	32.000000	n/a	16	2.734375e-01	2.734375e-01
189.425060	1.200589	dec_social_accept	1.200589	32.000000	n/a	16	2.470238e-01	2.470238e-01
189.425060	1.200589	dec_accept	1.200589	32.000000	n/a	16	2.585227e-01	2.585227e-01
189.425060	1.200589	dec_social_accept_high	1.200589	32.000000	n/a	16	2.734375e-01	2.734375e-01
196.275040	1.050173	dec_nonsocial_choice	1.050173	32.000000	n/a	3	-1.389628e-01	-1.389628e-01
196.275040	1.050173	dec_choice	1.050173	32.000000	n/a	3	-1.453804e-01	-1.453804e-01
196.275040	1.050173	dec_nonsocial_accept	1.050173	32.000000	n/a	3	-1.592262e-01	-1.592262e-01
196.275040	1.050173	dec_accept	1.050173	32.000000	n/a	3	-1.718750e-01	-1.718750e-01
196.275040	1.050173	dec_nonsocial_low	1.050173	32.000000	n/a	3	-1.453804e-01	-1.453804e-01
196.275040	1.050173	dec_nonsocial_accept_low	1.050173	32.000000	n/a	3	-1.718750e-01	-1.718750e-01
203.925370	1.083063	dec_nonsocial_choice	1.083063	32.000000	n/a	16	2.672872e-01	2.672872e-01
203.925370	1.083063	dec_choice	1.083063	32.000000	n/a	16	2.608696e-01	2.608696e-01
203.925370	1.083063	dec_nonsocial_accept	1.083063	32.000000	n/a	16	2.470238e-01	2.470238e-01
203.925370	1.083063	dec_accept	1.083063	32.000000	n/a	16	2.343750e-01	2.343750e-01
203.925370	1.083063	dec_nonsocial_high	1.083063	32.000000	n/a	16	2.608696e-01	2.608696e-01
203.925370	1.083063	dec_nonsocial_accept_high	1.083063	32.000000	n/a	16	2.343750e-01	2.343750e-01
210.775450	0.999681	dec_nonsocial_choice	0.999681	32.000000	n/a	8	1.728723e-02	1.728723e-02
210.775450	0.999681	dec_choice	0.999681	32.000000	n/a	8	1.086957e-02	1.086957e-02
210.775450	0.999681	dec_nonsocial_accept	0.999681	32.000000	n/a	8	-2.976190e-03	-2.976190e-03
210.775450	0.999681	dec_accept	0.999681	32.000000	n/a	8	-1.562500e-02	-1.562500e-02
210.775450	0.999681	dec_nonsocial_high	0.999681	32.000000	n/a	8	1.086957e-02	1.086957e-02
210.775450	0.999681	dec_nonsocial_accept_high	0.999681	32.000000	n/a	8	-1.562500e-02	-1.562500e-02
221.657990	2.217310	dec_social_choice	2.217310	32.000000	n/a	0	0	-2.327128e-01
221.657990	2.217310	dec_choice	2.217310	32.000000	n/a	0	0	-2.265625e-01
221.657990	2.217310	dec_social_reject	2.217310	32.000000	n/a	0	0	0
221.657990	2.217310	dec_reject	2.217310	32.000000	n/a	0	0	0
221.657990	2.217310	dec_social_low	2.217310	32.000000	n/a	0	-2.265625e-01	-2.265625e-01
221.657990	2.217310	dec_social_reject_low	2.217310	32.000000	n/a	2	-1.640625e-01	-2.265625e-01
228.508540	1.033150	dec_social_choice	1.033150	32.000000	n/a	8	1.728723e-02	1.728723e-02
228.508540	1.033150	dec_choice	1.033150	32.000000	n/a	8	2.343750e-02	2.343750e-02
228.508540	1.033150	dec_social_accept	1.033150	32.000000	n/a	8	-2.976190e-03	-2.976190e-03
228.508540	1.033150	dec_accept	1.033150	32.000000	n/a	8	8.522727e-03	8.522727e-03
228.508540	1.033150	dec_social_high	1.033150	32.000000	n/a	8	2.343750e-02	2.343750e-02
228.508540	1.033150	dec_social_accept_high	1.033150	32.000000	n/a	8	2.343750e-02	2.343750e-02
235.358460	1.233263	dec_social_choice	1.233263	32.000000	n/a	3	-1.389628e-01	-1.389628e-01
235.358460	1.233263	dec_choice	1.233263	32.000000	n/a	3	-1.328125e-01	-1.328125e-01
235.358460	1.233263	dec_social_accept	1.233263	32.000000	n/a	3	-1.592262e-01	-1.592262e-01
235.358460	1.233263	dec_accept	1.233263	32.000000	n/a	3	-1.477273e-01	-1.477273e-01
235.358460	1.233263	dec_social_low	1.233263	32.000000	n/a	3	-1.328125e-01	-1.328125e-01
235.358460	1.233263	dec_social_accept_low	1.233263	32.000000	n/a	3	-1.328125e-01	-1.328125e-01
244.625320	1.616353	dec_nonsocial_choice	1.616353	16.000000	n/a	0	0	-2.327128e-01
244.625320	1.616353	dec_choice	1.616353	16.000000	n/a	0	0	-2.391304e-01
244.625320	1.616353	dec_nonsocial_reject	1.616353	16.000000	n/a	0	0	0
244.625320	1.616353	dec_reject	1.616353	16.000000	n/a	0	0	0
244.625320	1.616353	dec_nonsocial_low	1.616353	16.000000	n/a	0	-2.391304e-01	-2.391304e-01
244.625320	1.616353	dec_nonsocial_reject_low	1.616353	16.000000	n/a	1	0	-6.250000e-02
251.475460	1.599804	dec_nonsocial_choice	1.599804	16.000000	n/a	2	-1.077128e-01	-1.077128e-01
251.475460	1.599804	dec_choice	1.599804	16.000000	n/a	2	-1.141304e-01	-1.141304e-01
251.475460	1.599804	dec_nonsocial_accept	1.599804	16.000000	n/a	2	-1.279762e-01	-1.279762e-01
251.475460	1.599804	dec_accept	1.599804	16.000000	n/a	2	-1.406250e-01	-1.406250e-01
251.475460	1.599804	dec_nonsocial_accept_low	1.599804	16.000000	n/a	2	-1.164773e-01	-1.164773e-01
258.324340	1.450546	dec_nonsocial_choice	1.450546	16.000000	n/a	4	1.728723e-02	1.728723e-02
258.324340	1.450546	dec_choice	1.450546	16.000000	n/a	4	1.086957e-02	1.086957e-02
258.324340	1.450546	dec_nonsocial_accept	1.450546	16.000000	n/a	4	-2.976190e-03	-2.976190e-03
258.324340	1.450546	dec_accept	1.450546	16.000000	n/a	4	-1.562500e-02	-1.562500e-02
258.324340	1.450546	dec_nonsocial_accept_high	1.450546	16.000000	n/a	4	8.522727e-03	8.522727e-03
267.592320	1.499245	dec_social_choice	1.499245	32.000000	n/a	3	-1.389628e-01	-1.389628e-01
267.592320	1.499245	dec_choice	1.499245	32.000000	n/a	3	-1.328125e-01	-1.328125e-01
267.592320	1.499245	dec_social_accept	1.499245	32.000000	n/a	3	-1.592262e-01	-1.592262e-01
267.592320	1.499245	dec_accept	1.499245	32.000000	n/a	3	-1.477273e-01	-1.477273e-01
267.592320	1.499245	dec_social_low	1.499245	32.000000	n/a	3	-1.328125e-01	-1.328125e-01
267.592320	1.499245	dec_social_accept_low	1.499245	32.000000	n/a	3	-1.328125e-01	-1.328125e-01
274.441680	1.166619	dec_nonsocial_choice	1.166619	16.000000	n/a	8	2.672872e-01	2.672872e-01
274.441680	1.166619	dec_choice	1.166619	16.000000	n/a	8	2.608696e-01	2.608696e-01
274.441680	1.166619	dec_nonsocial_accept	1.166619	16.000000	n/a	8	2.470238e-01	2.470238e-01
274.441680	1.166619	dec_accept	1.166619	16.000000	n/a	8	2.343750e-01	2.343750e-01
274.441680	1.166619	dec_nonsocial_high	1.166619	16.000000	n/a	8	2.608696e-01	2.608696e-01
274.441680	1.166619	dec_nonsocial_accept_high	1.166619	16.000000	n/a	8	2.343750e-01	2.343750e-01
283.708300	1.116600	dec_social_choice	1.116600	32.000000	n/a	3	-1.389628e-01	-1.389628e-01
283.708300	1.116600	dec_choice	1.116600	32.000000	n/a	3	-1.328125e-01	-1.328125e-01
283.708300	1.116600	dec_social_accept	1.116600	32.000000	n/a	3	-1.592262e-01	-1.592262e-01
283.708300	1.116600	dec_accept	1.116600	32.000000	n/a	3	-1.477273e-01	-1.477273e-01
283.708300	1.116600	dec_social_low	1.116600	32.000000	n/a	3	-1.328125e-01	-1.328125e-01
283.708300	1.116600	dec_social_accept_low	1.116600	32.000000	n/a	3	-1.328125e-01	-1.328125e-01
290.558260	1.166828	dec_nonsocial_choice	1.166828	32.000000	n/a	8	1.728723e-02	1.728723e-02
290.558260	1.166828	dec_choice	1.166828	32.000000	n/a	8	1.086957e-02	1.086957e-02
290.558260	1.166828	dec_nonsocial_accept	1.166828	32.000000	n/a	8	-2.976190e-03	-2.976190e-03
290.558260	1.166828	dec_accept	1.166828	32.000000	n/a	8	-1.562500e-02	-1.562500e-02
290.558260	1.166828	dec_nonsocial_accept_high	1.166828	32.000000	n/a	8	8.522727e-03	8.522727e-03
297.408230	1.199895	dec_social_choice	1.199895	32.000000	n/a	8	1.728723e-02	1.728723e-02
297.408230	1.199895	dec_choice	1.199895	32.000000	n/a	8	2.343750e-02	2.343750e-02
297.408230	1.199895	dec_social_accept	1.199895	32.000000	n/a	8	-2.976190e-03	-2.976190e-03
297.408230	1.199895	dec_accept	1.199895	32.000000	n/a	8	8.522727e-03	8.522727e-03
297.408230	1.199895	dec_social_accept_high	1.199895	32.000000	n/a	8	2.343750e-02	2.343750e-02
308.291470	1.766780	dec_nonsocial_choice	1.766780	16.000000	n/a	0	0	-2.327128e-01
308.291470	1.766780	dec_choice	1.766780	16.000000	n/a	0	0	-2.391304e-01
308.291470	1.766780	dec_nonsocial_reject	1.766780	16.000000	n/a	0	0	0
308.291470	1.766780	dec_reject	1.766780	16.000000	n/a	0	0	0
308.291470	1.766780	dec_nonsocial_low	1.766780	16.000000	n/a	0	-2.391304e-01	-2.391304e-01
308.291470	1.766780	dec_nonsocial_reject_low	1.766780	16.000000	n/a	1	0	-6.250000e-02
315.942350	0.865877	dec_nonsocial_choice	0.865877	16.000000	n/a	2	-1.077128e-01	-1.077128e-01
315.942350	0.865877	dec_choice	0.865877	16.000000	n/a	2	-1.141304e-01	-1.141304e-01
315.942350	0.865877	dec_nonsocial_accept	0.865877	16.000000	n/a	2	-1.279762e-01	-1.279762e-01
315.942350	0.865877	dec_accept	0.865877	16.000000	n/a	2	-1.406250e-01	-1.406250e-01
315.942350	0.865877	dec_nonsocial_accept_low	0.865877	16.000000	n/a	2	-1.164773e-01	-1.164773e-01
323.591340	1.116907	dec_social_choice	1.116907	32.000000	n/a	8	1.728723e-02	1.728723e-02
323.591340	1.116907	dec_choice	1.116907	32.000000	n/a	8	2.343750e-02	2.343750e-02
323.591340	1.116907	dec_social_accept	1.116907	32.000000	n/a	8	-2.976190e-03	-2.976190e-03
323.591340	1.116907	dec_accept	1.116907	32.000000	n/a	8	8.522727e-03	8.522727e-03
323.591340	1.116907	dec_social_high	1.116907	32.000000	n/a	8	2.343750e-02	2.343750e-02
323.591340	1.116907	dec_social_accept_high	1.116907	32.000000	n/a	8	2.343750e-02	2.343750e-02
330.442350	0.966008	dec_social_choice	0.966008	32.000000	n/a	16	2.672872e-01	2.672872e-01
330.442350	0.966008	dec_choice	0.966008	32.000000	n/a	16	2.734375e-01	2.734375e-01
330.442350	0.966008	dec_social_accept	0.966008	32.000000	n/a	16	2.470238e-01	2.470238e-01
330.442350	0.966008	dec_accept	0.966008	32.000000	n/a	16	2.585227e-01	2.585227e-01
330.442350	0.966008	dec_social_accept_high	0.966008	32.000000	n/a	16	2.734375e-01	2.734375e-01
338.091400	1.733326	dec_social_choice	1.733326	32.000000	n/a	2	-1.702128e-01	-1.702128e-01
338.091400	1.733326	dec_choice	1.733326	32.000000	n/a	2	-1.640625e-01	-1.640625e-01
338.091400	1.733326	dec_social_accept	1.733326	32.000000	n/a	2	-1.904762e-01	-1.904762e-01
338.091400	1.733326	dec_accept	1.733326	32.000000	n/a	2	-1.789773e-01	-1.789773e-01
338.091400	1.733326	dec_social_accept_low	1.733326	32.000000	n/a	2	-1.640625e-01	-1.640625e-01
344.940980	0.900403	dec_nonsocial_choice	0.900403	32.000000	n/a	3	-1.389628e-01	-1.389628e-01
344.940980	0.900403	dec_choice	0.900403	32.000000	n/a	3	-1.453804e-01	-1.453804e-01
344.940980	0.900403	dec_nonsocial_accept	0.900403	32.000000	n/a	3	-1.592262e-01	-1.592262e-01
344.940980	0.900403	dec_accept	0.900403	32.000000	n/a	3	-1.718750e-01	-1.718750e-01
344.940980	0.900403	dec_nonsocial_accept_low	0.900403	32.000000	n/a	3	-1.477273e-01	-1.477273e-01
351.791870	0.866048	dec_nonsocial_choice	0.866048	32.000000	n/a	8	1.728723e-02	1.728723e-02
351.791870	0.866048	dec_choice	0.866048	32.000000	n/a	8	1.086957e-02	1.086957e-02
351.791870	0.866048	dec_nonsocial_accept	0.866048	32.000000	n/a	8	-2.976190e-03	-2.976190e-03
351.791870	0.866048	dec_accept	0.866048	32.000000	n/a	8	-1.562500e-02	-1.562500e-02
351.791870	0.866048	dec_nonsocial_accept_high	0.866048	32.000000	n/a	8	8.522727e-03	8.522727e-03
361.058350	1.016133	dec_social_choice	1.016133	32.000000	n/a	16	2.672872e-01	2.672872e-01
361.058350	1.016133	dec_choice	1.016133	32.000000	n/a	16	2.734375e-01	2.734375e-01
361.058350	1.016133	dec_social_accept	1.016133	32.000000	n/a	16	2.470238e-01	2.470238e-01
361.058350	1.016133	dec_accept	1.016133	32.000000	n/a	16	2.585227e-01	2.585227e-01
361.058350	1.016133	dec_social_high	1.016133	32.000000	n/a	16	2.734375e-01	2.734375e-01
361.058350	1.016133	dec_social_accept_high	1.016133	32.000000	n/a	16	2.734375e-01	2.734375e-01
373.558560	0.882688	dec_nonsocial_choice	0.882688	16.000000	n/a	8	2.672872e-01	2.672872e-01
373.558560	0.882688	dec_choice	0.882688	16.000000	n/a	8	2.608696e-01	2.608696e-01
373.558560	0.882688	dec_nonsocial_accept	0.882688	16.000000	n/a	8	2.470238e-01	2.470238e-01
373.558560	0.882688	dec_accept	0.882688	16.000000	n/a	8	2.343750e-01	2.343750e-01
373.558560	0.882688	dec_nonsocial_accept_high	0.882688	16.000000	n/a	8	2.585227e-01	2.585227e-01
