onset	duration	trial_type	response_time	Endowment	Endowment_pmod	Decision	Decision_pmod	Offer_pmod
4.598361	2	cue_social	n/a	16	-8	n/a	n/a	n/a
4.598361	2	cue_social_low	n/a	16	-10	n/a	n/a	n/a
11.368922	2	cue_nonsocial	n/a	32	6	n/a	n/a	n/a
11.368922	2	cue_nonsocial_high	n/a	32	8	n/a	n/a	n/a
18.218987	2	cue_nonsocial	n/a	32	6	n/a	n/a	n/a
18.218987	2	cue_nonsocial_high	n/a	32	8	n/a	n/a	n/a
25.869080	2	cue_nonsocial	n/a	32	6	n/a	n/a	n/a
25.869080	2	cue_nonsocial_high	n/a	32	8	n/a	n/a	n/a
33.598560	2	cue_social	n/a	16	-8	n/a	n/a	n/a
33.598560	2	cue_social_low	n/a	16	-10	n/a	n/a	n/a
42.774357	2	cue_social	n/a	32	8	n/a	n/a	n/a
42.774357	2	cue_social_high	n/a	32	6	n/a	n/a	n/a
49.723244	2	cue_social	n/a	16	-8	n/a	n/a	n/a
49.723244	2	cue_social_low	n/a	16	-10	n/a	n/a	n/a
56.566770	2	cue_social	n/a	32	8	n/a	n/a	n/a
56.566770	2	cue_social_high	n/a	32	6	n/a	n/a	n/a
63.413030	2	cue_social	n/a	16	-8	n/a	n/a	n/a
63.413030	2	cue_social_low	n/a	16	-10	n/a	n/a	n/a
70.185460	2	cue_nonsocial	n/a	16	-10	n/a	n/a	n/a
70.185460	2	cue_nonsocial_low	n/a	16	-8	n/a	n/a	n/a
81.167480	2	cue_social	n/a	32	8	n/a	n/a	n/a
81.167480	2	cue_social_high	n/a	32	6	n/a	n/a	n/a
90.335820	2	cue_nonsocial	n/a	32	6	n/a	n/a	n/a
90.335820	2	cue_nonsocial_high	n/a	32	8	n/a	n/a	n/a
97.185400	2	cue_nonsocial	n/a	16	-10	n/a	n/a	n/a
97.185400	2	cue_nonsocial_low	n/a	16	-8	n/a	n/a	n/a
104.909904	2	cue_social	n/a	32	8	n/a	n/a	n/a
104.909904	2	cue_social_high	n/a	32	6	n/a	n/a	n/a
112.485480	2	cue_nonsocial	n/a	16	-10	n/a	n/a	n/a
112.485480	2	cue_nonsocial_low	n/a	16	-8	n/a	n/a	n/a
120.135350	2	cue_nonsocial	n/a	32	6	n/a	n/a	n/a
120.135350	2	cue_nonsocial_high	n/a	32	8	n/a	n/a	n/a
129.486190	2	cue_social	n/a	16	-8	n/a	n/a	n/a
129.486190	2	cue_social_low	n/a	16	-10	n/a	n/a	n/a
136.354160	2	cue_social	n/a	16	-8	n/a	n/a	n/a
136.354160	2	cue_social_low	n/a	16	-10	n/a	n/a	n/a
143.901930	2	cue_nonsocial	n/a	32	6	n/a	n/a	n/a
143.901930	2	cue_nonsocial_high	n/a	32	8	n/a	n/a	n/a
153.168730	2	cue_nonsocial	n/a	16	-10	n/a	n/a	n/a
153.168730	2	cue_nonsocial_low	n/a	16	-8	n/a	n/a	n/a
160.114880	2	cue_social	n/a	16	-8	n/a	n/a	n/a
160.114880	2	cue_social_low	n/a	16	-10	n/a	n/a	n/a
167.753160	2	cue_social	n/a	16	-8	n/a	n/a	n/a
167.753160	2	cue_social_low	n/a	16	-10	n/a	n/a	n/a
174.518460	2	cue_nonsocial	n/a	16	-10	n/a	n/a	n/a
174.518460	2	cue_nonsocial_low	n/a	16	-8	n/a	n/a	n/a
181.368590	2	cue_nonsocial	n/a	32	6	n/a	n/a	n/a
181.368590	2	cue_nonsocial_high	n/a	32	8	n/a	n/a	n/a
189.118940	2	cue_social	n/a	32	8	n/a	n/a	n/a
189.118940	2	cue_social_high	n/a	32	6	n/a	n/a	n/a
195.868790	2	cue_nonsocial	n/a	32	6	n/a	n/a	n/a
195.868790	2	cue_nonsocial_high	n/a	32	8	n/a	n/a	n/a
202.718700	2	cue_nonsocial	n/a	32	6	n/a	n/a	n/a
202.718700	2	cue_nonsocial_high	n/a	32	8	n/a	n/a	n/a
210.368440	2	cue_nonsocial	n/a	16	-10	n/a	n/a	n/a
210.368440	2	cue_nonsocial_low	n/a	16	-8	n/a	n/a	n/a
219.714860	2	cue_social	n/a	32	8	n/a	n/a	n/a
219.714860	2	cue_social_high	n/a	32	6	n/a	n/a	n/a
227.385600	2	cue_social	n/a	32	8	n/a	n/a	n/a
227.385600	2	cue_social_high	n/a	32	6	n/a	n/a	n/a
234.934940	2	cue_nonsocial	n/a	32	6	n/a	n/a	n/a
234.934940	2	cue_nonsocial_high	n/a	32	8	n/a	n/a	n/a
241.784990	2	cue_nonsocial	n/a	16	-10	n/a	n/a	n/a
241.784990	2	cue_nonsocial_low	n/a	16	-8	n/a	n/a	n/a
248.635200	2	cue_nonsocial	n/a	32	6	n/a	n/a	n/a
248.635200	2	cue_nonsocial_high	n/a	32	8	n/a	n/a	n/a
256.368070	2	cue_social	n/a	16	-8	n/a	n/a	n/a
256.368070	2	cue_social_low	n/a	16	-10	n/a	n/a	n/a
264.018550	2	cue_social	n/a	32	8	n/a	n/a	n/a
264.018550	2	cue_social_high	n/a	32	6	n/a	n/a	n/a
273.201970	2	cue_nonsocial	n/a	16	-10	n/a	n/a	n/a
273.201970	2	cue_nonsocial_low	n/a	16	-8	n/a	n/a	n/a
280.132600	2	cue_social	n/a	32	8	n/a	n/a	n/a
280.132600	2	cue_social_high	n/a	32	6	n/a	n/a	n/a
286.901700	2	cue_nonsocial	n/a	32	6	n/a	n/a	n/a
286.901700	2	cue_nonsocial_high	n/a	32	8	n/a	n/a	n/a
293.751600	2	cue_nonsocial	n/a	16	-10	n/a	n/a	n/a
293.751600	2	cue_nonsocial_low	n/a	16	-8	n/a	n/a	n/a
304.634920	2	cue_nonsocial	n/a	32	6	n/a	n/a	n/a
304.634920	2	cue_nonsocial_high	n/a	32	8	n/a	n/a	n/a
313.995670	2	cue_social	n/a	16	-8	n/a	n/a	n/a
313.995670	2	cue_social_low	n/a	16	-10	n/a	n/a	n/a
324.805270	2	cue_social	n/a	16	-8	n/a	n/a	n/a
324.805270	2	cue_social_low	n/a	16	-10	n/a	n/a	n/a
331.639700	2	cue_social	n/a	32	8	n/a	n/a	n/a
331.639700	2	cue_social_high	n/a	32	6	n/a	n/a	n/a
344.134830	2	cue_nonsocial	n/a	32	6	n/a	n/a	n/a
344.134830	2	cue_nonsocial_high	n/a	32	8	n/a	n/a	n/a
351.061550	2	cue_social	n/a	32	8	n/a	n/a	n/a
351.061550	2	cue_social_high	n/a	32	6	n/a	n/a	n/a
357.911960	2	cue_social	n/a	32	8	n/a	n/a	n/a
357.911960	2	cue_social_high	n/a	32	6	n/a	n/a	n/a
364.684600	2	cue_nonsocial	n/a	32	6	n/a	n/a	n/a
364.684600	2	cue_nonsocial_high	n/a	32	8	n/a	n/a	n/a
371.628300	2	cue_social	n/a	16	-8	n/a	n/a	n/a
371.628300	2	cue_social_low	n/a	16	-10	n/a	n/a	n/a
6.525105	1.266754	dec_social_choice	1.266754	16.000000	n/a	0	0	-2.298177e-01
6.525105	1.266754	dec_choice	1.266754	16.000000	n/a	0	0	-2.291667e-01
6.525105	1.266754	dec_social_reject	1.266754	16.000000	n/a	0	0	0
6.525105	1.266754	dec_reject	1.266754	16.000000	n/a	0	0	0
6.525105	1.266754	dec_social_low	1.266754	16.000000	n/a	0	-2.291667e-01	-2.291667e-01
6.525105	1.266754	dec_social_reject_low	1.266754	16.000000	n/a	1	-1.666667e-01	-2.291667e-01
13.374913	0.900170	dec_nonsocial_choice	0.900170	32.000000	n/a	16	2.701823e-01	2.701823e-01
13.374913	0.900170	dec_choice	0.900170	32.000000	n/a	16	2.695312e-01	2.695312e-01
13.374913	0.900170	dec_nonsocial_accept	0.900170	32.000000	n/a	16	2.144097e-01	2.144097e-01
13.374913	0.900170	dec_accept	0.900170	32.000000	n/a	16	2.135417e-01	2.135417e-01
13.374913	0.900170	dec_nonsocial_accept_high	0.900170	32.000000	n/a	16	2.152778e-01	2.152778e-01
20.224983	0.833240	dec_nonsocial_choice	0.833240	32.000000	n/a	8	2.018229e-02	2.018229e-02
20.224983	0.833240	dec_choice	0.833240	32.000000	n/a	8	1.953125e-02	1.953125e-02
20.224983	0.833240	dec_nonsocial_accept	0.833240	32.000000	n/a	8	-3.559028e-02	-3.559028e-02
20.224983	0.833240	dec_accept	0.833240	32.000000	n/a	8	-3.645833e-02	-3.645833e-02
20.224983	0.833240	dec_nonsocial_accept_high	0.833240	32.000000	n/a	8	-3.472222e-02	-3.472222e-02
27.874962	1.550123	dec_nonsocial_choice	1.550123	32.000000	n/a	0	0	-2.298177e-01
27.874962	1.550123	dec_choice	1.550123	32.000000	n/a	0	0	-2.304688e-01
27.874962	1.550123	dec_nonsocial_reject	1.550123	32.000000	n/a	0	0	0
27.874962	1.550123	dec_reject	1.550123	32.000000	n/a	0	0	0
27.874962	1.550123	dec_nonsocial_reject_low	1.550123	32.000000	n/a	2	0	-6.250000e-02
35.525850	0.899130	dec_social_choice	0.899130	16.000000	n/a	8	2.701823e-01	2.701823e-01
35.525850	0.899130	dec_choice	0.899130	16.000000	n/a	8	2.708333e-01	2.708333e-01
35.525850	0.899130	dec_social_accept	0.899130	16.000000	n/a	8	2.144097e-01	2.144097e-01
35.525850	0.899130	dec_accept	0.899130	16.000000	n/a	8	2.152778e-01	2.152778e-01
35.525850	0.899130	dec_social_accept_high	0.899130	16.000000	n/a	8	2.708333e-01	2.708333e-01
44.791706	1.516658	dec_social_choice	1.516658	32.000000	n/a	8	2.018229e-02	2.018229e-02
44.791706	1.516658	dec_choice	1.516658	32.000000	n/a	8	2.083333e-02	2.083333e-02
44.791706	1.516658	dec_social_accept	1.516658	32.000000	n/a	8	-3.559028e-02	-3.559028e-02
44.791706	1.516658	dec_accept	1.516658	32.000000	n/a	8	-3.472222e-02	-3.472222e-02
44.791706	1.516658	dec_social_high	1.516658	32.000000	n/a	8	2.083333e-02	2.083333e-02
44.791706	1.516658	dec_social_accept_high	1.516658	32.000000	n/a	8	2.083333e-02	2.083333e-02
51.642130	1.416278	dec_social_choice	1.416278	16.000000	n/a	0	0	-2.298177e-01
51.642130	1.416278	dec_choice	1.416278	16.000000	n/a	0	0	-2.291667e-01
51.642130	1.416278	dec_social_reject	1.416278	16.000000	n/a	0	0	0
51.642130	1.416278	dec_reject	1.416278	16.000000	n/a	0	0	0
51.642130	1.416278	dec_social_low	1.416278	16.000000	n/a	0	-2.291667e-01	-2.291667e-01
51.642130	1.416278	dec_social_reject_low	1.416278	16.000000	n/a	1	-1.666667e-01	-2.291667e-01
58.491890	0.966417	dec_social_choice	0.966417	32.000000	n/a	3	-1.360677e-01	-1.360677e-01
58.491890	0.966417	dec_choice	0.966417	32.000000	n/a	3	-1.354167e-01	-1.354167e-01
58.491890	0.966417	dec_social_accept	0.966417	32.000000	n/a	3	-1.918403e-01	-1.918403e-01
58.491890	0.966417	dec_accept	0.966417	32.000000	n/a	3	-1.909722e-01	-1.909722e-01
58.491890	0.966417	dec_social_accept_low	0.966417	32.000000	n/a	3	-1.354167e-01	-1.354167e-01
65.342140	1.115945	dec_social_choice	1.115945	16.000000	n/a	8	2.701823e-01	2.701823e-01
65.342140	1.115945	dec_choice	1.115945	16.000000	n/a	8	2.708333e-01	2.708333e-01
65.342140	1.115945	dec_social_accept	1.115945	16.000000	n/a	8	2.144097e-01	2.144097e-01
65.342140	1.115945	dec_accept	1.115945	16.000000	n/a	8	2.152778e-01	2.152778e-01
65.342140	1.115945	dec_social_high	1.115945	16.000000	n/a	8	2.708333e-01	2.708333e-01
65.342140	1.115945	dec_social_accept_high	1.115945	16.000000	n/a	8	2.708333e-01	2.708333e-01
72.191490	1.066791	dec_nonsocial_choice	1.066791	16.000000	n/a	0	0	-2.298177e-01
72.191490	1.066791	dec_choice	1.066791	16.000000	n/a	0	0	-2.304688e-01
72.191490	1.066791	dec_nonsocial_reject	1.066791	16.000000	n/a	0	0	0
72.191490	1.066791	dec_reject	1.066791	16.000000	n/a	0	0	0
72.191490	1.066791	dec_nonsocial_reject_low	1.066791	16.000000	n/a	1	0	-6.250000e-02
83.074910	1.233346	dec_social_choice	1.233346	32.000000	n/a	3	-1.360677e-01	-1.360677e-01
83.074910	1.233346	dec_choice	1.233346	32.000000	n/a	3	-1.354167e-01	-1.354167e-01
83.074910	1.233346	dec_social_accept	1.233346	32.000000	n/a	3	-1.918403e-01	-1.918403e-01
83.074910	1.233346	dec_accept	1.233346	32.000000	n/a	3	-1.909722e-01	-1.909722e-01
83.074910	1.233346	dec_social_low	1.233346	32.000000	n/a	3	-1.354167e-01	-1.354167e-01
83.074910	1.233346	dec_social_accept_low	1.233346	32.000000	n/a	3	-1.354167e-01	-1.354167e-01
92.341690	1.116584	dec_nonsocial_choice	1.116584	32.000000	n/a	16	2.701823e-01	2.701823e-01
92.341690	1.116584	dec_choice	1.116584	32.000000	n/a	16	2.695312e-01	2.695312e-01
92.341690	1.116584	dec_nonsocial_accept	1.116584	32.000000	n/a	16	2.144097e-01	2.144097e-01
92.341690	1.116584	dec_accept	1.116584	32.000000	n/a	16	2.135417e-01	2.135417e-01
92.341690	1.116584	dec_nonsocial_accept_high	1.116584	32.000000	n/a	16	2.152778e-01	2.152778e-01
99.192410	1.199137	dec_nonsocial_choice	1.199137	16.000000	n/a	2	-1.048177e-01	-1.048177e-01
99.192410	1.199137	dec_choice	1.199137	16.000000	n/a	2	-1.054688e-01	-1.054688e-01
99.192410	1.199137	dec_nonsocial_accept	1.199137	16.000000	n/a	2	-1.605903e-01	-1.605903e-01
99.192410	1.199137	dec_accept	1.199137	16.000000	n/a	2	-1.614583e-01	-1.614583e-01
99.192410	1.199137	dec_nonsocial_accept_low	1.199137	16.000000	n/a	2	-1.597222e-01	-1.597222e-01
106.841840	1.649689	dec_social_choice	1.649689	32.000000	n/a	0	0	-2.298177e-01
106.841840	1.649689	dec_choice	1.649689	32.000000	n/a	0	0	-2.291667e-01
106.841840	1.649689	dec_social_reject	1.649689	32.000000	n/a	0	0	0
106.841840	1.649689	dec_reject	1.649689	32.000000	n/a	0	0	0
106.841840	1.649689	dec_social_low	1.649689	32.000000	n/a	0	-2.291667e-01	-2.291667e-01
106.841840	1.649689	dec_social_reject_low	1.649689	32.000000	n/a	2	-1.666667e-01	-2.291667e-01
114.491620	1.083195	dec_nonsocial_choice	1.083195	16.000000	n/a	8	2.701823e-01	2.701823e-01
114.491620	1.083195	dec_choice	1.083195	16.000000	n/a	8	2.695312e-01	2.695312e-01
114.491620	1.083195	dec_nonsocial_accept	1.083195	16.000000	n/a	8	2.144097e-01	2.144097e-01
114.491620	1.083195	dec_accept	1.083195	16.000000	n/a	8	2.135417e-01	2.135417e-01
114.491620	1.083195	dec_nonsocial_high	1.083195	16.000000	n/a	8	2.695312e-01	2.695312e-01
114.491620	1.083195	dec_nonsocial_accept_high	1.083195	16.000000	n/a	8	2.135417e-01	2.135417e-01
122.141940	1.099352	dec_nonsocial_choice	1.099352	32.000000	n/a	3	-1.360677e-01	-1.360677e-01
122.141940	1.099352	dec_choice	1.099352	32.000000	n/a	3	-1.367188e-01	-1.367188e-01
122.141940	1.099352	dec_nonsocial_accept	1.099352	32.000000	n/a	3	-1.918403e-01	-1.918403e-01
122.141940	1.099352	dec_accept	1.099352	32.000000	n/a	3	-1.927083e-01	-1.927083e-01
122.141940	1.099352	dec_nonsocial_accept_low	1.099352	32.000000	n/a	3	-1.909722e-01	-1.909722e-01
131.408020	1.116774	dec_social_choice	1.116774	16.000000	n/a	4	2.018229e-02	2.018229e-02
131.408020	1.116774	dec_choice	1.116774	16.000000	n/a	4	2.083333e-02	2.083333e-02
131.408020	1.116774	dec_social_accept	1.116774	16.000000	n/a	4	-3.559028e-02	-3.559028e-02
131.408020	1.116774	dec_accept	1.116774	16.000000	n/a	4	-3.472222e-02	-3.472222e-02
131.408020	1.116774	dec_social_high	1.116774	16.000000	n/a	4	2.083333e-02	2.083333e-02
131.408020	1.116774	dec_social_accept_high	1.116774	16.000000	n/a	4	2.083333e-02	2.083333e-02
138.258970	1.749138	dec_social_choice	1.749138	16.000000	n/a	2	-1.048177e-01	-1.048177e-01
138.258970	1.749138	dec_choice	1.749138	16.000000	n/a	2	-1.041667e-01	-1.041667e-01
138.258970	1.749138	dec_social_accept	1.749138	16.000000	n/a	2	-1.605903e-01	-1.605903e-01
138.258970	1.749138	dec_accept	1.749138	16.000000	n/a	2	-1.597222e-01	-1.597222e-01
138.258970	1.749138	dec_social_low	1.749138	16.000000	n/a	2	-1.041667e-01	-1.041667e-01
138.258970	1.749138	dec_social_accept_low	1.749138	16.000000	n/a	2	-1.041667e-01	-1.041667e-01
145.908020	0.850066	dec_nonsocial_choice	0.850066	32.000000	n/a	8	2.018229e-02	2.018229e-02
145.908020	0.850066	dec_choice	0.850066	32.000000	n/a	8	1.953125e-02	1.953125e-02
145.908020	0.850066	dec_nonsocial_accept	0.850066	32.000000	n/a	8	-3.559028e-02	-3.559028e-02
145.908020	0.850066	dec_accept	0.850066	32.000000	n/a	8	-3.645833e-02	-3.645833e-02
145.908020	0.850066	dec_nonsocial_accept_high	0.850066	32.000000	n/a	8	-3.472222e-02	-3.472222e-02
155.174600	1.100173	dec_nonsocial_choice	1.100173	16.000000	n/a	4	2.018229e-02	2.018229e-02
155.174600	1.100173	dec_choice	1.100173	16.000000	n/a	4	1.953125e-02	1.953125e-02
155.174600	1.100173	dec_nonsocial_accept	1.100173	16.000000	n/a	4	-3.559028e-02	-3.559028e-02
155.174600	1.100173	dec_accept	1.100173	16.000000	n/a	4	-3.645833e-02	-3.645833e-02
155.174600	1.100173	dec_nonsocial_accept_high	1.100173	16.000000	n/a	4	-3.472222e-02	-3.472222e-02
162.024630	1.116770	dec_social_choice	1.116770	16.000000	n/a	4	2.018229e-02	2.018229e-02
162.024630	1.116770	dec_choice	1.116770	16.000000	n/a	4	2.083333e-02	2.083333e-02
162.024630	1.116770	dec_social_accept	1.116770	16.000000	n/a	4	-3.559028e-02	-3.559028e-02
162.024630	1.116770	dec_accept	1.116770	16.000000	n/a	4	-3.472222e-02	-3.472222e-02
162.024630	1.116770	dec_social_high	1.116770	16.000000	n/a	4	2.083333e-02	2.083333e-02
162.024630	1.116770	dec_social_accept_high	1.116770	16.000000	n/a	4	2.083333e-02	2.083333e-02
169.674800	0.799905	dec_social_choice	0.799905	16.000000	n/a	0	0	-2.298177e-01
169.674800	0.799905	dec_choice	0.799905	16.000000	n/a	0	0	-2.291667e-01
169.674800	0.799905	dec_social_reject	0.799905	16.000000	n/a	0	0	0
169.674800	0.799905	dec_reject	0.799905	16.000000	n/a	0	0	0
169.674800	0.799905	dec_social_reject_low	0.799905	16.000000	n/a	1	-1.666667e-01	-2.291667e-01
176.524480	1.616804	dec_nonsocial_choice	1.616804	16.000000	n/a	2	-1.048177e-01	-1.048177e-01
176.524480	1.616804	dec_choice	1.616804	16.000000	n/a	2	-1.054688e-01	-1.054688e-01
176.524480	1.616804	dec_nonsocial_accept	1.616804	16.000000	n/a	2	-1.605903e-01	-1.605903e-01
176.524480	1.616804	dec_accept	1.616804	16.000000	n/a	2	-1.614583e-01	-1.614583e-01
176.524480	1.616804	dec_nonsocial_accept_low	1.616804	16.000000	n/a	2	-1.597222e-01	-1.597222e-01
183.374650	2.183110	dec_nonsocial_choice	2.183110	32.000000	n/a	3	-1.360677e-01	-1.360677e-01
183.374650	2.183110	dec_choice	2.183110	32.000000	n/a	3	-1.367188e-01	-1.367188e-01
183.374650	2.183110	dec_nonsocial_accept	2.183110	32.000000	n/a	3	-1.918403e-01	-1.918403e-01
183.374650	2.183110	dec_accept	2.183110	32.000000	n/a	3	-1.927083e-01	-1.927083e-01
183.374650	2.183110	dec_nonsocial_accept_low	2.183110	32.000000	n/a	3	-1.909722e-01	-1.909722e-01
191.024890	1.799737	dec_social_choice	1.799737	32.000000	n/a	0	0	-2.298177e-01
191.024890	1.799737	dec_choice	1.799737	32.000000	n/a	0	0	-2.291667e-01
191.024890	1.799737	dec_social_reject	1.799737	32.000000	n/a	0	0	0
191.024890	1.799737	dec_reject	1.799737	32.000000	n/a	0	0	0
191.024890	1.799737	dec_social_low	1.799737	32.000000	n/a	0	-2.291667e-01	-2.291667e-01
191.024890	1.799737	dec_social_reject_low	1.799737	32.000000	n/a	2	-1.666667e-01	-2.291667e-01
197.874620	0.850062	dec_nonsocial_choice	0.850062	32.000000	n/a	8	2.018229e-02	2.018229e-02
197.874620	0.850062	dec_choice	0.850062	32.000000	n/a	8	1.953125e-02	1.953125e-02
197.874620	0.850062	dec_nonsocial_accept	0.850062	32.000000	n/a	8	-3.559028e-02	-3.559028e-02
197.874620	0.850062	dec_accept	0.850062	32.000000	n/a	8	-3.645833e-02	-3.645833e-02
197.874620	0.850062	dec_nonsocial_accept_high	0.850062	32.000000	n/a	8	-3.472222e-02	-3.472222e-02
204.724690	0.983225	dec_nonsocial_choice	0.983225	32.000000	n/a	16	2.701823e-01	2.701823e-01
204.724690	0.983225	dec_choice	0.983225	32.000000	n/a	16	2.695312e-01	2.695312e-01
204.724690	0.983225	dec_nonsocial_accept	0.983225	32.000000	n/a	16	2.144097e-01	2.144097e-01
204.724690	0.983225	dec_accept	0.983225	32.000000	n/a	16	2.135417e-01	2.135417e-01
204.724690	0.983225	dec_nonsocial_high	0.983225	32.000000	n/a	16	2.695312e-01	2.695312e-01
204.724690	0.983225	dec_nonsocial_accept_high	0.983225	32.000000	n/a	16	2.135417e-01	2.135417e-01
212.374740	0.966465	dec_nonsocial_choice	0.966465	16.000000	n/a	0	0	-2.298177e-01
212.374740	0.966465	dec_choice	0.966465	16.000000	n/a	0	0	-2.304688e-01
212.374740	0.966465	dec_nonsocial_reject	0.966465	16.000000	n/a	0	0	0
212.374740	0.966465	dec_reject	0.966465	16.000000	n/a	0	0	0
212.374740	0.966465	dec_nonsocial_reject_low	0.966465	16.000000	n/a	1	0	-6.250000e-02
221.641560	1.116317	dec_social_choice	1.116317	32.000000	n/a	16	2.701823e-01	2.701823e-01
221.641560	1.116317	dec_choice	1.116317	32.000000	n/a	16	2.708333e-01	2.708333e-01
221.641560	1.116317	dec_social_accept	1.116317	32.000000	n/a	16	2.144097e-01	2.144097e-01
221.641560	1.116317	dec_accept	1.116317	32.000000	n/a	16	2.152778e-01	2.152778e-01
221.641560	1.116317	dec_social_accept_high	1.116317	32.000000	n/a	16	2.708333e-01	2.708333e-01
229.291950	1.149285	dec_social_choice	1.149285	32.000000	n/a	3	-1.360677e-01	-1.360677e-01
229.291950	1.149285	dec_choice	1.149285	32.000000	n/a	3	-1.354167e-01	-1.354167e-01
229.291950	1.149285	dec_social_accept	1.149285	32.000000	n/a	3	-1.918403e-01	-1.918403e-01
229.291950	1.149285	dec_accept	1.149285	32.000000	n/a	3	-1.909722e-01	-1.909722e-01
229.291950	1.149285	dec_social_low	1.149285	32.000000	n/a	3	-1.354167e-01	-1.354167e-01
229.291950	1.149285	dec_social_accept_low	1.149285	32.000000	n/a	3	-1.354167e-01	-1.354167e-01
236.941270	1.766525	dec_nonsocial_choice	1.766525	32.000000	n/a	0	0	-2.298177e-01
236.941270	1.766525	dec_choice	1.766525	32.000000	n/a	0	0	-2.304688e-01
236.941270	1.766525	dec_nonsocial_reject	1.766525	32.000000	n/a	0	0	0
236.941270	1.766525	dec_reject	1.766525	32.000000	n/a	0	0	0
236.941270	1.766525	dec_nonsocial_low	1.766525	32.000000	n/a	0	-2.304688e-01	-2.304688e-01
236.941270	1.766525	dec_nonsocial_reject_low	1.766525	32.000000	n/a	2	0	-6.250000e-02
243.790650	0.883879	dec_nonsocial_choice	0.883879	16.000000	n/a	8	2.701823e-01	2.701823e-01
243.790650	0.883879	dec_choice	0.883879	16.000000	n/a	8	2.695312e-01	2.695312e-01
243.790650	0.883879	dec_nonsocial_accept	0.883879	16.000000	n/a	8	2.144097e-01	2.144097e-01
243.790650	0.883879	dec_accept	0.883879	16.000000	n/a	8	2.135417e-01	2.135417e-01
243.790650	0.883879	dec_nonsocial_accept_high	0.883879	16.000000	n/a	8	2.152778e-01	2.152778e-01
250.640760	1.267041	dec_nonsocial_choice	1.267041	32.000000	n/a	3	-1.360677e-01	-1.360677e-01
250.640760	1.267041	dec_choice	1.267041	32.000000	n/a	3	-1.367188e-01	-1.367188e-01
250.640760	1.267041	dec_nonsocial_accept	1.267041	32.000000	n/a	3	-1.918403e-01	-1.918403e-01
250.640760	1.267041	dec_accept	1.267041	32.000000	n/a	3	-1.927083e-01	-1.927083e-01
250.640760	1.267041	dec_nonsocial_low	1.267041	32.000000	n/a	3	-1.367188e-01	-1.367188e-01
250.640760	1.267041	dec_nonsocial_accept_low	1.267041	32.000000	n/a	3	-1.927083e-01	-1.927083e-01
258.291200	2.533221	dec_social_choice	2.533221	16.000000	n/a	2	-1.048177e-01	-1.048177e-01
258.291200	2.533221	dec_choice	2.533221	16.000000	n/a	2	-1.041667e-01	-1.041667e-01
258.291200	2.533221	dec_social_accept	2.533221	16.000000	n/a	2	-1.605903e-01	-1.605903e-01
258.291200	2.533221	dec_accept	2.533221	16.000000	n/a	2	-1.597222e-01	-1.597222e-01
258.291200	2.533221	dec_social_accept_low	2.533221	16.000000	n/a	2	-1.041667e-01	-1.041667e-01
265.941740	1.082650	dec_social_choice	1.082650	32.000000	n/a	16	2.701823e-01	2.701823e-01
265.941740	1.082650	dec_choice	1.082650	32.000000	n/a	16	2.708333e-01	2.708333e-01
265.941740	1.082650	dec_social_accept	1.082650	32.000000	n/a	16	2.144097e-01	2.144097e-01
265.941740	1.082650	dec_accept	1.082650	32.000000	n/a	16	2.152778e-01	2.152778e-01
265.941740	1.082650	dec_social_accept_high	1.082650	32.000000	n/a	16	2.708333e-01	2.708333e-01
275.208740	1.665639	dec_nonsocial_choice	1.665639	16.000000	n/a	2	-1.048177e-01	-1.048177e-01
275.208740	1.665639	dec_choice	1.665639	16.000000	n/a	2	-1.054688e-01	-1.054688e-01
275.208740	1.665639	dec_nonsocial_accept	1.665639	16.000000	n/a	2	-1.605903e-01	-1.605903e-01
275.208740	1.665639	dec_accept	1.665639	16.000000	n/a	2	-1.614583e-01	-1.614583e-01
275.208740	1.665639	dec_nonsocial_low	1.665639	16.000000	n/a	2	-1.054688e-01	-1.054688e-01
275.208740	1.665639	dec_nonsocial_accept_low	1.665639	16.000000	n/a	2	-1.614583e-01	-1.614583e-01
282.057500	1.000189	dec_social_choice	1.000189	32.000000	n/a	16	2.701823e-01	2.701823e-01
282.057500	1.000189	dec_choice	1.000189	32.000000	n/a	16	2.708333e-01	2.708333e-01
282.057500	1.000189	dec_social_accept	1.000189	32.000000	n/a	16	2.144097e-01	2.144097e-01
282.057500	1.000189	dec_accept	1.000189	32.000000	n/a	16	2.152778e-01	2.152778e-01
282.057500	1.000189	dec_social_high	1.000189	32.000000	n/a	16	2.708333e-01	2.708333e-01
282.057500	1.000189	dec_social_accept_high	1.000189	32.000000	n/a	16	2.708333e-01	2.708333e-01
288.907170	0.983873	dec_nonsocial_choice	0.983873	32.000000	n/a	8	2.018229e-02	2.018229e-02
288.907170	0.983873	dec_choice	0.983873	32.000000	n/a	8	1.953125e-02	1.953125e-02
288.907170	0.983873	dec_nonsocial_accept	0.983873	32.000000	n/a	8	-3.559028e-02	-3.559028e-02
288.907170	0.983873	dec_accept	0.983873	32.000000	n/a	8	-3.645833e-02	-3.645833e-02
288.907170	0.983873	dec_nonsocial_accept_high	0.983873	32.000000	n/a	8	-3.472222e-02	-3.472222e-02
295.756870	1.050796	dec_nonsocial_choice	1.050796	16.000000	n/a	0	0	-2.298177e-01
295.756870	1.050796	dec_choice	1.050796	16.000000	n/a	0	0	-2.304688e-01
295.756870	1.050796	dec_nonsocial_reject	1.050796	16.000000	n/a	0	0	0
295.756870	1.050796	dec_reject	1.050796	16.000000	n/a	0	0	0
295.756870	1.050796	dec_nonsocial_low	1.050796	16.000000	n/a	0	-2.304688e-01	-2.304688e-01
295.756870	1.050796	dec_nonsocial_reject_low	1.050796	16.000000	n/a	1	0	-6.250000e-02
306.640720	2.166865	dec_nonsocial_choice	2.166865	32.000000	n/a	0	0	-2.298177e-01
306.640720	2.166865	dec_choice	2.166865	32.000000	n/a	0	0	-2.304688e-01
306.640720	2.166865	dec_nonsocial_reject	2.166865	32.000000	n/a	0	0	0
306.640720	2.166865	dec_reject	2.166865	32.000000	n/a	0	0	0
306.640720	2.166865	dec_nonsocial_reject_low	2.166865	32.000000	n/a	2	0	-6.250000e-02
315.906770	1.134105	dec_social_choice	1.134105	16.000000	n/a	8	2.701823e-01	2.701823e-01
315.906770	1.134105	dec_choice	1.134105	16.000000	n/a	8	2.708333e-01	2.708333e-01
315.906770	1.134105	dec_social_accept	1.134105	16.000000	n/a	8	2.144097e-01	2.144097e-01
315.906770	1.134105	dec_accept	1.134105	16.000000	n/a	8	2.152778e-01	2.152778e-01
315.906770	1.134105	dec_social_high	1.134105	16.000000	n/a	8	2.708333e-01	2.708333e-01
315.906770	1.134105	dec_social_accept_high	1.134105	16.000000	n/a	8	2.708333e-01	2.708333e-01
326.790740	1.533680	dec_social_choice	1.533680	16.000000	n/a	4	2.018229e-02	2.018229e-02
326.790740	1.533680	dec_choice	1.533680	16.000000	n/a	4	2.083333e-02	2.083333e-02
326.790740	1.533680	dec_social_accept	1.533680	16.000000	n/a	4	-3.559028e-02	-3.559028e-02
326.790740	1.533680	dec_accept	1.533680	16.000000	n/a	4	-3.472222e-02	-3.472222e-02
326.790740	1.533680	dec_social_high	1.533680	16.000000	n/a	4	2.083333e-02	2.083333e-02
326.790740	1.533680	dec_social_accept_high	1.533680	16.000000	n/a	4	2.083333e-02	2.083333e-02
333.640440	2.217065	dec_social_choice	2.217065	32.000000	n/a	3	-1.360677e-01	-1.360677e-01
333.640440	2.217065	dec_choice	2.217065	32.000000	n/a	3	-1.354167e-01	-1.354167e-01
333.640440	2.217065	dec_social_accept	2.217065	32.000000	n/a	3	-1.918403e-01	-1.918403e-01
333.640440	2.217065	dec_accept	2.217065	32.000000	n/a	3	-1.909722e-01	-1.909722e-01
333.640440	2.217065	dec_social_accept_low	2.217065	32.000000	n/a	3	-1.354167e-01	-1.354167e-01
346.141720	1.366187	dec_nonsocial_choice	1.366187	32.000000	n/a	16	2.701823e-01	2.701823e-01
346.141720	1.366187	dec_choice	1.366187	32.000000	n/a	16	2.695312e-01	2.695312e-01
346.141720	1.366187	dec_nonsocial_accept	1.366187	32.000000	n/a	16	2.144097e-01	2.144097e-01
346.141720	1.366187	dec_accept	1.366187	32.000000	n/a	16	2.135417e-01	2.135417e-01
346.141720	1.366187	dec_nonsocial_accept_high	1.366187	32.000000	n/a	16	2.152778e-01	2.152778e-01
352.990570	1.116861	dec_social_choice	1.116861	32.000000	n/a	0	0	-2.298177e-01
352.990570	1.116861	dec_choice	1.116861	32.000000	n/a	0	0	-2.291667e-01
352.990570	1.116861	dec_social_reject	1.116861	32.000000	n/a	0	0	0
352.990570	1.116861	dec_reject	1.116861	32.000000	n/a	0	0	0
352.990570	1.116861	dec_social_reject_low	1.116861	32.000000	n/a	2	-1.666667e-01	-2.291667e-01
359.840820	0.983275	dec_social_choice	0.983275	32.000000	n/a	8	2.018229e-02	2.018229e-02
359.840820	0.983275	dec_choice	0.983275	32.000000	n/a	8	2.083333e-02	2.083333e-02
359.840820	0.983275	dec_social_accept	0.983275	32.000000	n/a	8	-3.559028e-02	-3.559028e-02
359.840820	0.983275	dec_accept	0.983275	32.000000	n/a	8	-3.472222e-02	-3.472222e-02
359.840820	0.983275	dec_social_accept_high	0.983275	32.000000	n/a	8	2.083333e-02	2.083333e-02
366.690700	0.800056	dec_nonsocial_choice	0.800056	32.000000	n/a	8	2.018229e-02	2.018229e-02
366.690700	0.800056	dec_choice	0.800056	32.000000	n/a	8	1.953125e-02	1.953125e-02
366.690700	0.800056	dec_nonsocial_accept	0.800056	32.000000	n/a	8	-3.559028e-02	-3.559028e-02
366.690700	0.800056	dec_accept	0.800056	32.000000	n/a	8	-3.645833e-02	-3.645833e-02
366.690700	0.800056	dec_nonsocial_accept_high	0.800056	32.000000	n/a	8	-3.472222e-02	-3.472222e-02
373.540680	1.283356	dec_social_choice	1.283356	16.000000	n/a	4	2.018229e-02	2.018229e-02
373.540680	1.283356	dec_choice	1.283356	16.000000	n/a	4	2.083333e-02	2.083333e-02
373.540680	1.283356	dec_social_accept	1.283356	16.000000	n/a	4	-3.559028e-02	-3.559028e-02
373.540680	1.283356	dec_accept	1.283356	16.000000	n/a	4	-3.472222e-02	-3.472222e-02
373.540680	1.283356	dec_social_high	1.283356	16.000000	n/a	4	2.083333e-02	2.083333e-02
373.540680	1.283356	dec_social_accept_high	1.283356	16.000000	n/a	4	2.083333e-02	2.083333e-02
