instrText,stimDoor,stimDoorLure,stimFace,stimFaceLure,Instructions.thisRepN,Instructions.thisTrialN,Instructions.thisN,Instructions.thisIndex,Trials.thisRepN,Trials.thisTrialN,Trials.thisN,Trials.thisIndex,Func,Keys,Text,RespTime,Onset,Offset,SystemTime_Start,SystemTime_Stop,Stim,Lure,Participant*,Age,date,expName,psychopyVersion,frameRate,
"In the earlier Feedback Games, you chose which doors contained a prize, and which peers liked you. 

You then saw positive or negative feedback (green check mark or red X) from the door or peer you selected.

You will now see a series of doors and peers, some of which you saw during the earlier Feedback Games, and some that you have never seen before.

Please press the spacebar to continue.",,,,,0,0,0,0,,,,,instrFunc,space,"In the earlier Feedback Games, you chose which doors contained a prize, and which peers liked you. 

You then saw positive or negative feedback (green check mark or red X) from the door or peer you selected.

You will now see a series of doors and peers, some of which you saw during the earlier Feedback Games, and some that you have never seen before.

Please press the spacebar to continue.",17.687934899702668,21.120621599722654,38.887859939131886,2024-03-09 16:12:12.304280,2024-03-09 16:12:30.061723,,,10958,30-49,2024-03-09_16h12.07.690,Recall,2021.2.3,59.8546488951124,
"For doors/peers that you remember selecting and getting feedback from, your job is to RECALL what feedback you received. 

Press '1' if you recall positive feedback. 

Press '2' if you recall negative feedback

Press the spacebar to continue.",,,,,0,1,1,1,,,,,instrFunc,space,"For doors/peers that you remember selecting and getting feedback from, your job is to RECALL what feedback you received. 

Press '1' if you recall positive feedback. 

Press '2' if you recall negative feedback

Press the spacebar to continue.",10.562852900009602,38.85370509978384,49.47503961948678,2024-03-09 16:12:30.062723,2024-03-09 16:12:40.669042,,,10958,30-49,2024-03-09_16h12.07.690,Recall,2021.2.3,59.8546488951124,
"For doors/peers that you don't remember getting feedback from, your job is to PREDICT what feedback you WOULD HAVE received.

Press '9' if you predict positive feedback.

Press '0' if you predict negative feedback. 

Please press the spacebar to continue.",,,,,0,2,2,2,,,,,instrFunc,space,"For doors/peers that you don't remember getting feedback from, your job is to PREDICT what feedback you WOULD HAVE received.

Press '9' if you predict positive feedback.

Press '0' if you predict negative feedback. 

Please press the spacebar to continue.",9.594387399964035,49.46209189994261,59.11665632016957,2024-03-09 16:12:40.670064,2024-03-09 16:12:50.309453,,,10958,30-49,2024-03-09_16h12.07.690,Recall,2021.2.3,59.8546488951124,
"This task is self-paced, and the prompts will always stay on the screen so that you know which buttons to press.

On the next screen we will show you what those prompts look like, so that you know exactly what to expect. 

You will start with either doors or peers, and then switch halfway through. 

Please press the spacebar to continue.",,,,,0,3,3,3,,,,,instrFunc,space,"This task is self-paced, and the prompts will always stay on the screen so that you know which buttons to press.

On the next screen we will show you what those prompts look like, so that you know exactly what to expect. 

You will start with either doors or peers, and then switch halfway through. 

Please press the spacebar to continue.",10.983475199900568,59.09684279980138,70.13649481954053,2024-03-09 16:12:50.310276,2024-03-09 16:13:01.334796,,,10958,30-49,2024-03-09_16h12.07.690,Recall,2021.2.3,59.8546488951124,
,,,,,,,,,,,,,imgtextFunc,space,"Here is what the screen will look like while you make your ratings.
The green circles remind you to press 1 or 9 for positive feedback.
The red circles remind you to press 2 or 0 for negative feedback.









Please let the experimenter know if you have any questions.

Whenever you're ready, press the spacebar to start the task.",13.826291499659419,70.27827179990709,84.28243802022189,2024-03-09 16:13:01.346876,2024-03-09 16:13:15.346043,,,10958,30-49,2024-03-09_16h12.07.690,Recall,2021.2.3,59.8546488951124,
,SD026.jpg,0,MF026.jpg,0,,,,,0,0,0,75,imgFunc,1,NA,12.414474799763411,84.27386409975588,96.83071065926924,2024-03-09 16:13:15.387906,2024-03-09 16:13:27.937015,MF026.jpg,0,10958,30-49,2024-03-09_16h12.07.690,Recall,2021.2.3,59.8546488951124,
,DD040.jpg,0,FF040.jpg,0,,,,,0,1,1,39,imgFunc,1,NA,5.3448052001185715,96.83151490008458,102.31647121999413,2024-03-09 16:13:27.945963,2024-03-09 16:13:33.424712,FF040.jpg,0,10958,30-49,2024-03-09_16h12.07.690,Recall,2021.2.3,59.8546488951124,
,DD030.jpg,0,FF030.jpg,0,,,,,0,2,2,29,imgFunc,1,NA,1.7905799001455307,102.30613309983164,104.22155831987038,2024-03-09 16:13:33.434291,2024-03-09 16:13:35.343082,FF030.jpg,0,10958,30-49,2024-03-09_16h12.07.690,Recall,2021.2.3,59.8546488951124,
,DD023.jpg,0,FF023.jpg,0,,,,,0,3,3,22,imgFunc,1,NA,0.7819350999779999,104.19454779988155,105.08001021994278,2024-03-09 16:13:35.350065,2024-03-09 16:13:36.226767,FF023.jpg,0,10958,30-49,2024-03-09_16h12.07.690,Recall,2021.2.3,59.8546488951124,
,SD005.jpg,0,MF005.jpg,0,,,,,0,4,4,54,imgFunc,1,NA,3.6318713002838194,105.08055679965764,108.8168380195275,2024-03-09 16:13:36.234775,2024-03-09 16:13:39.961942,MF005.jpg,0,10958,30-49,2024-03-09_16h12.07.690,Recall,2021.2.3,59.8546488951124,
,SD022.jpg,0,MF022.jpg,0,,,,,0,5,5,71,imgFunc,2,NA,2.9477050001733005,108.82887429976836,111.89877551980317,2024-03-09 16:13:39.969887,2024-03-09 16:13:43.030889,MF022.jpg,0,10958,30-49,2024-03-09_16h12.07.690,Recall,2021.2.3,59.8546488951124,
,SD018.jpg,0,MF018.jpg,0,,,,,0,6,6,67,imgFunc,1,NA,1.0281135998666286,111.90023180004209,113.05146161979064,2024-03-09 16:13:43.038867,2024-03-09 16:13:44.182579,MF018.jpg,0,10958,30-49,2024-03-09_16h12.07.690,Recall,2021.2.3,59.8546488951124,
,DD020.jpg,0,FF020.jpg,0,,,,,0,7,7,19,imgFunc,1,NA,0.8250307999551296,113.04761900007725,113.96846671961248,2024-03-09 16:13:44.197570,2024-03-09 16:13:45.116483,FF020.jpg,0,10958,30-49,2024-03-09_16h12.07.690,Recall,2021.2.3,59.8546488951124,
,DD006.jpg,0,FF006.jpg,0,,,,,0,8,8,5,imgFunc,2,NA,1.135941700078547,113.96876449976116,115.20490222005174,2024-03-09 16:13:45.123466,2024-03-09 16:13:46.350816,FF006.jpg,0,10958,30-49,2024-03-09_16h12.07.690,Recall,2021.2.3,59.8546488951124,
,SD031.jpg,0,MF031.jpg,0,,,,,0,9,9,80,imgFunc,1,NA,3.927735900040716,115.20088890008628,119.22043592017144,2024-03-09 16:13:46.358797,2024-03-09 16:13:50.370480,MF031.jpg,0,10958,30-49,2024-03-09_16h12.07.690,Recall,2021.2.3,59.8546488951124,
,DD032.jpg,0,FF032.jpg,0,,,,,0,10,10,31,imgFunc,1,NA,0.7931504999287426,119.22315320000052,120.12316572014242,2024-03-09 16:13:50.378461,2024-03-09 16:13:51.269893,FF032.jpg,0,10958,30-49,2024-03-09_16h12.07.690,Recall,2021.2.3,59.8546488951124,
,SD009.jpg,0,MF009.jpg,0,,,,,0,11,11,58,imgFunc,1,NA,0.5806057001464069,120.12418479984626,120.80878431955352,2024-03-09 16:13:51.277872,2024-03-09 16:13:51.954583,MF009.jpg,0,10958,30-49,2024-03-09_16h12.07.690,Recall,2021.2.3,59.8546488951124,
,SD027.jpg,0,MF027.jpg,0,,,,,0,12,12,76,imgFunc,1,NA,0.3763407003134489,120.82399679999799,121.31009552022442,2024-03-09 16:13:51.969573,2024-03-09 16:13:52.455142,MF027.jpg,0,10958,30-49,2024-03-09_16h12.07.690,Recall,2021.2.3,59.8546488951124,
,SD019.jpg,0,MF019.jpg,0,,,,,0,13,13,68,imgFunc,1,NA,0.33353149984031916,121.3067985996604,121.74196911975741,2024-03-09 16:13:52.462125,2024-03-09 16:13:52.888789,MF019.jpg,0,10958,30-49,2024-03-09_16h12.07.690,Recall,2021.2.3,59.8546488951124,
,SD023.jpg,0,MF023.jpg,0,,,,,0,14,14,72,imgFunc,1,NA,0.2910911999642849,121.74129380006343,122.12658471986651,2024-03-09 16:13:52.895772,2024-03-09 16:13:53.272570,MF023.jpg,0,10958,30-49,2024-03-09_16h12.07.690,Recall,2021.2.3,59.8546488951124,
,L_SD503.jpg,1,L_MF503.jpg,1,,,,,0,15,15,92,imgFunc,1,NA,0.3959233998320997,122.12454340001568,122.62627952033654,2024-03-09 16:13:53.279578,2024-03-09 16:13:53.772786,L_MF503.jpg,1,10958,30-49,2024-03-09_16h12.07.690,Recall,2021.2.3,59.8546488951124,
,SD003.jpg,0,MF003.jpg,0,,,,,0,16,16,52,imgFunc,1,NA,0.2989650000818074,122.62940049963072,123.03104151971638,2024-03-09 16:13:53.779769,2024-03-09 16:13:54.172693,MF003.jpg,0,10958,30-49,2024-03-09_16h12.07.690,Recall,2021.2.3,59.8546488951124,
,SD016.jpg,0,MF016.jpg,0,,,,,0,17,17,65,imgFunc,1,NA,0.28247480001300573,123.02192949969321,123.40614672005177,2024-03-09 16:13:54.180692,2024-03-09 16:13:54.556758,MF016.jpg,0,10958,30-49,2024-03-09_16h12.07.690,Recall,2021.2.3,59.8546488951124,
,DD026.jpg,0,FF026.jpg,0,,,,,0,18,18,25,imgFunc,1,NA,0.2296374998986721,123.41081509971991,123.74285791954026,2024-03-09 16:13:54.565736,2024-03-09 16:13:54.889817,FF026.jpg,0,10958,30-49,2024-03-09_16h12.07.690,Recall,2021.2.3,59.8546488951124,
,SD034.jpg,0,MF034.jpg,0,,,,,0,19,19,83,imgFunc,1,NA,0.23744780011475086,123.74716989975423,124.07844611955807,2024-03-09 16:13:54.899754,2024-03-09 16:13:55.223979,MF034.jpg,0,10958,30-49,2024-03-09_16h12.07.690,Recall,2021.2.3,59.8546488951124,
,SD036.jpg,0,MF036.jpg,0,,,,,0,20,20,85,imgFunc,1,NA,0.25230769999325275,124.07627769978717,124.42732411948964,2024-03-09 16:13:55.231960,2024-03-09 16:13:55.574144,MF036.jpg,0,10958,30-49,2024-03-09_16h12.07.690,Recall,2021.2.3,59.8546488951124,
,SD012.jpg,0,MF012.jpg,0,,,,,0,21,21,61,imgFunc,1,NA,0.1718804002739489,124.43672519968823,124.70674651954323,2024-03-09 16:13:55.589106,2024-03-09 16:13:55.857601,MF012.jpg,0,10958,30-49,2024-03-09_16h12.07.690,Recall,2021.2.3,59.8546488951124,
,L_DD501.jpg,1,L_FF501.jpg,1,,,,,0,22,22,40,imgFunc,1,NA,0.17828920017927885,124.71041569998488,124.9954367200844,2024-03-09 16:13:55.864584,2024-03-09 16:13:56.141126,L_FF501.jpg,1,10958,30-49,2024-03-09_16h12.07.690,Recall,2021.2.3,59.8546488951124,
,SD006.jpg,0,MF006.jpg,0,,,,,0,23,23,55,imgFunc,1,NA,0.2247541998513043,124.99166699964553,125.30948302010074,2024-03-09 16:13:56.148109,2024-03-09 16:13:56.457662,MF006.jpg,0,10958,30-49,2024-03-09_16h12.07.690,Recall,2021.2.3,59.8546488951124,
,DD014.jpg,0,FF014.jpg,0,,,,,0,24,24,13,imgFunc,2,NA,0.44912600005045533,125.31946809962392,125.87018951913342,2024-03-09 16:13:56.465618,2024-03-09 16:13:57.008395,FF014.jpg,0,10958,30-49,2024-03-09_16h12.07.690,Recall,2021.2.3,59.8546488951124,
,DD027.jpg,0,FF027.jpg,0,,,,,0,25,25,26,imgFunc,1,NA,0.9107025996781886,125.86588069982827,126.88535542041063,2024-03-09 16:13:57.015378,2024-03-09 16:13:58.026079,FF027.jpg,0,10958,30-49,2024-03-09_16h12.07.690,Recall,2021.2.3,59.8546488951124,
,DD018.jpg,0,FF018.jpg,0,,,,,0,26,26,17,imgFunc,1,NA,0.335139499977231,126.89723329991102,127.33362982003018,2024-03-09 16:13:58.041069,2024-03-09 16:13:58.476157,FF018.jpg,0,10958,30-49,2024-03-09_16h12.07.690,Recall,2021.2.3,59.8546488951124,
,SD033.jpg,0,MF033.jpg,0,,,,,0,27,27,82,imgFunc,1,NA,0.3304942003451288,127.32587739964947,127.75886461976916,2024-03-09 16:13:58.484130,2024-03-09 16:13:58.909103,MF033.jpg,0,10958,30-49,2024-03-09_16h12.07.690,Recall,2021.2.3,59.8546488951124,
,L_SD504.jpg,1,L_MF504.jpg,1,,,,,0,28,28,93,imgFunc,1,NA,0.279294999781996,127.76145769981667,128.14569641975686,2024-03-09 16:13:58.917079,2024-03-09 16:13:59.293388,L_MF504.jpg,1,10958,30-49,2024-03-09_16h12.07.690,Recall,2021.2.3,59.8546488951124,
,DD025.jpg,0,FF025.jpg,0,,,,,0,29,29,24,imgFunc,1,NA,0.2765440000221133,128.1482997997664,128.53280111961067,2024-03-09 16:13:59.300371,2024-03-09 16:13:59.676100,FF025.jpg,0,10958,30-49,2024-03-09_16h12.07.690,Recall,2021.2.3,59.8546488951124,
,DD013.jpg,0,FF013.jpg,0,,,,,0,30,30,12,imgFunc,1,NA,0.25890940008684993,128.5333422999829,128.90155371977016,2024-03-09 16:13:59.684076,2024-03-09 16:14:00.043853,FF013.jpg,0,10958,30-49,2024-03-09_16h12.07.690,Recall,2021.2.3,59.8546488951124,
,L_SD507.jpg,1,L_MF507.jpg,1,,,,,0,31,31,96,imgFunc,1,NA,0.26357749989256263,128.91295549971983,129.29675331898034,2024-03-09 16:14:00.051859,2024-03-09 16:14:00.426831,L_MF507.jpg,1,10958,30-49,2024-03-09_16h12.07.690,Recall,2021.2.3,59.8546488951124,
,DD003.jpg,0,FF003.jpg,0,,,,,0,32,32,2,imgFunc,1,NA,0.30595559999346733,129.2784126996994,129.67923691961914,2024-03-09 16:14:00.434809,2024-03-09 16:14:00.828064,FF003.jpg,0,10958,30-49,2024-03-09_16h12.07.690,Recall,2021.2.3,59.8546488951124,
,SD010.jpg,0,MF010.jpg,0,,,,,0,33,33,59,imgFunc,1,NA,0.2634836998768151,129.68112490000203,130.04909552028403,2024-03-09 16:14:00.835047,2024-03-09 16:14:01.194784,MF010.jpg,0,10958,30-49,2024-03-09_16h12.07.690,Recall,2021.2.3,59.8546488951124,
,SD038.jpg,0,MF038.jpg,0,,,,,0,34,34,87,imgFunc,1,NA,0.4720695000141859,130.04845899995416,130.61649381928146,2024-03-09 16:14:01.202787,2024-03-09 16:14:01.762108,MF038.jpg,0,10958,30-49,2024-03-09_16h12.07.690,Recall,2021.2.3,59.8546488951124,
,SD040.jpg,0,MF040.jpg,0,,,,,0,35,35,89,imgFunc,1,NA,0.33013289980590343,130.62247799988836,131.04233652027324,2024-03-09 16:14:01.777088,2024-03-09 16:14:02.195639,MF040.jpg,0,10958,30-49,2024-03-09_16h12.07.690,Recall,2021.2.3,59.8546488951124,
,DD033.jpg,0,FF033.jpg,0,,,,,0,36,36,32,imgFunc,1,NA,0.25891759991645813,131.04569879965857,131.3976288200356,2024-03-09 16:14:02.202622,2024-03-09 16:14:02.545830,FF033.jpg,0,10958,30-49,2024-03-09_16h12.07.690,Recall,2021.2.3,59.8546488951124,
,DD005.jpg,0,FF005.jpg,0,,,,,0,37,37,4,imgFunc,1,NA,0.2108408003114164,131.39754300005734,131.7158274203539,2024-03-09 16:14:02.552813,2024-03-09 16:14:02.862733,FF005.jpg,0,10958,30-49,2024-03-09_16h12.07.690,Recall,2021.2.3,59.8546488951124,
,DD035.jpg,0,FF035.jpg,0,,,,,0,38,38,34,imgFunc,1,NA,0.12530699977651238,131.71536409994587,131.93419751990587,2024-03-09 16:14:02.869716,2024-03-09 16:14:03.079513,FF035.jpg,0,10958,30-49,2024-03-09_16h12.07.690,Recall,2021.2.3,59.8546488951124,
,DD019.jpg,0,FF019.jpg,0,,,,,0,39,39,18,imgFunc,1,NA,0.10011419979855418,131.93222749978304,132.13346851989627,2024-03-09 16:14:03.086517,2024-03-09 16:14:03.279442,FF019.jpg,0,10958,30-49,2024-03-09_16h12.07.690,Recall,2021.2.3,59.8546488951124,
,SD001.jpg,0,MF001.jpg,0,,,,,0,40,40,50,imgFunc,1,NA,0.049091899767518044,132.14328779978678,132.29387491988018,2024-03-09 16:14:03.295422,2024-03-09 16:14:03.445269,MF001.jpg,0,10958,30-49,2024-03-09_16h12.07.690,Recall,2021.2.3,59.8546488951124,
,SD021.jpg,0,MF021.jpg,0,,,,,0,41,41,70,imgFunc,1,NA,0.11479040002450347,132.30173939978704,132.52022871980444,2024-03-09 16:14:03.453246,2024-03-09 16:14:03.663253,MF021.jpg,0,10958,30-49,2024-03-09_16h12.07.690,Recall,2021.2.3,59.8546488951124,
,SD030.jpg,0,MF030.jpg,0,,,,,0,42,42,79,imgFunc,1,NA,0.07930980017408729,132.51329009979963,132.69775401987135,2024-03-09 16:14:03.670264,2024-03-09 16:14:03.846689,MF030.jpg,0,10958,30-49,2024-03-09_16h12.07.690,Recall,2021.2.3,59.8546488951124,
,SD028.jpg,0,MF028.jpg,0,,,,,0,43,43,77,imgFunc,1,NA,0.05182329984381795,132.7007102998905,132.85190071957186,2024-03-09 16:14:03.853695,2024-03-09 16:14:03.996571,MF028.jpg,0,10958,30-49,2024-03-09_16h12.07.690,Recall,2021.2.3,59.8546488951124,
,SD017.jpg,0,MF017.jpg,0,,,,,0,44,44,66,imgFunc,1,NA,0.07516629993915558,132.85345079982653,133.03818101948127,2024-03-09 16:14:04.003554,2024-03-09 16:14:04.180049,MF017.jpg,0,10958,30-49,2024-03-09_16h12.07.690,Recall,2021.2.3,59.8546488951124,
,DD034.jpg,0,FF034.jpg,0,,,,,0,45,45,33,imgFunc,1,NA,0.07331740017980337,133.03127999976277,133.1984397196211,2024-03-09 16:14:04.188031,2024-03-09 16:14:04.346311,FF034.jpg,0,10958,30-49,2024-03-09_16h12.07.690,Recall,2021.2.3,59.8546488951124,
,SD002.jpg,0,MF002.jpg,0,,,,,0,46,46,51,imgFunc,1,NA,0.057555800303816795,133.1988284997642,133.34984121937305,2024-03-09 16:14:04.354312,2024-03-09 16:14:04.497076,MF002.jpg,0,10958,30-49,2024-03-09_16h12.07.690,Recall,2021.2.3,59.8546488951124,
,DD021.jpg,0,FF021.jpg,0,,,,,0,47,47,20,imgFunc,1,NA,0.11931089963763952,133.3454020000063,133.56401452003047,2024-03-09 16:14:04.504057,2024-03-09 16:14:04.714070,FF021.jpg,0,10958,30-49,2024-03-09_16h12.07.690,Recall,2021.2.3,59.8546488951124,
,SD029.jpg,0,MF029.jpg,0,,,,,0,48,48,78,imgFunc,1,NA,0.1614044001325965,133.56736449990422,133.83573291962966,2024-03-09 16:14:04.721053,2024-03-09 16:14:04.980842,MF029.jpg,0,10958,30-49,2024-03-09_16h12.07.690,Recall,2021.2.3,59.8546488951124,
,L_DD507.jpg,1,L_FF507.jpg,1,,,,,0,49,49,46,imgFunc,1,NA,0.4211566001176834,133.84353409986943,134.36431702040136,2024-03-09 16:14:04.995804,2024-03-09 16:14:05.514633,L_FF507.jpg,1,10958,30-49,2024-03-09_16h12.07.690,Recall,2021.2.3,59.8546488951124,
,DD017.jpg,0,FF017.jpg,0,,,,,0,50,50,16,imgFunc,1,NA,0.18656199984252453,134.36615579994395,134.65126771992072,2024-03-09 16:14:05.521638,2024-03-09 16:14:05.798278,FF017.jpg,0,10958,30-49,2024-03-09_16h12.07.690,Recall,2021.2.3,59.8546488951124,
,DD039.jpg,0,FF039.jpg,0,,,,,0,51,51,38,imgFunc,1,NA,0.0713713001459837,134.64938479987904,134.8177669197321,2024-03-09 16:14:05.805261,2024-03-09 16:14:05.964707,FF039.jpg,0,10958,30-49,2024-03-09_16h12.07.690,Recall,2021.2.3,59.8546488951124,
,L_SD510.jpg,1,L_MF510.jpg,1,,,,,0,52,52,99,imgFunc,1,NA,0.0942628001794219,134.81846660003066,135.02005481999367,2024-03-09 16:14:05.971690,2024-03-09 16:14:06.165010,L_MF510.jpg,1,10958,30-49,2024-03-09_16h12.07.690,Recall,2021.2.3,59.8546488951124,
,L_SD502.jpg,1,L_MF502.jpg,1,,,,,0,53,53,91,imgFunc,1,NA,0.07006149971857667,135.01848209975287,135.18629371980205,2024-03-09 16:14:06.173004,2024-03-09 16:14:06.332040,L_MF502.jpg,1,10958,30-49,2024-03-09_16h12.07.690,Recall,2021.2.3,59.8546488951124,
,SD014.jpg,0,MF014.jpg,0,,,,,0,54,54,63,imgFunc,1,NA,0.07170390011742711,135.19299679994583,135.3614677200094,2024-03-09 16:14:06.347025,2024-03-09 16:14:06.515422,MF014.jpg,0,10958,30-49,2024-03-09_16h12.07.690,Recall,2021.2.3,59.8546488951124,
,DD009.jpg,0,FF009.jpg,0,,,,,0,55,55,8,imgFunc,1,NA,0.06674619996920228,135.3655468998477,135.53359001968056,2024-03-09 16:14:06.522405,2024-03-09 16:14:06.681836,FF009.jpg,0,10958,30-49,2024-03-09_16h12.07.690,Recall,2021.2.3,59.8546488951124,
,DD011.jpg,0,FF011.jpg,0,,,,,0,56,56,10,imgFunc,1,NA,0.09350739978253841,135.5311388997361,135.71626241970807,2024-03-09 16:14:06.688834,2024-03-09 16:14:06.865675,FF011.jpg,0,10958,30-49,2024-03-09_16h12.07.690,Recall,2021.2.3,59.8546488951124,
,DD002.jpg,0,FF002.jpg,0,,,,,0,57,57,1,imgFunc,1,NA,0.09225390013307333,135.71634319983423,135.9009619196877,2024-03-09 16:14:06.872658,2024-03-09 16:14:07.048939,FF002.jpg,0,10958,30-49,2024-03-09_16h12.07.690,Recall,2021.2.3,59.8546488951124,
,DD010.jpg,0,FF010.jpg,0,,,,,0,58,58,9,imgFunc,1,NA,0.06857210025191307,135.90794810000807,136.07640641974285,2024-03-09 16:14:07.055923,2024-03-09 16:14:07.215103,FF010.jpg,0,10958,30-49,2024-03-09_16h12.07.690,Recall,2021.2.3,59.8546488951124,
,DD024.jpg,0,FF024.jpg,0,,,,,0,59,59,23,imgFunc,1,NA,0.0550891999155283,136.06553089991212,136.2170118195936,2024-03-09 16:14:07.223102,2024-03-09 16:14:07.365841,FF024.jpg,0,10958,30-49,2024-03-09_16h12.07.690,Recall,2021.2.3,59.8546488951124,
,DD036.jpg,0,FF036.jpg,0,,,,,0,60,60,35,imgFunc,1,NA,0.2312016999348998,136.21726309973747,136.55167781980708,2024-03-09 16:14:07.372825,2024-03-09 16:14:07.698865,FF036.jpg,0,10958,30-49,2024-03-09_16h12.07.690,Recall,2021.2.3,59.8546488951124,
,SD037.jpg,0,MF037.jpg,0,,,,,0,61,61,86,imgFunc,1,NA,0.13166930014267564,136.54903970006853,136.78426921973005,2024-03-09 16:14:07.706867,2024-03-09 16:14:07.933060,MF037.jpg,0,10958,30-49,2024-03-09_16h12.07.690,Recall,2021.2.3,59.8546488951124,
,SD032.jpg,0,MF032.jpg,0,,,,,0,62,62,81,imgFunc,1,NA,0.07091910019516945,136.78562559979036,136.95430011954159,2024-03-09 16:14:07.940043,2024-03-09 16:14:08.099807,MF032.jpg,0,10958,30-49,2024-03-09_16h12.07.690,Recall,2021.2.3,59.8546488951124,
,DD028.jpg,0,FF028.jpg,0,,,,,0,63,63,27,imgFunc,1,NA,0.06309300009161234,136.9613254996948,137.11464811954647,2024-03-09 16:14:08.114769,2024-03-09 16:14:08.265596,FF028.jpg,0,10958,30-49,2024-03-09_16h12.07.690,Recall,2021.2.3,59.8546488951124,
,SD008.jpg,0,MF008.jpg,0,,,,,0,64,64,57,imgFunc,1,NA,0.08477600011974573,137.11592449992895,137.30133512010798,2024-03-09 16:14:08.273557,2024-03-09 16:14:08.449797,MF008.jpg,0,10958,30-49,2024-03-09_16h12.07.690,Recall,2021.2.3,59.8546488951124,
,L_DD509.jpg,1,L_FF509.jpg,1,,,,,0,65,65,48,imgFunc,1,NA,0.5347183002158999,137.29765609977767,137.93246421962976,2024-03-09 16:14:08.457775,2024-03-09 16:14:09.083071,L_FF509.jpg,1,10958,30-49,2024-03-09_16h12.07.690,Recall,2021.2.3,59.8546488951124,
,L_SD506.jpg,1,L_MF506.jpg,1,,,,,0,66,66,95,imgFunc,1,NA,0.40620729979127645,137.93821739964187,138.43249281914905,2024-03-09 16:14:09.094040,2024-03-09 16:14:09.584105,L_MF506.jpg,1,10958,30-49,2024-03-09_16h12.07.690,Recall,2021.2.3,59.8546488951124,
,DD038.jpg,0,FF038.jpg,0,,,,,0,67,67,37,imgFunc,1,NA,1.2584716998971999,138.4378856997937,139.80662751942873,2024-03-09 16:14:09.591111,2024-03-09 16:14:10.951630,FF038.jpg,0,10958,30-49,2024-03-09_16h12.07.690,Recall,2021.2.3,59.8546488951124,
,L_SD505.jpg,1,L_MF505.jpg,1,,,,,0,68,68,94,imgFunc,2,NA,2.1288008000701666,139.80754689965397,142.0293893199414,2024-03-09 16:14:10.966592,2024-03-09 16:14:13.185855,L_MF505.jpg,1,10958,30-49,2024-03-09_16h12.07.690,Recall,2021.2.3,59.8546488951124,
,SD025.jpg,0,MF025.jpg,0,,,,,0,69,69,74,imgFunc,1,NA,0.6839724997989833,142.0366308996454,142.8204969195649,2024-03-09 16:14:13.194834,2024-03-09 16:14:13.970758,MF025.jpg,0,10958,30-49,2024-03-09_16h12.07.690,Recall,2021.2.3,59.8546488951124,
,DD004.jpg,0,FF004.jpg,0,,,,,0,70,70,3,imgFunc,1,NA,0.29400489991530776,142.82670269999653,143.2282821200788,2024-03-09 16:14:13.977763,2024-03-09 16:14:14.370979,FF004.jpg,0,10958,30-49,2024-03-09_16h12.07.690,Recall,2021.2.3,59.8546488951124,
,L_SD501.jpg,1,L_MF501.jpg,1,,,,,0,71,71,90,imgFunc,1,NA,0.16088049998506904,143.22346379980445,143.49165511969477,2024-03-09 16:14:14.377962,2024-03-09 16:14:14.637700,L_MF501.jpg,1,10958,30-49,2024-03-09_16h12.07.690,Recall,2021.2.3,59.8546488951124,
,L_DD502.jpg,1,L_FF502.jpg,1,,,,,0,72,72,41,imgFunc,1,NA,0.15040270006284118,143.49019709974527,143.7421464198269,2024-03-09 16:14:14.644705,2024-03-09 16:14:14.888225,L_FF502.jpg,1,10958,30-49,2024-03-09_16h12.07.690,Recall,2021.2.3,59.8546488951124,
,SD011.jpg,0,MF011.jpg,0,,,,,0,73,73,60,imgFunc,1,NA,0.09449069993570447,143.7381564998068,143.93991251988336,2024-03-09 16:14:14.895208,2024-03-09 16:14:15.088148,MF011.jpg,0,10958,30-49,2024-03-09_16h12.07.690,Recall,2021.2.3,59.8546488951124,
,L_DD506.jpg,1,L_FF506.jpg,1,,,,,0,74,74,45,imgFunc,1,NA,0.1250823000445962,143.93940269993618,144.1576850200072,2024-03-09 16:14:15.095131,2024-03-09 16:14:15.305095,L_FF506.jpg,1,10958,30-49,2024-03-09_16h12.07.690,Recall,2021.2.3,59.8546488951124,
,L_DD510.jpg,1,L_FF510.jpg,1,,,,,0,75,75,49,imgFunc,1,NA,0.09116060007363558,144.1655438998714,144.36715451953933,2024-03-09 16:14:15.312078,2024-03-09 16:14:15.505114,L_FF510.jpg,1,10958,30-49,2024-03-09_16h12.07.690,Recall,2021.2.3,59.8546488951124,
,L_DD503.jpg,1,L_FF503.jpg,1,,,,,0,76,76,42,imgFunc,1,NA,0.07765890005975962,144.35497220000252,144.52309641987085,2024-03-09 16:14:15.512097,2024-03-09 16:14:15.671922,L_FF503.jpg,1,10958,30-49,2024-03-09_16h12.07.690,Recall,2021.2.3,59.8546488951124,
,L_SD509.jpg,1,L_MF509.jpg,1,,,,,0,77,77,98,imgFunc,1,NA,0.10209379997104406,144.53029699996114,144.71740371966735,2024-03-09 16:14:15.686883,2024-03-09 16:14:15.871812,L_MF509.jpg,1,10958,30-49,2024-03-09_16h12.07.690,Recall,2021.2.3,59.8546488951124,
,L_DD504.jpg,1,L_FF504.jpg,1,,,,,0,78,78,43,imgFunc,1,NA,0.1179351001046598,144.72280849982053,144.9412093195133,2024-03-09 16:14:15.879789,2024-03-09 16:14:16.089046,L_FF504.jpg,1,10958,30-49,2024-03-09_16h12.07.690,Recall,2021.2.3,59.8546488951124,
,SD039.jpg,0,MF039.jpg,0,,,,,0,79,79,88,imgFunc,1,NA,0.09252930013462901,144.94014939991757,145.12560091959313,2024-03-09 16:14:16.096029,2024-03-09 16:14:16.272519,MF039.jpg,0,10958,30-49,2024-03-09_16h12.07.690,Recall,2021.2.3,59.8546488951124,
,DD008.jpg,0,FF008.jpg,0,,,,,0,80,80,7,imgFunc,1,NA,0.35232509998604655,145.12830960005522,145.57992381975055,2024-03-09 16:14:16.279502,2024-03-09 16:14:16.722793,FF008.jpg,0,10958,30-49,2024-03-09_16h12.07.690,Recall,2021.2.3,59.8546488951124,
,L_DD505.jpg,1,L_FF505.jpg,1,,,,,0,81,81,44,imgFunc,1,NA,0.36335849994793534,145.58100309967995,146.04821591963992,2024-03-09 16:14:16.730773,2024-03-09 16:14:17.188733,L_FF505.jpg,1,10958,30-49,2024-03-09_16h12.07.690,Recall,2021.2.3,59.8546488951124,
,DD016.jpg,0,FF016.jpg,0,,,,,0,82,82,15,imgFunc,1,NA,0.2535831998102367,146.05118339974433,146.4162991400808,2024-03-09 16:14:17.206683,2024-03-09 16:14:17.556604,FF016.jpg,0,10958,30-49,2024-03-09_16h12.07.690,Recall,2021.2.3,59.8546488951124,
,SD035.jpg,0,MF035.jpg,0,,,,,0,83,83,84,imgFunc,1,NA,0.19986890023574233,146.4087352999486,146.7108571198769,2024-03-09 16:14:17.563587,2024-03-09 16:14:17.856693,MF035.jpg,0,10958,30-49,2024-03-09_16h12.07.690,Recall,2021.2.3,59.8546488951124,
,DD015.jpg,0,FF015.jpg,0,,,,,0,84,84,14,imgFunc,1,NA,0.1713875001296401,146.7092499998398,146.97753781965002,2024-03-09 16:14:17.864673,2024-03-09 16:14:18.124011,FF015.jpg,0,10958,30-49,2024-03-09_16h12.07.690,Recall,2021.2.3,59.8546488951124,
,DD012.jpg,0,FF012.jpg,0,,,,,0,85,85,11,imgFunc,1,NA,0.17899380018934608,146.98157429974526,147.26661791978404,2024-03-09 16:14:18.130994,2024-03-09 16:14:18.407144,FF012.jpg,0,10958,30-49,2024-03-09_16h12.07.690,Recall,2021.2.3,59.8546488951124,
,DD022.jpg,0,FF022.jpg,0,,,,,0,86,86,21,imgFunc,1,NA,0.14894119976088405,147.2595274997875,147.51134191965684,2024-03-09 16:14:18.414127,2024-03-09 16:14:18.657226,FF022.jpg,0,10958,30-49,2024-03-09_16h12.07.690,Recall,2021.2.3,59.8546488951124,
,DD029.jpg,0,FF029.jpg,0,,,,,0,87,87,28,imgFunc,1,NA,0.11262209992855787,147.51210490008816,147.73127422016114,2024-03-09 16:14:18.664209,2024-03-09 16:14:18.874387,FF029.jpg,0,10958,30-49,2024-03-09_16h12.07.690,Recall,2021.2.3,59.8546488951124,
,SD015.jpg,0,MF015.jpg,0,,,,,0,88,88,64,imgFunc,1,NA,0.11480950005352497,147.72592139989138,147.94445072021335,2024-03-09 16:14:18.881371,2024-03-09 16:14:19.091242,MF015.jpg,0,10958,30-49,2024-03-09_16h12.07.690,Recall,2021.2.3,59.8546488951124,
,L_SD508.jpg,1,L_MF508.jpg,1,,,,,0,89,89,97,imgFunc,1,NA,0.0774772996082902,147.93904979992658,148.10783401923254,2024-03-09 16:14:19.098225,2024-03-09 16:14:19.257882,L_MF508.jpg,1,10958,30-49,2024-03-09_16h12.07.690,Recall,2021.2.3,59.8546488951124,
,DD031.jpg,0,FF031.jpg,0,,,,,0,90,90,30,imgFunc,1,NA,0.1886036000214517,148.1081332997419,148.3924558199942,2024-03-09 16:14:19.265801,2024-03-09 16:14:19.541333,FF031.jpg,0,10958,30-49,2024-03-09_16h12.07.690,Recall,2021.2.3,59.8546488951124,
,SD020.jpg,0,MF020.jpg,0,,,,,0,91,91,69,imgFunc,1,NA,0.13326300028711557,148.40306829987094,148.63974061980844,2024-03-09 16:14:19.556295,2024-03-09 16:14:19.791445,MF020.jpg,0,10958,30-49,2024-03-09_16h12.07.690,Recall,2021.2.3,59.8546488951124,
,SD004.jpg,0,MF004.jpg,0,,,,,0,92,92,53,imgFunc,1,NA,0.10218069981783628,148.6422109999694,148.84405551990494,2024-03-09 16:14:19.798428,2024-03-09 16:14:19.991470,MF004.jpg,0,10958,30-49,2024-03-09_16h12.07.690,Recall,2021.2.3,59.8546488951124,
,L_DD508.jpg,1,L_FF508.jpg,1,,,,,0,93,93,47,imgFunc,1,NA,0.1347838002257049,148.84156049974263,149.07609451934695,2024-03-09 16:14:19.998448,2024-03-09 16:14:20.224851,L_FF508.jpg,1,10958,30-49,2024-03-09_16h12.07.690,Recall,2021.2.3,59.8546488951124,
,DD001.jpg,0,FF001.jpg,0,,,,,0,94,94,0,imgFunc,1,NA,0.5133076999336481,149.07117759995162,149.6739707197994,2024-03-09 16:14:20.231829,2024-03-09 16:14:20.825795,FF001.jpg,0,10958,30-49,2024-03-09_16h12.07.690,Recall,2021.2.3,59.8546488951124,
,SD013.jpg,0,MF013.jpg,0,,,,,0,95,95,62,imgFunc,1,NA,0.8442577999085188,149.67632019985467,150.6284569199197,2024-03-09 16:14:20.832779,2024-03-09 16:14:21.776308,MF013.jpg,0,10958,30-49,2024-03-09_16h12.07.690,Recall,2021.2.3,59.8546488951124,
,DD007.jpg,0,FF007.jpg,0,,,,,0,96,96,6,imgFunc,1,NA,0.3688976997509599,150.6395477000624,151.10878041991964,2024-03-09 16:14:21.791270,2024-03-09 16:14:22.259742,FF007.jpg,0,10958,30-49,2024-03-09_16h12.07.690,Recall,2021.2.3,59.8546488951124,
,DD037.jpg,0,FF037.jpg,0,,,,,0,97,97,36,imgFunc,1,NA,0.2606667000800371,151.10794179979712,151.45956981973723,2024-03-09 16:14:22.266723,2024-03-09 16:14:22.610018,FF037.jpg,0,10958,30-49,2024-03-09_16h12.07.690,Recall,2021.2.3,59.8546488951124,
,SD024.jpg,0,MF024.jpg,0,,,,,0,98,98,73,imgFunc,1,NA,0.23131399974226952,151.4653921998106,151.79942551907152,2024-03-09 16:14:22.617999,2024-03-09 16:14:22.943817,MF024.jpg,0,10958,30-49,2024-03-09_16h12.07.690,Recall,2021.2.3,59.8546488951124,
,SD007.jpg,0,MF007.jpg,0,,,,,0,99,99,56,imgFunc,1,NA,0.24459199979901314,151.79575539985672,152.14707892015576,2024-03-09 16:14:22.950800,2024-03-09 16:14:23.293605,MF007.jpg,0,10958,30-49,2024-03-09_16h12.07.690,Recall,2021.2.3,59.8546488951124,
,,,,,,,,,,,,,instrFunc,space,"Great work! 

 Now you will switch to the other image type.

 Press the spacebar whenever you are ready to start.",3.139739000238478,152.07664689980447,155.2590965195559,2024-03-09 16:14:23.294594,2024-03-09 16:14:26.461308,,,10958,30-49,2024-03-09_16h12.07.690,Recall,2021.2.3,59.8546488951124,
,SD032.jpg,0,MF032.jpg,0,,,,,0,0,0,81,imgFunc,1,NA,2.9158160001970828,155.34078900003806,158.33843886014074,2024-03-09 16:14:26.506166,2024-03-09 16:14:29.498618,SD032.jpg,0,10958,30-49,2024-03-09_16h12.07.690,Recall,2021.2.3,59.8546488951124,
,SD005.jpg,0,MF005.jpg,0,,,,,0,1,1,54,imgFunc,1,NA,0.5079870000481606,158.34037939971313,158.9413533192128,2024-03-09 16:14:29.506494,2024-03-09 16:14:30.098858,SD005.jpg,0,10958,30-49,2024-03-09_16h12.07.690,Recall,2021.2.3,59.8546488951124,
,L_DD507.jpg,1,L_FF507.jpg,1,,,,,0,2,2,46,imgFunc,1,NA,0.3935895003378391,158.94298349972814,159.42838201997802,2024-03-09 16:14:30.105841,2024-03-09 16:14:30.582440,L_DD507.jpg,1,10958,30-49,2024-03-09_16h12.07.690,Recall,2021.2.3,59.8546488951124,
,L_SD501.jpg,1,L_MF501.jpg,1,,,,,0,3,3,90,imgFunc,1,NA,0.3602656996808946,159.43238099990413,159.87459752010182,2024-03-09 16:14:30.594431,2024-03-09 16:14:31.032982,L_SD501.jpg,1,10958,30-49,2024-03-09_16h12.07.690,Recall,2021.2.3,59.8546488951124,
,DD021.jpg,0,FF021.jpg,0,,,,,0,4,4,20,imgFunc,1,NA,0.34543649991974235,159.87897849967703,160.31440271949396,2024-03-09 16:14:31.039965,2024-03-09 16:14:31.466443,DD021.jpg,0,10958,30-49,2024-03-09_16h12.07.690,Recall,2021.2.3,59.8546488951124,
,L_DD509.jpg,1,L_FF509.jpg,1,,,,,0,5,5,48,imgFunc,1,NA,0.36261599976569414,160.31010069977492,160.76250141952187,2024-03-09 16:14:31.473426,2024-03-09 16:14:31.917179,L_DD509.jpg,1,10958,30-49,2024-03-09_16h12.07.690,Recall,2021.2.3,59.8546488951124,
,DD031.jpg,0,FF031.jpg,0,,,,,0,6,6,30,imgFunc,1,NA,0.35530300019308925,160.77329170005396,161.2421871200204,2024-03-09 16:14:31.924162,2024-03-09 16:14:32.384088,DD031.jpg,0,10958,30-49,2024-03-09_16h12.07.690,Recall,2021.2.3,59.8546488951124,
,SD034.jpg,0,MF034.jpg,0,,,,,0,7,7,83,imgFunc,1,NA,0.457396499812603,161.2313063996844,161.78294022008777,2024-03-09 16:14:32.391093,2024-03-09 16:14:32.934334,SD034.jpg,0,10958,30-49,2024-03-09_16h12.07.690,Recall,2021.2.3,59.8546488951124,
,DD040.jpg,0,FF040.jpg,0,,,,,0,8,8,39,imgFunc,2,NA,0.6233870000578463,161.80114539992064,162.52280412008986,2024-03-09 16:14:32.948299,2024-03-09 16:14:33.668439,DD040.jpg,0,10958,30-49,2024-03-09_16h12.07.690,Recall,2021.2.3,59.8546488951124,
,SD008.jpg,0,MF008.jpg,0,,,,,0,9,9,57,imgFunc,1,NA,1.4406173001043499,162.520006199833,164.05399991990998,2024-03-09 16:14:33.676419,2024-03-09 16:14:35.202631,SD008.jpg,0,10958,30-49,2024-03-09_16h12.07.690,Recall,2021.2.3,59.8546488951124,
,SD024.jpg,0,MF024.jpg,0,,,,,0,10,10,73,imgFunc,1,NA,0.49564719991758466,164.0490355999209,164.6350120198913,2024-03-09 16:14:35.209614,2024-03-09 16:14:35.786611,SD024.jpg,0,10958,30-49,2024-03-09_16h12.07.690,Recall,2021.2.3,59.8546488951124,
,DD032.jpg,0,FF032.jpg,0,,,,,0,11,11,31,imgFunc,2,NA,1.3362659998238087,164.64807110000402,166.09961392031983,2024-03-09 16:14:35.794535,2024-03-09 16:14:37.236885,DD032.jpg,0,10958,30-49,2024-03-09_16h12.07.690,Recall,2021.2.3,59.8546488951124,
,L_SD506.jpg,1,L_MF506.jpg,1,,,,,0,12,12,95,imgFunc,1,NA,0.32009779987856746,166.08860069978982,166.50657931994647,2024-03-09 16:14:37.244833,2024-03-09 16:14:37.654605,L_SD506.jpg,1,10958,30-49,2024-03-09_16h12.07.690,Recall,2021.2.3,59.8546488951124,
,DD012.jpg,0,FF012.jpg,0,,,,,0,13,13,11,imgFunc,1,NA,0.3830027999356389,166.5053332997486,166.9906784198247,2024-03-09 16:14:37.661589,2024-03-09 16:14:38.137501,DD012.jpg,0,10958,30-49,2024-03-09_16h12.07.690,Recall,2021.2.3,59.8546488951124,
,L_DD506.jpg,1,L_FF506.jpg,1,,,,,0,14,14,45,imgFunc,1,NA,0.5997795001603663,166.98465289967135,167.68619541963562,2024-03-09 16:14:38.145474,2024-03-09 16:14:38.838354,L_DD506.jpg,1,10958,30-49,2024-03-09_16h12.07.690,Recall,2021.2.3,59.8546488951124,
,SD020.jpg,0,MF020.jpg,0,,,,,0,15,15,69,imgFunc,2,NA,0.913954199757427,167.69479069998488,168.71430611982942,2024-03-09 16:14:38.845362,2024-03-09 16:14:39.856204,SD020.jpg,0,10958,30-49,2024-03-09_16h12.07.690,Recall,2021.2.3,59.8546488951124,
,L_SD508.jpg,1,L_MF508.jpg,1,,,,,0,16,16,97,imgFunc,1,NA,0.9789784997701645,168.7016340000555,169.76926311990246,2024-03-09 16:14:39.864206,2024-03-09 16:14:40.922635,L_SD508.jpg,1,10958,30-49,2024-03-09_16h12.07.690,Recall,2021.2.3,59.8546488951124,
,DD004.jpg,0,FF004.jpg,0,,,,,0,17,17,3,imgFunc,1,NA,0.7309567001648247,169.77340629976243,170.5955239199102,2024-03-09 16:14:40.937594,2024-03-09 16:14:41.757333,DD004.jpg,0,10958,30-49,2024-03-09_16h12.07.690,Recall,2021.2.3,59.8546488951124,
,SD017.jpg,0,MF017.jpg,0,,,,,0,18,18,66,imgFunc,2,NA,1.3376277000643313,170.5987422997132,172.0341660194099,2024-03-09 16:14:41.764317,2024-03-09 16:14:43.190834,SD017.jpg,0,10958,30-49,2024-03-09_16h12.07.690,Recall,2021.2.3,59.8546488951124,
,DD027.jpg,0,FF027.jpg,0,,,,,0,19,19,26,imgFunc,1,NA,1.201874100137502,172.03082179976627,173.3174456199631,2024-03-09 16:14:43.198813,2024-03-09 16:14:44.476236,DD027.jpg,0,10958,30-49,2024-03-09_16h12.07.690,Recall,2021.2.3,59.8546488951124,
,SD003.jpg,0,MF003.jpg,0,,,,,0,20,20,52,imgFunc,1,NA,0.5138280997052789,173.31860399991274,173.92023992026225,2024-03-09 16:14:44.483708,2024-03-09 16:14:45.076449,SD003.jpg,0,10958,30-49,2024-03-09_16h12.07.690,Recall,2021.2.3,59.8546488951124,
,DD003.jpg,0,FF003.jpg,0,,,,,0,21,21,2,imgFunc,1,NA,0.3458988000638783,173.92677719984204,174.37838201923296,2024-03-09 16:14:45.083457,2024-03-09 16:14:45.526871,DD003.jpg,0,10958,30-49,2024-03-09_16h12.07.690,Recall,2021.2.3,59.8546488951124,
,SD009.jpg,0,MF009.jpg,0,,,,,0,22,22,58,imgFunc,1,NA,0.40886580012738705,174.38390149967745,174.88830782007426,2024-03-09 16:14:45.540835,2024-03-09 16:14:46.043877,SD009.jpg,0,10958,30-49,2024-03-09_16h12.07.690,Recall,2021.2.3,59.8546488951124,
,SD028.jpg,0,MF028.jpg,0,,,,,0,23,23,77,imgFunc,2,NA,0.5195716000162065,174.88910709973425,175.5073051196523,2024-03-09 16:14:46.050889,2024-03-09 16:14:46.661011,SD028.jpg,0,10958,30-49,2024-03-09_16h12.07.690,Recall,2021.2.3,59.8546488951124,
,DD014.jpg,0,FF014.jpg,0,,,,,0,24,24,13,imgFunc,1,NA,0.46212670020759106,175.50668059987947,176.05923451995477,2024-03-09 16:14:46.667994,2024-03-09 16:14:47.211548,DD014.jpg,0,10958,30-49,2024-03-09_16h12.07.690,Recall,2021.2.3,59.8546488951124,
,L_DD504.jpg,1,L_FF504.jpg,1,,,,,0,25,25,43,imgFunc,1,NA,0.7320962999947369,176.06052589975297,176.8951964196749,2024-03-09 16:14:47.219551,2024-03-09 16:14:48.045296,L_DD504.jpg,1,10958,30-49,2024-03-09_16h12.07.690,Recall,2021.2.3,59.8546488951124,
,L_SD502.jpg,1,L_MF502.jpg,1,,,,,0,26,26,91,imgFunc,2,NA,2.076431999914348,176.90029340004548,179.08658551983535,2024-03-09 16:14:48.052279,2024-03-09 16:14:50.230055,L_SD502.jpg,1,10958,30-49,2024-03-09_16h12.07.690,Recall,2021.2.3,59.8546488951124,
,DD010.jpg,0,FF010.jpg,0,,,,,0,27,27,9,imgFunc,1,NA,0.4586888998746872,179.07007149979472,179.6221790201962,2024-03-09 16:14:50.237060,2024-03-09 16:14:50.780606,DD010.jpg,0,10958,30-49,2024-03-09_16h12.07.690,Recall,2021.2.3,59.8546488951124,
,SD015.jpg,0,MF015.jpg,0,,,,,0,28,28,64,imgFunc,1,NA,0.2681340998969972,179.6285997997038,179.99675502022728,2024-03-09 16:14:50.787620,2024-03-09 16:14:51.147670,SD015.jpg,0,10958,30-49,2024-03-09_16h12.07.690,Recall,2021.2.3,59.8546488951124,
,SD038.jpg,0,MF038.jpg,0,,,,,0,29,29,87,imgFunc,1,NA,0.27453659987077117,179.99011339992285,180.35877802036703,2024-03-09 16:14:51.154654,2024-03-09 16:14:51.514462,SD038.jpg,0,10958,30-49,2024-03-09_16h12.07.690,Recall,2021.2.3,59.8546488951124,
,L_SD507.jpg,1,L_MF507.jpg,1,,,,,0,30,30,96,imgFunc,1,NA,0.3003237000666559,180.36412289971486,180.76443881960586,2024-03-09 16:14:51.522443,2024-03-09 16:14:51.914291,L_SD507.jpg,1,10958,30-49,2024-03-09_16h12.07.690,Recall,2021.2.3,59.8546488951124,
,DD037.jpg,0,FF037.jpg,0,,,,,0,31,31,36,imgFunc,1,NA,0.4041756000369787,180.7801958997734,181.2849650196731,2024-03-09 16:14:51.928216,2024-03-09 16:14:52.431061,DD037.jpg,0,10958,30-49,2024-03-09_16h12.07.690,Recall,2021.2.3,59.8546488951124,
,SD023.jpg,0,MF023.jpg,0,,,,,0,32,32,72,imgFunc,1,NA,0.3521052999421954,181.28031699964777,181.7309857197106,2024-03-09 16:14:52.439069,2024-03-09 16:14:52.881587,SD023.jpg,0,10958,30-49,2024-03-09_16h12.07.690,Recall,2021.2.3,59.8546488951124,
,SD007.jpg,0,MF007.jpg,0,,,,,0,33,33,56,imgFunc,1,NA,0.354536599945277,181.7258945996873,182.1777560194023,2024-03-09 16:14:52.889542,2024-03-09 16:14:53.332357,SD007.jpg,0,10958,30-49,2024-03-09_16h12.07.690,Recall,2021.2.3,59.8546488951124,
,L_SD504.jpg,1,L_MF504.jpg,1,,,,,0,34,34,93,imgFunc,2,NA,0.392238000407815,182.17612739978358,182.66159441974014,2024-03-09 16:14:53.339346,2024-03-09 16:14:53.816049,L_SD504.jpg,1,10958,30-49,2024-03-09_16h12.07.690,Recall,2021.2.3,59.8546488951124,
,DD007.jpg,0,FF007.jpg,0,,,,,0,35,35,6,imgFunc,2,NA,0.7296790000982583,182.66278259968385,183.48168121930212,2024-03-09 16:14:53.823058,2024-03-09 16:14:54.632874,DD007.jpg,0,10958,30-49,2024-03-09_16h12.07.690,Recall,2021.2.3,59.8546488951124,
,DD026.jpg,0,FF026.jpg,0,,,,,0,36,36,25,imgFunc,1,NA,0.5973943001590669,183.48299789987504,184.16933551989496,2024-03-09 16:14:54.647833,2024-03-09 16:14:55.333014,DD026.jpg,0,10958,30-49,2024-03-09_16h12.07.690,Recall,2021.2.3,59.8546488951124,
,SD002.jpg,0,MF002.jpg,0,,,,,0,37,37,51,imgFunc,1,NA,0.4038367997854948,184.17262539966032,184.65804451983422,2024-03-09 16:14:55.340990,2024-03-09 16:14:55.817707,SD002.jpg,0,10958,30-49,2024-03-09_16h12.07.690,Recall,2021.2.3,59.8546488951124,
,SD025.jpg,0,MF025.jpg,0,,,,,0,38,38,74,imgFunc,1,NA,0.6116285999305546,184.6607194999233,185.36154461978003,2024-03-09 16:14:55.825685,2024-03-09 16:14:56.518094,SD025.jpg,0,10958,30-49,2024-03-09_16h12.07.690,Recall,2021.2.3,59.8546488951124,
,SD013.jpg,0,MF013.jpg,0,,,,,0,39,39,62,imgFunc,2,NA,0.9206357002258301,185.35984709998593,186.37976221973076,2024-03-09 16:14:56.525103,2024-03-09 16:14:57.536089,SD013.jpg,0,10958,30-49,2024-03-09_16h12.07.690,Recall,2021.2.3,59.8546488951124,
,SD035.jpg,0,MF035.jpg,0,,,,,0,40,40,84,imgFunc,1,NA,0.5171409002505243,186.37957119988278,186.99824081966653,2024-03-09 16:14:57.543072,2024-03-09 16:14:58.152584,SD035.jpg,0,10958,30-49,2024-03-09_16h12.07.690,Recall,2021.2.3,59.8546488951124,
,DD006.jpg,0,FF006.jpg,0,,,,,0,41,41,5,imgFunc,1,NA,0.7061209999956191,187.00633649993688,187.7936717197299,2024-03-09 16:14:58.167574,2024-03-09 16:14:58.953240,DD006.jpg,0,10958,30-49,2024-03-09_16h12.07.690,Recall,2021.2.3,59.8546488951124,
,DD020.jpg,0,FF020.jpg,0,,,,,0,42,42,19,imgFunc,1,NA,0.6079691001214087,187.80873949965462,188.52701281988993,2024-03-09 16:14:58.961220,2024-03-09 16:14:59.670460,DD020.jpg,0,10958,30-49,2024-03-09_16h12.07.690,Recall,2021.2.3,59.8546488951124,
,DD030.jpg,0,FF030.jpg,0,,,,,0,43,43,29,imgFunc,1,NA,0.5098471003584564,188.51460509980097,189.11654001986608,2024-03-09 16:14:59.677443,2024-03-09 16:15:00.270363,DD030.jpg,0,10958,30-49,2024-03-09_16h12.07.690,Recall,2021.2.3,59.8546488951124,
,DD008.jpg,0,FF008.jpg,0,,,,,0,44,44,7,imgFunc,1,NA,0.9946979000233114,189.1179832997732,190.20388842001557,2024-03-09 16:15:00.278341,2024-03-09 16:15:01.355068,DD008.jpg,0,10958,30-49,2024-03-09_16h12.07.690,Recall,2021.2.3,59.8546488951124,
,DD034.jpg,0,FF034.jpg,0,,,,,0,45,45,33,imgFunc,1,NA,0.4162085000425577,190.20857709972188,190.72665361966938,2024-03-09 16:15:01.362051,2024-03-09 16:15:01.871938,DD034.jpg,0,10958,30-49,2024-03-09_16h12.07.690,Recall,2021.2.3,59.8546488951124,
,L_SD505.jpg,1,L_MF505.jpg,1,,,,,0,46,46,94,imgFunc,1,NA,0.42740130005404353,190.71700740000233,191.23519672034308,2024-03-09 16:15:01.879942,2024-03-09 16:15:02.389206,L_SD505.jpg,1,10958,30-49,2024-03-09_16h12.07.690,Recall,2021.2.3,59.8546488951124,
,SD031.jpg,0,MF031.jpg,0,,,,,0,47,47,80,imgFunc,1,NA,0.4245471996255219,191.23219789983705,191.75055011967197,2024-03-09 16:15:02.396189,2024-03-09 16:15:02.905161,SD031.jpg,0,10958,30-49,2024-03-09_16h12.07.690,Recall,2021.2.3,59.8546488951124,
,DD024.jpg,0,FF024.jpg,0,,,,,0,48,48,23,imgFunc,1,NA,0.42669370025396347,191.7500580996275,192.26863311929628,2024-03-09 16:15:02.913141,2024-03-09 16:15:03.422972,DD024.jpg,0,10958,30-49,2024-03-09_16h12.07.690,Recall,2021.2.3,59.8546488951124,
,DD036.jpg,0,FF036.jpg,0,,,,,0,49,49,35,imgFunc,1,NA,0.3868121998384595,192.26955570001155,192.7543986197561,2024-03-09 16:15:03.430973,2024-03-09 16:15:03.906939,DD036.jpg,0,10958,30-49,2024-03-09_16h12.07.690,Recall,2021.2.3,59.8546488951124,
,DD002.jpg,0,FF002.jpg,0,,,,,0,50,50,1,imgFunc,1,NA,0.33164640003815293,192.7567109996453,193.18056872021407,2024-03-09 16:15:03.919895,2024-03-09 16:15:04.340247,DD002.jpg,0,10958,30-49,2024-03-09_16h12.07.690,Recall,2021.2.3,59.8546488951124,
,DD038.jpg,0,FF038.jpg,0,,,,,0,51,51,37,imgFunc,1,NA,0.2829062002710998,193.18177809985355,193.5488084196113,2024-03-09 16:15:04.348255,2024-03-09 16:15:04.707519,DD038.jpg,0,10958,30-49,2024-03-09_16h12.07.690,Recall,2021.2.3,59.8546488951124,
,SD036.jpg,0,MF036.jpg,0,,,,,0,52,52,85,imgFunc,1,NA,0.2381273997016251,193.55432510003448,193.88914201967418,2024-03-09 16:15:04.714503,2024-03-09 16:15:05.039926,SD036.jpg,0,10958,30-49,2024-03-09_16h12.07.690,Recall,2021.2.3,59.8546488951124,
,SD016.jpg,0,MF016.jpg,0,,,,,0,53,53,65,imgFunc,1,NA,0.17468419997021556,193.90589309995994,194.1883034198545,2024-03-09 16:15:05.048900,2024-03-09 16:15:05.324477,SD016.jpg,0,10958,30-49,2024-03-09_16h12.07.690,Recall,2021.2.3,59.8546488951124,
,DD005.jpg,0,FF005.jpg,0,,,,,0,54,54,4,imgFunc,1,NA,0.2656086999922991,194.18313959985971,194.55126531980932,2024-03-09 16:15:05.332406,2024-03-09 16:15:05.691487,DD005.jpg,0,10958,30-49,2024-03-09_16h12.07.690,Recall,2021.2.3,59.8546488951124,
,L_DD503.jpg,1,L_FF503.jpg,1,,,,,0,55,55,42,imgFunc,1,NA,0.20072160009294748,194.55165620008484,194.85530691966414,2024-03-09 16:15:05.706472,2024-03-09 16:15:06.008259,L_DD503.jpg,1,10958,30-49,2024-03-09_16h12.07.690,Recall,2021.2.3,59.8546488951124,
,SD012.jpg,0,MF012.jpg,0,,,,,0,56,56,61,imgFunc,1,NA,0.2094240002334118,194.8551933998242,195.15716431988403,2024-03-09 16:15:06.015243,2024-03-09 16:15:06.308668,SD012.jpg,0,10958,30-49,2024-03-09_16h12.07.690,Recall,2021.2.3,59.8546488951124,
,SD022.jpg,0,MF022.jpg,0,,,,,0,57,57,71,imgFunc,1,NA,0.3487896998412907,195.15590390004218,195.60807231999934,2024-03-09 16:15:06.315651,2024-03-09 16:15:06.758854,SD022.jpg,0,10958,30-49,2024-03-09_16h12.07.690,Recall,2021.2.3,59.8546488951124,
,DD015.jpg,0,FF015.jpg,0,,,,,0,58,58,14,imgFunc,1,NA,0.24240730004385114,195.59829259989783,195.93360041966662,2024-03-09 16:15:06.765837,2024-03-09 16:15:07.092231,DD015.jpg,0,10958,30-49,2024-03-09_16h12.07.690,Recall,2021.2.3,59.8546488951124,
,DD017.jpg,0,FF017.jpg,0,,,,,0,59,59,16,imgFunc,1,NA,0.30120470002293587,195.93956879992038,196.340954920277,2024-03-09 16:15:07.099216,2024-03-09 16:15:07.492444,DD017.jpg,0,10958,30-49,2024-03-09_16h12.07.690,Recall,2021.2.3,59.8546488951124,
,SD037.jpg,0,MF037.jpg,0,,,,,0,60,60,86,imgFunc,1,NA,0.20502319978550076,196.35571540007368,196.65945332031697,2024-03-09 16:15:07.507431,2024-03-09 16:15:07.809590,SD037.jpg,0,10958,30-49,2024-03-09_16h12.07.690,Recall,2021.2.3,59.8546488951124,
,L_DD508.jpg,1,L_FF508.jpg,1,,,,,0,61,61,47,imgFunc,1,NA,0.33629680005833507,196.6560832997784,197.09011701960117,2024-03-09 16:15:07.817571,2024-03-09 16:15:08.242737,L_DD508.jpg,1,10958,30-49,2024-03-09_16h12.07.690,Recall,2021.2.3,59.8546488951124,
,SD019.jpg,0,MF019.jpg,0,,,,,0,62,62,68,imgFunc,1,NA,0.23094600019976497,197.0896795997396,197.42481971951202,2024-03-09 16:15:08.250675,2024-03-09 16:15:08.577144,SD019.jpg,0,10958,30-49,2024-03-09_16h12.07.690,Recall,2021.2.3,59.8546488951124,
,DD001.jpg,0,FF001.jpg,0,,,,,0,63,63,0,imgFunc,1,NA,0.15005579963326454,197.42659979965538,197.67765171965584,2024-03-09 16:15:08.584122,2024-03-09 16:15:08.827118,DD001.jpg,0,10958,30-49,2024-03-09_16h12.07.690,Recall,2021.2.3,59.8546488951124,
,DD029.jpg,0,FF029.jpg,0,,,,,0,64,64,28,imgFunc,1,NA,0.08784559974446893,197.67290809983388,197.85844771983102,2024-03-09 16:15:08.834101,2024-03-09 16:15:09.010675,DD029.jpg,0,10958,30-49,2024-03-09_16h12.07.690,Recall,2021.2.3,59.8546488951124,
,SD030.jpg,0,MF030.jpg,0,,,,,0,65,65,79,imgFunc,1,NA,0.06347549986094236,197.8570380997844,198.00889731943607,2024-03-09 16:15:09.017658,2024-03-09 16:15:09.160642,SD030.jpg,0,10958,30-49,2024-03-09_16h12.07.690,Recall,2021.2.3,59.8546488951124,
,SD010.jpg,0,MF010.jpg,0,,,,,0,66,66,59,imgFunc,1,NA,0.12220739992335439,198.00646209996194,198.22463721968234,2024-03-09 16:15:09.167625,2024-03-09 16:15:09.377387,SD010.jpg,0,10958,30-49,2024-03-09_16h12.07.690,Recall,2021.2.3,59.8546488951124,
,DD018.jpg,0,FF018.jpg,0,,,,,0,67,67,17,imgFunc,1,NA,0.08294290024787188,198.22170069999993,198.4063207199797,2024-03-09 16:15:09.384371,2024-03-09 16:15:09.560732,DD018.jpg,0,10958,30-49,2024-03-09_16h12.07.690,Recall,2021.2.3,59.8546488951124,
,DD011.jpg,0,FF011.jpg,0,,,,,0,68,68,10,imgFunc,1,NA,0.08382150018587708,198.40463340003043,198.58875192003325,2024-03-09 16:15:09.568735,2024-03-09 16:15:09.744243,DD011.jpg,0,10958,30-49,2024-03-09_16h12.07.690,Recall,2021.2.3,59.8546488951124,
,L_DD501.jpg,1,L_FF501.jpg,1,,,,,0,69,69,40,imgFunc,2,NA,0.2827646001242101,198.59792019985616,198.9712371197529,2024-03-09 16:15:09.757210,2024-03-09 16:15:10.127834,L_DD501.jpg,1,10958,30-49,2024-03-09_16h12.07.690,Recall,2021.2.3,59.8546488951124,
,DD035.jpg,0,FF035.jpg,0,,,,,0,70,70,34,imgFunc,1,NA,0.3770695999264717,198.9754705997184,199.44316341960803,2024-03-09 16:15:10.135664,2024-03-09 16:15:10.594557,DD035.jpg,0,10958,30-49,2024-03-09_16h12.07.690,Recall,2021.2.3,59.8546488951124,
,SD026.jpg,0,MF026.jpg,0,,,,,0,71,71,75,imgFunc,1,NA,0.2906065001152456,199.43819279968739,199.8231149194762,2024-03-09 16:15:10.602557,2024-03-09 16:15:10.978624,SD026.jpg,0,10958,30-49,2024-03-09_16h12.07.690,Recall,2021.2.3,59.8546488951124,
,SD029.jpg,0,MF029.jpg,0,,,,,0,72,72,78,imgFunc,1,NA,0.552705000154674,199.82364099984989,200.47463602013886,2024-03-09 16:15:10.985607,2024-03-09 16:15:11.628318,SD029.jpg,0,10958,30-49,2024-03-09_16h12.07.690,Recall,2021.2.3,59.8546488951124,
,SD006.jpg,0,MF006.jpg,0,,,,,0,73,73,55,imgFunc,1,NA,0.45757330022752285,200.47890709992498,201.02957671973854,2024-03-09 16:15:11.636294,2024-03-09 16:15:12.179194,SD006.jpg,0,10958,30-49,2024-03-09_16h12.07.690,Recall,2021.2.3,59.8546488951124,
,SD018.jpg,0,MF018.jpg,0,,,,,0,74,74,67,imgFunc,1,NA,0.3924837000668049,201.03988999966532,201.52442611940205,2024-03-09 16:15:12.195114,2024-03-09 16:15:12.678776,SD018.jpg,0,10958,30-49,2024-03-09_16h12.07.690,Recall,2021.2.3,59.8546488951124,
,DD025.jpg,0,FF025.jpg,0,,,,,0,75,75,24,imgFunc,1,NA,0.40876600006595254,201.51965399971232,202.02157811960205,2024-03-09 16:15:12.686751,2024-03-09 16:15:13.179469,DD025.jpg,0,10958,30-49,2024-03-09_16h12.07.690,Recall,2021.2.3,59.8546488951124,
,SD021.jpg,0,MF021.jpg,0,,,,,0,76,76,70,imgFunc,1,NA,0.36127709969878197,202.02346539963037,202.47580581950024,2024-03-09 16:15:13.187446,2024-03-09 16:15:13.630532,SD021.jpg,0,10958,30-49,2024-03-09_16h12.07.690,Recall,2021.2.3,59.8546488951124,
,DD019.jpg,0,FF019.jpg,0,,,,,0,77,77,18,imgFunc,1,NA,0.2909087003208697,202.47792339976877,202.8630856196396,2024-03-09 16:15:13.637515,2024-03-09 16:15:14.013895,DD019.jpg,0,10958,30-49,2024-03-09_16h12.07.690,Recall,2021.2.3,59.8546488951124,
,SD014.jpg,0,MF014.jpg,0,,,,,0,78,78,63,imgFunc,1,NA,0.3330625002272427,202.8595278998837,203.2947097197175,2024-03-09 16:15:14.020878,2024-03-09 16:15:14.447715,SD014.jpg,0,10958,30-49,2024-03-09_16h12.07.690,Recall,2021.2.3,59.8546488951124,
,L_SD503.jpg,1,L_MF503.jpg,1,,,,,0,79,79,92,imgFunc,1,NA,0.4465327002108097,203.30585279967636,203.84295101976022,2024-03-09 16:15:14.462678,2024-03-09 16:15:14.997749,L_SD503.jpg,1,10958,30-49,2024-03-09_16h12.07.690,Recall,2021.2.3,59.8546488951124,
,DD033.jpg,0,FF033.jpg,0,,,,,0,80,80,32,imgFunc,2,NA,0.41492810007184744,203.84152409993112,204.34339082008228,2024-03-09 16:15:15.005703,2024-03-09 16:15:15.497830,DD033.jpg,0,10958,30-49,2024-03-09_16h12.07.690,Recall,2021.2.3,59.8546488951124,
,DD028.jpg,0,FF028.jpg,0,,,,,0,81,81,27,imgFunc,1,NA,0.6184061001986265,204.34218729985878,205.06046181963757,2024-03-09 16:15:15.505811,2024-03-09 16:15:16.214936,DD028.jpg,0,10958,30-49,2024-03-09_16h12.07.690,Recall,2021.2.3,59.8546488951124,
,DD022.jpg,0,FF022.jpg,0,,,,,0,82,82,21,imgFunc,1,NA,0.4355220999568701,205.06111319968477,205.5957820196636,2024-03-09 16:15:16.222889,2024-03-09 16:15:16.749351,DD022.jpg,0,10958,30-49,2024-03-09_16h12.07.690,Recall,2021.2.3,59.8546488951124,
,DD013.jpg,0,FF013.jpg,0,,,,,0,83,83,12,imgFunc,1,NA,0.5763357002288103,205.60036999965087,206.28526932001114,2024-03-09 16:15:16.756340,2024-03-09 16:15:17.432958,DD013.jpg,0,10958,30-49,2024-03-09_16h12.07.690,Recall,2021.2.3,59.8546488951124,
,SD027.jpg,0,MF027.jpg,0,,,,,0,84,84,76,imgFunc,1,NA,0.47494470002129674,206.2777919997461,206.84664381947368,2024-03-09 16:15:17.439941,2024-03-09 16:15:18.000285,SD027.jpg,0,10958,30-49,2024-03-09_16h12.07.690,Recall,2021.2.3,59.8546488951124,
,SD040.jpg,0,MF040.jpg,0,,,,,0,85,85,89,imgFunc,1,NA,0.39756260020658374,206.84331849962473,207.3294194196351,2024-03-09 16:15:18.007268,2024-03-09 16:15:18.484383,SD040.jpg,0,10958,30-49,2024-03-09_16h12.07.690,Recall,2021.2.3,59.8546488951124,
,DD039.jpg,0,FF039.jpg,0,,,,,0,86,86,38,imgFunc,1,NA,0.39673610031604767,207.3316536997445,207.8325627199374,2024-03-09 16:15:18.492364,2024-03-09 16:15:18.984515,DD039.jpg,0,10958,30-49,2024-03-09_16h12.07.690,Recall,2021.2.3,59.8546488951124,
,SD011.jpg,0,MF011.jpg,0,,,,,0,87,87,60,imgFunc,1,NA,0.351346000097692,207.8333335998468,208.28493151953444,2024-03-09 16:15:18.991498,2024-03-09 16:15:19.434569,SD011.jpg,0,10958,30-49,2024-03-09_16h12.07.690,Recall,2021.2.3,59.8546488951124,
,SD033.jpg,0,MF033.jpg,0,,,,,0,88,88,82,imgFunc,1,NA,0.2881128001026809,208.29666240001097,208.68704702006653,2024-03-09 16:15:19.447536,2024-03-09 16:15:19.834800,SD033.jpg,0,10958,30-49,2024-03-09_16h12.07.690,Recall,2021.2.3,59.8546488951124,
,L_DD505.jpg,1,L_FF505.jpg,1,,,,,0,89,89,44,imgFunc,1,NA,0.30587599985301495,208.67856290005147,209.080914019607,2024-03-09 16:15:19.841783,2024-03-09 16:15:20.235287,L_DD505.jpg,1,10958,30-49,2024-03-09_16h12.07.690,Recall,2021.2.3,59.8546488951124,
,DD016.jpg,0,FF016.jpg,0,,,,,0,90,90,15,imgFunc,1,NA,0.40384369995445013,209.08489739988,209.58706742012873,2024-03-09 16:15:20.242296,2024-03-09 16:15:20.735716,DD016.jpg,0,10958,30-49,2024-03-09_16h12.07.690,Recall,2021.2.3,59.8546488951124,
,DD023.jpg,0,FF023.jpg,0,,,,,0,91,91,22,imgFunc,1,NA,0.3413173002190888,209.58709539985284,210.02248041983694,2024-03-09 16:15:20.742696,2024-03-09 16:15:21.169485,DD023.jpg,0,10958,30-49,2024-03-09_16h12.07.690,Recall,2021.2.3,59.8546488951124,
,SD039.jpg,0,MF039.jpg,0,,,,,0,92,92,88,imgFunc,1,NA,0.3964931000955403,210.0198861998506,210.52114262012765,2024-03-09 16:15:21.176465,2024-03-09 16:15:21.669473,SD039.jpg,0,10958,30-49,2024-03-09_16h12.07.690,Recall,2021.2.3,59.8546488951124,
,L_SD509.jpg,1,L_MF509.jpg,1,,,,,0,93,93,98,imgFunc,1,NA,0.3879384002648294,210.52451899973676,210.99407691927627,2024-03-09 16:15:21.684435,2024-03-09 16:15:22.152487,L_SD509.jpg,1,10958,30-49,2024-03-09_16h12.07.690,Recall,2021.2.3,59.8546488951124,
,SD004.jpg,0,MF004.jpg,0,,,,,0,94,94,53,imgFunc,1,NA,0.42557109985500574,210.99906159983948,211.5175199196674,2024-03-09 16:15:22.160465,2024-03-09 16:15:22.670175,SD004.jpg,0,10958,30-49,2024-03-09_16h12.07.690,Recall,2021.2.3,59.8546488951124,
,L_SD510.jpg,1,L_MF510.jpg,1,,,,,0,95,95,99,imgFunc,1,NA,0.25684130005538464,211.51967989979312,211.87194811971858,2024-03-09 16:15:22.677158,2024-03-09 16:15:23.020272,L_SD510.jpg,1,10958,30-49,2024-03-09_16h12.07.690,Recall,2021.2.3,59.8546488951124,
,L_DD510.jpg,1,L_FF510.jpg,1,,,,,0,96,96,49,imgFunc,1,NA,0.2234902000054717,211.87311469996348,212.18616331974044,2024-03-09 16:15:23.031243,2024-03-09 16:15:23.337595,L_DD510.jpg,1,10958,30-49,2024-03-09_16h12.07.690,Recall,2021.2.3,59.8546488951124,
,DD009.jpg,0,FF009.jpg,0,,,,,0,97,97,8,imgFunc,1,NA,0.24575949972495437,212.1866163997911,212.53721691993997,2024-03-09 16:15:23.345576,2024-03-09 16:15:23.687666,DD009.jpg,0,10958,30-49,2024-03-09_16h12.07.690,Recall,2021.2.3,59.8546488951124,
,SD001.jpg,0,MF001.jpg,0,,,,,0,98,98,50,imgFunc,1,NA,0.16424749977886677,212.5402258997783,212.79382371949032,2024-03-09 16:15:23.702629,2024-03-09 16:15:23.954615,SD001.jpg,0,10958,30-49,2024-03-09_16h12.07.690,Recall,2021.2.3,59.8546488951124,
,L_DD502.jpg,1,L_FF502.jpg,1,,,,,0,99,99,41,imgFunc,1,NA,0.17676129983738065,212.79975439980626,213.06631991965696,2024-03-09 16:15:23.962625,2024-03-09 16:15:24.221022,L_DD502.jpg,1,10958,30-49,2024-03-09_16h12.07.690,Recall,2021.2.3,59.8546488951124,
