onset	duration	trial_type	rt	resp	gender	image_left	image_right
0.628815700067207	3.00198739999905	decision	1.7829587999731302	right	F	FF017.jpg	FF018.jpg
4.17845190013759	1.00056829978712	loss	n/a	n/a	n/a	FF017.jpg	FF018.jpg
11.1287497999147	3.00114410021342	decision	1.7833016000222415	left	F	FF035.jpg	FF036.jpg
14.6786813000217	1.00003289990127	win	n/a	n/a	n/a	FF035.jpg	FF036.jpg
21.6288161000703	3.00127430004068	decision	2.281827999977395	left	F	FF021.jpg	FF022.jpg
25.178625300061	1.01637430000119	loss	n/a	n/a	n/a	FF021.jpg	FF022.jpg
32.1450875001028	3.00174820004031	decision	2.0327621998731047	right	M	MF025.jpg	MF026.jpg
35.6952949999832	1.01647239993326	loss	n/a	n/a	n/a	MF025.jpg	MF026.jpg
38.4624232000206	3.00150880008005	decision	1.532522999914363	right	M	MF027.jpg	MF028.jpg
42.0114875000436	1.01682089990936	loss	n/a	n/a	n/a	MF027.jpg	MF028.jpg
44.7784603999462	3.00099770002998	decision	2.282264000037685	left	M	MF023.jpg	MF024.jpg
48.3285666001029	1.00002019992098	win	n/a	n/a	n/a	MF023.jpg	MF024.jpg
51.0786520000547	3.00158959999681	decision	1.532947100000456	left	F	FF037.jpg	FF038.jpg
54.6285776000004	1.01648010010831	win	n/a	n/a	n/a	FF037.jpg	FF038.jpg
59.4951947000809	3.00168500002474	decision	1.782799599925056	left	M	MF011.jpg	MF012.jpg
63.0451855999418	1.01626730011776	loss	n/a	n/a	n/a	MF011.jpg	MF012.jpg
67.911569799995	3.00127819995396	decision	2.0321919000707567	left	F	FF009.jpg	FF010.jpg
71.4619855999481	1.01637200010009	win	n/a	n/a	n/a	FF009.jpg	FF010.jpg
74.2283008999657	3.00137030007318	decision	1.5325498001184314	right	F	FF027.jpg	FF028.jpg
77.7781583000906	1.00028809998184	win	n/a	n/a	n/a	FF027.jpg	FF028.jpg
82.628288500011	3.00105799990706	decision	1.532506600022316	left	F	FF015.jpg	FF016.jpg
86.1781155001372	1.01681169983931	loss	n/a	n/a	n/a	FF015.jpg	FF016.jpg
93.1447652999777	3.00084420014173	decision	1.783379000145942	right	M	MF029.jpg	MF030.jpg
96.69488309999	1.00002219993621	loss	n/a	n/a	n/a	MF029.jpg	MF030.jpg
101.545110400068	3.00129990000278	decision	1.7825718000531197	left	M	MF015.jpg	MF016.jpg
105.09463019995	1.00018920004368	win	n/a	n/a	n/a	MF015.jpg	MF016.jpg
112.044620400062	3.00106110004708	decision	2.033096799859777	left	M	MF007.jpg	MF008.jpg
115.59505090001	1.01664400007576	win	n/a	n/a	n/a	MF007.jpg	MF008.jpg
120.461295899935	3.00141220004298	decision	1.7825198001228273	right	M	MF017.jpg	MF018.jpg
124.011298000114	1.0000208998099	win	n/a	n/a	n/a	MF017.jpg	MF018.jpg
126.761813899968	3.00157169997692	decision	2.03191090002656	right	F	FF033.jpg	FF034.jpg
130.311306599993	1.00033810012974	win	n/a	n/a	n/a	FF033.jpg	FF034.jpg
133.061697100056	3.00112399994396	decision	2.0320393999572843	left	F	FF007.jpg	FF008.jpg
136.61146080005	1.00056169996969	loss	n/a	n/a	n/a	FF007.jpg	FF008.jpg
139.36170629994	3.00196880009025	decision	2.282851600088179	left	F	FF023.jpg	FF024.jpg
142.911559000146	1.0166693998035	loss	n/a	n/a	n/a	FF023.jpg	FF024.jpg
156.178099800134	3.00167809985578	decision	1.7824599999003112	right	M	MF009.jpg	MF010.jpg
159.728145400062	1.01659859996289	loss	n/a	n/a	n/a	MF009.jpg	MF010.jpg
164.595006400021	3.00075870007277	decision	2.032100100070238	right	F	FF001.jpg	FF002.jpg
168.144604899921	1.01673310017213	win	n/a	n/a	n/a	FF001.jpg	FF002.jpg
170.911423299927	3.00088690011762	decision	2.2821098000276834	left	M	MF019.jpg	MF020.jpg
174.461138000013	1.00002130004577	loss	n/a	n/a	n/a	MF019.jpg	MF020.jpg
181.411207300145	3.00185609981418	decision	2.0324726998806	left	F	FF031.jpg	FF032.jpg
184.961068100063	1.00021259998903	loss	n/a	n/a	n/a	FF031.jpg	FF032.jpg
189.81116120005	3.00138160004281	decision	2.2826737000141293	left	M	MF005.jpg	MF006.jpg
193.361457500141	1.01659459993243	win	n/a	n/a	n/a	MF005.jpg	MF006.jpg
196.128128099954	3.00191990006715	decision	2.0322511000558734	right	F	FF019.jpg	FF020.jpg
199.677761700004	1.00023450003937	win	n/a	n/a	n/a	FF019.jpg	FF020.jpg
206.627829900011	3.00131130008958	decision	2.534391700057313	right	M	MF013.jpg	MF014.jpg
210.177901600022	1.00008239992894	loss	n/a	n/a	n/a	MF013.jpg	MF014.jpg
217.127873199992	3.00112690008245	decision	2.0324353999458253	left	M	MF031.jpg	MF032.jpg
220.677754200064	1.01675509987399	loss	n/a	n/a	n/a	MF031.jpg	MF032.jpg
225.544645500137	3.00074219983071	decision	1.7830169999506325	left	F	FF039.jpg	FF040.jpg
229.094298599986	1.00026659993455	loss	n/a	n/a	n/a	FF039.jpg	FF040.jpg
231.844351399923	3.00111860013567	decision	1.7841119000222534	left	F	FF005.jpg	FF006.jpg
235.394432000117	1.01667999988422	loss	n/a	n/a	n/a	FF005.jpg	FF006.jpg
242.361348800128	3.00119979982264	decision	1.7823199999984354	right	M	MF037.jpg	MF038.jpg
245.911156699993	1.01647870009765	loss	n/a	n/a	n/a	MF037.jpg	MF038.jpg
248.677692899946	3.0019992000889	decision	2.2829398000612855	left	M	MF039.jpg	MF040.jpg
252.227553500095	1.01723239989951	win	n/a	n/a	n/a	MF039.jpg	MF040.jpg
254.994329000125	3.001201499952	decision	1.7822902000043541	left	M	MF033.jpg	MF034.jpg
258.544167600106	1.00029009999707	loss	n/a	n/a	n/a	MF033.jpg	MF034.jpg
261.294703599997	3.00221830001101	decision	1.7828123001381755	right	F	FF013.jpg	FF014.jpg
264.844160400098	1.01662899996154	win	n/a	n/a	n/a	FF013.jpg	FF014.jpg
269.711694800062	3.0019666000735	decision	1.7819461000617594	left	M	MF001.jpg	MF002.jpg
273.26106290007	1.01633549993858	win	n/a	n/a	n/a	MF001.jpg	MF002.jpg
276.027422999963	3.00067300000228	decision	2.283371400088072	left	F	FF003.jpg	FF004.jpg
279.577460800065	1.00003129988909	win	n/a	n/a	n/a	FF003.jpg	FF004.jpg
284.427382100141	3.0011080999393	decision	2.2832980998791754	right	M	MF003.jpg	MF004.jpg
287.977570600109	1.01639759982936	win	n/a	n/a	n/a	MF003.jpg	MF004.jpg
294.944434700068	3.002039300045	decision	2.2816438998561352	left	F	FF025.jpg	FF026.jpg
298.493970199954	1.0002739999909	win	n/a	n/a	n/a	FF025.jpg	FF026.jpg
305.444082200062	3.00053670001216	decision	2.2832919999491423	right	M	MF035.jpg	MF036.jpg
308.994241399923	1.01628180011176	win	n/a	n/a	n/a	MF035.jpg	MF036.jpg
311.761039400008	3.03399550006725	decision-missed	n/a	n/a	F	FF011.jpg	FF012.jpg
315.344275699928	1.01660490012728	loss	n/a	n/a	n/a	FF011.jpg	FF012.jpg
318.110684700077	3.00074459984899	decision	1.7830816998612136	left	M	MF021.jpg	MF022.jpg
321.66057720012	1.00032089999877	win	n/a	n/a	n/a	MF021.jpg	MF022.jpg
326.511003399966	3.00080100004561	decision	2.032227700110525	left	F	FF029.jpg	FF030.jpg
330.060523099964	1.01658930000849	loss	n/a	n/a	n/a	FF029.jpg	FF030.jpg
