TrialNumber,Trialn,TrialType,Partner,Feedback,ITI,ISI,ran,order,decision_onset,resp,resp_onset,rt,outcome_val,outcome_onset,outcome_offset,trialDuration,ITIonset,ITIoffset
1,1,2,1,2,2,1.700000e+00,1.0,0.0,4.0145564,1.0,5.420191,1.4056344,5.0,6.531834,7.5460324,3.5314755,7.5462713,9.5498085
2,2,9,3,3,2,1.700000e+00,1.0,1.0,9.565384,2.0,11.115538,1.5501542,8.0,12.081999,13.0949955,3.5296123,13.095184,15.095221
3,3,5,2,2,1,1.700000e+00,1.0,2.0,15.103189,2.0,16.244576,1.1413847,5.0,17.620144,18.630625,3.527435,18.630817,19.641497
4,4,9,3,3,2,2.550000e+00,1.0,3.0,19.645765,2.0,20.824215,1.1784482,6.0,22.163202,23.173563,3.5277967,23.173758,25.18697
5,5,4,2,1,3,8.500000e-01,1.0,4.0,25.191723,1.0,26.003332,0.8116097,9.0,27.71002,28.721966,3.5302427,28.722149,31.731615
6,6,7,3,1,1,8.500000e-01,1.0,5.0,31.736492,2.0,32.315346,0.5788534,1.0,34.253677,35.26184,3.5253506,35.26204,36.277863
7,7,3,1,3,2,2.550000e+00,1.0,6.0,36.285442,0.0,999.0,999.0,999.0,38.792973,39.808617,3.5231721,39.808807,41.823246
8,8,3,1,3,3,2.550000e+00,1.0,7.0,41.826385,--,--,--,--,--,--,--,--,--
9,9,4,2,1,3,1.700000e+00,0.0,--,--,--,--,--,--,--,--,--,--,--
10,10,3,1,3,2,2.550000e+00,0.0,--,--,--,--,--,--,--,--,--,--,--
11,11,5,2,2,2,8.500000e-01,0.0,--,--,--,--,--,--,--,--,--,--,--
12,12,4,2,1,1,2.550000e+00,0.0,--,--,--,--,--,--,--,--,--,--,--
13,13,6,2,3,3,1.700000e+00,0.0,--,--,--,--,--,--,--,--,--,--,--
14,14,4,2,1,1,1.700000e+00,0.0,--,--,--,--,--,--,--,--,--,--,--
15,15,7,3,1,3,8.500000e-01,0.0,--,--,--,--,--,--,--,--,--,--,--
16,16,1,1,1,4,8.500000e-01,0.0,--,--,--,--,--,--,--,--,--,--,--
17,17,2,1,2,2,1.700000e+00,0.0,--,--,--,--,--,--,--,--,--,--,--
18,18,4,2,1,4,1.700000e+00,0.0,--,--,--,--,--,--,--,--,--,--,--
19,19,1,1,1,2,1.700000e+00,0.0,--,--,--,--,--,--,--,--,--,--,--
20,20,7,3,1,2,1.700000e+00,0.0,--,--,--,--,--,--,--,--,--,--,--
21,21,9,3,3,4,1.700000e+00,0.0,--,--,--,--,--,--,--,--,--,--,--
22,22,1,1,1,3,8.500000e-01,0.0,--,--,--,--,--,--,--,--,--,--,--
23,23,4,2,1,3,2.550000e+00,0.0,--,--,--,--,--,--,--,--,--,--,--
24,24,1,1,1,4,1.700000e+00,0.0,--,--,--,--,--,--,--,--,--,--,--
25,25,9,3,3,3,8.500000e-01,0.0,--,--,--,--,--,--,--,--,--,--,--
26,26,1,1,1,1,8.500000e-01,0.0,--,--,--,--,--,--,--,--,--,--,--
27,27,7,3,1,1,2.550000e+00,0.0,--,--,--,--,--,--,--,--,--,--,--
28,28,4,2,1,1,2.550000e+00,0.0,--,--,--,--,--,--,--,--,--,--,--
29,29,4,2,1,1,8.500000e-01,0.0,--,--,--,--,--,--,--,--,--,--,--
30,30,5,2,2,4,2.550000e+00,0.0,--,--,--,--,--,--,--,--,--,--,--
31,31,5,2,2,4,2.550000e+00,0.0,--,--,--,--,--,--,--,--,--,--,--
32,32,8,3,2,1,8.500000e-01,0.0,--,--,--,--,--,--,--,--,--,--,--
33,33,6,2,3,3,1.700000e+00,0.0,--,--,--,--,--,--,--,--,--,--,--
34,34,9,3,3,3,1.700000e+00,0.0,--,--,--,--,--,--,--,--,--,--,--
35,35,7,3,1,1,1.700000e+00,0.0,--,--,--,--,--,--,--,--,--,--,--
36,36,2,1,2,1,8.500000e-01,0.0,--,--,--,--,--,--,--,--,--,--,--
37,37,3,1,3,3,2.550000e+00,0.0,--,--,--,--,--,--,--,--,--,--,--
38,38,1,1,1,2,1.700000e+00,0.0,--,--,--,--,--,--,--,--,--,--,--
39,39,3,1,3,4,2.550000e+00,0.0,--,--,--,--,--,--,--,--,--,--,--
40,40,8,3,2,3,8.500000e-01,0.0,--,--,--,--,--,--,--,--,--,--,--
41,41,6,2,3,2,2.550000e+00,0.0,--,--,--,--,--,--,--,--,--,--,--
42,42,9,3,3,3,2.550000e+00,0.0,--,--,--,--,--,--,--,--,--,--,--
43,43,6,2,3,4,8.500000e-01,0.0,--,--,--,--,--,--,--,--,--,--,--
44,44,1,1,1,1,2.550000e+00,0.0,--,--,--,--,--,--,--,--,--,--,--
45,45,6,2,3,1,1.700000e+00,0.0,--,--,--,--,--,--,--,--,--,--,--
46,46,9,3,3,4,1.700000e+00,0.0,--,--,--,--,--,--,--,--,--,--,--
47,47,7,3,1,4,2.550000e+00,0.0,--,--,--,--,--,--,--,--,--,--,--
48,48,3,1,3,4,8.500000e-01,0.0,--,--,--,--,--,--,--,--,--,--,--
49,49,6,2,3,1,8.500000e-01,0.0,--,--,--,--,--,--,--,--,--,--,--
50,50,1,1,1,3,8.500000e-01,0.0,--,--,--,--,--,--,--,--,--,--,--
51,51,8,3,2,2,1.700000e+00,0.0,--,--,--,--,--,--,--,--,--,--,--
52,52,7,3,1,3,8.500000e-01,0.0,--,--,--,--,--,--,--,--,--,--,--
53,53,7,3,1,3,2.550000e+00,0.0,--,--,--,--,--,--,--,--,--,--,--
54,54,9,3,3,2,1.700000e+00,0.0,--,--,--,--,--,--,--,--,--,--,--
55,55,3,1,3,1,1.700000e+00,0.0,--,--,--,--,--,--,--,--,--,--,--
56,56,1,1,1,2,8.500000e-01,0.0,--,--,--,--,--,--,--,--,--,--,--
57,57,6,2,3,2,1.700000e+00,0.0,--,--,--,--,--,--,--,--,--,--,--
58,58,3,1,3,4,8.500000e-01,0.0,--,--,--,--,--,--,--,--,--,--,--
59,59,3,1,3,4,8.500000e-01,0.0,--,--,--,--,--,--,--,--,--,--,--
60,60,6,2,3,3,2.550000e+00,0.0,--,--,--,--,--,--,--,--,--,--,--
61,61,4,2,1,2,8.500000e-01,0.0,--,--,--,--,--,--,--,--,--,--,--
62,62,2,1,2,4,2.550000e+00,0.0,--,--,--,--,--,--,--,--,--,--,--
63,63,6,2,3,2,8.500000e-01,0.0,--,--,--,--,--,--,--,--,--,--,--
64,64,1,1,1,1,2.550000e+00,0.0,--,--,--,--,--,--,--,--,--,--,--
65,65,9,3,3,1,2.550000e+00,0.0,--,--,--,--,--,--,--,--,--,--,--
66,66,9,3,3,3,2.550000e+00,0.0,--,--,--,--,--,--,--,--,--,--,--
67,67,4,2,1,2,8.500000e-01,0.0,--,--,--,--,--,--,--,--,--,--,--
68,68,3,1,3,2,1.700000e+00,0.0,--,--,--,--,--,--,--,--,--,--,--
69,69,2,1,2,3,1.700000e+00,0.0,--,--,--,--,--,--,--,--,--,--,--
70,70,1,1,1,4,1.700000e+00,0.0,--,--,--,--,--,--,--,--,--,--,--
71,71,8,3,2,1,8.500000e-01,0.0,--,--,--,--,--,--,--,--,--,--,--
72,72,5,2,2,1,1.700000e+00,0.0,--,--,--,--,--,--,--,--,--,--,--
73,73,7,3,1,2,1.700000e+00,0.0,--,--,--,--,--,--,--,--,--,--,--
74,74,4,2,1,4,8.500000e-01,0.0,--,--,--,--,--,--,--,--,--,--,--
75,75,6,2,3,1,8.500000e-01,0.0,--,--,--,--,--,--,--,--,--,--,--
76,76,6,2,3,1,2.550000e+00,0.0,--,--,--,--,--,--,--,--,--,--,--
77,77,8,3,2,2,2.550000e+00,0.0,--,--,--,--,--,--,--,--,--,--,--
78,78,9,3,3,4,2.550000e+00,0.0,--,--,--,--,--,--,--,--,--,--,--
79,79,3,1,3,4,8.500000e-01,0.0,--,--,--,--,--,--,--,--,--,--,--
80,80,7,3,1,2,2.550000e+00,0.0,--,--,--,--,--,--,--,--,--,--,--
81,81,7,3,1,1,2.550000e+00,0.0,--,--,--,--,--,--,--,--,--,--,--
