onset	duration	trial_type	response_time	Endowment	Endowment_pmod	Decision	Decision_pmod	Offer_pmod
4.516820	2	cue_nonsocial	n/a	16	-7	n/a	n/a	n/a
4.516820	2	cue_nonsocial_low	n/a	16	-9	n/a	n/a	n/a
13.783402	2	cue_nonsocial	n/a	32	9	n/a	n/a	n/a
13.783402	2	cue_nonsocial_high	n/a	32	7	n/a	n/a	n/a
20.616804	2	cue_nonsocial	n/a	16	-7	n/a	n/a	n/a
20.616804	2	cue_nonsocial_low	n/a	16	-9	n/a	n/a	n/a
27.449686	2	cue_nonsocial	n/a	32	9	n/a	n/a	n/a
27.449686	2	cue_nonsocial_high	n/a	32	7	n/a	n/a	n/a
34.340908	2	cue_social	n/a	32	7	n/a	n/a	n/a
34.340908	2	cue_social_high	n/a	32	9	n/a	n/a	n/a
45.208540	2	cue_social	n/a	32	7	n/a	n/a	n/a
45.208540	2	cue_social_high	n/a	32	9	n/a	n/a	n/a
52.893080	2	cue_social	n/a	16	-9	n/a	n/a	n/a
52.893080	2	cue_social_low	n/a	16	-7	n/a	n/a	n/a
60.433110	2	cue_nonsocial	n/a	16	-7	n/a	n/a	n/a
60.433110	2	cue_nonsocial_low	n/a	16	-9	n/a	n/a	n/a
67.266525	2	cue_nonsocial	n/a	32	9	n/a	n/a	n/a
67.266525	2	cue_nonsocial_high	n/a	32	7	n/a	n/a	n/a
76.584430	2	cue_social	n/a	16	-9	n/a	n/a	n/a
76.584430	2	cue_social_low	n/a	16	-7	n/a	n/a	n/a
83.349430	2	cue_nonsocial	n/a	16	-7	n/a	n/a	n/a
83.349430	2	cue_nonsocial_low	n/a	16	-9	n/a	n/a	n/a
90.236046	2	cue_social	n/a	16	-9	n/a	n/a	n/a
90.236046	2	cue_social_low	n/a	16	-7	n/a	n/a	n/a
97.016210	2	cue_nonsocial	n/a	32	9	n/a	n/a	n/a
97.016210	2	cue_nonsocial_high	n/a	32	7	n/a	n/a	n/a
103.913480	2	cue_social	n/a	32	7	n/a	n/a	n/a
103.913480	2	cue_social_high	n/a	32	9	n/a	n/a	n/a
113.168270	2	cue_social	n/a	32	7	n/a	n/a	n/a
113.168270	2	cue_social_high	n/a	32	9	n/a	n/a	n/a
120.016150	2	cue_social	n/a	32	7	n/a	n/a	n/a
120.016150	2	cue_social_high	n/a	32	9	n/a	n/a	n/a
126.766350	2	cue_nonsocial	n/a	16	-7	n/a	n/a	n/a
126.766350	2	cue_nonsocial_low	n/a	16	-9	n/a	n/a	n/a
134.416340	2	cue_nonsocial	n/a	16	-7	n/a	n/a	n/a
134.416340	2	cue_nonsocial_low	n/a	16	-9	n/a	n/a	n/a
141.314180	2	cue_social	n/a	16	-9	n/a	n/a	n/a
141.314180	2	cue_social_low	n/a	16	-7	n/a	n/a	n/a
148.953810	2	cue_social	n/a	16	-9	n/a	n/a	n/a
148.953810	2	cue_social_low	n/a	16	-7	n/a	n/a	n/a
159.766200	2	cue_nonsocial	n/a	16	-7	n/a	n/a	n/a
159.766200	2	cue_nonsocial_low	n/a	16	-9	n/a	n/a	n/a
166.659400	2	cue_social	n/a	32	7	n/a	n/a	n/a
166.659400	2	cue_social_high	n/a	32	9	n/a	n/a	n/a
174.307280	2	cue_social	n/a	32	7	n/a	n/a	n/a
174.307280	2	cue_social_high	n/a	32	9	n/a	n/a	n/a
181.082430	2	cue_nonsocial	n/a	32	9	n/a	n/a	n/a
181.082430	2	cue_nonsocial_high	n/a	32	7	n/a	n/a	n/a
187.982960	2	cue_social	n/a	32	7	n/a	n/a	n/a
187.982960	2	cue_social_high	n/a	32	9	n/a	n/a	n/a
194.855730	2	cue_social	n/a	32	7	n/a	n/a	n/a
194.855730	2	cue_social_high	n/a	32	9	n/a	n/a	n/a
202.471300	2	cue_social	n/a	32	7	n/a	n/a	n/a
202.471300	2	cue_social_high	n/a	32	9	n/a	n/a	n/a
210.101960	2	cue_social	n/a	32	7	n/a	n/a	n/a
210.101960	2	cue_social_high	n/a	32	9	n/a	n/a	n/a
216.882610	2	cue_nonsocial	n/a	32	9	n/a	n/a	n/a
216.882610	2	cue_nonsocial_high	n/a	32	7	n/a	n/a	n/a
223.716320	2	cue_nonsocial	n/a	16	-7	n/a	n/a	n/a
223.716320	2	cue_nonsocial_low	n/a	16	-9	n/a	n/a	n/a
230.548720	2	cue_nonsocial	n/a	32	9	n/a	n/a	n/a
230.548720	2	cue_nonsocial_high	n/a	32	7	n/a	n/a	n/a
243.101230	2	cue_social	n/a	16	-9	n/a	n/a	n/a
243.101230	2	cue_social_low	n/a	16	-7	n/a	n/a	n/a
249.866010	2	cue_nonsocial	n/a	16	-7	n/a	n/a	n/a
249.866010	2	cue_nonsocial_low	n/a	16	-9	n/a	n/a	n/a
257.562380	2	cue_social	n/a	16	-9	n/a	n/a	n/a
257.562380	2	cue_social_low	n/a	16	-7	n/a	n/a	n/a
266.765870	2	cue_nonsocial	n/a	16	-7	n/a	n/a	n/a
266.765870	2	cue_nonsocial_low	n/a	16	-9	n/a	n/a	n/a
273.599180	2	cue_nonsocial	n/a	32	9	n/a	n/a	n/a
273.599180	2	cue_nonsocial_high	n/a	32	7	n/a	n/a	n/a
281.303500	2	cue_social	n/a	32	7	n/a	n/a	n/a
281.303500	2	cue_social_high	n/a	32	9	n/a	n/a	n/a
290.573030	2	cue_social	n/a	32	7	n/a	n/a	n/a
290.573030	2	cue_social_high	n/a	32	9	n/a	n/a	n/a
299.765660	2	cue_nonsocial	n/a	32	9	n/a	n/a	n/a
299.765660	2	cue_nonsocial_high	n/a	32	7	n/a	n/a	n/a
307.415500	2	cue_nonsocial	n/a	32	9	n/a	n/a	n/a
307.415500	2	cue_nonsocial_high	n/a	32	7	n/a	n/a	n/a
314.249050	2	cue_nonsocial	n/a	16	-7	n/a	n/a	n/a
314.249050	2	cue_nonsocial_low	n/a	16	-9	n/a	n/a	n/a
321.082400	2	cue_nonsocial	n/a	16	-7	n/a	n/a	n/a
321.082400	2	cue_nonsocial_low	n/a	16	-9	n/a	n/a	n/a
327.915250	2	cue_nonsocial	n/a	16	-7	n/a	n/a	n/a
327.915250	2	cue_nonsocial_low	n/a	16	-9	n/a	n/a	n/a
334.819150	2	cue_social	n/a	32	7	n/a	n/a	n/a
334.819150	2	cue_social_high	n/a	32	9	n/a	n/a	n/a
342.476470	2	cue_social	n/a	16	-9	n/a	n/a	n/a
342.476470	2	cue_social_low	n/a	16	-7	n/a	n/a	n/a
350.123440	2	cue_social	n/a	16	-9	n/a	n/a	n/a
350.123440	2	cue_social_low	n/a	16	-7	n/a	n/a	n/a
360.915400	2	cue_nonsocial	n/a	16	-7	n/a	n/a	n/a
360.915400	2	cue_nonsocial_low	n/a	16	-9	n/a	n/a	n/a
370.274020	2	cue_social	n/a	16	-9	n/a	n/a	n/a
370.274020	2	cue_social_low	n/a	16	-7	n/a	n/a	n/a
6.524011	1.315587	dec_nonsocial_choice	1.315587	16.000000	n/a	2	-1.074219e-01	-1.074219e-01
6.524011	1.315587	dec_choice	1.315587	16.000000	n/a	2	-1.080729e-01	-1.080729e-01
6.524011	1.315587	dec_nonsocial_accept	1.315587	16.000000	n/a	2	-1.414063e-01	-1.414063e-01
6.524011	1.315587	dec_accept	1.315587	16.000000	n/a	2	-1.649306e-01	-1.649306e-01
6.524011	1.315587	dec_nonsocial_accept_low	1.315587	16.000000	n/a	2	-1.221591e-01	-1.221591e-01
15.790968	1.015195	dec_nonsocial_choice	1.015195	32.000000	n/a	8	1.757812e-02	1.757812e-02
15.790968	1.015195	dec_choice	1.015195	32.000000	n/a	8	1.692708e-02	1.692708e-02
15.790968	1.015195	dec_nonsocial_accept	1.015195	32.000000	n/a	8	-1.640625e-02	-1.640625e-02
15.790968	1.015195	dec_accept	1.015195	32.000000	n/a	8	-3.993056e-02	-3.993056e-02
15.790968	1.015195	dec_nonsocial_high	1.015195	32.000000	n/a	8	1.692708e-02	1.692708e-02
15.790968	1.015195	dec_nonsocial_accept_high	1.015195	32.000000	n/a	8	-3.993056e-02	-3.993056e-02
22.623365	1.283163	dec_nonsocial_choice	1.283163	16.000000	n/a	2	-1.074219e-01	-1.074219e-01
22.623365	1.283163	dec_choice	1.283163	16.000000	n/a	2	-1.080729e-01	-1.080729e-01
22.623365	1.283163	dec_nonsocial_accept	1.283163	16.000000	n/a	2	-1.414063e-01	-1.414063e-01
22.623365	1.283163	dec_accept	1.283163	16.000000	n/a	2	-1.649306e-01	-1.649306e-01
22.623365	1.283163	dec_nonsocial_low	1.283163	16.000000	n/a	2	-1.080729e-01	-1.080729e-01
22.623365	1.283163	dec_nonsocial_accept_low	1.283163	16.000000	n/a	2	-1.649306e-01	-1.649306e-01
29.457312	1.582527	dec_nonsocial_choice	1.582527	32.000000	n/a	0	0	-2.324219e-01
29.457312	1.582527	dec_choice	1.582527	32.000000	n/a	0	0	-2.330729e-01
29.457312	1.582527	dec_nonsocial_reject	1.582527	32.000000	n/a	0	0	0
29.457312	1.582527	dec_reject	1.582527	32.000000	n/a	0	0	0
29.457312	1.582527	dec_nonsocial_reject_low	1.582527	32.000000	n/a	2	0	-6.250000e-02
36.288925	1.200847	dec_social_choice	1.200847	32.000000	n/a	16	2.675781e-01	2.675781e-01
36.288925	1.200847	dec_choice	1.200847	32.000000	n/a	16	2.682292e-01	2.682292e-01
36.288925	1.200847	dec_social_accept	1.200847	32.000000	n/a	16	2.335937e-01	2.335937e-01
36.288925	1.200847	dec_accept	1.200847	32.000000	n/a	16	2.528409e-01	2.528409e-01
36.288925	1.200847	dec_social_accept_high	1.200847	32.000000	n/a	16	2.682292e-01	2.682292e-01
47.155970	1.300682	dec_social_choice	1.300682	32.000000	n/a	8	1.757812e-02	1.757812e-02
47.155970	1.300682	dec_choice	1.300682	32.000000	n/a	8	1.822917e-02	1.822917e-02
47.155970	1.300682	dec_social_accept	1.300682	32.000000	n/a	8	-1.640625e-02	-1.640625e-02
47.155970	1.300682	dec_accept	1.300682	32.000000	n/a	8	2.840909e-03	2.840909e-03
47.155970	1.300682	dec_social_high	1.300682	32.000000	n/a	8	1.822917e-02	1.822917e-02
47.155970	1.300682	dec_social_accept_high	1.300682	32.000000	n/a	8	1.822917e-02	1.822917e-02
54.789980	1.283176	dec_social_choice	1.283176	16.000000	n/a	4	1.757812e-02	1.757812e-02
54.789980	1.283176	dec_choice	1.283176	16.000000	n/a	4	1.822917e-02	1.822917e-02
54.789980	1.283176	dec_social_accept	1.283176	16.000000	n/a	4	-1.640625e-02	-1.640625e-02
54.789980	1.283176	dec_accept	1.283176	16.000000	n/a	4	2.840909e-03	2.840909e-03
54.789980	1.283176	dec_social_accept_high	1.283176	16.000000	n/a	4	1.822917e-02	1.822917e-02
62.439990	1.050060	dec_nonsocial_choice	1.050060	16.000000	n/a	8	2.675781e-01	2.675781e-01
62.439990	1.050060	dec_choice	1.050060	16.000000	n/a	8	2.669271e-01	2.669271e-01
62.439990	1.050060	dec_nonsocial_accept	1.050060	16.000000	n/a	8	2.335937e-01	2.335937e-01
62.439990	1.050060	dec_accept	1.050060	16.000000	n/a	8	2.100694e-01	2.100694e-01
62.439990	1.050060	dec_nonsocial_accept_high	1.050060	16.000000	n/a	8	2.528409e-01	2.528409e-01
69.273830	1.982514	dec_nonsocial_choice	1.982514	32.000000	n/a	0	0	-2.324219e-01
69.273830	1.982514	dec_choice	1.982514	32.000000	n/a	0	0	-2.330729e-01
69.273830	1.982514	dec_nonsocial_reject	1.982514	32.000000	n/a	0	0	0
69.273830	1.982514	dec_reject	1.982514	32.000000	n/a	0	0	0
69.273830	1.982514	dec_nonsocial_low	1.982514	32.000000	n/a	0	-2.330729e-01	-2.330729e-01
69.273830	1.982514	dec_nonsocial_reject_low	1.982514	32.000000	n/a	2	0	-6.250000e-02
78.522880	1.250186	dec_social_choice	1.250186	16.000000	n/a	8	2.675781e-01	2.675781e-01
78.522880	1.250186	dec_choice	1.250186	16.000000	n/a	8	2.682292e-01	2.682292e-01
78.522880	1.250186	dec_social_accept	1.250186	16.000000	n/a	8	2.335937e-01	2.335937e-01
78.522880	1.250186	dec_accept	1.250186	16.000000	n/a	8	2.528409e-01	2.528409e-01
78.522880	1.250186	dec_social_accept_high	1.250186	16.000000	n/a	8	2.682292e-01	2.682292e-01
85.356490	0.966071	dec_nonsocial_choice	0.966071	16.000000	n/a	8	2.675781e-01	2.675781e-01
85.356490	0.966071	dec_choice	0.966071	16.000000	n/a	8	2.669271e-01	2.669271e-01
85.356490	0.966071	dec_nonsocial_accept	0.966071	16.000000	n/a	8	2.335937e-01	2.335937e-01
85.356490	0.966071	dec_accept	0.966071	16.000000	n/a	8	2.100694e-01	2.100694e-01
85.356490	0.966071	dec_nonsocial_accept_high	0.966071	16.000000	n/a	8	2.528409e-01	2.528409e-01
92.189575	1.783426	dec_social_choice	1.783426	16.000000	n/a	2	-1.074219e-01	-1.074219e-01
92.189575	1.783426	dec_choice	1.783426	16.000000	n/a	2	-1.067708e-01	-1.067708e-01
92.189575	1.783426	dec_social_accept	1.783426	16.000000	n/a	2	-1.414063e-01	-1.414063e-01
92.189575	1.783426	dec_accept	1.783426	16.000000	n/a	2	-1.221591e-01	-1.221591e-01
92.189575	1.783426	dec_social_low	1.783426	16.000000	n/a	2	-1.067708e-01	-1.067708e-01
92.189575	1.783426	dec_social_accept_low	1.783426	16.000000	n/a	2	-1.067708e-01	-1.067708e-01
99.022830	1.733490	dec_nonsocial_choice	1.733490	32.000000	n/a	0	0	-2.324219e-01
99.022830	1.733490	dec_choice	1.733490	32.000000	n/a	0	0	-2.330729e-01
99.022830	1.733490	dec_nonsocial_reject	1.733490	32.000000	n/a	0	0	0
99.022830	1.733490	dec_reject	1.733490	32.000000	n/a	0	0	0
99.022830	1.733490	dec_nonsocial_reject_low	1.733490	32.000000	n/a	2	0	-6.250000e-02
105.856190	0.950141	dec_social_choice	0.950141	32.000000	n/a	8	1.757812e-02	1.757812e-02
105.856190	0.950141	dec_choice	0.950141	32.000000	n/a	8	1.822917e-02	1.822917e-02
105.856190	0.950141	dec_social_accept	0.950141	32.000000	n/a	8	-1.640625e-02	-1.640625e-02
105.856190	0.950141	dec_accept	0.950141	32.000000	n/a	8	2.840909e-03	2.840909e-03
105.856190	0.950141	dec_social_high	0.950141	32.000000	n/a	8	1.822917e-02	1.822917e-02
105.856190	0.950141	dec_social_accept_high	0.950141	32.000000	n/a	8	1.822917e-02	1.822917e-02
115.105870	1.734248	dec_social_choice	1.734248	32.000000	n/a	0	0	-2.324219e-01
115.105870	1.734248	dec_choice	1.734248	32.000000	n/a	0	0	-2.317708e-01
115.105870	1.734248	dec_social_reject	1.734248	32.000000	n/a	0	0	0
115.105870	1.734248	dec_reject	1.734248	32.000000	n/a	0	0	0
115.105870	1.734248	dec_social_low	1.734248	32.000000	n/a	0	-2.317708e-01	-2.317708e-01
115.105870	1.734248	dec_social_reject_low	1.734248	32.000000	n/a	2	-1.692708e-01	-2.317708e-01
121.939606	0.982873	dec_social_choice	0.982873	32.000000	n/a	16	2.675781e-01	2.675781e-01
121.939606	0.982873	dec_choice	0.982873	32.000000	n/a	16	2.682292e-01	2.682292e-01
121.939606	0.982873	dec_social_accept	0.982873	32.000000	n/a	16	2.335937e-01	2.335937e-01
121.939606	0.982873	dec_accept	0.982873	32.000000	n/a	16	2.528409e-01	2.528409e-01
121.939606	0.982873	dec_social_accept_high	0.982873	32.000000	n/a	16	2.682292e-01	2.682292e-01
128.773530	1.699653	dec_nonsocial_choice	1.699653	16.000000	n/a	2	-1.074219e-01	-1.074219e-01
128.773530	1.699653	dec_choice	1.699653	16.000000	n/a	2	-1.080729e-01	-1.080729e-01
128.773530	1.699653	dec_nonsocial_accept	1.699653	16.000000	n/a	2	-1.414063e-01	-1.414063e-01
128.773530	1.699653	dec_accept	1.699653	16.000000	n/a	2	-1.649306e-01	-1.649306e-01
128.773530	1.699653	dec_nonsocial_low	1.699653	16.000000	n/a	2	-1.080729e-01	-1.080729e-01
128.773530	1.699653	dec_nonsocial_accept_low	1.699653	16.000000	n/a	2	-1.649306e-01	-1.649306e-01
136.423130	1.865868	dec_nonsocial_choice	1.865868	16.000000	n/a	0	0	-2.324219e-01
136.423130	1.865868	dec_choice	1.865868	16.000000	n/a	0	0	-2.330729e-01
136.423130	1.865868	dec_nonsocial_reject	1.865868	16.000000	n/a	0	0	0
136.423130	1.865868	dec_reject	1.865868	16.000000	n/a	0	0	0
136.423130	1.865868	dec_nonsocial_low	1.865868	16.000000	n/a	0	-2.330729e-01	-2.330729e-01
136.423130	1.865868	dec_nonsocial_reject_low	1.865868	16.000000	n/a	1	0	-6.250000e-02
143.256440	2.033400	dec_social_choice	2.033400	16.000000	n/a	0	0	-2.324219e-01
143.256440	2.033400	dec_choice	2.033400	16.000000	n/a	0	0	-2.317708e-01
143.256440	2.033400	dec_social_reject	2.033400	16.000000	n/a	0	0	0
143.256440	2.033400	dec_reject	2.033400	16.000000	n/a	0	0	0
143.256440	2.033400	dec_social_low	2.033400	16.000000	n/a	0	-2.317708e-01	-2.317708e-01
143.256440	2.033400	dec_social_reject_low	2.033400	16.000000	n/a	1	-1.692708e-01	-2.317708e-01
150.905620	0.933665	dec_social_choice	0.933665	16.000000	n/a	2	-1.074219e-01	-1.074219e-01
150.905620	0.933665	dec_choice	0.933665	16.000000	n/a	2	-1.067708e-01	-1.067708e-01
150.905620	0.933665	dec_social_accept	0.933665	16.000000	n/a	2	-1.414063e-01	-1.414063e-01
150.905620	0.933665	dec_accept	0.933665	16.000000	n/a	2	-1.221591e-01	-1.221591e-01
150.905620	0.933665	dec_social_low	0.933665	16.000000	n/a	2	-1.067708e-01	-1.067708e-01
150.905620	0.933665	dec_social_accept_low	0.933665	16.000000	n/a	2	-1.067708e-01	-1.067708e-01
161.772750	1.233241	dec_nonsocial_choice	1.233241	16.000000	n/a	8	2.675781e-01	2.675781e-01
161.772750	1.233241	dec_choice	1.233241	16.000000	n/a	8	2.669271e-01	2.669271e-01
161.772750	1.233241	dec_nonsocial_accept	1.233241	16.000000	n/a	8	2.335937e-01	2.335937e-01
161.772750	1.233241	dec_accept	1.233241	16.000000	n/a	8	2.100694e-01	2.100694e-01
161.772750	1.233241	dec_nonsocial_high	1.233241	16.000000	n/a	8	2.669271e-01	2.669271e-01
161.772750	1.233241	dec_nonsocial_accept_high	1.233241	16.000000	n/a	8	2.100694e-01	2.100694e-01
168.605790	2.350175	dec_social_choice	2.350175	32.000000	n/a	2	-1.699219e-01	-1.699219e-01
168.605790	2.350175	dec_choice	2.350175	32.000000	n/a	2	-1.692708e-01	-1.692708e-01
168.605790	2.350175	dec_social_accept	2.350175	32.000000	n/a	2	-2.039063e-01	-2.039063e-01
168.605790	2.350175	dec_accept	2.350175	32.000000	n/a	2	-1.846591e-01	-1.846591e-01
168.605790	2.350175	dec_social_accept_low	2.350175	32.000000	n/a	2	-1.692708e-01	-1.692708e-01
176.257130	0.965031	dec_social_choice	0.965031	32.000000	n/a	8	1.757812e-02	1.757812e-02
176.257130	0.965031	dec_choice	0.965031	32.000000	n/a	8	1.822917e-02	1.822917e-02
176.257130	0.965031	dec_social_accept	0.965031	32.000000	n/a	8	-1.640625e-02	-1.640625e-02
176.257130	0.965031	dec_accept	0.965031	32.000000	n/a	8	2.840909e-03	2.840909e-03
176.257130	0.965031	dec_social_high	0.965031	32.000000	n/a	8	1.822917e-02	1.822917e-02
176.257130	0.965031	dec_social_accept_high	0.965031	32.000000	n/a	8	1.822917e-02	1.822917e-02
183.088750	1.083995	dec_nonsocial_choice	1.083995	32.000000	n/a	8	1.757812e-02	1.757812e-02
183.088750	1.083995	dec_choice	1.083995	32.000000	n/a	8	1.692708e-02	1.692708e-02
183.088750	1.083995	dec_nonsocial_accept	1.083995	32.000000	n/a	8	-1.640625e-02	-1.640625e-02
183.088750	1.083995	dec_accept	1.083995	32.000000	n/a	8	-3.993056e-02	-3.993056e-02
183.088750	1.083995	dec_nonsocial_high	1.083995	32.000000	n/a	8	1.692708e-02	1.692708e-02
183.088750	1.083995	dec_nonsocial_accept_high	1.083995	32.000000	n/a	8	-3.993056e-02	-3.993056e-02
189.922000	1.850363	dec_social_choice	1.850363	32.000000	n/a	3	-1.386719e-01	-1.386719e-01
189.922000	1.850363	dec_choice	1.850363	32.000000	n/a	3	-1.380208e-01	-1.380208e-01
189.922000	1.850363	dec_social_accept	1.850363	32.000000	n/a	3	-1.726563e-01	-1.726563e-01
189.922000	1.850363	dec_accept	1.850363	32.000000	n/a	3	-1.534091e-01	-1.534091e-01
189.922000	1.850363	dec_social_low	1.850363	32.000000	n/a	3	-1.380208e-01	-1.380208e-01
189.922000	1.850363	dec_social_accept_low	1.850363	32.000000	n/a	3	-1.380208e-01	-1.380208e-01
196.755890	1.300053	dec_social_choice	1.300053	32.000000	n/a	2	-1.699219e-01	-1.699219e-01
196.755890	1.300053	dec_choice	1.300053	32.000000	n/a	2	-1.692708e-01	-1.692708e-01
196.755890	1.300053	dec_social_accept	1.300053	32.000000	n/a	2	-2.039063e-01	-2.039063e-01
196.755890	1.300053	dec_accept	1.300053	32.000000	n/a	2	-1.846591e-01	-1.846591e-01
196.755890	1.300053	dec_social_low	1.300053	32.000000	n/a	2	-1.692708e-01	-1.692708e-01
196.755890	1.300053	dec_social_accept_low	1.300053	32.000000	n/a	2	-1.692708e-01	-1.692708e-01
204.404830	1.184034	dec_social_choice	1.184034	32.000000	n/a	8	1.757812e-02	1.757812e-02
204.404830	1.184034	dec_choice	1.184034	32.000000	n/a	8	1.822917e-02	1.822917e-02
204.404830	1.184034	dec_social_accept	1.184034	32.000000	n/a	8	-1.640625e-02	-1.640625e-02
204.404830	1.184034	dec_accept	1.184034	32.000000	n/a	8	2.840909e-03	2.840909e-03
204.404830	1.184034	dec_social_high	1.184034	32.000000	n/a	8	1.822917e-02	1.822917e-02
204.404830	1.184034	dec_social_accept_high	1.184034	32.000000	n/a	8	1.822917e-02	1.822917e-02
212.055740	1.900403	dec_social_choice	1.900403	32.000000	n/a	3	-1.386719e-01	-1.386719e-01
212.055740	1.900403	dec_choice	1.900403	32.000000	n/a	3	-1.380208e-01	-1.380208e-01
212.055740	1.900403	dec_social_accept	1.900403	32.000000	n/a	3	-1.726563e-01	-1.726563e-01
212.055740	1.900403	dec_accept	1.900403	32.000000	n/a	3	-1.534091e-01	-1.534091e-01
212.055740	1.900403	dec_social_accept_low	1.900403	32.000000	n/a	3	-1.380208e-01	-1.380208e-01
218.888800	0.933670	dec_nonsocial_choice	0.933670	32.000000	n/a	8	1.757812e-02	1.757812e-02
218.888800	0.933670	dec_choice	0.933670	32.000000	n/a	8	1.692708e-02	1.692708e-02
218.888800	0.933670	dec_nonsocial_accept	0.933670	32.000000	n/a	8	-1.640625e-02	-1.640625e-02
218.888800	0.933670	dec_accept	0.933670	32.000000	n/a	8	-3.993056e-02	-3.993056e-02
218.888800	0.933670	dec_nonsocial_high	0.933670	32.000000	n/a	8	1.692708e-02	1.692708e-02
218.888800	0.933670	dec_nonsocial_accept_high	0.933670	32.000000	n/a	8	-3.993056e-02	-3.993056e-02
225.722660	1.799595	dec_nonsocial_choice	1.799595	16.000000	n/a	2	-1.074219e-01	-1.074219e-01
225.722660	1.799595	dec_choice	1.799595	16.000000	n/a	2	-1.080729e-01	-1.080729e-01
225.722660	1.799595	dec_nonsocial_accept	1.799595	16.000000	n/a	2	-1.414063e-01	-1.414063e-01
225.722660	1.799595	dec_accept	1.799595	16.000000	n/a	2	-1.649306e-01	-1.649306e-01
225.722660	1.799595	dec_nonsocial_low	1.799595	16.000000	n/a	2	-1.080729e-01	-1.080729e-01
225.722660	1.799595	dec_nonsocial_accept_low	1.799595	16.000000	n/a	2	-1.649306e-01	-1.649306e-01
232.555270	1.466807	dec_nonsocial_choice	1.466807	32.000000	n/a	3	-1.386719e-01	-1.386719e-01
232.555270	1.466807	dec_choice	1.466807	32.000000	n/a	3	-1.393229e-01	-1.393229e-01
232.555270	1.466807	dec_nonsocial_accept	1.466807	32.000000	n/a	3	-1.726563e-01	-1.726563e-01
232.555270	1.466807	dec_accept	1.466807	32.000000	n/a	3	-1.961806e-01	-1.961806e-01
232.555270	1.466807	dec_nonsocial_low	1.466807	32.000000	n/a	3	-1.393229e-01	-1.393229e-01
232.555270	1.466807	dec_nonsocial_accept_low	1.466807	32.000000	n/a	3	-1.961806e-01	-1.961806e-01
245.038650	1.350840	dec_social_choice	1.350840	16.000000	n/a	2	-1.074219e-01	-1.074219e-01
245.038650	1.350840	dec_choice	1.350840	16.000000	n/a	2	-1.067708e-01	-1.067708e-01
245.038650	1.350840	dec_social_accept	1.350840	16.000000	n/a	2	-1.414063e-01	-1.414063e-01
245.038650	1.350840	dec_accept	1.350840	16.000000	n/a	2	-1.221591e-01	-1.221591e-01
245.038650	1.350840	dec_social_accept_low	1.350840	16.000000	n/a	2	-1.067708e-01	-1.067708e-01
251.872570	1.249824	dec_nonsocial_choice	1.249824	16.000000	n/a	0	0	-2.324219e-01
251.872570	1.249824	dec_choice	1.249824	16.000000	n/a	0	0	-2.330729e-01
251.872570	1.249824	dec_nonsocial_reject	1.249824	16.000000	n/a	0	0	0
251.872570	1.249824	dec_reject	1.249824	16.000000	n/a	0	0	0
251.872570	1.249824	dec_nonsocial_reject_low	1.249824	16.000000	n/a	1	0	-6.250000e-02
259.521600	1.034038	dec_social_choice	1.034038	16.000000	n/a	8	2.675781e-01	2.675781e-01
259.521600	1.034038	dec_choice	1.034038	16.000000	n/a	8	2.682292e-01	2.682292e-01
259.521600	1.034038	dec_social_accept	1.034038	16.000000	n/a	8	2.335937e-01	2.335937e-01
259.521600	1.034038	dec_accept	1.034038	16.000000	n/a	8	2.528409e-01	2.528409e-01
259.521600	1.034038	dec_social_accept_high	1.034038	16.000000	n/a	8	2.682292e-01	2.682292e-01
268.771900	0.983834	dec_nonsocial_choice	0.983834	16.000000	n/a	0	0	-2.324219e-01
268.771900	0.983834	dec_choice	0.983834	16.000000	n/a	0	0	-2.330729e-01
268.771900	0.983834	dec_nonsocial_reject	0.983834	16.000000	n/a	0	0	0
268.771900	0.983834	dec_reject	0.983834	16.000000	n/a	0	0	0
268.771900	0.983834	dec_nonsocial_reject_low	0.983834	16.000000	n/a	1	0	-6.250000e-02
275.605900	1.299530	dec_nonsocial_choice	1.299530	32.000000	n/a	16	2.675781e-01	2.675781e-01
275.605900	1.299530	dec_choice	1.299530	32.000000	n/a	16	2.669271e-01	2.669271e-01
275.605900	1.299530	dec_nonsocial_accept	1.299530	32.000000	n/a	16	2.335937e-01	2.335937e-01
275.605900	1.299530	dec_accept	1.299530	32.000000	n/a	16	2.100694e-01	2.100694e-01
275.605900	1.299530	dec_nonsocial_accept_high	1.299530	32.000000	n/a	16	2.528409e-01	2.528409e-01
283.255550	2.600201	dec_social_choice	2.600201	32.000000	n/a	2	-1.699219e-01	-1.699219e-01
283.255550	2.600201	dec_choice	2.600201	32.000000	n/a	2	-1.692708e-01	-1.692708e-01
283.255550	2.600201	dec_social_accept	2.600201	32.000000	n/a	2	-2.039063e-01	-2.039063e-01
283.255550	2.600201	dec_accept	2.600201	32.000000	n/a	2	-1.846591e-01	-1.846591e-01
283.255550	2.600201	dec_social_low	2.600201	32.000000	n/a	2	-1.692708e-01	-1.692708e-01
283.255550	2.600201	dec_social_accept_low	2.600201	32.000000	n/a	2	-1.692708e-01	-1.692708e-01
292.505580	1.449855	dec_social_choice	1.449855	32.000000	n/a	2	-1.699219e-01	-1.699219e-01
292.505580	1.449855	dec_choice	1.449855	32.000000	n/a	2	-1.692708e-01	-1.692708e-01
292.505580	1.449855	dec_social_accept	1.449855	32.000000	n/a	2	-2.039063e-01	-2.039063e-01
292.505580	1.449855	dec_accept	1.449855	32.000000	n/a	2	-1.846591e-01	-1.846591e-01
292.505580	1.449855	dec_social_accept_low	1.449855	32.000000	n/a	2	-1.692708e-01	-1.692708e-01
301.772580	1.082983	dec_nonsocial_choice	1.082983	32.000000	n/a	8	1.757812e-02	1.757812e-02
301.772580	1.082983	dec_choice	1.082983	32.000000	n/a	8	1.692708e-02	1.692708e-02
301.772580	1.082983	dec_nonsocial_accept	1.082983	32.000000	n/a	8	-1.640625e-02	-1.640625e-02
301.772580	1.082983	dec_accept	1.082983	32.000000	n/a	8	-3.993056e-02	-3.993056e-02
301.772580	1.082983	dec_nonsocial_high	1.082983	32.000000	n/a	8	1.692708e-02	1.692708e-02
301.772580	1.082983	dec_nonsocial_accept_high	1.082983	32.000000	n/a	8	-3.993056e-02	-3.993056e-02
309.422600	1.049600	dec_nonsocial_choice	1.049600	32.000000	n/a	16	2.675781e-01	2.675781e-01
309.422600	1.049600	dec_choice	1.049600	32.000000	n/a	16	2.669271e-01	2.669271e-01
309.422600	1.049600	dec_nonsocial_accept	1.049600	32.000000	n/a	16	2.335937e-01	2.335937e-01
309.422600	1.049600	dec_accept	1.049600	32.000000	n/a	16	2.100694e-01	2.100694e-01
309.422600	1.049600	dec_nonsocial_accept_high	1.049600	32.000000	n/a	16	2.528409e-01	2.528409e-01
316.256560	1.265193	dec_nonsocial_choice	1.265193	16.000000	n/a	8	2.675781e-01	2.675781e-01
316.256560	1.265193	dec_choice	1.265193	16.000000	n/a	8	2.669271e-01	2.669271e-01
316.256560	1.265193	dec_nonsocial_accept	1.265193	16.000000	n/a	8	2.335937e-01	2.335937e-01
316.256560	1.265193	dec_accept	1.265193	16.000000	n/a	8	2.100694e-01	2.100694e-01
316.256560	1.265193	dec_nonsocial_high	1.265193	16.000000	n/a	8	2.669271e-01	2.669271e-01
316.256560	1.265193	dec_nonsocial_accept_high	1.265193	16.000000	n/a	8	2.100694e-01	2.100694e-01
323.088560	0.983730	dec_nonsocial_choice	0.983730	16.000000	n/a	4	1.757812e-02	1.757812e-02
323.088560	0.983730	dec_choice	0.983730	16.000000	n/a	4	1.692708e-02	1.692708e-02
323.088560	0.983730	dec_nonsocial_accept	0.983730	16.000000	n/a	4	-1.640625e-02	-1.640625e-02
323.088560	0.983730	dec_accept	0.983730	16.000000	n/a	4	-3.993056e-02	-3.993056e-02
323.088560	0.983730	dec_nonsocial_accept_high	0.983730	16.000000	n/a	4	2.840909e-03	2.840909e-03
329.921750	1.350301	dec_nonsocial_choice	1.350301	16.000000	n/a	2	-1.074219e-01	-1.074219e-01
329.921750	1.350301	dec_choice	1.350301	16.000000	n/a	2	-1.080729e-01	-1.080729e-01
329.921750	1.350301	dec_nonsocial_accept	1.350301	16.000000	n/a	2	-1.414063e-01	-1.414063e-01
329.921750	1.350301	dec_accept	1.350301	16.000000	n/a	2	-1.649306e-01	-1.649306e-01
329.921750	1.350301	dec_nonsocial_low	1.350301	16.000000	n/a	2	-1.080729e-01	-1.080729e-01
329.921750	1.350301	dec_nonsocial_accept_low	1.350301	16.000000	n/a	2	-1.649306e-01	-1.649306e-01
336.755200	1.250260	dec_social_choice	1.250260	32.000000	n/a	16	2.675781e-01	2.675781e-01
336.755200	1.250260	dec_choice	1.250260	32.000000	n/a	16	2.682292e-01	2.682292e-01
336.755200	1.250260	dec_social_accept	1.250260	32.000000	n/a	16	2.335937e-01	2.335937e-01
336.755200	1.250260	dec_accept	1.250260	32.000000	n/a	16	2.528409e-01	2.528409e-01
336.755200	1.250260	dec_social_accept_high	1.250260	32.000000	n/a	16	2.682292e-01	2.682292e-01
344.404660	1.133711	dec_social_choice	1.133711	16.000000	n/a	8	2.675781e-01	2.675781e-01
344.404660	1.133711	dec_choice	1.133711	16.000000	n/a	8	2.682292e-01	2.682292e-01
344.404660	1.133711	dec_social_accept	1.133711	16.000000	n/a	8	2.335937e-01	2.335937e-01
344.404660	1.133711	dec_accept	1.133711	16.000000	n/a	8	2.528409e-01	2.528409e-01
344.404660	1.133711	dec_social_high	1.133711	16.000000	n/a	8	2.682292e-01	2.682292e-01
344.404660	1.133711	dec_social_accept_high	1.133711	16.000000	n/a	8	2.682292e-01	2.682292e-01
352.054500	1.251154	dec_social_choice	1.251154	16.000000	n/a	2	-1.074219e-01	-1.074219e-01
352.054500	1.251154	dec_choice	1.251154	16.000000	n/a	2	-1.067708e-01	-1.067708e-01
352.054500	1.251154	dec_social_accept	1.251154	16.000000	n/a	2	-1.414063e-01	-1.414063e-01
352.054500	1.251154	dec_accept	1.251154	16.000000	n/a	2	-1.221591e-01	-1.221591e-01
352.054500	1.251154	dec_social_low	1.251154	16.000000	n/a	2	-1.067708e-01	-1.067708e-01
352.054500	1.251154	dec_social_accept_low	1.251154	16.000000	n/a	2	-1.067708e-01	-1.067708e-01
362.922330	1.065771	dec_nonsocial_choice	1.065771	16.000000	n/a	4	1.757812e-02	1.757812e-02
362.922330	1.065771	dec_choice	1.065771	16.000000	n/a	4	1.692708e-02	1.692708e-02
362.922330	1.065771	dec_nonsocial_accept	1.065771	16.000000	n/a	4	-1.640625e-02	-1.640625e-02
362.922330	1.065771	dec_accept	1.065771	16.000000	n/a	4	-3.993056e-02	-3.993056e-02
362.922330	1.065771	dec_nonsocial_high	1.065771	16.000000	n/a	4	1.692708e-02	1.692708e-02
362.922330	1.065771	dec_nonsocial_accept_high	1.065771	16.000000	n/a	4	-3.993056e-02	-3.993056e-02
372.172420	0.999401	dec_social_choice	0.999401	16.000000	n/a	4	1.757812e-02	1.757812e-02
372.172420	0.999401	dec_choice	0.999401	16.000000	n/a	4	1.822917e-02	1.822917e-02
372.172420	0.999401	dec_social_accept	0.999401	16.000000	n/a	4	-1.640625e-02	-1.640625e-02
372.172420	0.999401	dec_accept	0.999401	16.000000	n/a	4	2.840909e-03	2.840909e-03
372.172420	0.999401	dec_social_high	0.999401	16.000000	n/a	4	1.822917e-02	1.822917e-02
372.172420	0.999401	dec_social_accept_high	0.999401	16.000000	n/a	4	1.822917e-02	1.822917e-02
