onset	duration	trial_type	response_time	Endowment	Endowment_pmod	Decision	Decision_pmod	Offer_pmod
4.594188	2	cue_social	n/a	16	-7	n/a	n/a	n/a
4.594188	2	cue_social_low	n/a	16	-9	n/a	n/a	n/a
11.342774	2	cue_nonsocial	n/a	16	-9	n/a	n/a	n/a
11.342774	2	cue_nonsocial_low	n/a	16	-7	n/a	n/a	n/a
19.056921	2	cue_social	n/a	16	-7	n/a	n/a	n/a
19.056921	2	cue_social_low	n/a	16	-9	n/a	n/a	n/a
26.716137	2	cue_social	n/a	32	9	n/a	n/a	n/a
26.716137	2	cue_social_high	n/a	32	7	n/a	n/a	n/a
33.530250	2	cue_social	n/a	32	9	n/a	n/a	n/a
33.530250	2	cue_social_high	n/a	32	7	n/a	n/a	n/a
41.177242	2	cue_social	n/a	32	9	n/a	n/a	n/a
41.177242	2	cue_social_high	n/a	32	7	n/a	n/a	n/a
48.019230	2	cue_social	n/a	16	-7	n/a	n/a	n/a
48.019230	2	cue_social_low	n/a	16	-9	n/a	n/a	n/a
55.609474	2	cue_nonsocial	n/a	32	7	n/a	n/a	n/a
55.609474	2	cue_nonsocial_high	n/a	32	9	n/a	n/a	n/a
62.525986	2	cue_social	n/a	32	9	n/a	n/a	n/a
62.525986	2	cue_social_high	n/a	32	7	n/a	n/a	n/a
73.309364	2	cue_nonsocial	n/a	16	-9	n/a	n/a	n/a
73.309364	2	cue_nonsocial_low	n/a	16	-7	n/a	n/a	n/a
80.173680	2	cue_social	n/a	32	9	n/a	n/a	n/a
80.173680	2	cue_social_high	n/a	32	7	n/a	n/a	n/a
86.975930	2	cue_nonsocial	n/a	32	7	n/a	n/a	n/a
86.975930	2	cue_nonsocial_high	n/a	32	9	n/a	n/a	n/a
93.809250	2	cue_nonsocial	n/a	16	-9	n/a	n/a	n/a
93.809250	2	cue_nonsocial_low	n/a	16	-7	n/a	n/a	n/a
101.511510	2	cue_social	n/a	16	-7	n/a	n/a	n/a
101.511510	2	cue_social_low	n/a	16	-9	n/a	n/a	n/a
108.350320	2	cue_social	n/a	16	-7	n/a	n/a	n/a
108.350320	2	cue_social_low	n/a	16	-9	n/a	n/a	n/a
117.617850	2	cue_social	n/a	16	-7	n/a	n/a	n/a
117.617850	2	cue_social_low	n/a	16	-9	n/a	n/a	n/a
126.825775	2	cue_nonsocial	n/a	16	-9	n/a	n/a	n/a
126.825775	2	cue_nonsocial_low	n/a	16	-7	n/a	n/a	n/a
137.692340	2	cue_nonsocial	n/a	32	7	n/a	n/a	n/a
137.692340	2	cue_nonsocial_high	n/a	32	9	n/a	n/a	n/a
144.625800	2	cue_social	n/a	16	-7	n/a	n/a	n/a
144.625800	2	cue_social_low	n/a	16	-9	n/a	n/a	n/a
152.175770	2	cue_nonsocial	n/a	16	-9	n/a	n/a	n/a
152.175770	2	cue_nonsocial_low	n/a	16	-7	n/a	n/a	n/a
159.927670	2	cue_social	n/a	16	-7	n/a	n/a	n/a
159.927670	2	cue_social_low	n/a	16	-9	n/a	n/a	n/a
166.729860	2	cue_social	n/a	16	-7	n/a	n/a	n/a
166.729860	2	cue_social_low	n/a	16	-9	n/a	n/a	n/a
173.492450	2	cue_nonsocial	n/a	16	-9	n/a	n/a	n/a
173.492450	2	cue_nonsocial_low	n/a	16	-7	n/a	n/a	n/a
180.387000	2	cue_social	n/a	16	-7	n/a	n/a	n/a
180.387000	2	cue_social_low	n/a	16	-9	n/a	n/a	n/a
187.158750	2	cue_nonsocial	n/a	32	7	n/a	n/a	n/a
187.158750	2	cue_nonsocial_high	n/a	32	9	n/a	n/a	n/a
199.739520	2	cue_social	n/a	32	9	n/a	n/a	n/a
199.739520	2	cue_social_high	n/a	32	7	n/a	n/a	n/a
208.960940	2	cue_social	n/a	32	9	n/a	n/a	n/a
208.960940	2	cue_social_high	n/a	32	7	n/a	n/a	n/a
218.158830	2	cue_nonsocial	n/a	16	-9	n/a	n/a	n/a
218.158830	2	cue_nonsocial_low	n/a	16	-7	n/a	n/a	n/a
224.991940	2	cue_nonsocial	n/a	32	7	n/a	n/a	n/a
224.991940	2	cue_nonsocial_high	n/a	32	9	n/a	n/a	n/a
232.710220	2	cue_social	n/a	16	-7	n/a	n/a	n/a
232.710220	2	cue_social_low	n/a	16	-9	n/a	n/a	n/a
239.539810	2	cue_social	n/a	16	-7	n/a	n/a	n/a
239.539810	2	cue_social_low	n/a	16	-9	n/a	n/a	n/a
246.308720	2	cue_nonsocial	n/a	32	7	n/a	n/a	n/a
246.308720	2	cue_nonsocial_high	n/a	32	9	n/a	n/a	n/a
253.203860	2	cue_social	n/a	32	9	n/a	n/a	n/a
253.203860	2	cue_social_high	n/a	32	7	n/a	n/a	n/a
262.408750	2	cue_nonsocial	n/a	32	7	n/a	n/a	n/a
262.408750	2	cue_nonsocial_high	n/a	32	9	n/a	n/a	n/a
269.299740	2	cue_social	n/a	32	9	n/a	n/a	n/a
269.299740	2	cue_social_high	n/a	32	7	n/a	n/a	n/a
276.075470	2	cue_nonsocial	n/a	32	7	n/a	n/a	n/a
276.075470	2	cue_nonsocial_high	n/a	32	9	n/a	n/a	n/a
282.908940	2	cue_nonsocial	n/a	16	-9	n/a	n/a	n/a
282.908940	2	cue_nonsocial_low	n/a	16	-7	n/a	n/a	n/a
290.650300	2	cue_social	n/a	32	9	n/a	n/a	n/a
290.650300	2	cue_social_high	n/a	32	7	n/a	n/a	n/a
298.268800	2	cue_social	n/a	32	9	n/a	n/a	n/a
298.268800	2	cue_social_high	n/a	32	7	n/a	n/a	n/a
307.458160	2	cue_nonsocial	n/a	32	7	n/a	n/a	n/a
307.458160	2	cue_nonsocial_high	n/a	32	9	n/a	n/a	n/a
315.108760	2	cue_nonsocial	n/a	16	-9	n/a	n/a	n/a
315.108760	2	cue_nonsocial_low	n/a	16	-7	n/a	n/a	n/a
321.941960	2	cue_nonsocial	n/a	32	7	n/a	n/a	n/a
321.941960	2	cue_nonsocial_high	n/a	32	9	n/a	n/a	n/a
328.775480	2	cue_nonsocial	n/a	32	7	n/a	n/a	n/a
328.775480	2	cue_nonsocial_high	n/a	32	9	n/a	n/a	n/a
336.425400	2	cue_nonsocial	n/a	16	-9	n/a	n/a	n/a
336.425400	2	cue_nonsocial_low	n/a	16	-7	n/a	n/a	n/a
343.258450	2	cue_nonsocial	n/a	16	-9	n/a	n/a	n/a
343.258450	2	cue_nonsocial_low	n/a	16	-7	n/a	n/a	n/a
350.891800	2	cue_nonsocial	n/a	32	7	n/a	n/a	n/a
350.891800	2	cue_nonsocial_high	n/a	32	9	n/a	n/a	n/a
361.840480	2	cue_social	n/a	16	-7	n/a	n/a	n/a
361.840480	2	cue_social_low	n/a	16	-9	n/a	n/a	n/a
368.591800	2	cue_nonsocial	n/a	32	7	n/a	n/a	n/a
368.591800	2	cue_nonsocial_high	n/a	32	9	n/a	n/a	n/a
6.515424	2.433523	dec_social_choice	2.433523	16.000000	n/a	2	-1.061198e-01	-1.061198e-01
6.515424	2.433523	dec_choice	2.433523	16.000000	n/a	2	-1.054688e-01	-1.054688e-01
6.515424	2.433523	dec_social_accept	2.433523	16.000000	n/a	2	-1.562500e-01	-1.562500e-01
6.515424	2.433523	dec_accept	2.433523	16.000000	n/a	2	-1.496711e-01	-1.496711e-01
6.515424	2.433523	dec_social_accept_low	2.433523	16.000000	n/a	2	-1.054688e-01	-1.054688e-01
13.350066	1.549510	dec_nonsocial_choice	1.549510	16.000000	n/a	2	-1.061198e-01	-1.061198e-01
13.350066	1.549510	dec_choice	1.549510	16.000000	n/a	2	-1.067708e-01	-1.067708e-01
13.350066	1.549510	dec_nonsocial_accept	1.549510	16.000000	n/a	2	-1.562500e-01	-1.562500e-01
13.350066	1.549510	dec_accept	1.549510	16.000000	n/a	2	-1.631944e-01	-1.631944e-01
13.350066	1.549510	dec_nonsocial_accept_low	1.549510	16.000000	n/a	2	-1.496711e-01	-1.496711e-01
20.998995	1.516653	dec_social_choice	1.516653	16.000000	n/a	0	0	-2.311198e-01
20.998995	1.516653	dec_choice	1.516653	16.000000	n/a	0	0	-2.304688e-01
20.998995	1.516653	dec_social_reject	1.516653	16.000000	n/a	0	0	0
20.998995	1.516653	dec_reject	1.516653	16.000000	n/a	0	0	0
20.998995	1.516653	dec_social_reject_low	1.516653	16.000000	n/a	1	-1.679688e-01	-2.304688e-01
28.649223	1.116885	dec_social_choice	1.116885	32.000000	n/a	8	1.888021e-02	1.888021e-02
28.649223	1.116885	dec_choice	1.116885	32.000000	n/a	8	1.953125e-02	1.953125e-02
28.649223	1.116885	dec_social_accept	1.116885	32.000000	n/a	8	-3.125000e-02	-3.125000e-02
28.649223	1.116885	dec_accept	1.116885	32.000000	n/a	8	-2.467105e-02	-2.467105e-02
28.649223	1.116885	dec_social_accept_high	1.116885	32.000000	n/a	8	1.953125e-02	1.953125e-02
35.482400	1.466465	dec_social_choice	1.466465	32.000000	n/a	3	-1.373698e-01	-1.373698e-01
35.482400	1.466465	dec_choice	1.466465	32.000000	n/a	3	-1.367188e-01	-1.367188e-01
35.482400	1.466465	dec_social_accept	1.466465	32.000000	n/a	3	-1.875000e-01	-1.875000e-01
35.482400	1.466465	dec_accept	1.466465	32.000000	n/a	3	-1.809211e-01	-1.809211e-01
35.482400	1.466465	dec_social_low	1.466465	32.000000	n/a	3	-1.367188e-01	-1.367188e-01
35.482400	1.466465	dec_social_accept_low	1.466465	32.000000	n/a	3	-1.367188e-01	-1.367188e-01
43.131940	1.634144	dec_social_choice	1.634144	32.000000	n/a	3	-1.373698e-01	-1.373698e-01
43.131940	1.634144	dec_choice	1.634144	32.000000	n/a	3	-1.367188e-01	-1.367188e-01
43.131940	1.634144	dec_social_accept	1.634144	32.000000	n/a	3	-1.875000e-01	-1.875000e-01
43.131940	1.634144	dec_accept	1.634144	32.000000	n/a	3	-1.809211e-01	-1.809211e-01
43.131940	1.634144	dec_social_accept_low	1.634144	32.000000	n/a	3	-1.367188e-01	-1.367188e-01
49.965960	1.283523	dec_social_choice	1.283523	16.000000	n/a	2	-1.061198e-01	-1.061198e-01
49.965960	1.283523	dec_choice	1.283523	16.000000	n/a	2	-1.054688e-01	-1.054688e-01
49.965960	1.283523	dec_social_accept	1.283523	16.000000	n/a	2	-1.562500e-01	-1.562500e-01
49.965960	1.283523	dec_accept	1.283523	16.000000	n/a	2	-1.496711e-01	-1.496711e-01
49.965960	1.283523	dec_social_accept_low	1.283523	16.000000	n/a	2	-1.054688e-01	-1.054688e-01
57.616047	1.183342	dec_nonsocial_choice	1.183342	32.000000	n/a	16	2.688802e-01	2.688802e-01
57.616047	1.183342	dec_choice	1.183342	32.000000	n/a	16	2.682292e-01	2.682292e-01
57.616047	1.183342	dec_nonsocial_accept	1.183342	32.000000	n/a	16	2.187500e-01	2.187500e-01
57.616047	1.183342	dec_accept	1.183342	32.000000	n/a	16	2.118056e-01	2.118056e-01
57.616047	1.183342	dec_nonsocial_accept_high	1.183342	32.000000	n/a	16	2.253289e-01	2.253289e-01
64.448690	2.033961	dec_social_choice	2.033961	32.000000	n/a	0	0	-2.311198e-01
64.448690	2.033961	dec_choice	2.033961	32.000000	n/a	0	0	-2.304688e-01
64.448690	2.033961	dec_social_reject	2.033961	32.000000	n/a	0	0	0
64.448690	2.033961	dec_reject	2.033961	32.000000	n/a	0	0	0
64.448690	2.033961	dec_social_reject_low	2.033961	32.000000	n/a	2	-1.679688e-01	-2.304688e-01
75.316055	1.199721	dec_nonsocial_choice	1.199721	16.000000	n/a	0	0	-2.311198e-01
75.316055	1.199721	dec_choice	1.199721	16.000000	n/a	0	0	-2.317708e-01
75.316055	1.199721	dec_nonsocial_reject	1.199721	16.000000	n/a	0	0	0
75.316055	1.199721	dec_reject	1.199721	16.000000	n/a	0	0	0
75.316055	1.199721	dec_nonsocial_reject_low	1.199721	16.000000	n/a	1	0	-6.250000e-02
82.148920	1.200378	dec_social_choice	1.200378	32.000000	n/a	16	2.688802e-01	2.688802e-01
82.148920	1.200378	dec_choice	1.200378	32.000000	n/a	16	2.695312e-01	2.695312e-01
82.148920	1.200378	dec_social_accept	1.200378	32.000000	n/a	16	2.187500e-01	2.187500e-01
82.148920	1.200378	dec_accept	1.200378	32.000000	n/a	16	2.253289e-01	2.253289e-01
82.148920	1.200378	dec_social_high	1.200378	32.000000	n/a	16	2.695312e-01	2.695312e-01
82.148920	1.200378	dec_social_accept_high	1.200378	32.000000	n/a	16	2.695312e-01	2.695312e-01
88.982660	1.416085	dec_nonsocial_choice	1.416085	32.000000	n/a	8	1.888021e-02	1.888021e-02
88.982660	1.416085	dec_choice	1.416085	32.000000	n/a	8	1.822917e-02	1.822917e-02
88.982660	1.416085	dec_nonsocial_accept	1.416085	32.000000	n/a	8	-3.125000e-02	-3.125000e-02
88.982660	1.416085	dec_accept	1.416085	32.000000	n/a	8	-3.819444e-02	-3.819444e-02
88.982660	1.416085	dec_nonsocial_high	1.416085	32.000000	n/a	8	1.822917e-02	1.822917e-02
88.982660	1.416085	dec_nonsocial_accept_high	1.416085	32.000000	n/a	8	-3.819444e-02	-3.819444e-02
95.815834	1.283402	dec_nonsocial_choice	1.283402	16.000000	n/a	8	2.688802e-01	2.688802e-01
95.815834	1.283402	dec_choice	1.283402	16.000000	n/a	8	2.682292e-01	2.682292e-01
95.815834	1.283402	dec_nonsocial_accept	1.283402	16.000000	n/a	8	2.187500e-01	2.187500e-01
95.815834	1.283402	dec_accept	1.283402	16.000000	n/a	8	2.118056e-01	2.118056e-01
95.815834	1.283402	dec_nonsocial_high	1.283402	16.000000	n/a	8	2.682292e-01	2.682292e-01
95.815834	1.283402	dec_nonsocial_accept_high	1.283402	16.000000	n/a	8	2.118056e-01	2.118056e-01
103.465690	1.633555	dec_social_choice	1.633555	16.000000	n/a	0	0	-2.311198e-01
103.465690	1.633555	dec_choice	1.633555	16.000000	n/a	0	0	-2.304688e-01
103.465690	1.633555	dec_social_reject	1.633555	16.000000	n/a	0	0	0
103.465690	1.633555	dec_reject	1.633555	16.000000	n/a	0	0	0
103.465690	1.633555	dec_social_low	1.633555	16.000000	n/a	0	-2.304688e-01	-2.304688e-01
103.465690	1.633555	dec_social_reject_low	1.633555	16.000000	n/a	1	-1.679688e-01	-2.304688e-01
110.299470	1.415857	dec_social_choice	1.415857	16.000000	n/a	4	1.888021e-02	1.888021e-02
110.299470	1.415857	dec_choice	1.415857	16.000000	n/a	4	1.953125e-02	1.953125e-02
110.299470	1.415857	dec_social_accept	1.415857	16.000000	n/a	4	-3.125000e-02	-3.125000e-02
110.299470	1.415857	dec_accept	1.415857	16.000000	n/a	4	-2.467105e-02	-2.467105e-02
110.299470	1.415857	dec_social_high	1.415857	16.000000	n/a	4	1.953125e-02	1.953125e-02
110.299470	1.415857	dec_social_accept_high	1.415857	16.000000	n/a	4	1.953125e-02	1.953125e-02
119.566510	1.265362	dec_social_choice	1.265362	16.000000	n/a	4	1.888021e-02	1.888021e-02
119.566510	1.265362	dec_choice	1.265362	16.000000	n/a	4	1.953125e-02	1.953125e-02
119.566510	1.265362	dec_social_accept	1.265362	16.000000	n/a	4	-3.125000e-02	-3.125000e-02
119.566510	1.265362	dec_accept	1.265362	16.000000	n/a	4	-2.467105e-02	-2.467105e-02
119.566510	1.265362	dec_social_accept_high	1.265362	16.000000	n/a	4	1.953125e-02	1.953125e-02
128.832640	1.466271	dec_nonsocial_choice	1.466271	16.000000	n/a	2	-1.061198e-01	-1.061198e-01
128.832640	1.466271	dec_choice	1.466271	16.000000	n/a	2	-1.067708e-01	-1.067708e-01
128.832640	1.466271	dec_nonsocial_accept	1.466271	16.000000	n/a	2	-1.562500e-01	-1.562500e-01
128.832640	1.466271	dec_accept	1.466271	16.000000	n/a	2	-1.631944e-01	-1.631944e-01
128.832640	1.466271	dec_nonsocial_low	1.466271	16.000000	n/a	2	-1.067708e-01	-1.067708e-01
128.832640	1.466271	dec_nonsocial_accept_low	1.466271	16.000000	n/a	2	-1.631944e-01	-1.631944e-01
139.698970	1.500100	dec_nonsocial_choice	1.500100	32.000000	n/a	16	2.688802e-01	2.688802e-01
139.698970	1.500100	dec_choice	1.500100	32.000000	n/a	16	2.682292e-01	2.682292e-01
139.698970	1.500100	dec_nonsocial_accept	1.500100	32.000000	n/a	16	2.187500e-01	2.187500e-01
139.698970	1.500100	dec_accept	1.500100	32.000000	n/a	16	2.118056e-01	2.118056e-01
139.698970	1.500100	dec_nonsocial_accept_high	1.500100	32.000000	n/a	16	2.253289e-01	2.253289e-01
146.532650	1.116125	dec_social_choice	1.116125	16.000000	n/a	8	2.688802e-01	2.688802e-01
146.532650	1.116125	dec_choice	1.116125	16.000000	n/a	8	2.695312e-01	2.695312e-01
146.532650	1.116125	dec_social_accept	1.116125	16.000000	n/a	8	2.187500e-01	2.187500e-01
146.532650	1.116125	dec_accept	1.116125	16.000000	n/a	8	2.253289e-01	2.253289e-01
146.532650	1.116125	dec_social_high	1.116125	16.000000	n/a	8	2.695312e-01	2.695312e-01
146.532650	1.116125	dec_social_accept_high	1.116125	16.000000	n/a	8	2.695312e-01	2.695312e-01
154.181720	0.983918	dec_nonsocial_choice	0.983918	16.000000	n/a	4	1.888021e-02	1.888021e-02
154.181720	0.983918	dec_choice	0.983918	16.000000	n/a	4	1.822917e-02	1.822917e-02
154.181720	0.983918	dec_nonsocial_accept	0.983918	16.000000	n/a	4	-3.125000e-02	-3.125000e-02
154.181720	0.983918	dec_accept	0.983918	16.000000	n/a	4	-3.819444e-02	-3.819444e-02
154.181720	0.983918	dec_nonsocial_high	0.983918	16.000000	n/a	4	1.822917e-02	1.822917e-02
154.181720	0.983918	dec_nonsocial_accept_high	0.983918	16.000000	n/a	4	-3.819444e-02	-3.819444e-02
161.832750	1.265855	dec_social_choice	1.265855	16.000000	n/a	8	2.688802e-01	2.688802e-01
161.832750	1.265855	dec_choice	1.265855	16.000000	n/a	8	2.695312e-01	2.695312e-01
161.832750	1.265855	dec_social_accept	1.265855	16.000000	n/a	8	2.187500e-01	2.187500e-01
161.832750	1.265855	dec_accept	1.265855	16.000000	n/a	8	2.253289e-01	2.253289e-01
161.832750	1.265855	dec_social_accept_high	1.265855	16.000000	n/a	8	2.695312e-01	2.695312e-01
168.665590	1.249950	dec_social_choice	1.249950	16.000000	n/a	4	1.888021e-02	1.888021e-02
168.665590	1.249950	dec_choice	1.249950	16.000000	n/a	4	1.953125e-02	1.953125e-02
168.665590	1.249950	dec_social_accept	1.249950	16.000000	n/a	4	-3.125000e-02	-3.125000e-02
168.665590	1.249950	dec_accept	1.249950	16.000000	n/a	4	-2.467105e-02	-2.467105e-02
168.665590	1.249950	dec_social_accept_high	1.249950	16.000000	n/a	4	1.953125e-02	1.953125e-02
175.499760	1.282554	dec_nonsocial_choice	1.282554	16.000000	n/a	0	0	-2.311198e-01
175.499760	1.282554	dec_choice	1.282554	16.000000	n/a	0	0	-2.317708e-01
175.499760	1.282554	dec_nonsocial_reject	1.282554	16.000000	n/a	0	0	0
175.499760	1.282554	dec_reject	1.282554	16.000000	n/a	0	0	0
175.499760	1.282554	dec_nonsocial_reject_low	1.282554	16.000000	n/a	1	0	-6.250000e-02
182.333400	1.465575	dec_social_choice	1.465575	16.000000	n/a	0	0	-2.311198e-01
182.333400	1.465575	dec_choice	1.465575	16.000000	n/a	0	0	-2.304688e-01
182.333400	1.465575	dec_social_reject	1.465575	16.000000	n/a	0	0	0
182.333400	1.465575	dec_reject	1.465575	16.000000	n/a	0	0	0
182.333400	1.465575	dec_social_low	1.465575	16.000000	n/a	0	-2.304688e-01	-2.304688e-01
182.333400	1.465575	dec_social_reject_low	1.465575	16.000000	n/a	1	-1.679688e-01	-2.304688e-01
189.165280	1.116499	dec_nonsocial_choice	1.116499	32.000000	n/a	8	1.888021e-02	1.888021e-02
189.165280	1.116499	dec_choice	1.116499	32.000000	n/a	8	1.822917e-02	1.822917e-02
189.165280	1.116499	dec_nonsocial_accept	1.116499	32.000000	n/a	8	-3.125000e-02	-3.125000e-02
189.165280	1.116499	dec_accept	1.116499	32.000000	n/a	8	-3.819444e-02	-3.819444e-02
189.165280	1.116499	dec_nonsocial_high	1.116499	32.000000	n/a	8	1.822917e-02	1.822917e-02
189.165280	1.116499	dec_nonsocial_accept_high	1.116499	32.000000	n/a	8	-3.819444e-02	-3.819444e-02
201.649730	1.698886	dec_social_choice	1.698886	32.000000	n/a	3	-1.373698e-01	-1.373698e-01
201.649730	1.698886	dec_choice	1.698886	32.000000	n/a	3	-1.367188e-01	-1.367188e-01
201.649730	1.698886	dec_social_accept	1.698886	32.000000	n/a	3	-1.875000e-01	-1.875000e-01
201.649730	1.698886	dec_accept	1.698886	32.000000	n/a	3	-1.809211e-01	-1.809211e-01
201.649730	1.698886	dec_social_accept_low	1.698886	32.000000	n/a	3	-1.367188e-01	-1.367188e-01
210.915560	1.166248	dec_social_choice	1.166248	32.000000	n/a	16	2.688802e-01	2.688802e-01
210.915560	1.166248	dec_choice	1.166248	32.000000	n/a	16	2.695312e-01	2.695312e-01
210.915560	1.166248	dec_social_accept	1.166248	32.000000	n/a	16	2.187500e-01	2.187500e-01
210.915560	1.166248	dec_accept	1.166248	32.000000	n/a	16	2.253289e-01	2.253289e-01
210.915560	1.166248	dec_social_accept_high	1.166248	32.000000	n/a	16	2.695312e-01	2.695312e-01
220.165530	1.383395	dec_nonsocial_choice	1.383395	16.000000	n/a	2	-1.061198e-01	-1.061198e-01
220.165530	1.383395	dec_choice	1.383395	16.000000	n/a	2	-1.067708e-01	-1.067708e-01
220.165530	1.383395	dec_nonsocial_accept	1.383395	16.000000	n/a	2	-1.562500e-01	-1.562500e-01
220.165530	1.383395	dec_accept	1.383395	16.000000	n/a	2	-1.631944e-01	-1.631944e-01
220.165530	1.383395	dec_nonsocial_accept_low	1.383395	16.000000	n/a	2	-1.496711e-01	-1.496711e-01
226.998900	1.099989	dec_nonsocial_choice	1.099989	32.000000	n/a	16	2.688802e-01	2.688802e-01
226.998900	1.099989	dec_choice	1.099989	32.000000	n/a	16	2.682292e-01	2.682292e-01
226.998900	1.099989	dec_nonsocial_accept	1.099989	32.000000	n/a	16	2.187500e-01	2.187500e-01
226.998900	1.099989	dec_accept	1.099989	32.000000	n/a	16	2.118056e-01	2.118056e-01
226.998900	1.099989	dec_nonsocial_high	1.099989	32.000000	n/a	16	2.682292e-01	2.682292e-01
226.998900	1.099989	dec_nonsocial_accept_high	1.099989	32.000000	n/a	16	2.118056e-01	2.118056e-01
234.648680	1.433468	dec_social_choice	1.433468	16.000000	n/a	0	0	-2.311198e-01
234.648680	1.433468	dec_choice	1.433468	16.000000	n/a	0	0	-2.304688e-01
234.648680	1.433468	dec_social_reject	1.433468	16.000000	n/a	0	0	0
234.648680	1.433468	dec_reject	1.433468	16.000000	n/a	0	0	0
234.648680	1.433468	dec_social_low	1.433468	16.000000	n/a	0	-2.304688e-01	-2.304688e-01
234.648680	1.433468	dec_social_reject_low	1.433468	16.000000	n/a	1	-1.679688e-01	-2.304688e-01
241.483230	0.999003	dec_social_choice	0.999003	16.000000	n/a	2	-1.061198e-01	-1.061198e-01
241.483230	0.999003	dec_choice	0.999003	16.000000	n/a	2	-1.054688e-01	-1.054688e-01
241.483230	0.999003	dec_social_accept	0.999003	16.000000	n/a	2	-1.562500e-01	-1.562500e-01
241.483230	0.999003	dec_accept	0.999003	16.000000	n/a	2	-1.496711e-01	-1.496711e-01
241.483230	0.999003	dec_social_accept_low	0.999003	16.000000	n/a	2	-1.054688e-01	-1.054688e-01
248.315490	1.483385	dec_nonsocial_choice	1.483385	32.000000	n/a	16	2.688802e-01	2.688802e-01
248.315490	1.483385	dec_choice	1.483385	32.000000	n/a	16	2.682292e-01	2.682292e-01
248.315490	1.483385	dec_nonsocial_accept	1.483385	32.000000	n/a	16	2.187500e-01	2.187500e-01
248.315490	1.483385	dec_accept	1.483385	32.000000	n/a	16	2.118056e-01	2.118056e-01
248.315490	1.483385	dec_nonsocial_accept_high	1.483385	32.000000	n/a	16	2.253289e-01	2.253289e-01
255.148700	1.316397	dec_social_choice	1.316397	32.000000	n/a	8	1.888021e-02	1.888021e-02
255.148700	1.316397	dec_choice	1.316397	32.000000	n/a	8	1.953125e-02	1.953125e-02
255.148700	1.316397	dec_social_accept	1.316397	32.000000	n/a	8	-3.125000e-02	-3.125000e-02
255.148700	1.316397	dec_accept	1.316397	32.000000	n/a	8	-2.467105e-02	-2.467105e-02
255.148700	1.316397	dec_social_high	1.316397	32.000000	n/a	8	1.953125e-02	1.953125e-02
255.148700	1.316397	dec_social_accept_high	1.316397	32.000000	n/a	8	1.953125e-02	1.953125e-02
264.415600	2.433147	dec_nonsocial_choice	2.433147	32.000000	n/a	0	0	-2.311198e-01
264.415600	2.433147	dec_choice	2.433147	32.000000	n/a	0	0	-2.317708e-01
264.415600	2.433147	dec_nonsocial_reject	2.433147	32.000000	n/a	0	0	0
264.415600	2.433147	dec_reject	2.433147	32.000000	n/a	0	0	0
264.415600	2.433147	dec_nonsocial_reject_low	2.433147	32.000000	n/a	2	0	-6.250000e-02
271.248780	1.616180	dec_social_choice	1.616180	32.000000	n/a	2	-1.686198e-01	-1.686198e-01
271.248780	1.616180	dec_choice	1.616180	32.000000	n/a	2	-1.679688e-01	-1.679688e-01
271.248780	1.616180	dec_social_accept	1.616180	32.000000	n/a	2	-2.187500e-01	-2.187500e-01
271.248780	1.616180	dec_accept	1.616180	32.000000	n/a	2	-2.121711e-01	-2.121711e-01
271.248780	1.616180	dec_social_accept_low	1.616180	32.000000	n/a	2	-1.679688e-01	-1.679688e-01
278.082460	1.083007	dec_nonsocial_choice	1.083007	32.000000	n/a	8	1.888021e-02	1.888021e-02
278.082460	1.083007	dec_choice	1.083007	32.000000	n/a	8	1.822917e-02	1.822917e-02
278.082460	1.083007	dec_nonsocial_accept	1.083007	32.000000	n/a	8	-3.125000e-02	-3.125000e-02
278.082460	1.083007	dec_accept	1.083007	32.000000	n/a	8	-3.819444e-02	-3.819444e-02
278.082460	1.083007	dec_nonsocial_high	1.083007	32.000000	n/a	8	1.822917e-02	1.822917e-02
278.082460	1.083007	dec_nonsocial_accept_high	1.083007	32.000000	n/a	8	-3.819444e-02	-3.819444e-02
284.916020	1.199208	dec_nonsocial_choice	1.199208	16.000000	n/a	0	0	-2.311198e-01
284.916020	1.199208	dec_choice	1.199208	16.000000	n/a	0	0	-2.317708e-01
284.916020	1.199208	dec_nonsocial_reject	1.199208	16.000000	n/a	0	0	0
284.916020	1.199208	dec_reject	1.199208	16.000000	n/a	0	0	0
284.916020	1.199208	dec_nonsocial_low	1.199208	16.000000	n/a	0	-2.317708e-01	-2.317708e-01
284.916020	1.199208	dec_nonsocial_reject_low	1.199208	16.000000	n/a	1	0	-6.250000e-02
292.564820	1.216404	dec_social_choice	1.216404	32.000000	n/a	16	2.688802e-01	2.688802e-01
292.564820	1.216404	dec_choice	1.216404	32.000000	n/a	16	2.695312e-01	2.695312e-01
292.564820	1.216404	dec_social_accept	1.216404	32.000000	n/a	16	2.187500e-01	2.187500e-01
292.564820	1.216404	dec_accept	1.216404	32.000000	n/a	16	2.253289e-01	2.253289e-01
292.564820	1.216404	dec_social_accept_high	1.216404	32.000000	n/a	16	2.695312e-01	2.695312e-01
300.214480	1.350557	dec_social_choice	1.350557	32.000000	n/a	8	1.888021e-02	1.888021e-02
300.214480	1.350557	dec_choice	1.350557	32.000000	n/a	8	1.953125e-02	1.953125e-02
300.214480	1.350557	dec_social_accept	1.350557	32.000000	n/a	8	-3.125000e-02	-3.125000e-02
300.214480	1.350557	dec_accept	1.350557	32.000000	n/a	8	-2.467105e-02	-2.467105e-02
300.214480	1.350557	dec_social_high	1.350557	32.000000	n/a	8	1.953125e-02	1.953125e-02
300.214480	1.350557	dec_social_accept_high	1.350557	32.000000	n/a	8	1.953125e-02	1.953125e-02
309.464630	2.383861	dec_nonsocial_choice	2.383861	32.000000	n/a	0	0	-2.311198e-01
309.464630	2.383861	dec_choice	2.383861	32.000000	n/a	0	0	-2.317708e-01
309.464630	2.383861	dec_nonsocial_reject	2.383861	32.000000	n/a	0	0	0
309.464630	2.383861	dec_reject	2.383861	32.000000	n/a	0	0	0
309.464630	2.383861	dec_nonsocial_low	2.383861	32.000000	n/a	0	-2.317708e-01	-2.317708e-01
309.464630	2.383861	dec_nonsocial_reject_low	2.383861	32.000000	n/a	2	0	-6.250000e-02
317.115400	1.083124	dec_nonsocial_choice	1.083124	16.000000	n/a	8	2.688802e-01	2.688802e-01
317.115400	1.083124	dec_choice	1.083124	16.000000	n/a	8	2.682292e-01	2.682292e-01
317.115400	1.083124	dec_nonsocial_accept	1.083124	16.000000	n/a	8	2.187500e-01	2.187500e-01
317.115400	1.083124	dec_accept	1.083124	16.000000	n/a	8	2.118056e-01	2.118056e-01
317.115400	1.083124	dec_nonsocial_accept_high	1.083124	16.000000	n/a	8	2.253289e-01	2.253289e-01
323.949500	1.582818	dec_nonsocial_choice	1.582818	32.000000	n/a	0	0	-2.311198e-01
323.949500	1.582818	dec_choice	1.582818	32.000000	n/a	0	0	-2.317708e-01
323.949500	1.582818	dec_nonsocial_reject	1.582818	32.000000	n/a	0	0	0
323.949500	1.582818	dec_reject	1.582818	32.000000	n/a	0	0	0
323.949500	1.582818	dec_nonsocial_low	1.582818	32.000000	n/a	0	-2.317708e-01	-2.317708e-01
323.949500	1.582818	dec_nonsocial_reject_low	1.582818	32.000000	n/a	2	0	-6.250000e-02
330.782100	1.182953	dec_nonsocial_choice	1.182953	32.000000	n/a	3	-1.373698e-01	-1.373698e-01
330.782100	1.182953	dec_choice	1.182953	32.000000	n/a	3	-1.380208e-01	-1.380208e-01
330.782100	1.182953	dec_nonsocial_accept	1.182953	32.000000	n/a	3	-1.875000e-01	-1.875000e-01
330.782100	1.182953	dec_accept	1.182953	32.000000	n/a	3	-1.944444e-01	-1.944444e-01
330.782100	1.182953	dec_nonsocial_low	1.182953	32.000000	n/a	3	-1.380208e-01	-1.380208e-01
330.782100	1.182953	dec_nonsocial_accept_low	1.182953	32.000000	n/a	3	-1.944444e-01	-1.944444e-01
338.431430	2.200358	dec_nonsocial_choice	2.200358	16.000000	n/a	2	-1.061198e-01	-1.061198e-01
338.431430	2.200358	dec_choice	2.200358	16.000000	n/a	2	-1.067708e-01	-1.067708e-01
338.431430	2.200358	dec_nonsocial_accept	2.200358	16.000000	n/a	2	-1.562500e-01	-1.562500e-01
338.431430	2.200358	dec_accept	2.200358	16.000000	n/a	2	-1.631944e-01	-1.631944e-01
338.431430	2.200358	dec_nonsocial_accept_low	2.200358	16.000000	n/a	2	-1.496711e-01	-1.496711e-01
345.264560	1.034074	dec_nonsocial_choice	1.034074	16.000000	n/a	4	1.888021e-02	1.888021e-02
345.264560	1.034074	dec_choice	1.034074	16.000000	n/a	4	1.822917e-02	1.822917e-02
345.264560	1.034074	dec_nonsocial_accept	1.034074	16.000000	n/a	4	-3.125000e-02	-3.125000e-02
345.264560	1.034074	dec_accept	1.034074	16.000000	n/a	4	-3.819444e-02	-3.819444e-02
345.264560	1.034074	dec_nonsocial_high	1.034074	16.000000	n/a	4	1.822917e-02	1.822917e-02
345.264560	1.034074	dec_nonsocial_accept_high	1.034074	16.000000	n/a	4	-3.819444e-02	-3.819444e-02
352.897500	1.967540	dec_nonsocial_choice	1.967540	32.000000	n/a	3	-1.373698e-01	-1.373698e-01
352.897500	1.967540	dec_choice	1.967540	32.000000	n/a	3	-1.380208e-01	-1.380208e-01
352.897500	1.967540	dec_nonsocial_accept	1.967540	32.000000	n/a	3	-1.875000e-01	-1.875000e-01
352.897500	1.967540	dec_accept	1.967540	32.000000	n/a	3	-1.944444e-01	-1.944444e-01
352.897500	1.967540	dec_nonsocial_low	1.967540	32.000000	n/a	3	-1.380208e-01	-1.380208e-01
352.897500	1.967540	dec_nonsocial_accept_low	1.967540	32.000000	n/a	3	-1.944444e-01	-1.944444e-01
363.764680	1.133558	dec_social_choice	1.133558	16.000000	n/a	8	2.688802e-01	2.688802e-01
363.764680	1.133558	dec_choice	1.133558	16.000000	n/a	8	2.695312e-01	2.695312e-01
363.764680	1.133558	dec_social_accept	1.133558	16.000000	n/a	8	2.187500e-01	2.187500e-01
363.764680	1.133558	dec_accept	1.133558	16.000000	n/a	8	2.253289e-01	2.253289e-01
363.764680	1.133558	dec_social_high	1.133558	16.000000	n/a	8	2.695312e-01	2.695312e-01
363.764680	1.133558	dec_social_accept_high	1.133558	16.000000	n/a	8	2.695312e-01	2.695312e-01
370.597800	1.100459	dec_nonsocial_choice	1.100459	32.000000	n/a	8	1.888021e-02	1.888021e-02
370.597800	1.100459	dec_choice	1.100459	32.000000	n/a	8	1.822917e-02	1.822917e-02
370.597800	1.100459	dec_nonsocial_accept	1.100459	32.000000	n/a	8	-3.125000e-02	-3.125000e-02
370.597800	1.100459	dec_accept	1.100459	32.000000	n/a	8	-3.819444e-02	-3.819444e-02
370.597800	1.100459	dec_nonsocial_accept_high	1.100459	32.000000	n/a	8	-2.467105e-02	-2.467105e-02
