onset	duration	trial_type	rt	resp	gender	image_left	image_right
0.623114800080657	3.00089790020138	decision	2.53430850058794	right	F	FF017.jpg	FF018.jpg
4.17312870081514	1.01682920008898	loss	n/a	n/a	n/a	FF017.jpg	FF018.jpg
11.1566377002746	3.00240240059793	decision	2.53299880027771	right	F	FF035.jpg	FF036.jpg
14.7063972000033	1.00013440009207	win	n/a	n/a	n/a	FF035.jpg	FF036.jpg
21.6566590005532	3.0013058995828	decision	2.0323176998645067	left	F	FF021.jpg	FF022.jpg
25.2062942003831	1.00026390049607	loss	n/a	n/a	n/a	FF021.jpg	FF022.jpg
32.1563574001193	3.00160890072584	decision	2.5336230006068945	left	M	MF025.jpg	MF026.jpg
35.7064913008362	1.00003269966692	loss	n/a	n/a	n/a	MF025.jpg	MF026.jpg
38.4564827000722	3.0014395006001	decision	2.5344743002206087	right	M	MF027.jpg	MF028.jpg
42.0064790006727	1.00003919936717	loss	n/a	n/a	n/a	MF027.jpg	MF028.jpg
44.7566269002855	3.00134530011564	decision	2.533326900564134	right	M	MF023.jpg	MF024.jpg
48.3064529001713	1.00001520011574	win	n/a	n/a	n/a	MF023.jpg	MF024.jpg
51.0567862000316	3.00082010030746	decision	2.032123100012541	right	F	FF037.jpg	FF038.jpg
54.6064824005589	1.01671139989048	win	n/a	n/a	n/a	FF037.jpg	FF038.jpg
59.4729598006234	3.00061119999737	decision	2.7990288995206356	right	M	MF011.jpg	MF012.jpg
63.023153600283	1.0164611004293	loss	n/a	n/a	n/a	MF011.jpg	MF012.jpg
67.8899404006079	3.00190799962729	decision	2.7849057000130415	left	F	FF009.jpg	FF010.jpg
71.4397911000997	1.01659430004656	win	n/a	n/a	n/a	FF009.jpg	FF010.jpg
74.2064610002562	3.00147730018944	decision	2.282424400560558	left	F	FF027.jpg	FF028.jpg
77.7564023006707	1.01653329934925	win	n/a	n/a	n/a	FF027.jpg	FF028.jpg
82.6229709004983	3.00140490010381	decision	2.79891540016979	left	F	FF015.jpg	FF016.jpg
86.1730228001252	1.01670400053263	loss	n/a	n/a	n/a	FF015.jpg	FF016.jpg
93.1398745002225	3.00095249991864	decision	2.799699299968779	left	M	MF029.jpg	MF030.jpg
96.6890898002312	1.00034940056503	loss	n/a	n/a	n/a	MF029.jpg	MF030.jpg
101.539820700884	3.00095039978623	decision	2.532215599901974	right	M	MF015.jpg	MF016.jpg
105.089410900138	1.00025800056756	win	n/a	n/a	n/a	MF015.jpg	MF016.jpg
112.039765300229	3.03696649987251	decision-missed	n/a	n/a	M	MF007.jpg	MF008.jpg
115.622815600596	1.00003379955888	win	n/a	n/a	n/a	MF007.jpg	MF008.jpg
120.472905100323	3.00103619974107	decision	2.0324213998392224	right	M	MF017.jpg	MF018.jpg
124.022813500836	1.01697609946132	win	n/a	n/a	n/a	MF017.jpg	MF018.jpg
126.789313100278	3.0015051998198	decision	2.533335800282657	left	F	FF033.jpg	FF034.jpg
130.339121200144	1.0004454003647	win	n/a	n/a	n/a	FF033.jpg	FF034.jpg
133.08970440086	3.00071169994771	decision	2.799085699953139	right	F	FF007.jpg	FF008.jpg
136.639643600211	1.00008000060916	loss	n/a	n/a	n/a	FF007.jpg	FF008.jpg
139.389617100358	3.00056670047343	decision	2.7990052001550794	right	F	FF023.jpg	FF024.jpg
142.939525400288	1.00002900045365	loss	n/a	n/a	n/a	FF023.jpg	FF024.jpg
156.189570500515	3.00222869962454	decision	2.783827000297606	right	M	MF009.jpg	MF010.jpg
159.739273800515	1.01664059981704	loss	n/a	n/a	n/a	MF009.jpg	MF010.jpg
164.606010200456	3.04950129985809	decision	3.0489910999312997	left	F	FF001.jpg	FF002.jpg
168.205875600688	1.00005130004138	win	n/a	n/a	n/a	FF001.jpg	FF002.jpg
170.956080300733	3.00173609983176	decision	2.5325728999450803	left	M	MF019.jpg	MF020.jpg
174.505812300369	1.00011170003563	loss	n/a	n/a	n/a	MF019.jpg	MF020.jpg
181.456020400859	3.0015615997836	decision	2.5328186992555857	right	F	FF031.jpg	FF032.jpg
185.005819200538	1.01689499989152	loss	n/a	n/a	n/a	FF031.jpg	FF032.jpg
189.872791900299	3.05030089989305	decision	3.049789000302553	right	M	MF005.jpg	MF006.jpg
193.47268460039	1.000024699606	win	n/a	n/a	n/a	MF005.jpg	MF006.jpg
196.22300790064	3.00186510011554	decision	2.533418799750507	left	F	FF019.jpg	FF020.jpg
199.772687100805	1.01661799941212	win	n/a	n/a	n/a	FF019.jpg	FF020.jpg
206.739100200124	3.05019380059093	decision	3.0496638007462025	left	M	MF013.jpg	MF014.jpg
210.339062100276	1.00060189981014	loss	n/a	n/a	n/a	MF013.jpg	MF014.jpg
217.289399300702	3.04993249941617	decision	3.0494138998910785	right	M	MF031.jpg	MF032.jpg
220.889275400899	1.01640339940786	loss	n/a	n/a	n/a	MF031.jpg	MF032.jpg
225.755814500153	3.0025895005092	decision	2.533960100263357	left	F	FF039.jpg	FF040.jpg
229.305693500675	1.01656429935247	loss	n/a	n/a	n/a	FF039.jpg	FF040.jpg
232.072710500099	3.00107880029827	decision	2.2826968003064394	left	F	FF005.jpg	FF006.jpg
235.622667000629	1.01656970009208	loss	n/a	n/a	n/a	FF005.jpg	FF006.jpg
242.589271800593	3.00144360028207	decision	2.782898399978876	right	M	MF037.jpg	MF038.jpg
246.139210200869	1.00004749931395	loss	n/a	n/a	n/a	MF037.jpg	MF038.jpg
248.889331600629	3.00091290008277	decision	2.282291899435222	left	M	MF039.jpg	MF040.jpg
252.439329400659	1.01637849956751	win	n/a	n/a	n/a	MF039.jpg	MF040.jpg
255.205774500035	3.00072220060974	decision	2.783057300373912	left	M	MF033.jpg	MF034.jpg
258.755687400699	1.01663099974394	loss	n/a	n/a	n/a	MF033.jpg	MF034.jpg
261.522491600364	3.00185899995267	decision	2.5324093997478485	right	F	FF013.jpg	FF014.jpg
265.072496100329	1.01661220006645	win	n/a	n/a	n/a	FF013.jpg	FF014.jpg
269.939274300821	3.00144479982555	decision	2.2818379998207092	left	M	MF001.jpg	MF002.jpg
273.489108600654	1.00002750009298	win	n/a	n/a	n/a	MF001.jpg	MF002.jpg
276.23892290052	3.00130010023713	decision	2.2831598995253444	right	F	FF003.jpg	FF004.jpg
279.788918000646	1.00011039990932	win	n/a	n/a	n/a	FF003.jpg	FF004.jpg
284.639166100882	3.001549099572	decision	2.2823528992012143	right	M	MF003.jpg	MF004.jpg
288.189120300114	1.00012610014528	win	n/a	n/a	n/a	MF003.jpg	MF004.jpg
295.138753500767	3.00100809987634	decision	2.2833030000329018	left	F	FF025.jpg	FF026.jpg
298.688773800619	1.01720109954476	win	n/a	n/a	n/a	FF025.jpg	FF026.jpg
305.655796700157	3.04943960066885	decision	3.048939600586891	right	M	MF035.jpg	MF036.jpg
309.255481400527	1.00030940026045	win	n/a	n/a	n/a	MF035.jpg	MF036.jpg
312.005753000267	3.3000955004245	decision	3.2995667001232505	right	F	FF011.jpg	FF012.jpg
315.855516900308	1.00020250026137	loss	n/a	n/a	n/a	FF011.jpg	FF012.jpg
318.605376600288	3.00090100057423	decision	2.784090700559318	left	M	MF021.jpg	MF022.jpg
322.155606999993	1.00003540050238	win	n/a	n/a	n/a	MF021.jpg	MF022.jpg
327.005865100771	3.00073330011219	decision	2.784239700064063	left	F	FF029.jpg	FF030.jpg
330.555611000396	1.01659539993852	loss	n/a	n/a	n/a	FF029.jpg	FF030.jpg
