onset	duration	trial_type	response_time	Endowment	Endowment_pmod	Decision	Decision_pmod	Offer_pmod
4.509717	2	cue_nonsocial	n/a	32	6	n/a	n/a	n/a
4.509717	2	cue_nonsocial_high	n/a	32	9	n/a	n/a	n/a
11.343173	2	cue_nonsocial	n/a	32	6	n/a	n/a	n/a
11.343173	2	cue_nonsocial_high	n/a	32	9	n/a	n/a	n/a
18.993036	2	cue_nonsocial	n/a	16	-10	n/a	n/a	n/a
18.993036	2	cue_nonsocial_low	n/a	16	-7	n/a	n/a	n/a
25.895386	2	cue_social	n/a	16	-7	n/a	n/a	n/a
25.895386	2	cue_social_low	n/a	16	-10	n/a	n/a	n/a
32.734314	2	cue_social	n/a	16	-7	n/a	n/a	n/a
32.734314	2	cue_social_low	n/a	16	-10	n/a	n/a	n/a
41.925957	2	cue_nonsocial	n/a	32	6	n/a	n/a	n/a
41.925957	2	cue_nonsocial_high	n/a	32	9	n/a	n/a	n/a
49.576443	2	cue_nonsocial	n/a	32	6	n/a	n/a	n/a
49.576443	2	cue_nonsocial_high	n/a	32	9	n/a	n/a	n/a
56.410072	2	cue_nonsocial	n/a	16	-10	n/a	n/a	n/a
56.410072	2	cue_nonsocial_low	n/a	16	-7	n/a	n/a	n/a
65.745920	2	cue_social	n/a	16	-7	n/a	n/a	n/a
65.745920	2	cue_social_low	n/a	16	-10	n/a	n/a	n/a
73.362910	2	cue_social	n/a	32	9	n/a	n/a	n/a
73.362910	2	cue_social_high	n/a	32	6	n/a	n/a	n/a
82.662600	2	cue_social	n/a	16	-7	n/a	n/a	n/a
82.662600	2	cue_social_low	n/a	16	-10	n/a	n/a	n/a
89.376500	2	cue_nonsocial	n/a	32	6	n/a	n/a	n/a
89.376500	2	cue_nonsocial_high	n/a	32	9	n/a	n/a	n/a
96.209560	2	cue_nonsocial	n/a	32	6	n/a	n/a	n/a
96.209560	2	cue_nonsocial_high	n/a	32	9	n/a	n/a	n/a
105.475930	2	cue_nonsocial	n/a	32	6	n/a	n/a	n/a
105.475930	2	cue_nonsocial_high	n/a	32	9	n/a	n/a	n/a
112.309530	2	cue_nonsocial	n/a	32	6	n/a	n/a	n/a
112.309530	2	cue_nonsocial_high	n/a	32	9	n/a	n/a	n/a
121.635000	2	cue_social	n/a	16	-7	n/a	n/a	n/a
121.635000	2	cue_social_low	n/a	16	-10	n/a	n/a	n/a
128.409930	2	cue_nonsocial	n/a	16	-10	n/a	n/a	n/a
128.409930	2	cue_nonsocial_low	n/a	16	-7	n/a	n/a	n/a
139.353820	2	cue_social	n/a	16	-7	n/a	n/a	n/a
139.353820	2	cue_social_low	n/a	16	-10	n/a	n/a	n/a
146.176330	2	cue_social	n/a	32	9	n/a	n/a	n/a
146.176330	2	cue_social_high	n/a	32	6	n/a	n/a	n/a
152.942720	2	cue_nonsocial	n/a	32	6	n/a	n/a	n/a
152.942720	2	cue_nonsocial_high	n/a	32	9	n/a	n/a	n/a
160.644000	2	cue_social	n/a	16	-7	n/a	n/a	n/a
160.644000	2	cue_social_low	n/a	16	-10	n/a	n/a	n/a
168.242610	2	cue_nonsocial	n/a	16	-10	n/a	n/a	n/a
168.242610	2	cue_nonsocial_low	n/a	16	-7	n/a	n/a	n/a
175.150360	2	cue_social	n/a	32	9	n/a	n/a	n/a
175.150360	2	cue_social_high	n/a	32	6	n/a	n/a	n/a
181.984420	2	cue_social	n/a	32	9	n/a	n/a	n/a
181.984420	2	cue_social_high	n/a	32	6	n/a	n/a	n/a
188.799800	2	cue_social	n/a	32	9	n/a	n/a	n/a
188.799800	2	cue_social_high	n/a	32	6	n/a	n/a	n/a
199.609200	2	cue_nonsocial	n/a	32	6	n/a	n/a	n/a
199.609200	2	cue_nonsocial_high	n/a	32	9	n/a	n/a	n/a
207.317630	2	cue_social	n/a	32	9	n/a	n/a	n/a
207.317630	2	cue_social_high	n/a	32	6	n/a	n/a	n/a
214.909160	2	cue_nonsocial	n/a	32	6	n/a	n/a	n/a
214.909160	2	cue_nonsocial_high	n/a	32	9	n/a	n/a	n/a
221.811130	2	cue_social	n/a	16	-7	n/a	n/a	n/a
221.811130	2	cue_social_low	n/a	16	-10	n/a	n/a	n/a
228.638760	2	cue_social	n/a	16	-7	n/a	n/a	n/a
228.638760	2	cue_social_low	n/a	16	-10	n/a	n/a	n/a
235.409120	2	cue_nonsocial	n/a	16	-10	n/a	n/a	n/a
235.409120	2	cue_nonsocial_low	n/a	16	-7	n/a	n/a	n/a
242.295870	2	cue_social	n/a	32	9	n/a	n/a	n/a
242.295870	2	cue_social_high	n/a	32	6	n/a	n/a	n/a
249.962800	2	cue_social	n/a	32	9	n/a	n/a	n/a
249.962800	2	cue_social_high	n/a	32	6	n/a	n/a	n/a
256.771670	2	cue_social	n/a	32	9	n/a	n/a	n/a
256.771670	2	cue_social_high	n/a	32	6	n/a	n/a	n/a
263.559170	2	cue_nonsocial	n/a	32	6	n/a	n/a	n/a
263.559170	2	cue_nonsocial_high	n/a	32	9	n/a	n/a	n/a
272.922450	2	cue_social	n/a	16	-7	n/a	n/a	n/a
272.922450	2	cue_social_low	n/a	16	-10	n/a	n/a	n/a
279.658870	2	cue_nonsocial	n/a	16	-10	n/a	n/a	n/a
279.658870	2	cue_nonsocial_low	n/a	16	-7	n/a	n/a	n/a
286.545600	2	cue_social	n/a	32	9	n/a	n/a	n/a
286.545600	2	cue_social_high	n/a	32	6	n/a	n/a	n/a
294.221600	2	cue_social	n/a	32	9	n/a	n/a	n/a
294.221600	2	cue_social_high	n/a	32	6	n/a	n/a	n/a
306.626220	2	cue_nonsocial	n/a	16	-10	n/a	n/a	n/a
306.626220	2	cue_nonsocial_low	n/a	16	-7	n/a	n/a	n/a
313.458830	2	cue_nonsocial	n/a	16	-10	n/a	n/a	n/a
313.458830	2	cue_nonsocial_low	n/a	16	-7	n/a	n/a	n/a
320.354280	2	cue_social	n/a	16	-7	n/a	n/a	n/a
320.354280	2	cue_social_low	n/a	16	-10	n/a	n/a	n/a
327.942050	2	cue_nonsocial	n/a	16	-10	n/a	n/a	n/a
327.942050	2	cue_nonsocial_low	n/a	16	-7	n/a	n/a	n/a
334.775400	2	cue_nonsocial	n/a	32	6	n/a	n/a	n/a
334.775400	2	cue_nonsocial_high	n/a	32	9	n/a	n/a	n/a
344.041930	2	cue_nonsocial	n/a	32	6	n/a	n/a	n/a
344.041930	2	cue_nonsocial_high	n/a	32	9	n/a	n/a	n/a
354.908720	2	cue_nonsocial	n/a	32	6	n/a	n/a	n/a
354.908720	2	cue_nonsocial_high	n/a	32	9	n/a	n/a	n/a
362.601620	2	cue_social	n/a	16	-7	n/a	n/a	n/a
362.601620	2	cue_social_low	n/a	16	-10	n/a	n/a	n/a
370.259340	2	cue_social	n/a	16	-7	n/a	n/a	n/a
370.259340	2	cue_social_low	n/a	16	-10	n/a	n/a	n/a
6.516489	0.899583	dec_nonsocial_choice	0.899583	32.000000	n/a	16	2.682292e-01	2.682292e-01
6.516489	0.899583	dec_choice	0.899583	32.000000	n/a	16	2.682292e-01	2.682292e-01
6.516489	0.899583	dec_nonsocial_accept	0.899583	32.000000	n/a	16	2.528409e-01	2.528409e-01
6.516489	0.899583	dec_accept	0.899583	32.000000	n/a	16	2.528409e-01	2.528409e-01
6.516489	0.899583	dec_nonsocial_high	0.899583	32.000000	n/a	16	2.682292e-01	2.682292e-01
6.516489	0.899583	dec_nonsocial_accept_high	0.899583	32.000000	n/a	16	2.528409e-01	2.528409e-01
13.350137	1.349665	dec_nonsocial_choice	1.349665	32.000000	n/a	8	1.822917e-02	1.822917e-02
13.350137	1.349665	dec_choice	1.349665	32.000000	n/a	8	1.822917e-02	1.822917e-02
13.350137	1.349665	dec_nonsocial_accept	1.349665	32.000000	n/a	8	2.840909e-03	2.840909e-03
13.350137	1.349665	dec_accept	1.349665	32.000000	n/a	8	2.840909e-03	2.840909e-03
13.350137	1.349665	dec_nonsocial_accept_high	1.349665	32.000000	n/a	8	2.840909e-03	2.840909e-03
20.999819	1.432968	dec_nonsocial_choice	1.432968	16.000000	n/a	2	-1.067708e-01	-1.067708e-01
20.999819	1.432968	dec_choice	1.432968	16.000000	n/a	2	-1.067708e-01	-1.067708e-01
20.999819	1.432968	dec_nonsocial_accept	1.432968	16.000000	n/a	2	-1.221591e-01	-1.221591e-01
20.999819	1.432968	dec_accept	1.432968	16.000000	n/a	2	-1.221591e-01	-1.221591e-01
20.999819	1.432968	dec_nonsocial_low	1.432968	16.000000	n/a	2	-1.067708e-01	-1.067708e-01
20.999819	1.432968	dec_nonsocial_accept_low	1.432968	16.000000	n/a	2	-1.221591e-01	-1.221591e-01
27.834047	1.132292	dec_social_choice	1.132292	16.000000	n/a	8	2.682292e-01	2.682292e-01
27.834047	1.132292	dec_choice	1.132292	16.000000	n/a	8	2.682292e-01	2.682292e-01
27.834047	1.132292	dec_social_accept	1.132292	16.000000	n/a	8	2.528409e-01	2.528409e-01
27.834047	1.132292	dec_accept	1.132292	16.000000	n/a	8	2.528409e-01	2.528409e-01
27.834047	1.132292	dec_social_accept_high	1.132292	16.000000	n/a	8	2.682292e-01	2.682292e-01
34.666130	0.933171	dec_social_choice	0.933171	16.000000	n/a	8	2.682292e-01	2.682292e-01
34.666130	0.933171	dec_choice	0.933171	16.000000	n/a	8	2.682292e-01	2.682292e-01
34.666130	0.933171	dec_social_accept	0.933171	16.000000	n/a	8	2.528409e-01	2.528409e-01
34.666130	0.933171	dec_accept	0.933171	16.000000	n/a	8	2.528409e-01	2.528409e-01
34.666130	0.933171	dec_social_high	0.933171	16.000000	n/a	8	2.682292e-01	2.682292e-01
34.666130	0.933171	dec_social_accept_high	0.933171	16.000000	n/a	8	2.682292e-01	2.682292e-01
43.933144	1.066105	dec_nonsocial_choice	1.066105	32.000000	n/a	8	1.822917e-02	1.822917e-02
43.933144	1.066105	dec_choice	1.066105	32.000000	n/a	8	1.822917e-02	1.822917e-02
43.933144	1.066105	dec_nonsocial_accept	1.066105	32.000000	n/a	8	2.840909e-03	2.840909e-03
43.933144	1.066105	dec_accept	1.066105	32.000000	n/a	8	2.840909e-03	2.840909e-03
43.933144	1.066105	dec_nonsocial_high	1.066105	32.000000	n/a	8	1.822917e-02	1.822917e-02
43.933144	1.066105	dec_nonsocial_accept_high	1.066105	32.000000	n/a	8	2.840909e-03	2.840909e-03
51.583164	0.883075	dec_nonsocial_choice	0.883075	32.000000	n/a	16	2.682292e-01	2.682292e-01
51.583164	0.883075	dec_choice	0.883075	32.000000	n/a	16	2.682292e-01	2.682292e-01
51.583164	0.883075	dec_nonsocial_accept	0.883075	32.000000	n/a	16	2.528409e-01	2.528409e-01
51.583164	0.883075	dec_accept	0.883075	32.000000	n/a	16	2.528409e-01	2.528409e-01
51.583164	0.883075	dec_nonsocial_high	0.883075	32.000000	n/a	16	2.682292e-01	2.682292e-01
51.583164	0.883075	dec_nonsocial_accept_high	0.883075	32.000000	n/a	16	2.528409e-01	2.528409e-01
58.416107	1.300217	dec_nonsocial_choice	1.300217	16.000000	n/a	2	-1.067708e-01	-1.067708e-01
58.416107	1.300217	dec_choice	1.300217	16.000000	n/a	2	-1.067708e-01	-1.067708e-01
58.416107	1.300217	dec_nonsocial_accept	1.300217	16.000000	n/a	2	-1.221591e-01	-1.221591e-01
58.416107	1.300217	dec_accept	1.300217	16.000000	n/a	2	-1.221591e-01	-1.221591e-01
58.416107	1.300217	dec_nonsocial_low	1.300217	16.000000	n/a	2	-1.067708e-01	-1.067708e-01
58.416107	1.300217	dec_nonsocial_accept_low	1.300217	16.000000	n/a	2	-1.221591e-01	-1.221591e-01
67.665410	1.167316	dec_social_choice	1.167316	16.000000	n/a	2	-1.067708e-01	-1.067708e-01
67.665410	1.167316	dec_choice	1.167316	16.000000	n/a	2	-1.067708e-01	-1.067708e-01
67.665410	1.167316	dec_social_accept	1.167316	16.000000	n/a	2	-1.221591e-01	-1.221591e-01
67.665410	1.167316	dec_accept	1.167316	16.000000	n/a	2	-1.221591e-01	-1.221591e-01
67.665410	1.167316	dec_social_low	1.167316	16.000000	n/a	2	-1.067708e-01	-1.067708e-01
67.665410	1.167316	dec_social_accept_low	1.167316	16.000000	n/a	2	-1.067708e-01	-1.067708e-01
75.299324	1.100062	dec_social_choice	1.100062	32.000000	n/a	8	1.822917e-02	1.822917e-02
75.299324	1.100062	dec_choice	1.100062	32.000000	n/a	8	1.822917e-02	1.822917e-02
75.299324	1.100062	dec_social_accept	1.100062	32.000000	n/a	8	2.840909e-03	2.840909e-03
75.299324	1.100062	dec_accept	1.100062	32.000000	n/a	8	2.840909e-03	2.840909e-03
75.299324	1.100062	dec_social_accept_high	1.100062	32.000000	n/a	8	1.822917e-02	1.822917e-02
84.550100	1.199541	dec_social_choice	1.199541	16.000000	n/a	2	-1.067708e-01	-1.067708e-01
84.550100	1.199541	dec_choice	1.199541	16.000000	n/a	2	-1.067708e-01	-1.067708e-01
84.550100	1.199541	dec_social_accept	1.199541	16.000000	n/a	2	-1.221591e-01	-1.221591e-01
84.550100	1.199541	dec_accept	1.199541	16.000000	n/a	2	-1.221591e-01	-1.221591e-01
84.550100	1.199541	dec_social_accept_low	1.199541	16.000000	n/a	2	-1.067708e-01	-1.067708e-01
91.381890	1.433804	dec_nonsocial_choice	1.433804	32.000000	n/a	8	1.822917e-02	1.822917e-02
91.381890	1.433804	dec_choice	1.433804	32.000000	n/a	8	1.822917e-02	1.822917e-02
91.381890	1.433804	dec_nonsocial_accept	1.433804	32.000000	n/a	8	2.840909e-03	2.840909e-03
91.381890	1.433804	dec_accept	1.433804	32.000000	n/a	8	2.840909e-03	2.840909e-03
91.381890	1.433804	dec_nonsocial_accept_high	1.433804	32.000000	n/a	8	2.840909e-03	2.840909e-03
98.217090	2.165323	dec_nonsocial_choice	2.165323	32.000000	n/a	3	-1.380208e-01	-1.380208e-01
98.217090	2.165323	dec_choice	2.165323	32.000000	n/a	3	-1.380208e-01	-1.380208e-01
98.217090	2.165323	dec_nonsocial_accept	2.165323	32.000000	n/a	3	-1.534091e-01	-1.534091e-01
98.217090	2.165323	dec_accept	2.165323	32.000000	n/a	3	-1.534091e-01	-1.534091e-01
98.217090	2.165323	dec_nonsocial_low	2.165323	32.000000	n/a	3	-1.380208e-01	-1.380208e-01
98.217090	2.165323	dec_nonsocial_accept_low	2.165323	32.000000	n/a	3	-1.534091e-01	-1.534091e-01
107.483100	1.149521	dec_nonsocial_choice	1.149521	32.000000	n/a	8	1.822917e-02	1.822917e-02
107.483100	1.149521	dec_choice	1.149521	32.000000	n/a	8	1.822917e-02	1.822917e-02
107.483100	1.149521	dec_nonsocial_accept	1.149521	32.000000	n/a	8	2.840909e-03	2.840909e-03
107.483100	1.149521	dec_accept	1.149521	32.000000	n/a	8	2.840909e-03	2.840909e-03
107.483100	1.149521	dec_nonsocial_accept_high	1.149521	32.000000	n/a	8	2.840909e-03	2.840909e-03
114.316070	1.183216	dec_nonsocial_choice	1.183216	32.000000	n/a	2	-1.692708e-01	-1.692708e-01
114.316070	1.183216	dec_choice	1.183216	32.000000	n/a	2	-1.692708e-01	-1.692708e-01
114.316070	1.183216	dec_nonsocial_accept	1.183216	32.000000	n/a	2	-1.846591e-01	-1.846591e-01
114.316070	1.183216	dec_accept	1.183216	32.000000	n/a	2	-1.846591e-01	-1.846591e-01
114.316070	1.183216	dec_nonsocial_accept_low	1.183216	32.000000	n/a	2	-1.846591e-01	-1.846591e-01
123.583180	1.065344	dec_social_choice	1.065344	16.000000	n/a	8	2.682292e-01	2.682292e-01
123.583180	1.065344	dec_choice	1.065344	16.000000	n/a	8	2.682292e-01	2.682292e-01
123.583180	1.065344	dec_social_accept	1.065344	16.000000	n/a	8	2.528409e-01	2.528409e-01
123.583180	1.065344	dec_accept	1.065344	16.000000	n/a	8	2.528409e-01	2.528409e-01
123.583180	1.065344	dec_social_accept_high	1.065344	16.000000	n/a	8	2.682292e-01	2.682292e-01
130.415080	1.051011	dec_nonsocial_choice	1.051011	16.000000	n/a	8	2.682292e-01	2.682292e-01
130.415080	1.051011	dec_choice	1.051011	16.000000	n/a	8	2.682292e-01	2.682292e-01
130.415080	1.051011	dec_nonsocial_accept	1.051011	16.000000	n/a	8	2.528409e-01	2.528409e-01
130.415080	1.051011	dec_accept	1.051011	16.000000	n/a	8	2.528409e-01	2.528409e-01
130.415080	1.051011	dec_nonsocial_accept_high	1.051011	16.000000	n/a	8	2.528409e-01	2.528409e-01
141.283050	1.165863	dec_social_choice	1.165863	16.000000	n/a	2	-1.067708e-01	-1.067708e-01
141.283050	1.165863	dec_choice	1.165863	16.000000	n/a	2	-1.067708e-01	-1.067708e-01
141.283050	1.165863	dec_social_accept	1.165863	16.000000	n/a	2	-1.221591e-01	-1.221591e-01
141.283050	1.165863	dec_accept	1.165863	16.000000	n/a	2	-1.221591e-01	-1.221591e-01
141.283050	1.165863	dec_social_low	1.165863	16.000000	n/a	2	-1.067708e-01	-1.067708e-01
141.283050	1.165863	dec_social_accept_low	1.165863	16.000000	n/a	2	-1.067708e-01	-1.067708e-01
148.116060	1.233008	dec_social_choice	1.233008	32.000000	n/a	8	1.822917e-02	1.822917e-02
148.116060	1.233008	dec_choice	1.233008	32.000000	n/a	8	1.822917e-02	1.822917e-02
148.116060	1.233008	dec_social_accept	1.233008	32.000000	n/a	8	2.840909e-03	2.840909e-03
148.116060	1.233008	dec_accept	1.233008	32.000000	n/a	8	2.840909e-03	2.840909e-03
148.116060	1.233008	dec_social_high	1.233008	32.000000	n/a	8	1.822917e-02	1.822917e-02
148.116060	1.233008	dec_social_accept_high	1.233008	32.000000	n/a	8	1.822917e-02	1.822917e-02
154.949040	1.499713	dec_nonsocial_choice	1.499713	32.000000	n/a	8	1.822917e-02	1.822917e-02
154.949040	1.499713	dec_choice	1.499713	32.000000	n/a	8	1.822917e-02	1.822917e-02
154.949040	1.499713	dec_nonsocial_accept	1.499713	32.000000	n/a	8	2.840909e-03	2.840909e-03
154.949040	1.499713	dec_accept	1.499713	32.000000	n/a	8	2.840909e-03	2.840909e-03
154.949040	1.499713	dec_nonsocial_accept_high	1.499713	32.000000	n/a	8	2.840909e-03	2.840909e-03
162.600020	2.015627	dec_social_choice	2.015627	16.000000	n/a	1	-1.692708e-01	-1.692708e-01
162.600020	2.015627	dec_choice	2.015627	16.000000	n/a	1	-1.692708e-01	-1.692708e-01
162.600020	2.015627	dec_social_accept	2.015627	16.000000	n/a	1	-1.846591e-01	-1.846591e-01
162.600020	2.015627	dec_accept	2.015627	16.000000	n/a	1	-1.846591e-01	-1.846591e-01
162.600020	2.015627	dec_social_low	2.015627	16.000000	n/a	1	-1.692708e-01	-1.692708e-01
162.600020	2.015627	dec_social_accept_low	2.015627	16.000000	n/a	1	-1.692708e-01	-1.692708e-01
170.249950	1.565419	dec_nonsocial_choice	1.565419	16.000000	n/a	2	-1.067708e-01	-1.067708e-01
170.249950	1.565419	dec_choice	1.565419	16.000000	n/a	2	-1.067708e-01	-1.067708e-01
170.249950	1.565419	dec_nonsocial_accept	1.565419	16.000000	n/a	2	-1.221591e-01	-1.221591e-01
170.249950	1.565419	dec_accept	1.565419	16.000000	n/a	2	-1.221591e-01	-1.221591e-01
170.249950	1.565419	dec_nonsocial_low	1.565419	16.000000	n/a	2	-1.067708e-01	-1.067708e-01
170.249950	1.565419	dec_nonsocial_accept_low	1.565419	16.000000	n/a	2	-1.221591e-01	-1.221591e-01
177.083040	1.932489	dec_social_choice	1.932489	32.000000	n/a	2	-1.692708e-01	-1.692708e-01
177.083040	1.932489	dec_choice	1.932489	32.000000	n/a	2	-1.692708e-01	-1.692708e-01
177.083040	1.932489	dec_social_accept	1.932489	32.000000	n/a	2	-1.846591e-01	-1.846591e-01
177.083040	1.932489	dec_accept	1.932489	32.000000	n/a	2	-1.846591e-01	-1.846591e-01
177.083040	1.932489	dec_social_accept_low	1.932489	32.000000	n/a	2	-1.692708e-01	-1.692708e-01
183.914980	2.366972	dec_social_choice	2.366972	32.000000	n/a	0	0	-2.317708e-01
183.914980	2.366972	dec_choice	2.366972	32.000000	n/a	0	0	-2.317708e-01
183.914980	2.366972	dec_social_reject	2.366972	32.000000	n/a	0	0	0
183.914980	2.366972	dec_reject	2.366972	32.000000	n/a	0	0	0
183.914980	2.366972	dec_social_low	2.366972	32.000000	n/a	0	-2.317708e-01	-2.317708e-01
183.914980	2.366972	dec_social_reject_low	2.366972	32.000000	n/a	2	-1.692708e-01	-2.317708e-01
190.749980	1.049000	dec_social_choice	1.049000	32.000000	n/a	16	2.682292e-01	2.682292e-01
190.749980	1.049000	dec_choice	1.049000	32.000000	n/a	16	2.682292e-01	2.682292e-01
190.749980	1.049000	dec_social_accept	1.049000	32.000000	n/a	16	2.528409e-01	2.528409e-01
190.749980	1.049000	dec_accept	1.049000	32.000000	n/a	16	2.528409e-01	2.528409e-01
190.749980	1.049000	dec_social_high	1.049000	32.000000	n/a	16	2.682292e-01	2.682292e-01
190.749980	1.049000	dec_social_accept_high	1.049000	32.000000	n/a	16	2.682292e-01	2.682292e-01
201.615800	0.983263	dec_nonsocial_choice	0.983263	32.000000	n/a	16	2.682292e-01	2.682292e-01
201.615800	0.983263	dec_choice	0.983263	32.000000	n/a	16	2.682292e-01	2.682292e-01
201.615800	0.983263	dec_nonsocial_accept	0.983263	32.000000	n/a	16	2.528409e-01	2.528409e-01
201.615800	0.983263	dec_accept	0.983263	32.000000	n/a	16	2.528409e-01	2.528409e-01
201.615800	0.983263	dec_nonsocial_high	0.983263	32.000000	n/a	16	2.682292e-01	2.682292e-01
201.615800	0.983263	dec_nonsocial_accept_high	0.983263	32.000000	n/a	16	2.528409e-01	2.528409e-01
209.265990	2.549911	dec_social_choice	2.549911	32.000000	n/a	3	-1.380208e-01	-1.380208e-01
209.265990	2.549911	dec_choice	2.549911	32.000000	n/a	3	-1.380208e-01	-1.380208e-01
209.265990	2.549911	dec_social_accept	2.549911	32.000000	n/a	3	-1.534091e-01	-1.534091e-01
209.265990	2.549911	dec_accept	2.549911	32.000000	n/a	3	-1.534091e-01	-1.534091e-01
209.265990	2.549911	dec_social_low	2.549911	32.000000	n/a	3	-1.380208e-01	-1.380208e-01
209.265990	2.549911	dec_social_accept_low	2.549911	32.000000	n/a	3	-1.380208e-01	-1.380208e-01
216.915990	2.616096	dec_nonsocial_choice	2.616096	32.000000	n/a	0	0	-2.317708e-01
216.915990	2.616096	dec_choice	2.616096	32.000000	n/a	0	0	-2.317708e-01
216.915990	2.616096	dec_nonsocial_reject	2.616096	32.000000	n/a	0	0	0
216.915990	2.616096	dec_reject	2.616096	32.000000	n/a	0	0	0
216.915990	2.616096	dec_nonsocial_reject_low	2.616096	32.000000	n/a	2	0	-6.250000e-02
223.748980	2.416391	dec_social_choice	2.416391	16.000000	n/a	2	-1.067708e-01	-1.067708e-01
223.748980	2.416391	dec_choice	2.416391	16.000000	n/a	2	-1.067708e-01	-1.067708e-01
223.748980	2.416391	dec_social_accept	2.416391	16.000000	n/a	2	-1.221591e-01	-1.221591e-01
223.748980	2.416391	dec_accept	2.416391	16.000000	n/a	2	-1.221591e-01	-1.221591e-01
223.748980	2.416391	dec_social_accept_low	2.416391	16.000000	n/a	2	-1.067708e-01	-1.067708e-01
230.581940	0.916708	dec_social_choice	0.916708	16.000000	n/a	8	2.682292e-01	2.682292e-01
230.581940	0.916708	dec_choice	0.916708	16.000000	n/a	8	2.682292e-01	2.682292e-01
230.581940	0.916708	dec_social_accept	0.916708	16.000000	n/a	8	2.528409e-01	2.528409e-01
230.581940	0.916708	dec_accept	0.916708	16.000000	n/a	8	2.528409e-01	2.528409e-01
230.581940	0.916708	dec_social_high	0.916708	16.000000	n/a	8	2.682292e-01	2.682292e-01
230.581940	0.916708	dec_social_accept_high	0.916708	16.000000	n/a	8	2.682292e-01	2.682292e-01
237.415940	1.715722	dec_nonsocial_choice	1.715722	16.000000	n/a	4	1.822917e-02	1.822917e-02
237.415940	1.715722	dec_choice	1.715722	16.000000	n/a	4	1.822917e-02	1.822917e-02
237.415940	1.715722	dec_nonsocial_accept	1.715722	16.000000	n/a	4	2.840909e-03	2.840909e-03
237.415940	1.715722	dec_accept	1.715722	16.000000	n/a	4	2.840909e-03	2.840909e-03
237.415940	1.715722	dec_nonsocial_accept_high	1.715722	16.000000	n/a	4	2.840909e-03	2.840909e-03
244.248580	1.116714	dec_social_choice	1.116714	32.000000	n/a	8	1.822917e-02	1.822917e-02
244.248580	1.116714	dec_choice	1.116714	32.000000	n/a	8	1.822917e-02	1.822917e-02
244.248580	1.116714	dec_social_accept	1.116714	32.000000	n/a	8	2.840909e-03	2.840909e-03
244.248580	1.116714	dec_accept	1.116714	32.000000	n/a	8	2.840909e-03	2.840909e-03
244.248580	1.116714	dec_social_accept_high	1.116714	32.000000	n/a	8	1.822917e-02	1.822917e-02
251.898940	1.600105	dec_social_choice	1.600105	32.000000	n/a	2	-1.692708e-01	-1.692708e-01
251.898940	1.600105	dec_choice	1.600105	32.000000	n/a	2	-1.692708e-01	-1.692708e-01
251.898940	1.600105	dec_social_accept	1.600105	32.000000	n/a	2	-1.846591e-01	-1.846591e-01
251.898940	1.600105	dec_accept	1.600105	32.000000	n/a	2	-1.846591e-01	-1.846591e-01
251.898940	1.600105	dec_social_low	1.600105	32.000000	n/a	2	-1.692708e-01	-1.692708e-01
251.898940	1.600105	dec_social_accept_low	1.600105	32.000000	n/a	2	-1.692708e-01	-1.692708e-01
258.731900	1.083862	dec_social_choice	1.083862	32.000000	n/a	8	1.822917e-02	1.822917e-02
258.731900	1.083862	dec_choice	1.083862	32.000000	n/a	8	1.822917e-02	1.822917e-02
258.731900	1.083862	dec_social_accept	1.083862	32.000000	n/a	8	2.840909e-03	2.840909e-03
258.731900	1.083862	dec_accept	1.083862	32.000000	n/a	8	2.840909e-03	2.840909e-03
258.731900	1.083862	dec_social_accept_high	1.083862	32.000000	n/a	8	1.822917e-02	1.822917e-02
265.565600	1.666096	dec_nonsocial_choice	1.666096	32.000000	n/a	2	-1.692708e-01	-1.692708e-01
265.565600	1.666096	dec_choice	1.666096	32.000000	n/a	2	-1.692708e-01	-1.692708e-01
265.565600	1.666096	dec_nonsocial_accept	1.666096	32.000000	n/a	2	-1.846591e-01	-1.846591e-01
265.565600	1.666096	dec_accept	1.666096	32.000000	n/a	2	-1.846591e-01	-1.846591e-01
265.565600	1.666096	dec_nonsocial_low	1.666096	32.000000	n/a	2	-1.692708e-01	-1.692708e-01
265.565600	1.666096	dec_nonsocial_accept_low	1.666096	32.000000	n/a	2	-1.846591e-01	-1.846591e-01
274.831900	1.550218	dec_social_choice	1.550218	16.000000	n/a	4	1.822917e-02	1.822917e-02
274.831900	1.550218	dec_choice	1.550218	16.000000	n/a	4	1.822917e-02	1.822917e-02
274.831900	1.550218	dec_social_accept	1.550218	16.000000	n/a	4	2.840909e-03	2.840909e-03
274.831900	1.550218	dec_accept	1.550218	16.000000	n/a	4	2.840909e-03	2.840909e-03
274.831900	1.550218	dec_social_high	1.550218	16.000000	n/a	4	1.822917e-02	1.822917e-02
274.831900	1.550218	dec_social_accept_high	1.550218	16.000000	n/a	4	1.822917e-02	1.822917e-02
281.665000	0.916618	dec_nonsocial_choice	0.916618	16.000000	n/a	8	2.682292e-01	2.682292e-01
281.665000	0.916618	dec_choice	0.916618	16.000000	n/a	8	2.682292e-01	2.682292e-01
281.665000	0.916618	dec_nonsocial_accept	0.916618	16.000000	n/a	8	2.528409e-01	2.528409e-01
281.665000	0.916618	dec_accept	0.916618	16.000000	n/a	8	2.528409e-01	2.528409e-01
281.665000	0.916618	dec_nonsocial_high	0.916618	16.000000	n/a	8	2.682292e-01	2.682292e-01
281.665000	0.916618	dec_nonsocial_accept_high	0.916618	16.000000	n/a	8	2.528409e-01	2.528409e-01
288.498900	0.999862	dec_social_choice	0.999862	32.000000	n/a	2	-1.692708e-01	-1.692708e-01
288.498900	0.999862	dec_choice	0.999862	32.000000	n/a	2	-1.692708e-01	-1.692708e-01
288.498900	0.999862	dec_social_accept	0.999862	32.000000	n/a	2	-1.846591e-01	-1.846591e-01
288.498900	0.999862	dec_accept	0.999862	32.000000	n/a	2	-1.846591e-01	-1.846591e-01
288.498900	0.999862	dec_social_accept_low	0.999862	32.000000	n/a	2	-1.692708e-01	-1.692708e-01
296.147830	1.050947	dec_social_choice	1.050947	32.000000	n/a	3	-1.380208e-01	-1.380208e-01
296.147830	1.050947	dec_choice	1.050947	32.000000	n/a	3	-1.380208e-01	-1.380208e-01
296.147830	1.050947	dec_social_accept	1.050947	32.000000	n/a	3	-1.534091e-01	-1.534091e-01
296.147830	1.050947	dec_accept	1.050947	32.000000	n/a	3	-1.534091e-01	-1.534091e-01
296.147830	1.050947	dec_social_accept_low	1.050947	32.000000	n/a	3	-1.380208e-01	-1.380208e-01
308.632700	1.082795	dec_nonsocial_choice	1.082795	16.000000	n/a	8	2.682292e-01	2.682292e-01
308.632700	1.082795	dec_choice	1.082795	16.000000	n/a	8	2.682292e-01	2.682292e-01
308.632700	1.082795	dec_nonsocial_accept	1.082795	16.000000	n/a	8	2.528409e-01	2.528409e-01
308.632700	1.082795	dec_accept	1.082795	16.000000	n/a	8	2.528409e-01	2.528409e-01
308.632700	1.082795	dec_nonsocial_high	1.082795	16.000000	n/a	8	2.682292e-01	2.682292e-01
308.632700	1.082795	dec_nonsocial_accept_high	1.082795	16.000000	n/a	8	2.528409e-01	2.528409e-01
315.464870	1.284065	dec_nonsocial_choice	1.284065	16.000000	n/a	2	-1.067708e-01	-1.067708e-01
315.464870	1.284065	dec_choice	1.284065	16.000000	n/a	2	-1.067708e-01	-1.067708e-01
315.464870	1.284065	dec_nonsocial_accept	1.284065	16.000000	n/a	2	-1.221591e-01	-1.221591e-01
315.464870	1.284065	dec_accept	1.284065	16.000000	n/a	2	-1.221591e-01	-1.221591e-01
315.464870	1.284065	dec_nonsocial_low	1.284065	16.000000	n/a	2	-1.067708e-01	-1.067708e-01
315.464870	1.284065	dec_nonsocial_accept_low	1.284065	16.000000	n/a	2	-1.221591e-01	-1.221591e-01
322.298900	1.266152	dec_social_choice	1.266152	16.000000	n/a	8	2.682292e-01	2.682292e-01
322.298900	1.266152	dec_choice	1.266152	16.000000	n/a	8	2.682292e-01	2.682292e-01
322.298900	1.266152	dec_social_accept	1.266152	16.000000	n/a	8	2.528409e-01	2.528409e-01
322.298900	1.266152	dec_accept	1.266152	16.000000	n/a	8	2.528409e-01	2.528409e-01
322.298900	1.266152	dec_social_high	1.266152	16.000000	n/a	8	2.682292e-01	2.682292e-01
322.298900	1.266152	dec_social_accept_high	1.266152	16.000000	n/a	8	2.682292e-01	2.682292e-01
329.948850	1.400011	dec_nonsocial_choice	1.400011	16.000000	n/a	1	-1.692708e-01	-1.692708e-01
329.948850	1.400011	dec_choice	1.400011	16.000000	n/a	1	-1.692708e-01	-1.692708e-01
329.948850	1.400011	dec_nonsocial_accept	1.400011	16.000000	n/a	1	-1.846591e-01	-1.846591e-01
329.948850	1.400011	dec_accept	1.400011	16.000000	n/a	1	-1.846591e-01	-1.846591e-01
329.948850	1.400011	dec_nonsocial_accept_low	1.400011	16.000000	n/a	1	-1.846591e-01	-1.846591e-01
336.781860	1.166192	dec_nonsocial_choice	1.166192	32.000000	n/a	2	-1.692708e-01	-1.692708e-01
336.781860	1.166192	dec_choice	1.166192	32.000000	n/a	2	-1.692708e-01	-1.692708e-01
336.781860	1.166192	dec_nonsocial_accept	1.166192	32.000000	n/a	2	-1.846591e-01	-1.846591e-01
336.781860	1.166192	dec_accept	1.166192	32.000000	n/a	2	-1.846591e-01	-1.846591e-01
336.781860	1.166192	dec_nonsocial_accept_low	1.166192	32.000000	n/a	2	-1.846591e-01	-1.846591e-01
346.047820	1.234137	dec_nonsocial_choice	1.234137	32.000000	n/a	3	-1.380208e-01	-1.380208e-01
346.047820	1.234137	dec_choice	1.234137	32.000000	n/a	3	-1.380208e-01	-1.380208e-01
346.047820	1.234137	dec_nonsocial_accept	1.234137	32.000000	n/a	3	-1.534091e-01	-1.534091e-01
346.047820	1.234137	dec_accept	1.234137	32.000000	n/a	3	-1.534091e-01	-1.534091e-01
346.047820	1.234137	dec_nonsocial_accept_low	1.234137	32.000000	n/a	3	-1.534091e-01	-1.534091e-01
356.915830	1.199304	dec_nonsocial_choice	1.199304	32.000000	n/a	0	0	-2.317708e-01
356.915830	1.199304	dec_choice	1.199304	32.000000	n/a	0	0	-2.317708e-01
356.915830	1.199304	dec_nonsocial_reject	1.199304	32.000000	n/a	0	0	0
356.915830	1.199304	dec_reject	1.199304	32.000000	n/a	0	0	0
356.915830	1.199304	dec_nonsocial_low	1.199304	32.000000	n/a	0	-2.317708e-01	-2.317708e-01
356.915830	1.199304	dec_nonsocial_reject_low	1.199304	32.000000	n/a	2	0	-6.250000e-02
364.565830	1.265683	dec_social_choice	1.265683	16.000000	n/a	4	1.822917e-02	1.822917e-02
364.565830	1.265683	dec_choice	1.265683	16.000000	n/a	4	1.822917e-02	1.822917e-02
364.565830	1.265683	dec_social_accept	1.265683	16.000000	n/a	4	2.840909e-03	2.840909e-03
364.565830	1.265683	dec_accept	1.265683	16.000000	n/a	4	2.840909e-03	2.840909e-03
364.565830	1.265683	dec_social_high	1.265683	16.000000	n/a	4	1.822917e-02	1.822917e-02
364.565830	1.265683	dec_social_accept_high	1.265683	16.000000	n/a	4	1.822917e-02	1.822917e-02
372.215480	1.449528	dec_social_choice	1.449528	16.000000	n/a	0	0	-2.317708e-01
372.215480	1.449528	dec_choice	1.449528	16.000000	n/a	0	0	-2.317708e-01
372.215480	1.449528	dec_social_reject	1.449528	16.000000	n/a	0	0	0
372.215480	1.449528	dec_reject	1.449528	16.000000	n/a	0	0	0
372.215480	1.449528	dec_social_low	1.449528	16.000000	n/a	0	-2.317708e-01	-2.317708e-01
372.215480	1.449528	dec_social_reject_low	1.449528	16.000000	n/a	1	-1.692708e-01	-2.317708e-01
