onset	duration	trial_type	rt	resp
0.0004225000739097595	0.6584957999875769	fixation_1	999	999
0.6590141000924632	3.0061197999166325	face	1.8034933999879286	2
3.6651904000900686	0.6584957999875769	fixation_2	999	999
4.206014600000344	1.0158161000581458	feedback loss	999	999
5.221833900082856	5.3167296999599785	ITI	999	999
10.54741700005252	0.7028678000206128	fixation_1	999	999
11.250372700043954	3.005566700012423	face	1.7984367000171915	3
14.25599690002855	0.7028678000206128	fixation_2	999	999
14.797288300003856	1.015783500042744	feedback win	999	999
15.81307520007249	5.316421299939975	ITI	999	999
21.134092800086364	0.674182299990207	fixation_1	999	999
21.808362500043586	3.059534900006838	face	n/a	n/a
24.86794660007581	0.674182299990207	fixation_2	999	999
25.42191580007784	1.0158345999661833	feedback loss	999	999
26.437753700069152	5.316584400017746	ITI	999	999
31.75906220008619	0.6570012000156567	fixation_1	999	999
32.416151600074954	3.005491300020367	face	1.5490350000327453	3
35.42170020006597	0.6570012000156567	fixation_2	999	999
35.96328700007871	1.015733000007458	feedback loss	999	999
36.9790234999964	1.1179841000121087	ITI	999	999
38.101756300078705	0.6592014000052586	fixation_1	999	999
38.76104100001976	3.0061823000432923	face	1.7989595000399277	2
41.76727990002837	0.6592014000052586	fixation_2	999	999
42.30798919999506	1.0158305000513792	feedback loss	999	999
43.32382320007309	1.1175905999261886	ITI	999	999
44.446147500071675	0.6427427999442443	fixation_1	999	999
45.08897929999512	3.006683300016448	face	2.0484083000337705	3
48.0957192000933	0.6427427999442443	fixation_2	999	999
48.63608359999489	1.0158203000901267	feedback win	999	999
49.65190729999449	1.117694400018081	ITI	999	999
50.774631100008264	0.6424957000417635	fixation_1	999	999
51.41721330001019	3.00657600001432	face	1.5488381000468507	3
54.423846000107005	0.6424957000417635	fixation_2	999	999
54.96423660009168	1.0158082999987528	feedback win	999	999
55.980048099998385	3.2166970000835136	ITI	999	999
59.20176900003571	0.6584176999749616	fixation_1	999	999
59.860285600065254	3.0064714000327513	face	1.5488261999562383	2
62.866815100074746	0.6584176999749616	fixation_2	999	999
63.40725090005435	1.0158713000128046	feedback loss	999	999
64.4231257000938	3.216639699996449	ITI	999	999
67.64471310004592	0.641874699969776	fixation_1	999	999
68.28667900001165	3.0061268000863492	face	1.0325778999831527	3
71.29286420007702	0.641874699969776	fixation_2	999	999
71.8336853000801	1.0158762999344617	feedback win	999	999
72.84956500004046	1.117638900061138	ITI	999	999
73.97231860004831	0.6423612999496982	fixation_1	999	999
74.61477010010276	3.0057004999835044	face	1.299110799911432	2
77.62052680004854	0.6423612999496982	fixation_2	999	999
78.16178250010125	1.0159072999376804	feedback win	999	999
79.1776930000633	3.216625400003977	ITI	999	999
82.39929190010298	0.6750903999200091	fixation_1	999	999
83.0744709999999	3.006104600033723	face	1.0327205000212416	2
86.08063270000275	0.6750903999200091	fixation_2	999	999
86.62165430001915	1.015652299975045	feedback loss	999	999
87.63730990001932	5.316748499986716	ITI	999	999
92.95911470009014	0.6732825000071898	fixation_1	999	999
93.63248430006206	3.0062418000306934	face	1.2973605999723077	2
96.63878430007026	0.6732825000071898	fixation_2	999	999
97.17943230003584	1.0159625000087544	feedback loss	999	999
98.19539810006972	3.2167535999324173	ITI	999	999
101.41732560005039	0.6414208000060171	fixation_1	999	999
102.05883480003104	3.005488199996762	face	1.0328667999710888	3
105.06438320002053	0.6414208000060171	fixation_2	999	999
105.60583370004315	1.0158900000387803	feedback win	999	999
106.62172710010782	5.316861399915069	ITI	999	999
111.94394770008512	0.6393617999274284	fixation_1	999	999
112.58339929999784	3.005635300069116	face	1.549022400053218	3
115.58909250004217	0.6393617999274284	fixation_2	999	999
116.13057400006801	1.0157499000197276	feedback win	999	999
117.14632719999645	3.2174954001093283	ITI	999	999
120.3734730000142	0.670162900001742	fixation_1	999	999
121.04376170004252	3.0055652000010014	face	1.298042400041595	3
124.04938740003854	0.670162900001742	fixation_2	999	999
124.59024900000077	1.0157651000190526	feedback win	999	999
125.60601750004571	1.1176491000223905	ITI	999	999
126.72887160000391	0.6422016000142321	fixation_1	999	999
127.37116010009777	3.006316699902527	face	1.03267549991142	3
130.3775335000828	0.6422016000142321	fixation_2	999	999
130.91837309999391	1.0158212000969797	feedback win	999	999
131.9341975999996	1.1177423000335693	ITI	999	999
133.05724069999997	0.6588819000171497	fixation_1	999	999
133.71622880001087	3.006433100090362	face	2.564591500093229	2
136.72271830006503	0.6588819000171497	fixation_2	999	999
137.26314500009175	1.0157457999885082	feedback loss	999	999
138.27889440010767	1.1177701998967677	ITI	999	999
139.4019958000863	0.6254906000103801	fixation_1	999	999
140.0275730000576	3.0066836000187322	face	1.7989469999447465	3
143.03431260003708	0.6254906000103801	fixation_2	999	999
143.57459810003638	1.0158011000603437	feedback loss	999	999
144.59040250000544	11.616717100027017	ITI	999	999
156.21278729999904	0.6674754000268877	fixation_1	999	999
156.8803506999975	3.0063238000730053	face	1.0325315000955015	2
159.88673240004573	0.6674754000268877	fixation_2	999	999
160.42742690001614	1.0157587000867352	feedback loss	999	999
161.4431889000116	3.2167285000905395	ITI	999	999
164.66570560005493	0.641016999958083	fixation_1	999	999
165.30680920009036	3.0062689000042155	face	1.0325789999915287	3
168.31313370005228	0.641016999958083	fixation_2	999	999
168.85377030004747	1.0158900000387803	feedback win	999	999
169.86966570001096	1.1175139000406489	ITI	999	999
170.99241890001576	0.6923450999893248	fixation_1	999	999
171.68485010007862	3.0066550999181345	face	1.2973267999477684	3
174.6915618000785	0.6923450999893248	fixation_2	999	999
175.23184330004733	1.015904700034298	feedback loss	999	999
176.24775130010676	5.316632899921387	ITI	999	999
181.57006950001232	0.6894097999902442	fixation_1	999	999
182.2595931000542	3.0061454999959096	face	1.2972736000083387	3
185.26579480001237	0.6894097999902442	fixation_2	999	999
185.80659430008382	1.0157873999560252	feedback loss	999	999
186.82238500006497	3.216568800038658	ITI	999	999
190.04437720007263	0.6414104999275878	fixation_1	999	999
190.68587430007756	3.006119499914348	face	1.0325588999548927	2
193.6920513000805	0.6414104999275878	fixation_2	999	999
194.23289630003273	1.0161995000671595	feedback win	999	999
195.24909950001165	1.117536999983713	ITI	999	999
196.3722490000073	0.675107300048694	fixation_1	999	999
197.04744090000167	3.0064386000158265	face	1.298875000094995	2
200.05393610009924	0.675107300048694	fixation_2	999	999
200.59433019999415	1.0157961000222713	feedback win	999	999
201.61012960004155	5.316705800010823	ITI	999	999
206.93260960001498	0.6392765000928193	fixation_1	999	999
207.5719712000573	3.059513699961826	face	n/a	n/a
210.63153240003157	0.6392765000928193	fixation_2	999	999
211.18572220008355	1.0156999999890104	feedback loss	999	999
212.20142560009845	5.316585499909706	ITI	999	999
217.52365660003852	0.6394036000128835	fixation_1	999	999
218.163146100007	3.334887500037439	face	3.3291568000568077	3
221.49809860007372	0.6394036000128835	fixation_2	999	999
222.04328540002462	1.0158214999828488	feedback loss	999	999
223.05911030003335	3.2168383999960497	ITI	999	999
226.28195360000245	0.640636800089851	fixation_1	999	999
226.92267820006236	3.0057038000086322	face	1.299050800036639	3
229.92843770002946	0.640636800089851	fixation_2	999	999
230.4696923000738	1.015852199983783	feedback loss	999	999
231.48554790008347	1.117629999993369	ITI	999	999
232.60942320001777	0.6579802000196651	fixation_1	999	999
233.26749210001435	3.006313299993053	face	1.2978887000354007	2
236.27386459999252	0.6579802000196651	fixation_2	999	999
236.8144687000895	1.015879499958828	feedback loss	999	999
237.8303516000742	5.316538400016725	ITI	999	999
243.1526359000709	0.6560496999882162	fixation_1	999	999
243.80877430003602	3.0062253000214696	face	1.0326695999829099	3
246.81505660002586	0.6560496999882162	fixation_2	999	999
247.3558817000594	1.01573520002421	feedback loss	999	999
248.37162010010798	1.1175892999162897	ITI	999	999
249.49534830008633	0.6415014999220148	fixation_1	999	999
250.136942800018	3.0067617000313476	face	1.2973750000819564	2
253.14376190002076	0.6415014999220148	fixation_2	999	999
253.6838931000093	1.0158182000741363	feedback win	999	999
254.69971459999215	1.1177574000321329	ITI	999	999
255.82398550002836	0.6411009000148624	fixation_1	999	999
256.46518540009856	3.334173299954273	face	3.3288658999372274	2
259.79942440008745	0.6411009000148624	fixation_2	999	999
260.34511390002444	1.0158158000558615	feedback loss	999	999
261.36093300010543	1.1176310000009835	ITI	999	999
262.48432500008494	0.6418285999679938	fixation_1	999	999
263.1262484000763	3.0062852000119165	face	2.564679899951443	3
266.13258960004896	0.6418285999679938	fixation_2	999	999
266.6732806999935	1.0158091000048444	feedback win	999	999
267.6890930000227	3.217217000084929	ITI	999	999
270.91223080002237	0.6236226999899372	fixation_1	999	999
271.5359434999991	3.0061293001053855	face	1.0325892000691965	3
274.54213120008353	0.6236226999899372	fixation_2	999	999
275.08302150003146	1.0157689000479877	feedback win	999	999
276.0987937001046	1.1175887999124825	ITI	999	999
277.22242540004663	0.6416727000614628	fixation_1	999	999
277.8641876000911	3.005782499909401	face	1.0324146999046206	3
280.870030399994	0.6416727000614628	fixation_2	999	999
281.4110786000965	1.0159366999287158	feedback win	999	999
282.4270185000496	3.2166502999607474	ITI	999	999
285.64948730007745	0.6413183999247849	fixation_1	999	999
286.29090530006215	3.0062987999990582	face	1.0322549999691546	3
289.29726120003033	0.6413183999247849	fixation_2	999	999
289.8375152000226	1.0157609999878332	feedback win	999	999
290.85327950003557	5.316702899988741	ITI	999	999
296.1760213000234	0.6390132000669837	fixation_1	999	999
296.81512440007646	3.006102200015448	face	1.2973663000157103	3
299.8212830000557	0.6390132000669837	fixation_2	999	999
300.3621597000165	1.0157925999956205	feedback win	999	999
301.37795580003876	5.316899699973874	ITI	999	999
306.7009429000318	0.672195199993439	fixation_1	999	999
307.3732263999991	3.0055212000152096	face	1.032510400051251	3
310.3788041000953	0.672195199993439	fixation_2	999	999
310.92010490002576	1.015886400011368	feedback win	999	999
311.93599620007444	1.117579699959606	ITI	999	999
313.05974749999586	0.6414075000211596	fixation_1	999	999
313.7012431001058	3.006671999930404	face	1.5488671999191865	3
316.7079735000152	0.6414075000211596	fixation_2	999	999
317.2482272000052	1.0159610999980941	feedback loss	999	999
318.26419180002995	1.1176511000376195	ITI	999	999
319.388024300104	0.6413209999445826	fixation_1	999	999
320.0294332000194	3.005964000010863	face	1.0325530000263825	3
323.0354556000093	0.6413209999445826	fixation_2	999	999
323.5764772000257	1.0156058999709785	feedback win	999	999
324.59208650002256	3.2168935000663623	ITI	999	999
327.8155765000265	0.6401132000610232	fixation_1	999	999
328.45581640000455	3.0061090000672266	face	1.0324898000108078	3
331.46198160003405	0.6401132000610232	fixation_2	999	999
332.0027059999993	1.0158583000302315	feedback loss	999	999
333.01856760005467	5.316684499965049	ITI	999	999
