instrText,stimDoor,stimDoorLure,stimFace,stimFaceLure,Instructions.thisRepN,Instructions.thisTrialN,Instructions.thisN,Instructions.thisIndex,Trials.thisRepN,Trials.thisTrialN,Trials.thisN,Trials.thisIndex,Func,Keys,Text,RespTime,Onset,Offset,SystemTime_Start,SystemTime_Stop,Stim,Lure,Participant*,Age,date,expName,psychopyVersion,frameRate,
"In the earlier Feedback Games, you chose which doors contained a prize, and which peers liked you. 

You then saw positive or negative feedback (green check mark or red X) from the door or peer you selected.

You will now see a series of doors and peers, some of which you saw during the earlier Feedback Games, and some that you have never seen before.

Please press the spacebar to continue.",,,,,0,0,0,0,,,,,instrFunc,space,"In the earlier Feedback Games, you chose which doors contained a prize, and which peers liked you. 

You then saw positive or negative feedback (green check mark or red X) from the door or peer you selected.

You will now see a series of doors and peers, some of which you saw during the earlier Feedback Games, and some that you have never seen before.

Please press the spacebar to continue.",22.550086200004444,21.71670429990627,44.32774205948226,2023-08-02 14:47:03.727297,2023-08-02 14:47:26.324757,,,10652,70-89+,2023-08-02_14h47.00.636,Recall,2021.2.3,59.99959194378912,
"For doors/peers that you remember selecting and getting feedback from, your job is to RECALL what feedback you received. 

Press '1' if you recall positive feedback. 

Press '2' if you recall negative feedback

Press the spacebar to continue.",,,,,0,1,1,1,,,,,instrFunc,space,"For doors/peers that you remember selecting and getting feedback from, your job is to RECALL what feedback you received. 

Press '1' if you recall positive feedback. 

Press '2' if you recall negative feedback

Press the spacebar to continue.",42.30702509987168,44.30367499985732,86.6641991098877,2023-08-02 14:47:26.325758,2023-08-02 14:48:08.671140,,,10652,70-89+,2023-08-02_14h47.00.636,Recall,2021.2.3,59.99959194378912,
"For doors/peers that you don't remember getting feedback from, your job is to PREDICT what feedback you WOULD HAVE received.

Press '9' if you predict positive feedback.

Press '0' if you predict negative feedback. 

Please press the spacebar to continue.",,,,,0,2,2,2,,,,,instrFunc,space,"For doors/peers that you don't remember getting feedback from, your job is to PREDICT what feedback you WOULD HAVE received.

Press '9' if you predict positive feedback.

Press '0' if you predict negative feedback. 

Please press the spacebar to continue.",22.633128500077873,86.64939909987152,109.3304036098998,2023-08-02 14:48:08.672140,2023-08-02 14:48:31.337750,,,10652,70-89+,2023-08-02_14h47.00.636,Recall,2021.2.3,59.99959194378912,
"This task is self-paced, and the prompts will always stay on the screen so that you know which buttons to press.

On the next screen we will show you what those prompts look like, so that you know exactly what to expect. 

You will start with either doors or peers, and then switch halfway through. 

Please press the spacebar to continue.",,,,,0,3,3,3,,,,,instrFunc,space,"This task is self-paced, and the prompts will always stay on the screen so that you know which buttons to press.

On the next screen we will show you what those prompts look like, so that you know exactly what to expect. 

You will start with either doors or peers, and then switch halfway through. 

Please press the spacebar to continue.",21.140539500163868,109.310161100002,130.48994660982862,2023-08-02 14:48:31.338750,2023-08-02 14:48:52.503160,,,10652,70-89+,2023-08-02_14h47.00.636,Recall,2021.2.3,59.99959194378912,
,,,,,,,,,,,,,imgtextFunc,space,"Here is what the screen will look like while you make your ratings.
The green circles remind you to press 1 or 9 for positive feedback.
The red circles remind you to press 2 or 0 for negative feedback.









Please let the experimenter know if you have any questions.

Whenever you're ready, press the spacebar to start the task.",32.53916599997319,130.62352230004035,163.34403721033596,2023-08-02 14:48:52.513135,2023-08-02 14:49:25.227098,,,10652,70-89+,2023-08-02_14h47.00.636,Recall,2021.2.3,59.99959194378912,
,L_DD501.jpg,1,L_FF501.jpg,1,,,,,0,0,0,40,imgFunc,2,NA,12.258321499917656,163.32834579981863,175.7223728299141,2023-08-02 14:49:25.267424,2023-08-02 14:49:37.652233,L_DD501.jpg,1,10652,70-89+,2023-08-02_14h47.00.636,Recall,2021.2.3,59.99959194378912,
,SD019.jpg,0,MF019.jpg,0,,,,,0,1,1,68,imgFunc,2,NA,14.224793100031093,175.7218611999415,190.07988531026058,2023-08-02 14:49:37.661069,2023-08-02 14:49:52.012636,SD019.jpg,0,10652,70-89+,2023-08-02_14h47.00.636,Recall,2021.2.3,59.99959194378912,
,DD028.jpg,0,FF028.jpg,0,,,,,0,2,2,27,imgFunc,1,NA,13.092532200040296,190.07012069993652,203.27599421003833,2023-08-02 14:49:52.024607,2023-08-02 14:50:05.225970,DD028.jpg,0,10652,70-89+,2023-08-02_14h47.00.636,Recall,2021.2.3,59.99959194378912,
,SD007.jpg,0,MF007.jpg,0,,,,,0,3,3,56,imgFunc,1,NA,0.7795704999007285,203.29502009996213,204.21132602007128,2023-08-02 14:50:05.238604,2023-08-02 14:50:06.139300,SD007.jpg,0,10652,70-89+,2023-08-02_14h47.00.636,Recall,2021.2.3,59.99959194378912,
,DD008.jpg,0,FF008.jpg,0,,,,,0,4,4,7,imgFunc,1,NA,1.1672359998337924,204.1634364000056,205.41561710974202,2023-08-02 14:50:06.146283,2023-08-02 14:50:07.390171,DD008.jpg,0,10652,70-89+,2023-08-02_14h47.00.636,Recall,2021.2.3,59.99959194378912,
,SD024.jpg,0,MF024.jpg,0,,,,,0,5,5,73,imgFunc,2,NA,3.172435199841857,205.41433810000308,208.66865600994788,2023-08-02 14:50:07.397154,2023-08-02 14:50:10.642782,SD024.jpg,0,10652,70-89+,2023-08-02_14h47.00.636,Recall,2021.2.3,59.99959194378912,
,DD013.jpg,0,FF013.jpg,0,,,,,0,6,6,12,imgFunc,1,NA,1.0659268000163138,208.6725429999642,209.82504741032608,2023-08-02 14:50:10.649766,2023-08-02 14:50:11.793538,DD013.jpg,0,10652,70-89+,2023-08-02_14h47.00.636,Recall,2021.2.3,59.99959194378912,
,L_SD503.jpg,1,L_MF503.jpg,1,,,,,0,7,7,92,imgFunc,1,NA,0.7979556999634951,209.82849069987424,210.71955090994015,2023-08-02 14:50:11.806506,2023-08-02 14:50:12.694179,L_SD503.jpg,1,10652,70-89+,2023-08-02_14h47.00.636,Recall,2021.2.3,59.99959194378912,
,DD034.jpg,0,FF034.jpg,0,,,,,0,8,8,33,imgFunc,1,NA,0.7843937000725418,210.72207789984532,211.5916438100394,2023-08-02 14:50:12.701162,2023-08-02 14:50:13.561884,DD034.jpg,0,10652,70-89+,2023-08-02_14h47.00.636,Recall,2021.2.3,59.99959194378912,
,L_SD504.jpg,1,L_MF504.jpg,1,,,,,0,9,9,93,imgFunc,1,NA,0.9326903999317437,211.5900609998498,212.60858110990375,2023-08-02 14:50:13.568866,2023-08-02 14:50:14.578568,L_SD504.jpg,1,10652,70-89+,2023-08-02_14h47.00.636,Recall,2021.2.3,59.99959194378912,
,DD023.jpg,0,FF023.jpg,0,,,,,0,10,10,22,imgFunc,1,NA,0.8236496997997165,212.6029286000412,213.5219111100305,2023-08-02 14:50:14.585551,2023-08-02 14:50:15.496007,DD023.jpg,0,10652,70-89+,2023-08-02_14h47.00.636,Recall,2021.2.3,59.99959194378912,
,SD017.jpg,0,MF017.jpg,0,,,,,0,11,11,66,imgFunc,1,NA,0.8652280999813229,213.52131349989213,214.4737047101371,2023-08-02 14:50:15.502990,2023-08-02 14:50:16.446700,SD017.jpg,0,10652,70-89+,2023-08-02_14h47.00.636,Recall,2021.2.3,59.99959194378912,
,SD034.jpg,0,MF034.jpg,0,,,,,0,12,12,83,imgFunc,2,NA,1.8315707999281585,214.48305050004274,216.40509101003408,2023-08-02 14:50:16.460665,2023-08-02 14:50:18.380525,SD034.jpg,0,10652,70-89+,2023-08-02_14h47.00.636,Recall,2021.2.3,59.99959194378912,
,SD012.jpg,0,MF012.jpg,0,,,,,0,13,13,61,imgFunc,1,NA,3.1455053000245243,216.40884309983812,219.64615770988166,2023-08-02 14:50:18.388499,2023-08-02 14:50:21.617040,SD012.jpg,0,10652,70-89+,2023-08-02_14h47.00.636,Recall,2021.2.3,59.99959194378912,
,SD020.jpg,0,MF020.jpg,0,,,,,0,14,14,69,imgFunc,1,NA,0.9101897000800818,219.66029249993153,220.67928831023164,2023-08-02 14:50:21.624023,2023-08-02 14:50:22.634464,SD020.jpg,0,10652,70-89+,2023-08-02_14h47.00.636,Recall,2021.2.3,59.99959194378912,
,L_SD506.jpg,1,L_MF506.jpg,1,,,,,0,15,15,95,imgFunc,1,NA,0.8015106001403183,220.66486669983715,221.56702790991403,2023-08-02 14:50:22.641447,2023-08-02 14:50:23.535159,L_SD506.jpg,1,10652,70-89+,2023-08-02_14h47.00.636,Recall,2021.2.3,59.99959194378912,
,SD021.jpg,0,MF021.jpg,0,,,,,0,16,16,70,imgFunc,1,NA,1.4863726000767201,221.56426769983955,223.15009630983695,2023-08-02 14:50:23.542142,2023-08-02 14:50:25.119661,SD021.jpg,0,10652,70-89+,2023-08-02_14h47.00.636,Recall,2021.2.3,59.99959194378912,
,SD036.jpg,0,MF036.jpg,0,,,,,0,17,17,85,imgFunc,1,NA,0.7796596998814493,223.15891380002722,224.03056120988913,2023-08-02 14:50:25.133625,2023-08-02 14:50:26.003565,SD036.jpg,0,10652,70-89+,2023-08-02_14h47.00.636,Recall,2021.2.3,59.99959194378912,
,SD003.jpg,0,MF003.jpg,0,,,,,0,18,18,52,imgFunc,1,NA,0.790252200094983,224.02829649997875,224.91398051008582,2023-08-02 14:50:26.010549,2023-08-02 14:50:26.887563,SD003.jpg,0,10652,70-89+,2023-08-02_14h47.00.636,Recall,2021.2.3,59.99959194378912,
,SD014.jpg,0,MF014.jpg,0,,,,,0,19,19,63,imgFunc,1,NA,1.3065799998585135,224.91178059997037,226.29749320959672,2023-08-02 14:50:26.894546,2023-08-02 14:50:28.271252,SD014.jpg,0,10652,70-89+,2023-08-02_14h47.00.636,Recall,2021.2.3,59.99959194378912,
,L_DD502.jpg,1,L_FF502.jpg,1,,,,,0,20,20,41,imgFunc,2,NA,2.136280999984592,226.29826159984805,228.5184963096399,2023-08-02 14:50:28.279229,2023-08-02 14:50:30.490420,L_DD502.jpg,1,10652,70-89+,2023-08-02_14h47.00.636,Recall,2021.2.3,59.99959194378912,
,SD028.jpg,0,MF028.jpg,0,,,,,0,21,21,77,imgFunc,1,NA,7.7981183000374585,228.52430509985425,236.41494220960885,2023-08-02 14:50:30.497403,2023-08-02 14:50:38.379217,SD028.jpg,0,10652,70-89+,2023-08-02_14h47.00.636,Recall,2021.2.3,59.99959194378912,
,DD004.jpg,0,FF004.jpg,0,,,,,0,22,22,3,imgFunc,1,NA,5.353975800098851,236.40857969992794,241.84410280990414,2023-08-02 14:50:38.388195,2023-08-02 14:50:43.816520,DD004.jpg,0,10652,70-89+,2023-08-02_14h47.00.636,Recall,2021.2.3,59.99959194378912,
,DD025.jpg,0,FF025.jpg,0,,,,,0,23,23,24,imgFunc,1,NA,1.0279355000238866,241.87051859986968,243.0192498099059,2023-08-02 14:50:43.825498,2023-08-02 14:50:44.967146,DD025.jpg,0,10652,70-89+,2023-08-02_14h47.00.636,Recall,2021.2.3,59.99959194378912,
,SD032.jpg,0,MF032.jpg,0,,,,,0,24,24,81,imgFunc,1,NA,0.8470907001756132,243.00350869982503,243.9558607097715,2023-08-02 14:50:44.974128,2023-08-02 14:50:45.917825,SD032.jpg,0,10652,70-89+,2023-08-02_14h47.00.636,Recall,2021.2.3,59.99959194378912,
,SD029.jpg,0,MF029.jpg,0,,,,,0,25,25,78,imgFunc,1,NA,1.05646779993549,243.95415230002254,245.10652620973997,2023-08-02 14:50:45.924808,2023-08-02 14:50:47.068527,SD029.jpg,0,10652,70-89+,2023-08-02_14h47.00.636,Recall,2021.2.3,59.99959194378912,
,L_DD506.jpg,1,L_FF506.jpg,1,,,,,0,26,26,45,imgFunc,1,NA,0.9898504999000579,245.10855899984017,246.18309780978598,2023-08-02 14:50:47.081494,2023-08-02 14:50:48.152888,L_DD506.jpg,1,10652,70-89+,2023-08-02_14h47.00.636,Recall,2021.2.3,59.99959194378912,
,DD018.jpg,0,FF018.jpg,0,,,,,0,27,27,17,imgFunc,1,NA,0.737231699982658,246.17725809989497,246.99644850986078,2023-08-02 14:50:48.159871,2023-08-02 14:50:48.970264,DD018.jpg,0,10652,70-89+,2023-08-02_14h47.00.636,Recall,2021.2.3,59.99959194378912,
,DD020.jpg,0,FF020.jpg,0,,,,,0,28,28,19,imgFunc,1,NA,0.9718724000267684,246.99874789989553,248.06774881016463,2023-08-02 14:50:48.977247,2023-08-02 14:50:50.037209,DD020.jpg,0,10652,70-89+,2023-08-02_14h47.00.636,Recall,2021.2.3,59.99959194378912,
,DD006.jpg,0,FF006.jpg,0,,,,,0,29,29,5,imgFunc,1,NA,0.9471694000530988,248.06333729997277,249.09906100993976,2023-08-02 14:50:50.044215,2023-08-02 14:50:51.071395,DD006.jpg,0,10652,70-89+,2023-08-02_14h47.00.636,Recall,2021.2.3,59.99959194378912,
,L_SD507.jpg,1,L_MF507.jpg,1,,,,,0,30,30,96,imgFunc,1,NA,1.65863800002262,249.09571479982696,250.84805770986713,2023-08-02 14:50:51.079398,2023-08-02 14:50:52.822793,L_SD507.jpg,1,10652,70-89+,2023-08-02_14h47.00.636,Recall,2021.2.3,59.99959194378912,
,L_SD508.jpg,1,L_MF508.jpg,1,,,,,0,31,31,97,imgFunc,2,NA,1.7836370000150055,250.8590525998734,252.7314151097089,2023-08-02 14:50:52.836758,2023-08-02 14:50:54.707458,L_SD508.jpg,1,10652,70-89+,2023-08-02_14h47.00.636,Recall,2021.2.3,59.99959194378912,
,DD030.jpg,0,FF030.jpg,0,,,,,0,32,32,29,imgFunc,1,NA,1.3191797998733819,252.73137549986131,254.13423280999996,2023-08-02 14:50:54.714441,2023-08-02 14:50:56.108838,DD030.jpg,0,10652,70-89+,2023-08-02_14h47.00.636,Recall,2021.2.3,59.99959194378912,
,L_DD503.jpg,1,L_FF503.jpg,1,,,,,0,33,33,42,imgFunc,1,NA,1.9070490999147296,254.13516990002245,256.1377956098877,2023-08-02 14:50:56.115821,2023-08-02 14:50:58.109756,L_DD503.jpg,1,10652,70-89+,2023-08-02_14h47.00.636,Recall,2021.2.3,59.99959194378912,
,DD011.jpg,0,FF011.jpg,0,,,,,0,34,34,10,imgFunc,1,NA,0.8581926000770181,256.1362592999358,257.08868801011704,2023-08-02 14:50:58.116736,2023-08-02 14:50:59.060665,DD011.jpg,0,10652,70-89+,2023-08-02_14h47.00.636,Recall,2021.2.3,59.99959194378912,
,DD017.jpg,0,FF017.jpg,0,,,,,0,35,35,16,imgFunc,1,NA,0.8725141999311745,257.0897754000034,258.0587224101182,2023-08-02 14:50:59.067648,2023-08-02 14:51:00.027131,DD017.jpg,0,10652,70-89+,2023-08-02_14h47.00.636,Recall,2021.2.3,59.99959194378912,
,L_DD505.jpg,1,L_FF505.jpg,1,,,,,0,36,36,44,imgFunc,2,NA,2.473146599950269,258.065322099952,260.61926221009344,2023-08-02 14:51:00.043049,2023-08-02 14:51:02.596501,L_DD505.jpg,1,10652,70-89+,2023-08-02_14h47.00.636,Recall,2021.2.3,59.99959194378912,
,SD030.jpg,0,MF030.jpg,0,,,,,0,37,37,79,imgFunc,1,NA,1.7060759998857975,260.6244812000077,262.42762870993465,2023-08-02 14:51:02.603484,2023-08-02 14:51:04.397756,SD030.jpg,0,10652,70-89+,2023-08-02_14h47.00.636,Recall,2021.2.3,59.99959194378912,
,L_DD510.jpg,1,L_FF510.jpg,1,,,,,0,38,38,49,imgFunc,2,NA,1.6199217000976205,262.42287869984284,264.1258072096389,2023-08-02 14:51:04.404740,2023-08-02 14:51:06.099209,L_DD510.jpg,1,10652,70-89+,2023-08-02_14h47.00.636,Recall,2021.2.3,59.99959194378912,
,DD009.jpg,0,FF009.jpg,0,,,,,0,39,39,8,imgFunc,1,NA,0.6902817999944091,264.128367099911,264.9132892100606,2023-08-02 14:51:06.106191,2023-08-02 14:51:06.883027,DD009.jpg,0,10652,70-89+,2023-08-02_14h47.00.636,Recall,2021.2.3,59.99959194378912,
,DD029.jpg,0,FF029.jpg,0,,,,,0,40,40,28,imgFunc,1,NA,0.8710519000887871,264.9155397999566,265.8840041097719,2023-08-02 14:51:06.890032,2023-08-02 14:51:07.850083,DD029.jpg,0,10652,70-89+,2023-08-02_14h47.00.636,Recall,2021.2.3,59.99959194378912,
,SD005.jpg,0,MF005.jpg,0,,,,,0,41,41,54,imgFunc,1,NA,1.071074299979955,265.87530519999564,267.0277809095569,2023-08-02 14:51:07.857089,2023-08-02 14:51:09.001309,SD005.jpg,0,10652,70-89+,2023-08-02_14h47.00.636,Recall,2021.2.3,59.99959194378912,
,L_SD509.jpg,1,L_MF509.jpg,1,,,,,0,42,42,98,imgFunc,1,NA,1.2249435000121593,267.02555909985676,268.3444274100475,2023-08-02 14:51:09.008293,2023-08-02 14:51:10.318627,L_SD509.jpg,1,10652,70-89+,2023-08-02_14h47.00.636,Recall,2021.2.3,59.99959194378912,
,DD039.jpg,0,FF039.jpg,0,,,,,0,43,43,38,imgFunc,1,NA,0.9388851001858711,268.343427099986,269.362218210008,2023-08-02 14:51:10.326607,2023-08-02 14:51:11.336790,DD039.jpg,0,10652,70-89+,2023-08-02_14h47.00.636,Recall,2021.2.3,59.99959194378912,
,DD031.jpg,0,FF031.jpg,0,,,,,0,44,44,30,imgFunc,2,NA,1.0822833001147956,269.368229100015,270.53631830983795,2023-08-02 14:51:11.343797,2023-08-02 14:51:12.503175,DD031.jpg,0,10652,70-89+,2023-08-02_14h47.00.636,Recall,2021.2.3,59.99959194378912,
,SD027.jpg,0,MF027.jpg,0,,,,,0,45,45,76,imgFunc,2,NA,2.9354890999384224,270.53900899994187,273.5635915095918,2023-08-02 14:51:12.517173,2023-08-02 14:51:15.539111,SD027.jpg,0,10652,70-89+,2023-08-02_14h47.00.636,Recall,2021.2.3,59.99959194378912,
,SD010.jpg,0,MF010.jpg,0,,,,,0,46,46,59,imgFunc,1,NA,1.079137799795717,273.5633459999226,274.7327604100574,2023-08-02 14:51:15.546094,2023-08-02 14:51:16.706680,SD010.jpg,0,10652,70-89+,2023-08-02_14h47.00.636,Recall,2021.2.3,59.99959194378912,
,DD010.jpg,0,FF010.jpg,0,,,,,0,47,47,9,imgFunc,1,NA,1.2297245999798179,274.7329102999065,276.0516213099472,2023-08-02 14:51:16.714683,2023-08-02 14:51:18.024351,DD010.jpg,0,10652,70-89+,2023-08-02_14h47.00.636,Recall,2021.2.3,59.99959194378912,
,DD019.jpg,0,FF019.jpg,0,,,,,0,48,48,18,imgFunc,1,NA,0.8034356001298875,276.05519760004245,276.9573988097254,2023-08-02 14:51:18.031334,2023-08-02 14:51:18.924704,DD019.jpg,0,10652,70-89+,2023-08-02_14h47.00.636,Recall,2021.2.3,59.99959194378912,
,L_SD505.jpg,1,L_MF505.jpg,1,,,,,0,49,49,94,imgFunc,2,NA,1.6262111999094486,276.9522972998675,278.67157980962656,2023-08-02 14:51:18.931710,2023-08-02 14:51:20.642740,L_SD505.jpg,1,10652,70-89+,2023-08-02_14h47.00.636,Recall,2021.2.3,59.99959194378912,
,DD026.jpg,0,FF026.jpg,0,,,,,0,50,50,25,imgFunc,1,NA,0.8687576001975685,278.6777250999585,279.6327603100799,2023-08-02 14:51:20.656704,2023-08-02 14:51:21.610059,DD026.jpg,0,10652,70-89+,2023-08-02_14h47.00.636,Recall,2021.2.3,59.99959194378912,
,DD035.jpg,0,FF035.jpg,0,,,,,0,51,51,34,imgFunc,1,NA,1.0613632001914084,279.63719079992734,280.78962350985967,2023-08-02 14:51:21.617043,2023-08-02 14:51:22.760922,DD035.jpg,0,10652,70-89+,2023-08-02_14h47.00.636,Recall,2021.2.3,59.99959194378912,
,SD022.jpg,0,MF022.jpg,0,,,,,0,52,52,71,imgFunc,1,NA,1.2236951999366283,280.78682619985193,282.1059451098554,2023-08-02 14:51:22.767905,2023-08-02 14:51:24.078564,SD022.jpg,0,10652,70-89+,2023-08-02_14h47.00.636,Recall,2021.2.3,59.99959194378912,
,DD027.jpg,0,FF027.jpg,0,,,,,0,53,53,26,imgFunc,1,NA,0.7709842000622302,282.1035031999927,282.9555841097608,2023-08-02 14:51:24.085547,2023-08-02 14:51:24.929258,DD027.jpg,0,10652,70-89+,2023-08-02_14h47.00.636,Recall,2021.2.3,59.99959194378912,
,SD018.jpg,0,MF018.jpg,0,,,,,0,54,54,67,imgFunc,2,NA,1.5675401999615133,282.9548524999991,284.6077921099495,2023-08-02 14:51:24.936241,2023-08-02 14:51:26.580566,SD018.jpg,0,10652,70-89+,2023-08-02_14h47.00.636,Recall,2021.2.3,59.99959194378912,
,SD031.jpg,0,MF031.jpg,0,,,,,0,55,55,80,imgFunc,1,NA,0.6666089000646025,284.61565379984677,285.3688064101152,2023-08-02 14:51:26.595527,2023-08-02 14:51:27.347367,SD031.jpg,0,10652,70-89+,2023-08-02_14h47.00.636,Recall,2021.2.3,59.99959194378912,
,SD039.jpg,0,MF039.jpg,0,,,,,0,56,56,88,imgFunc,1,NA,0.9260784999933094,285.37238539988175,286.3920118098613,2023-08-02 14:51:27.354364,2023-08-02 14:51:28.365542,SD039.jpg,0,10652,70-89+,2023-08-02_14h47.00.636,Recall,2021.2.3,59.99959194378912,
,SD002.jpg,0,MF002.jpg,0,,,,,0,57,57,51,imgFunc,1,NA,1.1891864000353962,286.38931520003825,287.6575338097755,2023-08-02 14:51:28.372525,2023-08-02 14:51:29.632658,SD002.jpg,0,10652,70-89+,2023-08-02_14h47.00.636,Recall,2021.2.3,59.99959194378912,
,SD009.jpg,0,MF009.jpg,0,,,,,0,58,58,58,imgFunc,1,NA,1.8772454999852926,287.661333899945,289.6308651098516,2023-08-02 14:51:29.639641,2023-08-02 14:51:31.600373,SD009.jpg,0,10652,70-89+,2023-08-02_14h47.00.636,Recall,2021.2.3,59.99959194378912,
,SD026.jpg,0,MF026.jpg,0,,,,,0,59,59,75,imgFunc,2,NA,1.0645516000222415,289.6260377999861,290.7786022101063,2023-08-02 14:51:31.607378,2023-08-02 14:51:32.751525,SD026.jpg,0,10652,70-89+,2023-08-02_14h47.00.636,Recall,2021.2.3,59.99959194378912,
,DD040.jpg,0,FF040.jpg,0,,,,,0,60,60,39,imgFunc,1,NA,0.7385477998759598,290.7758937999606,291.5947461100295,2023-08-02 14:51:32.758508,2023-08-02 14:51:33.568819,DD040.jpg,0,10652,70-89+,2023-08-02_14h47.00.636,Recall,2021.2.3,59.99959194378912,
,L_DD508.jpg,1,L_FF508.jpg,1,,,,,0,61,61,47,imgFunc,1,NA,0.9208547999151051,291.5935615999624,292.5959498099983,2023-08-02 14:51:33.575802,2023-08-02 14:51:34.569581,L_DD508.jpg,1,10652,70-89+,2023-08-02_14h47.00.636,Recall,2021.2.3,59.99959194378912,
,SD040.jpg,0,MF040.jpg,0,,,,,0,62,62,89,imgFunc,1,NA,1.8251763000153005,292.5931799998507,294.51273110951297,2023-08-02 14:51:34.576564,2023-08-02 14:51:36.487435,SD040.jpg,0,10652,70-89+,2023-08-02_14h47.00.636,Recall,2021.2.3,59.99959194378912,
,L_SD502.jpg,1,L_MF502.jpg,1,,,,,0,63,63,91,imgFunc,2,NA,1.2669246001169086,294.5116174998693,295.8641012099106,2023-08-02 14:51:36.494418,2023-08-02 14:51:37.838320,L_SD502.jpg,1,10652,70-89+,2023-08-02_14h47.00.636,Recall,2021.2.3,59.99959194378912,
,DD032.jpg,0,FF032.jpg,0,,,,,0,64,64,31,imgFunc,1,NA,1.0183936001267284,295.8721731000114,296.98028550995514,2023-08-02 14:51:37.851052,2023-08-02 14:51:38.955851,DD032.jpg,0,10652,70-89+,2023-08-02_14h47.00.636,Recall,2021.2.3,59.99959194378912,
,L_SD501.jpg,1,L_MF501.jpg,1,,,,,0,65,65,90,imgFunc,1,NA,1.7884825998917222,296.98183649987914,298.8516935100779,2023-08-02 14:51:38.962834,2023-08-02 14:51:40.824075,L_SD501.jpg,1,10652,70-89+,2023-08-02_14h47.00.636,Recall,2021.2.3,59.99959194378912,
,DD036.jpg,0,FF036.jpg,0,,,,,0,66,66,35,imgFunc,1,NA,0.9472490001935512,298.8552985000424,299.89135681046173,2023-08-02 14:51:40.831058,2023-08-02 14:51:41.858197,DD036.jpg,0,10652,70-89+,2023-08-02_14h47.00.636,Recall,2021.2.3,59.99959194378912,
,SD037.jpg,0,MF037.jpg,0,,,,,0,67,67,86,imgFunc,1,NA,0.9019943999592215,299.88450649986044,300.8703607097268,2023-08-02 14:51:41.865180,2023-08-02 14:51:42.842325,SD037.jpg,0,10652,70-89+,2023-08-02_14h47.00.636,Recall,2021.2.3,59.99959194378912,
,SD038.jpg,0,MF038.jpg,0,,,,,0,68,68,87,imgFunc,1,NA,1.1287914998829365,300.8657998999115,302.08484380994923,2023-08-02 14:51:42.849308,2023-08-02 14:51:44.059643,SD038.jpg,0,10652,70-89+,2023-08-02_14h47.00.636,Recall,2021.2.3,59.99959194378912,
,DD038.jpg,0,FF038.jpg,0,,,,,0,69,69,37,imgFunc,1,NA,0.780511099845171,302.0937041998841,302.96500150999054,2023-08-02 14:51:44.073607,2023-08-02 14:51:44.943394,DD038.jpg,0,10652,70-89+,2023-08-02_14h47.00.636,Recall,2021.2.3,59.99959194378912,
,SD008.jpg,0,MF008.jpg,0,,,,,0,70,70,57,imgFunc,2,NA,1.6749404999427497,302.9672876999248,304.7367989101913,2023-08-02 14:51:44.950377,2023-08-02 14:51:46.711424,SD008.jpg,0,10652,70-89+,2023-08-02_14h47.00.636,Recall,2021.2.3,59.99959194378912,
,DD015.jpg,0,FF015.jpg,0,,,,,0,71,71,14,imgFunc,2,NA,1.5559373998548836,304.7344189998694,306.37037070980296,2023-08-02 14:51:46.718407,2023-08-02 14:51:48.346048,DD015.jpg,0,10652,70-89+,2023-08-02_14h47.00.636,Recall,2021.2.3,59.99959194378912,
,L_DD504.jpg,1,L_FF504.jpg,1,,,,,0,72,72,43,imgFunc,1,NA,1.003918900154531,306.3745696998667,307.47683120984584,2023-08-02 14:51:48.353031,2023-08-02 14:51:49.446745,L_DD504.jpg,1,10652,70-89+,2023-08-02_14h47.00.636,Recall,2021.2.3,59.99959194378912,
,SD011.jpg,0,MF011.jpg,0,,,,,0,73,73,60,imgFunc,1,NA,0.5554179002065212,307.47098969994113,308.10644010989927,2023-08-02 14:51:49.453729,2023-08-02 14:51:50.080631,SD011.jpg,0,10652,70-89+,2023-08-02_14h47.00.636,Recall,2021.2.3,59.99959194378912,
,SD006.jpg,0,MF006.jpg,0,,,,,0,74,74,55,imgFunc,1,NA,1.3977973000146449,308.1167537998408,309.6051790099591,2023-08-02 14:51:50.094595,2023-08-02 14:51:51.581587,SD006.jpg,0,10652,70-89+,2023-08-02_14h47.00.636,Recall,2021.2.3,59.99959194378912,
,L_SD510.jpg,1,L_MF510.jpg,1,,,,,0,75,75,99,imgFunc,2,NA,1.3883418999612331,309.60598349990323,311.07543490990065,2023-08-02 14:51:51.588570,2023-08-02 14:51:53.049421,L_SD510.jpg,1,10652,70-89+,2023-08-02_14h47.00.636,Recall,2021.2.3,59.99959194378912,
,DD002.jpg,0,FF002.jpg,0,,,,,0,76,76,1,imgFunc,1,NA,0.7687985000666231,311.0735275999177,311.9255256098695,2023-08-02 14:51:53.056404,2023-08-02 14:51:53.899982,DD002.jpg,0,10652,70-89+,2023-08-02_14h47.00.636,Recall,2021.2.3,59.99959194378912,
,DD005.jpg,0,FF005.jpg,0,,,,,0,77,77,4,imgFunc,2,NA,1.4359916998073459,311.9264797999058,313.44604961015284,2023-08-02 14:51:53.906965,2023-08-02 14:51:55.417856,DD005.jpg,0,10652,70-89+,2023-08-02_14h47.00.636,Recall,2021.2.3,59.99959194378912,
,L_DD507.jpg,1,L_FF507.jpg,1,,,,,0,78,78,46,imgFunc,1,NA,0.7050272999331355,313.4491191999987,314.2510665100999,2023-08-02 14:51:55.424839,2023-08-02 14:51:56.218066,L_DD507.jpg,1,10652,70-89+,2023-08-02_14h47.00.636,Recall,2021.2.3,59.99959194378912,
,SD004.jpg,0,MF004.jpg,0,,,,,0,79,79,53,imgFunc,2,NA,1.7870777000207454,314.2470757998526,316.1325928098522,2023-08-02 14:51:56.225048,2023-08-02 14:51:58.102570,SD004.jpg,0,10652,70-89+,2023-08-02_14h47.00.636,Recall,2021.2.3,59.99959194378912,
,DD014.jpg,0,FF014.jpg,0,,,,,0,80,80,13,imgFunc,1,NA,1.0260562999173999,316.12844839994796,317.24747920944355,2023-08-02 14:51:58.109551,2023-08-02 14:51:59.220401,DD014.jpg,0,10652,70-89+,2023-08-02_14h47.00.636,Recall,2021.2.3,59.99959194378912,
,SD033.jpg,0,MF033.jpg,0,,,,,0,81,81,82,imgFunc,1,NA,0.9944658000022173,317.2480856999755,318.33224751008675,2023-08-02 14:51:59.228381,2023-08-02 14:52:00.304761,SD033.jpg,0,10652,70-89+,2023-08-02_14h47.00.636,Recall,2021.2.3,59.99959194378912,
,SD035.jpg,0,MF035.jpg,0,,,,,0,82,82,84,imgFunc,1,NA,0.8138861001934856,318.3326753999572,319.2348684100434,2023-08-02 14:52:00.311743,2023-08-02 14:52:01.205003,SD035.jpg,0,10652,70-89+,2023-08-02_14h47.00.636,Recall,2021.2.3,59.99959194378912,
,SD013.jpg,0,MF013.jpg,0,,,,,0,83,83,62,imgFunc,1,NA,2.347712100017816,319.23873949982226,321.66372920991853,2023-08-02 14:52:01.218003,2023-08-02 14:52:03.640385,SD013.jpg,0,10652,70-89+,2023-08-02_14h47.00.636,Recall,2021.2.3,59.99959194378912,
,DD024.jpg,0,FF024.jpg,0,,,,,0,84,84,23,imgFunc,1,NA,0.6752673999872059,321.66301300004125,322.43172430992126,2023-08-02 14:52:03.647368,2023-08-02 14:52:04.407453,DD024.jpg,0,10652,70-89+,2023-08-02_14h47.00.636,Recall,2021.2.3,59.99959194378912,
,SD016.jpg,0,MF016.jpg,0,,,,,0,85,85,65,imgFunc,1,NA,1.2442051998805255,322.43035149993375,323.76622181013227,2023-08-02 14:52:04.414437,2023-08-02 14:52:05.741740,SD016.jpg,0,10652,70-89+,2023-08-02_14h47.00.636,Recall,2021.2.3,59.99959194378912,
,SD001.jpg,0,MF001.jpg,0,,,,,0,86,86,50,imgFunc,1,NA,0.7961123001296073,323.76646539987996,324.6519639098551,2023-08-02 14:52:05.748724,2023-08-02 14:52:06.625483,SD001.jpg,0,10652,70-89+,2023-08-02_14h47.00.636,Recall,2021.2.3,59.99959194378912,
,SD025.jpg,0,MF025.jpg,0,,,,,0,87,87,74,imgFunc,1,NA,0.9504245000425726,324.65206109988503,325.687903809594,2023-08-02 14:52:06.632488,2023-08-02 14:52:07.659898,SD025.jpg,0,10652,70-89+,2023-08-02_14h47.00.636,Recall,2021.2.3,59.99959194378912,
,DD007.jpg,0,FF007.jpg,0,,,,,0,88,88,6,imgFunc,1,NA,0.9344989000819623,325.69975649984553,326.7212931094691,2023-08-02 14:52:07.673863,2023-08-02 14:52:08.693383,DD007.jpg,0,10652,70-89+,2023-08-02_14h47.00.636,Recall,2021.2.3,59.99959194378912,
,DD037.jpg,0,FF037.jpg,0,,,,,0,89,89,36,imgFunc,1,NA,1.6679123998619616,326.7266420999076,328.49395090993494,2023-08-02 14:52:08.702358,2023-08-02 14:52:10.461902,DD037.jpg,0,10652,70-89+,2023-08-02_14h47.00.636,Recall,2021.2.3,59.99959194378912,
,DD016.jpg,0,FF016.jpg,0,,,,,0,90,90,15,imgFunc,1,NA,1.1341758000198752,328.49221499986015,329.72798950993456,2023-08-02 14:52:10.468885,2023-08-02 14:52:11.695992,DD016.jpg,0,10652,70-89+,2023-08-02_14h47.00.636,Recall,2021.2.3,59.99959194378912,
,DD003.jpg,0,FF003.jpg,0,,,,,0,91,91,2,imgFunc,1,NA,0.954619999974966,329.7197708999738,330.75564530980773,2023-08-02 14:52:11.702975,2023-08-02 14:52:12.730209,DD003.jpg,0,10652,70-89+,2023-08-02_14h47.00.636,Recall,2021.2.3,59.99959194378912,
,L_DD509.jpg,1,L_FF509.jpg,1,,,,,0,92,92,48,imgFunc,1,NA,1.0862767999060452,330.7560632999521,331.9252111099195,2023-08-02 14:52:12.737192,2023-08-02 14:52:13.897698,L_DD509.jpg,1,10652,70-89+,2023-08-02_14h47.00.636,Recall,2021.2.3,59.99959194378912,
,SD015.jpg,0,MF015.jpg,0,,,,,0,93,93,64,imgFunc,1,NA,0.8383549000136554,331.9320938999299,332.85375760984607,2023-08-02 14:52:13.911663,2023-08-02 14:52:14.831593,SD015.jpg,0,10652,70-89+,2023-08-02_14h47.00.636,Recall,2021.2.3,59.99959194378912,
,DD012.jpg,0,FF012.jpg,0,,,,,0,94,94,11,imgFunc,1,NA,0.9393329999875277,332.8550863999408,333.87417010986246,2023-08-02 14:52:14.838576,2023-08-02 14:52:15.849093,DD012.jpg,0,10652,70-89+,2023-08-02_14h47.00.636,Recall,2021.2.3,59.99959194378912,
,SD023.jpg,0,MF023.jpg,0,,,,,0,95,95,72,imgFunc,1,NA,1.8027609998825938,333.8718573998194,335.7578922098037,2023-08-02 14:52:15.856076,2023-08-02 14:52:17.733425,SD023.jpg,0,10652,70-89+,2023-08-02_14h47.00.636,Recall,2021.2.3,59.99959194378912,
,DD033.jpg,0,FF033.jpg,0,,,,,0,96,96,32,imgFunc,1,NA,1.1178412998560816,335.75673189992085,336.9596205095295,2023-08-02 14:52:17.740408,2023-08-02 14:52:18.934167,DD033.jpg,0,10652,70-89+,2023-08-02_14h47.00.636,Recall,2021.2.3,59.99959194378912,
,DD001.jpg,0,FF001.jpg,0,,,,,0,97,97,0,imgFunc,1,NA,1.1333589998539537,336.96494530001655,338.1844647100661,2023-08-02 14:52:18.942149,2023-08-02 14:52:20.152378,DD001.jpg,0,10652,70-89+,2023-08-02_14h47.00.636,Recall,2021.2.3,59.99959194378912,
,DD021.jpg,0,FF021.jpg,0,,,,,0,98,98,20,imgFunc,1,NA,1.127646999899298,338.1788887998555,339.3981867097318,2023-08-02 14:52:20.159361,2023-08-02 14:52:21.369725,DD021.jpg,0,10652,70-89+,2023-08-02_14h47.00.636,Recall,2021.2.3,59.99959194378912,
,DD022.jpg,0,FF022.jpg,0,,,,,0,99,99,21,imgFunc,1,NA,1.113723099930212,339.3927290998399,340.59535160986707,2023-08-02 14:52:21.376708,2023-08-02 14:52:22.570473,DD022.jpg,0,10652,70-89+,2023-08-02_14h47.00.636,Recall,2021.2.3,59.99959194378912,
,,,,,,,,,,,,,instrFunc,space,"Great work! 

 Now you will switch to the other image type.

 Press the spacebar whenever you are ready to start.",4.828318199841306,340.53386790002696,345.4007851101924,2023-08-02 14:52:22.571473,2023-08-02 14:52:27.422725,,,10652,70-89+,2023-08-02_14h47.00.636,Recall,2021.2.3,59.99959194378912,
,DD015.jpg,0,FF015.jpg,0,,,,,0,0,0,14,imgFunc,1,NA,3.684222799958661,345.47828729986213,349.256390620023,2023-08-02 14:52:27.451648,2023-08-02 14:52:31.226646,FF015.jpg,0,10652,70-89+,2023-08-02_14h47.00.636,Recall,2021.2.3,59.99959194378912,
,L_SD508.jpg,1,L_MF508.jpg,1,,,,,0,1,1,97,imgFunc,1,NA,0.7449524998664856,349.2573474999517,350.0920515100006,2023-08-02 14:52:31.234564,2023-08-02 14:52:32.060724,L_MF508.jpg,1,10652,70-89+,2023-08-02_14h47.00.636,Recall,2021.2.3,59.99959194378912,
,L_DD510.jpg,1,L_FF510.jpg,1,,,,,0,2,2,49,imgFunc,1,NA,1.5754745001904666,350.090960299829,351.76038430980407,2023-08-02 14:52:32.067707,2023-08-02 14:52:33.728663,L_FF510.jpg,1,10652,70-89+,2023-08-02_14h47.00.636,Recall,2021.2.3,59.99959194378912,
,SD029.jpg,0,MF029.jpg,0,,,,,0,3,3,78,imgFunc,1,NA,0.6627227999269962,351.7637471000198,352.52349131018855,2023-08-02 14:52:33.740633,2023-08-02 14:52:34.495690,MF029.jpg,0,10652,70-89+,2023-08-02_14h47.00.636,Recall,2021.2.3,59.99959194378912,
,DD037.jpg,0,FF037.jpg,0,,,,,0,4,4,36,imgFunc,1,NA,0.7634449999313802,352.5269227998797,353.37534650973976,2023-08-02 14:52:34.504668,2023-08-02 14:52:35.346410,FF037.jpg,0,10652,70-89+,2023-08-02_14h47.00.636,Recall,2021.2.3,59.99959194378912,
,SD012.jpg,0,MF012.jpg,0,,,,,0,5,5,61,imgFunc,1,NA,0.7790147999767214,353.37539209984243,354.24428940960206,2023-08-02 14:52:35.353393,2023-08-02 14:52:36.213370,MF012.jpg,0,10652,70-89+,2023-08-02_14h47.00.636,Recall,2021.2.3,59.99959194378912,
,DD005.jpg,0,FF005.jpg,0,,,,,0,6,6,4,imgFunc,1,NA,0.7900081998668611,354.24425119999796,355.13001140998676,2023-08-02 14:52:36.220353,2023-08-02 14:52:37.097528,FF005.jpg,0,10652,70-89+,2023-08-02_14h47.00.636,Recall,2021.2.3,59.99959194378912,
,DD006.jpg,0,FF006.jpg,0,,,,,0,7,7,5,imgFunc,1,NA,0.9223821999039501,355.1359198000282,356.1550456099212,2023-08-02 14:52:37.104511,2023-08-02 14:52:38.115001,FF006.jpg,0,10652,70-89+,2023-08-02_14h47.00.636,Recall,2021.2.3,59.99959194378912,
,L_DD505.jpg,1,L_FF505.jpg,1,,,,,0,8,8,44,imgFunc,1,NA,1.1435173000209033,356.1469286000356,357.3826449098997,2023-08-02 14:52:38.122819,2023-08-02 14:52:39.349376,L_FF505.jpg,1,10652,70-89+,2023-08-02_14h47.00.636,Recall,2021.2.3,59.99959194378912,
,SD028.jpg,0,MF028.jpg,0,,,,,0,9,9,77,imgFunc,1,NA,0.7366148999426514,357.3777254000306,358.21333091007546,2023-08-02 14:52:39.356359,2023-08-02 14:52:40.182975,MF028.jpg,0,10652,70-89+,2023-08-02_14h47.00.636,Recall,2021.2.3,59.99959194378912,
,SD031.jpg,0,MF031.jpg,0,,,,,0,10,10,80,imgFunc,1,NA,0.7574537999462336,358.2130874998402,359.06510730995797,2023-08-02 14:52:40.190803,2023-08-02 14:52:41.033691,MF031.jpg,0,10652,70-89+,2023-08-02_14h47.00.636,Recall,2021.2.3,59.99959194378912,
,DD021.jpg,0,FF021.jpg,0,,,,,0,11,11,20,imgFunc,1,NA,0.7395415999926627,359.0629363998305,359.89858330995776,2023-08-02 14:52:41.040674,2023-08-02 14:52:41.867754,FF021.jpg,0,10652,70-89+,2023-08-02_14h47.00.636,Recall,2021.2.3,59.99959194378912,
,SD036.jpg,0,MF036.jpg,0,,,,,0,12,12,85,imgFunc,1,NA,0.8075317998882383,359.9069550000131,360.7971295097377,2023-08-02 14:52:41.880721,2023-08-02 14:52:42.768233,MF036.jpg,0,10652,70-89+,2023-08-02_14h47.00.636,Recall,2021.2.3,59.99959194378912,
,SD003.jpg,0,MF003.jpg,0,,,,,0,13,13,52,imgFunc,1,NA,0.9178693001158535,360.79658379987814,361.7989504097495,2023-08-02 14:52:42.775238,2023-08-02 14:52:43.769180,MF003.jpg,0,10652,70-89+,2023-08-02_14h47.00.636,Recall,2021.2.3,59.99959194378912,
,L_SD507.jpg,1,L_MF507.jpg,1,,,,,0,14,14,96,imgFunc,2,NA,2.1958141999784857,361.79850379982963,364.08509020972997,2023-08-02 14:52:43.776163,2023-08-02 14:52:46.053832,L_MF507.jpg,1,10652,70-89+,2023-08-02_14h47.00.636,Recall,2021.2.3,59.99959194378912,
,DD016.jpg,0,FF016.jpg,0,,,,,0,15,15,15,imgFunc,1,NA,0.654637899948284,364.083870299859,364.8363630096428,2023-08-02 14:52:46.060815,2023-08-02 14:52:46.804586,FF016.jpg,0,10652,70-89+,2023-08-02_14h47.00.636,Recall,2021.2.3,59.99959194378912,
,L_DD501.jpg,1,L_FF501.jpg,1,,,,,0,16,16,40,imgFunc,1,NA,1.9833678000140935,364.83492910000496,366.90493940981105,2023-08-02 14:52:46.811569,2023-08-02 14:52:48.872716,L_FF501.jpg,1,10652,70-89+,2023-08-02_14h47.00.636,Recall,2021.2.3,59.99959194378912,
,L_DD509.jpg,1,L_FF509.jpg,1,,,,,0,17,17,48,imgFunc,1,NA,0.9205044999253005,366.91377079999074,367.9184379100334,2023-08-02 14:52:48.886680,2023-08-02 14:52:49.890189,L_FF509.jpg,1,10652,70-89+,2023-08-02_14h47.00.636,Recall,2021.2.3,59.99959194378912,
,DD029.jpg,0,FF029.jpg,0,,,,,0,18,18,28,imgFunc,1,NA,2.3553234001155943,367.91917839995585,370.37265840987675,2023-08-02 14:52:49.897172,2023-08-02 14:52:52.341914,FF029.jpg,0,10652,70-89+,2023-08-02_14h47.00.636,Recall,2021.2.3,59.99959194378912,
,DD004.jpg,0,FF004.jpg,0,,,,,0,19,19,3,imgFunc,1,NA,1.0544203000608832,370.3720740999561,371.52469791006297,2023-08-02 14:52:52.348897,2023-08-02 14:52:53.492650,FF004.jpg,0,10652,70-89+,2023-08-02_14h47.00.636,Recall,2021.2.3,59.99959194378912,
,L_SD509.jpg,1,L_MF509.jpg,1,,,,,0,20,20,98,imgFunc,1,NA,0.7835311000235379,371.52297629998066,372.40968800964765,2023-08-02 14:52:53.499633,2023-08-02 14:52:54.377380,L_MF509.jpg,1,10652,70-89+,2023-08-02_14h47.00.636,Recall,2021.2.3,59.99959194378912,
,DD032.jpg,0,FF032.jpg,0,,,,,0,21,21,31,imgFunc,1,NA,1.3143064000178128,372.4161868998781,373.8346007100772,2023-08-02 14:52:54.384394,2023-08-02 14:52:55.794250,FF032.jpg,0,10652,70-89+,2023-08-02_14h47.00.636,Recall,2021.2.3,59.99959194378912,
,DD017.jpg,0,FF017.jpg,0,,,,,0,22,22,16,imgFunc,1,NA,1.259047499857843,373.8230516000185,375.17561591020785,2023-08-02 14:52:55.801233,2023-08-02 14:52:57.144389,FF017.jpg,0,10652,70-89+,2023-08-02_14h47.00.636,Recall,2021.2.3,59.99959194378912,
,SD014.jpg,0,MF014.jpg,0,,,,,0,23,23,63,imgFunc,1,NA,0.9177739000879228,375.180354999844,376.19912980962545,2023-08-02 14:52:57.152367,2023-08-02 14:52:58.161777,MF014.jpg,0,10652,70-89+,2023-08-02_14h47.00.636,Recall,2021.2.3,59.99959194378912,
,DD024.jpg,0,FF024.jpg,0,,,,,0,24,24,23,imgFunc,1,NA,0.6889628998469561,376.193554099882,376.97914680978283,2023-08-02 14:52:58.169755,2023-08-02 14:52:58.946523,FF024.jpg,0,10652,70-89+,2023-08-02_14h47.00.636,Recall,2021.2.3,59.99959194378912,
,SD017.jpg,0,MF017.jpg,0,,,,,0,25,25,66,imgFunc,1,NA,0.840499100042507,376.9778731998522,377.91353200981393,2023-08-02 14:52:58.953506,2023-08-02 14:52:59.880550,MF017.jpg,0,10652,70-89+,2023-08-02_14h47.00.636,Recall,2021.2.3,59.99959194378912,
,DD018.jpg,0,FF018.jpg,0,,,,,0,26,26,17,imgFunc,1,NA,0.8581809001043439,377.91993209999055,378.87577450973913,2023-08-02 14:52:59.894515,2023-08-02 14:53:00.847899,FF018.jpg,0,10652,70-89+,2023-08-02_14h47.00.636,Recall,2021.2.3,59.99959194378912,
,SD006.jpg,0,MF006.jpg,0,,,,,0,27,27,55,imgFunc,1,NA,0.9252325999550521,378.87727399985306,379.89651060989127,2023-08-02 14:53:00.854882,2023-08-02 14:53:01.865231,MF006.jpg,0,10652,70-89+,2023-08-02_14h47.00.636,Recall,2021.2.3,59.99959194378912,
,SD026.jpg,0,MF026.jpg,0,,,,,0,28,28,75,imgFunc,1,NA,0.8847342000808567,379.8935689998325,380.86285680974834,2023-08-02 14:53:01.872215,2023-08-02 14:53:02.832766,MF026.jpg,0,10652,70-89+,2023-08-02_14h47.00.636,Recall,2021.2.3,59.99959194378912,
,L_SD505.jpg,1,L_MF505.jpg,1,,,,,0,29,29,94,imgFunc,1,NA,0.6934781998861581,380.8610255999956,381.6468111097347,2023-08-02 14:53:02.839749,2023-08-02 14:53:03.616618,L_MF505.jpg,1,10652,70-89+,2023-08-02_14h47.00.636,Recall,2021.2.3,59.99959194378912,
,DD009.jpg,0,FF009.jpg,0,,,,,0,30,30,8,imgFunc,1,NA,1.0532374000176787,381.64511089981534,382.79744070977904,2023-08-02 14:53:03.623546,2023-08-02 14:53:04.767391,FF009.jpg,0,10652,70-89+,2023-08-02_14h47.00.636,Recall,2021.2.3,59.99959194378912,
,L_DD507.jpg,1,L_FF507.jpg,1,,,,,0,31,31,46,imgFunc,2,NA,1.2057624000590295,382.8125089998357,384.11713990941644,2023-08-02 14:53:04.782353,2023-08-02 14:53:06.084985,L_FF507.jpg,1,10652,70-89+,2023-08-02_14h47.00.636,Recall,2021.2.3,59.99959194378912,
,SD032.jpg,0,MF032.jpg,0,,,,,0,32,32,81,imgFunc,1,NA,1.1763949000742286,384.13011829997413,385.4151609099936,2023-08-02 14:53:06.092966,2023-08-02 14:53:07.369131,MF032.jpg,0,10652,70-89+,2023-08-02_14h47.00.636,Recall,2021.2.3,59.99959194378912,
,DD013.jpg,0,FF013.jpg,0,,,,,0,33,33,12,imgFunc,1,NA,0.7394634000957012,385.39902879996225,386.23493630974554,2023-08-02 14:53:07.376114,2023-08-02 14:53:08.203153,FF013.jpg,0,10652,70-89+,2023-08-02_14h47.00.636,Recall,2021.2.3,59.99959194378912,
,DD019.jpg,0,FF019.jpg,0,,,,,0,34,34,18,imgFunc,1,NA,0.8245249998290092,386.2335025998764,387.15183011000045,2023-08-02 14:53:08.210956,2023-08-02 14:53:09.119604,FF019.jpg,0,10652,70-89+,2023-08-02_14h47.00.636,Recall,2021.2.3,59.99959194378912,
,DD040.jpg,0,FF040.jpg,0,,,,,0,35,35,39,imgFunc,1,NA,0.8456523998174816,387.1648309000302,388.11475411010906,2023-08-02 14:53:09.128549,2023-08-02 14:53:10.071076,FF040.jpg,0,10652,70-89+,2023-08-02_14h47.00.636,Recall,2021.2.3,59.99959194378912,
,DD003.jpg,0,FF003.jpg,0,,,,,0,36,36,2,imgFunc,1,NA,1.157975200098008,388.1005916998256,389.3529567096848,2023-08-02 14:53:10.078915,2023-08-02 14:53:11.322202,FF003.jpg,0,10652,70-89+,2023-08-02_14h47.00.636,Recall,2021.2.3,59.99959194378912,
,SD025.jpg,0,MF025.jpg,0,,,,,0,37,37,74,imgFunc,1,NA,1.042060700012371,389.35239359992556,390.48843040992506,2023-08-02 14:53:11.329185,2023-08-02 14:53:12.456352,MF025.jpg,0,10652,70-89+,2023-08-02_14h47.00.636,Recall,2021.2.3,59.99959194378912,
,SD011.jpg,0,MF011.jpg,0,,,,,0,38,38,60,imgFunc,1,NA,1.3054295000620186,390.4887824000325,391.89161830977537,2023-08-02 14:53:12.463335,2023-08-02 14:53:13.857308,MF011.jpg,0,10652,70-89+,2023-08-02_14h47.00.636,Recall,2021.2.3,59.99959194378912,
,SD010.jpg,0,MF010.jpg,0,,,,,0,39,39,59,imgFunc,1,NA,1.1682518001180142,391.890230699908,393.1593138098251,2023-08-02 14:53:13.864292,2023-08-02 14:53:15.124878,MF010.jpg,0,10652,70-89+,2023-08-02_14h47.00.636,Recall,2021.2.3,59.99959194378912,
,L_SD504.jpg,1,L_MF504.jpg,1,,,,,0,40,40,93,imgFunc,1,NA,0.6222411000635475,393.1641035999637,393.8702962100506,2023-08-02 14:53:15.138843,2023-08-02 14:53:15.842154,L_MF504.jpg,1,10652,70-89+,2023-08-02_14h47.00.636,Recall,2021.2.3,59.99959194378912,
,DD025.jpg,0,FF025.jpg,0,,,,,0,41,41,24,imgFunc,1,NA,1.0114142999518663,393.87112209992483,394.9736368097365,2023-08-02 14:53:15.849136,2023-08-02 14:53:16.942792,FF025.jpg,0,10652,70-89+,2023-08-02_14h47.00.636,Recall,2021.2.3,59.99959194378912,
,DD011.jpg,0,FF011.jpg,0,,,,,0,42,42,10,imgFunc,1,NA,0.8226418001577258,394.971874400042,395.89111551013775,2023-08-02 14:53:16.949775,2023-08-02 14:53:17.860096,FF011.jpg,0,10652,70-89+,2023-08-02_14h47.00.636,Recall,2021.2.3,59.99959194378912,
,DD035.jpg,0,FF035.jpg,0,,,,,0,43,43,34,imgFunc,1,NA,0.6813034999649972,395.8889677999541,396.6582956099883,2023-08-02 14:53:17.867079,2023-08-02 14:53:18.627482,FF035.jpg,0,10652,70-89+,2023-08-02_14h47.00.636,Recall,2021.2.3,59.99959194378912,
,SD023.jpg,0,MF023.jpg,0,,,,,0,44,44,72,imgFunc,1,NA,1.1467250999994576,396.6557084999513,397.8918796100188,2023-08-02 14:53:18.634465,2023-08-02 14:53:19.861777,MF023.jpg,0,10652,70-89+,2023-08-02_14h47.00.636,Recall,2021.2.3,59.99959194378912,
,L_SD501.jpg,1,L_MF501.jpg,1,,,,,0,45,45,90,imgFunc,1,NA,0.7276374001521617,397.9068711998407,398.72727750986814,2023-08-02 14:53:19.876739,2023-08-02 14:53:20.695432,L_MF501.jpg,1,10652,70-89+,2023-08-02_14h47.00.636,Recall,2021.2.3,59.99959194378912,
,SD024.jpg,0,MF024.jpg,0,,,,,0,46,46,73,imgFunc,1,NA,0.846047000028193,398.7243728998583,399.66039150976576,2023-08-02 14:53:20.702415,2023-08-02 14:53:21.629716,MF024.jpg,0,10652,70-89+,2023-08-02_14h47.00.636,Recall,2021.2.3,59.99959194378912,
,SD038.jpg,0,MF038.jpg,0,,,,,0,47,47,87,imgFunc,1,NA,0.7119384999386966,399.65859779994935,400.4606628101319,2023-08-02 14:53:21.636699,2023-08-02 14:53:22.429327,MF038.jpg,0,10652,70-89+,2023-08-02_14h47.00.636,Recall,2021.2.3,59.99959194378912,
,SD013.jpg,0,MF013.jpg,0,,,,,0,48,48,62,imgFunc,1,NA,1.0463165999390185,400.4602240000386,401.5955003099516,2023-08-02 14:53:22.437308,2023-08-02 14:53:23.564157,MF013.jpg,0,10652,70-89+,2023-08-02_14h47.00.636,Recall,2021.2.3,59.99959194378912,
,L_DD506.jpg,1,L_FF506.jpg,1,,,,,0,49,49,45,imgFunc,1,NA,1.23454949981533,401.5998245999217,402.9361447098199,2023-08-02 14:53:23.571140,2023-08-02 14:53:24.898557,L_FF506.jpg,1,10652,70-89+,2023-08-02_14h47.00.636,Recall,2021.2.3,59.99959194378912,
,DD036.jpg,0,FF036.jpg,0,,,,,0,50,50,35,imgFunc,1,NA,0.8993683001026511,402.92690610000864,403.912825509673,2023-08-02 14:53:24.905540,2023-08-02 14:53:25.882616,FF036.jpg,0,10652,70-89+,2023-08-02_14h47.00.636,Recall,2021.2.3,59.99959194378912,
,L_DD508.jpg,1,L_FF508.jpg,1,,,,,0,51,51,47,imgFunc,1,NA,1.1870459001511335,403.9111659999471,405.19680030993186,2023-08-02 14:53:25.889599,2023-08-02 14:53:27.166559,L_FF508.jpg,1,10652,70-89+,2023-08-02_14h47.00.636,Recall,2021.2.3,59.99959194378912,
,DD010.jpg,0,FF010.jpg,0,,,,,0,52,52,9,imgFunc,1,NA,1.0249183000996709,405.20138849993236,406.3199555100873,2023-08-02 14:53:27.173540,2023-08-02 14:53:28.284063,FF010.jpg,0,10652,70-89+,2023-08-02_14h47.00.636,Recall,2021.2.3,59.99959194378912,
,DD022.jpg,0,FF022.jpg,0,,,,,0,53,53,21,imgFunc,1,NA,0.9691391000524163,406.3213362998795,407.39063700963743,2023-08-02 14:53:28.291030,2023-08-02 14:53:29.351690,FF022.jpg,0,10652,70-89+,2023-08-02_14h47.00.636,Recall,2021.2.3,59.99959194378912,
,DD039.jpg,0,FF039.jpg,0,,,,,0,54,54,38,imgFunc,2,NA,1.0910320000257343,407.39118679985404,408.5823917100206,2023-08-02 14:53:29.364657,2023-08-02 14:53:30.552547,FF039.jpg,0,10652,70-89+,2023-08-02_14h47.00.636,Recall,2021.2.3,59.99959194378912,
,SD005.jpg,0,MF005.jpg,0,,,,,0,55,55,54,imgFunc,1,NA,1.0457603000104427,408.5806984999217,409.7167281098664,2023-08-02 14:53:30.559530,2023-08-02 14:53:31.686647,MF005.jpg,0,10652,70-89+,2023-08-02_14h47.00.636,Recall,2021.2.3,59.99959194378912,
,SD033.jpg,0,MF033.jpg,0,,,,,0,56,56,82,imgFunc,1,NA,0.8874250999651849,409.7147838999517,410.7008258101996,2023-08-02 14:53:31.693630,2023-08-02 14:53:32.670716,MF033.jpg,0,10652,70-89+,2023-08-02_14h47.00.636,Recall,2021.2.3,59.99959194378912,
,SD004.jpg,0,MF004.jpg,0,,,,,0,57,57,53,imgFunc,1,NA,0.7436635999474674,410.6988152998965,411.5343795097433,2023-08-02 14:53:32.677699,2023-08-02 14:53:33.504394,MF004.jpg,0,10652,70-89+,2023-08-02_14h47.00.636,Recall,2021.2.3,59.99959194378912,
,SD027.jpg,0,MF027.jpg,0,,,,,0,58,58,76,imgFunc,1,NA,0.6654158001765609,411.53688829997554,412.3056576100644,2023-08-02 14:53:33.511397,2023-08-02 14:53:34.271862,MF027.jpg,0,10652,70-89+,2023-08-02_14h47.00.636,Recall,2021.2.3,59.99959194378912,
,DD014.jpg,0,FF014.jpg,0,,,,,0,59,59,13,imgFunc,1,NA,0.7119797000195831,412.3145059000235,413.11912480997853,2023-08-02 14:53:34.285827,2023-08-02 14:53:35.089306,FF014.jpg,0,10652,70-89+,2023-08-02_14h47.00.636,Recall,2021.2.3,59.99959194378912,
,SD030.jpg,0,MF030.jpg,0,,,,,0,60,60,79,imgFunc,1,NA,1.1109879000578076,413.12325989990495,414.32601191010326,2023-08-02 14:53:35.096289,2023-08-02 14:53:36.290180,MF030.jpg,0,10652,70-89+,2023-08-02_14h47.00.636,Recall,2021.2.3,59.99959194378912,
,SD022.jpg,0,MF022.jpg,0,,,,,0,61,61,71,imgFunc,1,NA,0.8236190997995436,414.3307415000163,415.2662158096209,2023-08-02 14:53:36.297163,2023-08-02 14:53:37.223503,MF022.jpg,0,10652,70-89+,2023-08-02_14h47.00.636,Recall,2021.2.3,59.99959194378912,
,SD009.jpg,0,MF009.jpg,0,,,,,0,62,62,58,imgFunc,1,NA,0.956194199854508,415.25430729985237,416.306545909727,2023-08-02 14:53:37.231466,2023-08-02 14:53:38.274545,MF009.jpg,0,10652,70-89+,2023-08-02_14h47.00.636,Recall,2021.2.3,59.99959194378912,
,L_DD503.jpg,1,L_FF503.jpg,1,,,,,0,63,63,42,imgFunc,1,NA,1.7139340001158416,416.3046224999707,418.1074196100235,2023-08-02 14:53:38.281551,2023-08-02 14:53:40.076043,L_FF503.jpg,1,10652,70-89+,2023-08-02_14h47.00.636,Recall,2021.2.3,59.99959194378912,
,SD035.jpg,0,MF035.jpg,0,,,,,0,64,64,84,imgFunc,1,NA,0.61414929991588,418.11624969984405,418.82102970965207,2023-08-02 14:53:40.090007,2023-08-02 14:53:40.793122,MF035.jpg,0,10652,70-89+,2023-08-02_14h47.00.636,Recall,2021.2.3,59.99959194378912,
,DD026.jpg,0,FF026.jpg,0,,,,,0,65,65,25,imgFunc,1,NA,1.0484978999011219,418.82559040002525,419.9733361103572,2023-08-02 14:53:40.803057,2023-08-02 14:53:41.943094,FF026.jpg,0,10652,70-89+,2023-08-02_14h47.00.636,Recall,2021.2.3,59.99959194378912,
,L_SD502.jpg,1,L_MF502.jpg,1,,,,,0,66,66,91,imgFunc,2,NA,0.7682356999721378,419.978212099988,420.84727630997077,2023-08-02 14:53:41.951072,2023-08-02 14:53:42.811318,L_MF502.jpg,1,10652,70-89+,2023-08-02_14h47.00.636,Recall,2021.2.3,59.99959194378912,
,L_SD503.jpg,1,L_MF503.jpg,1,,,,,0,67,67,92,imgFunc,1,NA,0.8029849000740796,420.8393859998323,421.74244190985337,2023-08-02 14:53:42.818301,2023-08-02 14:53:43.712431,L_MF503.jpg,1,10652,70-89+,2023-08-02_14h47.00.636,Recall,2021.2.3,59.99959194378912,
,SD020.jpg,0,MF020.jpg,0,,,,,0,68,68,69,imgFunc,1,NA,0.8591013001278043,421.751357199857,422.72029010998085,2023-08-02 14:53:43.719414,2023-08-02 14:53:44.679458,MF020.jpg,0,10652,70-89+,2023-08-02_14h47.00.636,Recall,2021.2.3,59.99959194378912,
,L_DD502.jpg,1,L_FF502.jpg,1,,,,,0,69,69,41,imgFunc,2,NA,0.8222942999564111,422.70817229989916,423.62719010957517,2023-08-02 14:53:44.686441,2023-08-02 14:53:45.596691,L_FF502.jpg,1,10652,70-89+,2023-08-02_14h47.00.636,Recall,2021.2.3,59.99959194378912,
,DD028.jpg,0,FF028.jpg,0,,,,,0,70,70,27,imgFunc,1,NA,0.8416200000792742,423.6245698998682,424.560423709685,2023-08-02 14:53:45.603674,2023-08-02 14:53:46.530670,FF028.jpg,0,10652,70-89+,2023-08-02_14h47.00.636,Recall,2021.2.3,59.99959194378912,
,SD015.jpg,0,MF015.jpg,0,,,,,0,71,71,64,imgFunc,1,NA,1.627571600023657,424.5588611999992,426.27840440999717,2023-08-02 14:53:46.537404,2023-08-02 14:53:48.248548,MF015.jpg,0,10652,70-89+,2023-08-02_14h47.00.636,Recall,2021.2.3,59.99959194378912,
,L_DD504.jpg,1,L_FF504.jpg,1,,,,,0,72,72,43,imgFunc,2,NA,0.9132112998049706,426.2811624999158,427.28377220989205,2023-08-02 14:53:48.255531,2023-08-02 14:53:49.249527,L_FF504.jpg,1,10652,70-89+,2023-08-02_14h47.00.636,Recall,2021.2.3,59.99959194378912,
,SD034.jpg,0,MF034.jpg,0,,,,,0,73,73,83,imgFunc,1,NA,0.5596595001406968,427.29080739989877,427.9464803098235,2023-08-02 14:53:49.263492,2023-08-02 14:53:49.916581,MF034.jpg,0,10652,70-89+,2023-08-02_14h47.00.636,Recall,2021.2.3,59.99959194378912,
,DD023.jpg,0,FF023.jpg,0,,,,,0,74,74,22,imgFunc,1,NA,1.1849486001301557,427.9451651999261,429.23127920995466,2023-08-02 14:53:49.923564,2023-08-02 14:53:51.200566,FF023.jpg,0,10652,70-89+,2023-08-02_14h47.00.636,Recall,2021.2.3,59.99959194378912,
,L_SD510.jpg,1,L_MF510.jpg,1,,,,,0,75,75,99,imgFunc,2,NA,1.0265962001867592,429.23177099996246,430.3502066100482,2023-08-02 14:53:51.208568,2023-08-02 14:53:52.317939,L_MF510.jpg,1,10652,70-89+,2023-08-02_14h47.00.636,Recall,2021.2.3,59.99959194378912,
,DD020.jpg,0,FF020.jpg,0,,,,,0,76,76,19,imgFunc,2,NA,1.2504276998806745,430.3520839000121,431.7051105098799,2023-08-02 14:53:52.324922,2023-08-02 14:53:53.669057,FF020.jpg,0,10652,70-89+,2023-08-02_14h47.00.636,Recall,2021.2.3,59.99959194378912,
,DD030.jpg,0,FF030.jpg,0,,,,,0,77,77,29,imgFunc,1,NA,0.9562570999842137,431.7098385998979,432.7783262098674,2023-08-02 14:53:53.676860,2023-08-02 14:53:54.736536,FF030.jpg,0,10652,70-89+,2023-08-02_14h47.00.636,Recall,2021.2.3,59.99959194378912,
,DD002.jpg,0,FF002.jpg,0,,,,,0,78,78,1,imgFunc,1,NA,0.7377842999994755,432.7764546999242,433.59750400995836,2023-08-02 14:53:54.750501,2023-08-02 14:53:55.570395,FF002.jpg,0,10652,70-89+,2023-08-02_14h47.00.636,Recall,2021.2.3,59.99959194378912,
,SD008.jpg,0,MF008.jpg,0,,,,,0,79,79,57,imgFunc,1,NA,0.8116995000746101,433.59865759988315,434.5012798102107,2023-08-02 14:53:55.577379,2023-08-02 14:53:56.470936,MF008.jpg,0,10652,70-89+,2023-08-02_14h47.00.636,Recall,2021.2.3,59.99959194378912,
,SD040.jpg,0,MF040.jpg,0,,,,,0,80,80,89,imgFunc,1,NA,0.7265916999895126,434.49957500002347,435.3184900097549,2023-08-02 14:53:56.477919,2023-08-02 14:53:57.287470,MF040.jpg,0,10652,70-89+,2023-08-02_14h47.00.636,Recall,2021.2.3,59.99959194378912,
,SD018.jpg,0,MF018.jpg,0,,,,,0,81,81,67,imgFunc,1,NA,0.818207599921152,435.3198895000387,436.23846231005155,2023-08-02 14:53:57.295422,2023-08-02 14:53:58.205466,MF018.jpg,0,10652,70-89+,2023-08-02_14h47.00.636,Recall,2021.2.3,59.99959194378912,
,DD027.jpg,0,FF027.jpg,0,,,,,0,82,82,26,imgFunc,1,NA,0.8484778001438826,436.2419296000153,437.1941515102517,2023-08-02 14:53:58.212436,2023-08-02 14:53:59.156341,FF027.jpg,0,10652,70-89+,2023-08-02_14h47.00.636,Recall,2021.2.3,59.99959194378912,
,DD038.jpg,0,FF038.jpg,0,,,,,0,83,83,37,imgFunc,1,NA,1.0173313000705093,437.18487969995476,438.28726080968045,2023-08-02 14:53:59.163324,2023-08-02 14:54:00.256593,FF038.jpg,0,10652,70-89+,2023-08-02_14h47.00.636,Recall,2021.2.3,59.99959194378912,
,SD037.jpg,0,MF037.jpg,0,,,,,0,84,84,86,imgFunc,2,NA,0.8520943000912666,438.28627229994163,439.23846771009266,2023-08-02 14:54:00.264602,2023-08-02 14:54:01.207860,MF037.jpg,0,10652,70-89+,2023-08-02_14h47.00.636,Recall,2021.2.3,59.99959194378912,
,SD001.jpg,0,MF001.jpg,0,,,,,0,85,85,50,imgFunc,1,NA,1.1086935999337584,439.23776049981825,440.440049209632,2023-08-02 14:54:01.214843,2023-08-02 14:54:02.408778,MF001.jpg,0,10652,70-89+,2023-08-02_14h47.00.636,Recall,2021.2.3,59.99959194378912,
,SD019.jpg,0,MF019.jpg,0,,,,,0,86,86,68,imgFunc,2,NA,1.0110039000865072,440.4390828998294,441.54189230990596,2023-08-02 14:54:02.415761,2023-08-02 14:54:03.509539,MF019.jpg,0,10652,70-89+,2023-08-02_14h47.00.636,Recall,2021.2.3,59.99959194378912,
,SD016.jpg,0,MF016.jpg,0,,,,,0,87,87,65,imgFunc,1,NA,0.7738161999732256,441.5484090000391,442.40367691009305,2023-08-02 14:54:03.523504,2023-08-02 14:54:04.376407,MF016.jpg,0,10652,70-89+,2023-08-02_14h47.00.636,Recall,2021.2.3,59.99959194378912,
,SD039.jpg,0,MF039.jpg,0,,,,,0,88,88,88,imgFunc,1,NA,1.4772507001180202,442.4051880999468,443.9743612096645,2023-08-02 14:54:04.384413,2023-08-02 14:54:05.944696,MF039.jpg,0,10652,70-89+,2023-08-02_14h47.00.636,Recall,2021.2.3,59.99959194378912,
,DD007.jpg,0,FF007.jpg,0,,,,,0,89,89,6,imgFunc,2,NA,1.7502108998596668,443.97220149985515,445.8087275098078,2023-08-02 14:54:05.951679,2023-08-02 14:54:07.779338,FF007.jpg,0,10652,70-89+,2023-08-02_14h47.00.636,Recall,2021.2.3,59.99959194378912,
,L_SD506.jpg,1,L_MF506.jpg,1,,,,,0,90,90,95,imgFunc,2,NA,1.144453400047496,445.80988469999284,447.04602611018345,2023-08-02 14:54:07.786321,2023-08-02 14:54:09.013567,L_MF506.jpg,1,10652,70-89+,2023-08-02_14h47.00.636,Recall,2021.2.3,59.99959194378912,
,SD021.jpg,0,MF021.jpg,0,,,,,0,91,91,70,imgFunc,1,NA,0.5901818000711501,447.0442747999914,447.7296275100671,2023-08-02 14:54:09.020550,2023-08-02 14:54:09.697259,MF021.jpg,0,10652,70-89+,2023-08-02_14h47.00.636,Recall,2021.2.3,59.99959194378912,
,DD031.jpg,0,FF031.jpg,0,,,,,0,92,92,30,imgFunc,2,NA,1.2976110000163317,447.73674939991906,449.1246741099749,2023-08-02 14:54:09.712221,2023-08-02 14:54:11.098266,FF031.jpg,0,10652,70-89+,2023-08-02_14h47.00.636,Recall,2021.2.3,59.99959194378912,
,SD002.jpg,0,MF002.jpg,0,,,,,0,93,93,51,imgFunc,1,NA,1.39697919995524,449.1254565999843,450.61132191005163,2023-08-02 14:54:11.105249,2023-08-02 14:54:12.582458,MF002.jpg,0,10652,70-89+,2023-08-02_14h47.00.636,Recall,2021.2.3,59.99959194378912,
,SD007.jpg,0,MF007.jpg,0,,,,,0,94,94,56,imgFunc,1,NA,0.7831900999881327,450.6111587998457,451.4793593098875,2023-08-02 14:54:12.590439,2023-08-02 14:54:13.450081,MF007.jpg,0,10652,70-89+,2023-08-02_14h47.00.636,Recall,2021.2.3,59.99959194378912,
,DD034.jpg,0,FF034.jpg,0,,,,,0,95,95,33,imgFunc,1,NA,0.8693499001674354,451.47703299997374,452.4462982099503,2023-08-02 14:54:13.457064,2023-08-02 14:54:14.417442,FF034.jpg,0,10652,70-89+,2023-08-02_14h47.00.636,Recall,2021.2.3,59.99959194378912,
,DD033.jpg,0,FF033.jpg,0,,,,,0,96,96,32,imgFunc,1,NA,0.6920737999025732,452.4542087998707,453.24009040999226,2023-08-02 14:54:14.424425,2023-08-02 14:54:15.201561,FF033.jpg,0,10652,70-89+,2023-08-02_14h47.00.636,Recall,2021.2.3,59.99959194378912,
,DD012.jpg,0,FF012.jpg,0,,,,,0,97,97,11,imgFunc,1,NA,1.516227199928835,453.2301141999196,454.83319571008906,2023-08-02 14:54:15.208544,2023-08-02 14:54:16.802644,FF012.jpg,0,10652,70-89+,2023-08-02_14h47.00.636,Recall,2021.2.3,59.99959194378912,
,DD008.jpg,0,FF008.jpg,0,,,,,0,98,98,7,imgFunc,1,NA,0.9163581000175327,454.8299846998416,455.83251150976866,2023-08-02 14:54:16.809627,2023-08-02 14:54:17.803241,FF008.jpg,0,10652,70-89+,2023-08-02_14h47.00.636,Recall,2021.2.3,59.99959194378912,
,DD001.jpg,0,FF001.jpg,0,,,,,0,99,99,0,imgFunc,1,NA,1.5881835001055151,455.8301055999473,457.5162295100745,2023-08-02 14:54:17.810224,2023-08-02 14:54:19.487602,FF001.jpg,0,10652,70-89+,2023-08-02_14h47.00.636,Recall,2021.2.3,59.99959194378912,
