TrialNumber,Trialn,TrialType,Partner,Feedback,ITI,ISI,ran,order,studyStart,InitFixOnset,decision_onset,resp,resp_onset,rt,ISI_onset,isi_for_trial,ISI_offset,outcome_val,outcome_onset,outcome_offset,trialDuration,ITIonset,ITIoffset,final_fix_offset
1,1,1,1,1,2.422500e+00,1.615000e+00,1.0,0.0,2.7000206e-06,0.0096277,4.014819,1.0,4.854643,0.8398236,4.9550996,3.4751763,8.432756,6.0,8.432913,9.041201,5.0263815,9.041393,11.4660635,--
2,2,6,2,3,2.422500e+00,2.422500e+00,1.0,1.0,--,--,11.481706,1.0,12.10533,0.6236252,12.205734,4.4988747,16.706638,1.0,16.706762,17.314098,5.832392,17.314249,19.739239,--
3,3,7,3,1,8.075000e-01,1.615000e+00,1.0,2.0,--,--,19.75146,1.0,20.17142,0.41996,20.271835,3.89504,24.169863,9.0,24.16999,24.776411,5.0249515,24.776567,25.586977,--
4,4,6,2,3,4.037500e+00,8.075000e-01,1.0,3.0,--,--,25.603092,1.0,27.171537,1.5684456,27.271954,1.9390544,29.21301,4.0,29.21313,29.819569,4.216477,29.819721,33.859158,--
5,5,1,1,1,7.267500e+00,2.422500e+00,1.0,4.0,--,--,33.863064,1.0,35.621277,1.7582107,35.721676,3.3642893,39.087753,8.0,39.08788,39.693466,5.8304024,39.693626,46.96336,--
6,6,6,2,3,8.075000e-01,1.615000e+00,1.0,5.0,--,--,46.97728,1.0,47.404823,0.4275409,47.505184,3.887459,51.39456,1.0,51.394684,52.000065,5.022782,52.000217,52.80976,--
7,7,4,2,1,8.075000e-01,2.422500e+00,1.0,6.0,--,--,52.820744,2.0,53.35483,0.5340905,53.45521,4.5884094,58.045822,4.0,58.04595,58.65217,5.831425,58.652317,59.46161,--
8,8,1,1,1,8.075000e-01,1.615000e+00,1.0,7.0,--,--,59.46471,2.0,60.82141,1.356703,60.92181,2.958297,63.882496,1.0,63.88262,64.4862,5.021487,64.48635,65.296394,--
9,9,1,1,1,2.422500e+00,1.615000e+00,1.0,8.0,--,--,65.298225,2.0,66.1379,0.8396813,66.238304,3.4753187,69.716255,3.0,69.71638,70.32159,5.023361,70.32174,72.746666,--
10,10,4,2,1,8.075000e-01,8.075000e-01,1.0,9.0,--,--,72.75847,2.0,73.08807,0.3296024,73.18848,3.1778977,76.36858,4.0,76.36871,76.97358,4.2151084,76.97373,77.78304,--
11,11,4,2,1,2.422500e+00,8.075000e-01,1.0,10.0,--,--,77.79441,2.0,78.32131,0.5269047,78.421715,2.9805954,81.40408,2.0,81.404205,82.0106,4.216189,82.01075,84.435,--
12,12,7,3,1,7.267500e+00,1.615000e+00,1.0,11.0,--,--,84.44479,1.0,85.68778,1.2429891,85.78816,3.072011,88.86313,8.0,88.86325,89.46734,5.0225477,89.4675,96.737274,--
13,13,6,2,3,8.075000e-01,1.615000e+00,1.0,12.0,--,--,96.74974,2.0,97.187935,0.4381973,97.28835,3.8768027,101.16821,9.0,101.16834,101.773384,5.0236435,101.77354,102.58293,--
14,14,9,3,3,5.652500e+00,8.075000e-01,1.0,13.0,--,--,102.59255,2.0,103.12108,0.5285269,103.22147,2.9789732,106.20248,6.0,106.2026,106.80705,4.214501,106.807205,112.46217,--
15,15,3,1,3,2.422500e+00,2.422500e+00,1.0,14.0,--,--,112.46515,2.0,112.88793,0.4227778,112.98834,4.6997223,117.69006,7.0,117.69018,118.29755,5.8323956,118.297714,120.72248,--
16,16,3,1,3,8.075000e-01,1.615000e+00,1.0,15.0,--,--,120.72435,2.0,121.454384,0.730037,121.55479,3.584963,125.1417,9.0,125.14182,125.74628,5.021924,125.74643,126.55702,--
17,17,7,3,1,2.422500e+00,1.615000e+00,1.0,16.0,--,--,126.56635,1.0,127.40465,0.8382988,127.5051,3.4767013,130.98396,8.0,130.98409,131.58945,5.023094,131.5896,134.01424,--
18,18,2,1,2,8.882500e+00,2.422500e+00,1.0,17.0,--,--,134.01721,1.0,134.43768,0.4204653,134.53807,4.7020345,139.24226,5.0,139.2424,139.84976,5.832546,139.84991,148.73419,--
19,19,1,1,1,4.037500e+00,2.422500e+00,1.0,18.0,--,--,148.73608,1.0,149.27097,0.534877,149.37132,4.587623,153.96149,9.0,153.96161,154.56618,5.8300967,154.56633,158.60565,--
20,20,1,1,1,2.422500e+00,2.422500e+00,1.0,19.0,--,--,158.60748,1.0,160.67317,2.065697,160.7736,3.056803,163.83246,8.0,163.83258,164.43703,5.82954,164.43716,166.8621,--
21,21,3,1,3,8.075000e-01,8.075000e-01,1.0,20.0,--,--,166.86394,2.0,167.3876,0.5236741,167.48804,2.983826,170.47424,6.0,170.47437,171.07915,4.215215,171.0793,171.88869,--
22,22,7,3,1,2.422500e+00,8.075000e-01,1.0,21.0,--,--,171.89839,1.0,172.93762,1.0392245,173.03802,2.4682755,175.50856,6.0,175.50868,176.11528,4.2168903,176.11545,178.53989,--
23,23,9,3,3,8.075000e-01,1.615000e+00,1.0,22.0,--,--,178.54817,1.0,178.9712,0.4230291,179.07162,3.8919709,182.96571,3.0,182.96584,183.57034,5.0221605,183.5705,184.38144,--
24,24,7,3,1,8.075000e-01,1.615000e+00,1.0,23.0,--,--,184.38994,1.0,185.02092,0.630988,185.12132,3.684012,188.80867,9.0,188.80879,189.41335,5.0234046,189.4135,190.22319,--
25,25,9,3,3,2.422500e+00,2.422500e+00,1.0,24.0,--,--,190.23143,1.0,191.27095,1.0395181,191.37135,4.082982,195.45581,3.0,195.45593,196.06729,5.835859,196.06744,198.49182,--
26,26,8,3,2,8.075000e-01,1.615000e+00,1.0,25.0,--,--,198.50026,1.0,198.92104,0.4207748,199.02145,3.8942251,202.9182,5.0,202.91835,203.5229,5.022636,203.52304,204.33353,--
27,27,9,3,3,2.422500e+00,8.075000e-01,1.0,26.0,--,--,204.34193,1.0,205.17159,0.8296534,205.272,2.6778467,207.95235,2.0,207.95247,208.55704,4.2151027,208.55719,210.98178,--
28,28,4,2,1,4.037500e+00,2.422500e+00,1.0,27.0,--,--,210.99371,1.0,211.32104,0.3273273,211.42146,4.7951727,216.21931,8.0,216.21944,216.83249,5.8387737,216.83264,220.87187,--
29,29,1,1,1,8.075000e-01,2.422500e+00,1.0,28.0,--,--,220.8748,2.0,221.40439,0.529584,221.50478,4.592916,226.09937,3.0,226.0995,226.70404,5.829243,226.7042,227.51376,--
30,30,6,2,3,5.652500e+00,8.075000e-01,1.0,29.0,--,--,227.52652,1.0,227.9543,0.427767,228.05467,3.079733,231.13638,4.0,231.1365,231.74127,4.21475,231.74144,237.39664,--
31,31,7,3,1,8.075000e-01,8.075000e-01,1.0,30.0,--,--,237.40643,1.0,237.93764,0.5312134,238.03806,2.9762866,241.01682,7.0,241.01694,241.62173,4.2152996,241.62189,242.43114,--
32,32,7,3,1,2.422500e+00,1.615000e+00,1.0,31.0,--,--,242.43954,1.0,243.07098,0.6314484,243.17142,3.6835515,246.85709,9.0,246.85721,247.4619,5.022356,247.46205,249.88669,--
33,33,3,1,3,8.075000e-01,8.075000e-01,1.0,32.0,--,--,249.88994,1.0,250.62068,0.7307436,250.72107,2.7767563,253.4998,4.0,253.49992,254.10475,4.2148128,254.1049,254.9141,--
34,34,2,1,2,4.037500e+00,2.422500e+00,1.0,33.0,--,--,254.91592,1.0,255.33742,0.4214923,255.43782,4.701008,260.1413,5.0,260.14142,260.74655,5.8306317,260.7467,264.78632,--
35,35,4,2,1,4.037500e+00,8.075000e-01,1.0,34.0,--,--,264.7991,1.0,265.22064,0.4215548,265.32104,3.0859451,268.4085,9.0,268.40866,269.01404,4.214926,269.0142,273.05383,--
36,36,4,2,1,5.652500e+00,8.075000e-01,1.0,35.0,--,--,273.06577,2.0,273.4873,0.4215536,273.5877,3.0859463,276.67545,4.0,276.6756,277.27966,4.213895,277.27982,282.93427,--
37,37,6,2,3,2.422500e+00,2.422500e+00,1.0,36.0,--,--,282.94632,2.0,283.3706,0.4242933,283.47098,4.698207,288.17166,6.0,288.17178,288.77682,5.8305254,288.77698,291.2016,--
38,38,6,2,3,8.075000e-01,8.075000e-01,1.0,37.0,--,--,291.21347,2.0,291.5375,0.3240258,291.63794,3.1834743,294.82318,7.0,294.8233,295.4271,4.2136025,295.42725,296.23706,--
39,39,7,3,1,8.075000e-01,2.422500e+00,1.0,38.0,--,--,296.2468,2.0,297.18735,0.9405621,297.28775,4.1819377,301.4724,4.0,301.47253,302.07834,5.8315654,302.0785,302.88782,--
40,40,9,3,3,8.075000e-01,2.422500e+00,1.0,39.0,--,--,302.896,2.0,303.42056,0.5245556,303.52094,4.5979443,308.1215,7.0,308.1216,308.72668,5.8307056,308.72684,309.53662,--
41,41,3,1,3,8.075000e-01,1.615000e+00,1.0,40.0,--,--,309.53955,2.0,310.17075,0.631191,310.27115,3.683809,313.9573,6.0,313.95746,314.5617,5.0221467,314.56186,315.3713,--
42,42,3,1,3,8.075000e-01,2.422500e+00,1.0,41.0,--,--,315.3732,2.0,316.00385,0.6306596,316.10428,4.4918404,320.59824,9.0,320.5984,321.20337,5.83019,321.20355,322.01282,--
43,43,1,1,1,4.037500e+00,1.615000e+00,1.0,42.0,--,--,322.01468,2.0,322.4372,0.4225159,322.53763,3.8924842,326.43256,3.0,326.43268,327.03735,5.022656,327.0375,331.0768,--
44,44,9,3,3,5.652500e+00,8.075000e-01,1.0,43.0,--,--,331.08725,2.0,331.6205,0.5332871,331.72095,2.974213,334.69794,7.0,334.6981,335.30295,4.2157187,335.3031,340.9581,--
45,45,3,1,3,8.075000e-01,2.422500e+00,1.0,44.0,--,--,340.96124,2.0,341.3873,0.4260651,341.4877,4.696435,346.187,8.0,346.18713,346.79153,5.830283,346.7917,347.60175,--
46,46,6,2,3,8.075000e-01,1.615000e+00,1.0,45.0,--,--,347.614,2.0,348.45383,0.83982,348.55423,3.47518,352.03207,8.0,352.03223,352.63705,5.0230427,352.6372,353.4469,--
47,47,4,2,1,8.075000e-01,8.075000e-01,1.0,46.0,--,--,353.458,2.0,353.9871,0.5290725,354.0875,2.9784274,357.0677,2.0,357.0678,357.6724,4.214388,357.67255,358.48227,--
48,48,4,2,1,8.075000e-01,2.422500e+00,1.0,47.0,--,--,358.49377,2.0,359.0207,0.5269019,359.1211,4.595598,363.7182,1.0,363.71832,364.32764,5.8338723,364.3278,365.13773,--
49,49,8,3,2,2.422500e+00,8.075000e-01,1.0,48.0,--,--,365.14752,2.0,365.67038,0.5228424,365.77078,2.9846575,368.75845,5.0,368.7586,369.364,4.2164836,369.36417,371.78882,--
50,50,5,2,2,4.037500e+00,2.422500e+00,1.0,49.0,--,--,371.8016,2.0,372.32236,0.5207632,372.4228,4.601737,377.02646,5.0,377.02658,377.6301,5.828501,377.63025,381.67,--
51,51,9,3,3,8.075000e-01,8.075000e-01,1.0,50.0,--,--,381.68,2.0,382.00372,0.3237395,382.10416,3.1837604,385.29007,8.0,385.2902,385.89474,4.2147646,385.8949,386.70444,--
52,52,9,3,3,8.075000e-01,1.615000e+00,1.0,51.0,--,--,386.71286,2.0,387.23703,0.5241604,387.33743,3.7908397,391.13046,9.0,391.13058,391.7356,5.022749,391.73575,392.54562,--
53,53,5,2,2,8.075000e-01,1.615000e+00,1.0,52.0,--,--,392.55725,2.0,392.9872,0.4299579,393.0876,3.8850422,396.97537,5.0,396.9755,397.58017,5.022911,397.58035,398.3895,--
54,54,3,1,3,8.075000e-01,8.075000e-01,1.0,53.0,--,--,398.39246,2.0,398.82043,0.4279621,398.92078,3.0795379,402.00287,7.0,402.003,402.60757,4.215097,402.60773,403.41748,412.0005
