onset	duration	trial_type	response_time	Endowment	Endowment_pmod	Decision	Decision_pmod	Offer_pmod
4.579657	2	cue_social	n/a	16	-8	n/a	n/a	n/a
4.579657	2	cue_social_low	n/a	16	-8	n/a	n/a	n/a
11.343276	2	cue_nonsocial	n/a	32	8	n/a	n/a	n/a
11.343276	2	cue_nonsocial_high	n/a	32	8	n/a	n/a	n/a
18.247990	2	cue_social	n/a	16	-8	n/a	n/a	n/a
18.247990	2	cue_social_low	n/a	16	-8	n/a	n/a	n/a
25.825953	2	cue_nonsocial	n/a	16	-8	n/a	n/a	n/a
25.825953	2	cue_nonsocial_low	n/a	16	-8	n/a	n/a	n/a
35.176075	2	cue_social	n/a	32	8	n/a	n/a	n/a
35.176075	2	cue_social_high	n/a	32	8	n/a	n/a	n/a
41.992767	2	cue_social	n/a	32	8	n/a	n/a	n/a
41.992767	2	cue_social_high	n/a	32	8	n/a	n/a	n/a
49.604588	2	cue_social	n/a	32	8	n/a	n/a	n/a
49.604588	2	cue_social_high	n/a	32	8	n/a	n/a	n/a
56.393550	2	cue_nonsocial	n/a	16	-8	n/a	n/a	n/a
56.393550	2	cue_nonsocial_low	n/a	16	-8	n/a	n/a	n/a
64.103035	2	cue_social	n/a	16	-8	n/a	n/a	n/a
64.103035	2	cue_social_low	n/a	16	-8	n/a	n/a	n/a
70.875360	2	cue_nonsocial	n/a	32	8	n/a	n/a	n/a
70.875360	2	cue_nonsocial_high	n/a	32	8	n/a	n/a	n/a
81.831630	2	cue_social	n/a	16	-8	n/a	n/a	n/a
81.831630	2	cue_social_low	n/a	16	-8	n/a	n/a	n/a
89.428154	2	cue_social	n/a	16	-8	n/a	n/a	n/a
89.428154	2	cue_social_low	n/a	16	-8	n/a	n/a	n/a
98.718254	2	cue_social	n/a	16	-8	n/a	n/a	n/a
98.718254	2	cue_social_low	n/a	16	-8	n/a	n/a	n/a
107.982250	2	cue_social	n/a	32	8	n/a	n/a	n/a
107.982250	2	cue_social_high	n/a	32	8	n/a	n/a	n/a
114.725890	2	cue_nonsocial	n/a	16	-8	n/a	n/a	n/a
114.725890	2	cue_nonsocial_low	n/a	16	-8	n/a	n/a	n/a
121.639550	2	cue_social	n/a	16	-8	n/a	n/a	n/a
121.639550	2	cue_social_low	n/a	16	-8	n/a	n/a	n/a
129.208790	2	cue_nonsocial	n/a	32	8	n/a	n/a	n/a
129.208790	2	cue_nonsocial_high	n/a	32	8	n/a	n/a	n/a
136.154070	2	cue_social	n/a	32	8	n/a	n/a	n/a
136.154070	2	cue_social_high	n/a	32	8	n/a	n/a	n/a
142.877090	2	cue_nonsocial	n/a	16	-8	n/a	n/a	n/a
142.877090	2	cue_nonsocial_low	n/a	16	-8	n/a	n/a	n/a
149.774250	2	cue_social	n/a	32	8	n/a	n/a	n/a
149.774250	2	cue_social_high	n/a	32	8	n/a	n/a	n/a
157.358750	2	cue_nonsocial	n/a	16	-8	n/a	n/a	n/a
157.358750	2	cue_nonsocial_low	n/a	16	-8	n/a	n/a	n/a
168.305730	2	cue_social	n/a	16	-8	n/a	n/a	n/a
168.305730	2	cue_social_low	n/a	16	-8	n/a	n/a	n/a
175.940810	2	cue_social	n/a	16	-8	n/a	n/a	n/a
175.940810	2	cue_social_low	n/a	16	-8	n/a	n/a	n/a
185.125820	2	cue_nonsocial	n/a	16	-8	n/a	n/a	n/a
185.125820	2	cue_nonsocial_low	n/a	16	-8	n/a	n/a	n/a
192.054300	2	cue_social	n/a	16	-8	n/a	n/a	n/a
192.054300	2	cue_social_low	n/a	16	-8	n/a	n/a	n/a
198.791560	2	cue_nonsocial	n/a	32	8	n/a	n/a	n/a
198.791560	2	cue_nonsocial_high	n/a	32	8	n/a	n/a	n/a
206.441710	2	cue_nonsocial	n/a	16	-8	n/a	n/a	n/a
206.441710	2	cue_nonsocial_low	n/a	16	-8	n/a	n/a	n/a
214.091700	2	cue_nonsocial	n/a	32	8	n/a	n/a	n/a
214.091700	2	cue_nonsocial_high	n/a	32	8	n/a	n/a	n/a
223.422200	2	cue_social	n/a	16	-8	n/a	n/a	n/a
223.422200	2	cue_social_low	n/a	16	-8	n/a	n/a	n/a
232.625180	2	cue_nonsocial	n/a	16	-8	n/a	n/a	n/a
232.625180	2	cue_nonsocial_low	n/a	16	-8	n/a	n/a	n/a
241.942260	2	cue_social	n/a	32	8	n/a	n/a	n/a
241.942260	2	cue_social_high	n/a	32	8	n/a	n/a	n/a
248.788960	2	cue_social	n/a	32	8	n/a	n/a	n/a
248.788960	2	cue_social_high	n/a	32	8	n/a	n/a	n/a
256.375120	2	cue_nonsocial	n/a	32	8	n/a	n/a	n/a
256.375120	2	cue_nonsocial_high	n/a	32	8	n/a	n/a	n/a
263.299930	2	cue_social	n/a	32	8	n/a	n/a	n/a
263.299930	2	cue_social_high	n/a	32	8	n/a	n/a	n/a
275.691680	2	cue_nonsocial	n/a	32	8	n/a	n/a	n/a
275.691680	2	cue_nonsocial_high	n/a	32	8	n/a	n/a	n/a
282.604520	2	cue_social	n/a	16	-8	n/a	n/a	n/a
282.604520	2	cue_social_low	n/a	16	-8	n/a	n/a	n/a
289.403320	2	cue_social	n/a	32	8	n/a	n/a	n/a
289.403320	2	cue_social_high	n/a	32	8	n/a	n/a	n/a
297.008540	2	cue_nonsocial	n/a	16	-8	n/a	n/a	n/a
297.008540	2	cue_nonsocial_low	n/a	16	-8	n/a	n/a	n/a
304.658200	2	cue_nonsocial	n/a	16	-8	n/a	n/a	n/a
304.658200	2	cue_nonsocial_low	n/a	16	-8	n/a	n/a	n/a
315.524780	2	cue_nonsocial	n/a	16	-8	n/a	n/a	n/a
315.524780	2	cue_nonsocial_low	n/a	16	-8	n/a	n/a	n/a
322.358250	2	cue_nonsocial	n/a	32	8	n/a	n/a	n/a
322.358250	2	cue_nonsocial_high	n/a	32	8	n/a	n/a	n/a
329.191400	2	cue_nonsocial	n/a	32	8	n/a	n/a	n/a
329.191400	2	cue_nonsocial_high	n/a	32	8	n/a	n/a	n/a
336.088300	2	cue_social	n/a	32	8	n/a	n/a	n/a
336.088300	2	cue_social_high	n/a	32	8	n/a	n/a	n/a
342.858730	2	cue_nonsocial	n/a	32	8	n/a	n/a	n/a
342.858730	2	cue_nonsocial_high	n/a	32	8	n/a	n/a	n/a
349.691400	2	cue_nonsocial	n/a	16	-8	n/a	n/a	n/a
349.691400	2	cue_nonsocial_low	n/a	16	-8	n/a	n/a	n/a
356.524480	2	cue_nonsocial	n/a	32	8	n/a	n/a	n/a
356.524480	2	cue_nonsocial_high	n/a	32	8	n/a	n/a	n/a
363.446660	2	cue_social	n/a	32	8	n/a	n/a	n/a
363.446660	2	cue_social_high	n/a	32	8	n/a	n/a	n/a
371.008240	2	cue_nonsocial	n/a	32	8	n/a	n/a	n/a
371.008240	2	cue_nonsocial_high	n/a	32	8	n/a	n/a	n/a
6.514847	0.967025	dec_social_choice	0.967025	16.000000	n/a	1	-1.699219e-01	-1.699219e-01
6.514847	0.967025	dec_choice	0.967025	16.000000	n/a	1	-1.705729e-01	-1.705729e-01
6.514847	0.967025	dec_social_accept	0.967025	16.000000	n/a	1	-1.695479e-01	-1.695479e-01
6.514847	0.967025	dec_accept	0.967025	16.000000	n/a	1	-1.705729e-01	-1.705729e-01
6.514847	0.967025	dec_social_low	0.967025	16.000000	n/a	1	-1.705729e-01	-1.705729e-01
6.514847	0.967025	dec_social_accept_low	0.967025	16.000000	n/a	1	-1.705729e-01	-1.705729e-01
13.349149	1.048803	dec_nonsocial_choice	1.048803	32.000000	n/a	2	-1.699219e-01	-1.699219e-01
13.349149	1.048803	dec_choice	1.048803	32.000000	n/a	2	-1.692708e-01	-1.692708e-01
13.349149	1.048803	dec_nonsocial_accept	1.048803	32.000000	n/a	2	-1.695479e-01	-1.695479e-01
13.349149	1.048803	dec_accept	1.048803	32.000000	n/a	2	-1.684783e-01	-1.684783e-01
13.349149	1.048803	dec_nonsocial_accept_low	1.048803	32.000000	n/a	2	-1.705729e-01	-1.705729e-01
20.180567	0.950976	dec_social_choice	0.950976	16.000000	n/a	8	2.675781e-01	2.675781e-01
20.180567	0.950976	dec_choice	0.950976	16.000000	n/a	8	2.669271e-01	2.669271e-01
20.180567	0.950976	dec_social_accept	0.950976	16.000000	n/a	8	2.679521e-01	2.679521e-01
20.180567	0.950976	dec_accept	0.950976	16.000000	n/a	8	2.669271e-01	2.669271e-01
20.180567	0.950976	dec_social_accept_high	0.950976	16.000000	n/a	8	2.669271e-01	2.669271e-01
27.831963	1.183218	dec_nonsocial_choice	1.183218	16.000000	n/a	8	2.675781e-01	2.675781e-01
27.831963	1.183218	dec_choice	1.183218	16.000000	n/a	8	2.682292e-01	2.682292e-01
27.831963	1.183218	dec_nonsocial_accept	1.183218	16.000000	n/a	8	2.679521e-01	2.679521e-01
27.831963	1.183218	dec_accept	1.183218	16.000000	n/a	8	2.690217e-01	2.690217e-01
27.831963	1.183218	dec_nonsocial_accept_high	1.183218	16.000000	n/a	8	2.669271e-01	2.669271e-01
37.083107	0.948771	dec_social_choice	0.948771	32.000000	n/a	16	2.675781e-01	2.675781e-01
37.083107	0.948771	dec_choice	0.948771	32.000000	n/a	16	2.669271e-01	2.669271e-01
37.083107	0.948771	dec_social_accept	0.948771	32.000000	n/a	16	2.679521e-01	2.679521e-01
37.083107	0.948771	dec_accept	0.948771	32.000000	n/a	16	2.669271e-01	2.669271e-01
37.083107	0.948771	dec_social_high	0.948771	32.000000	n/a	16	2.669271e-01	2.669271e-01
37.083107	0.948771	dec_social_accept_high	0.948771	32.000000	n/a	16	2.669271e-01	2.669271e-01
43.914124	0.783595	dec_social_choice	0.783595	32.000000	n/a	2	-1.699219e-01	-1.699219e-01
43.914124	0.783595	dec_choice	0.783595	32.000000	n/a	2	-1.705729e-01	-1.705729e-01
43.914124	0.783595	dec_social_accept	0.783595	32.000000	n/a	2	-1.695479e-01	-1.695479e-01
43.914124	0.783595	dec_accept	0.783595	32.000000	n/a	2	-1.705729e-01	-1.705729e-01
43.914124	0.783595	dec_social_low	0.783595	32.000000	n/a	2	-1.705729e-01	-1.705729e-01
43.914124	0.783595	dec_social_accept_low	0.783595	32.000000	n/a	2	-1.705729e-01	-1.705729e-01
51.565060	0.883110	dec_social_choice	0.883110	32.000000	n/a	2	-1.699219e-01	-1.699219e-01
51.565060	0.883110	dec_choice	0.883110	32.000000	n/a	2	-1.705729e-01	-1.705729e-01
51.565060	0.883110	dec_social_accept	0.883110	32.000000	n/a	2	-1.695479e-01	-1.695479e-01
51.565060	0.883110	dec_accept	0.883110	32.000000	n/a	2	-1.705729e-01	-1.705729e-01
51.565060	0.883110	dec_social_low	0.883110	32.000000	n/a	2	-1.705729e-01	-1.705729e-01
51.565060	0.883110	dec_social_accept_low	0.883110	32.000000	n/a	2	-1.705729e-01	-1.705729e-01
58.398933	0.782336	dec_nonsocial_choice	0.782336	16.000000	n/a	4	1.757812e-02	1.757812e-02
58.398933	0.782336	dec_choice	0.782336	16.000000	n/a	4	1.822917e-02	1.822917e-02
58.398933	0.782336	dec_nonsocial_accept	0.782336	16.000000	n/a	4	1.795213e-02	1.795213e-02
58.398933	0.782336	dec_accept	0.782336	16.000000	n/a	4	1.902174e-02	1.902174e-02
58.398933	0.782336	dec_nonsocial_high	0.782336	16.000000	n/a	4	1.822917e-02	1.822917e-02
58.398933	0.782336	dec_nonsocial_accept_high	0.782336	16.000000	n/a	4	1.902174e-02	1.902174e-02
66.048040	1.216374	dec_social_choice	1.216374	16.000000	n/a	4	1.757812e-02	1.757812e-02
66.048040	1.216374	dec_choice	1.216374	16.000000	n/a	4	1.692708e-02	1.692708e-02
66.048040	1.216374	dec_social_accept	1.216374	16.000000	n/a	4	1.795213e-02	1.795213e-02
66.048040	1.216374	dec_accept	1.216374	16.000000	n/a	4	1.692708e-02	1.692708e-02
66.048040	1.216374	dec_social_accept_high	1.216374	16.000000	n/a	4	1.692708e-02	1.692708e-02
72.882090	1.483132	dec_nonsocial_choice	1.483132	32.000000	n/a	2	-1.699219e-01	-1.699219e-01
72.882090	1.483132	dec_choice	1.483132	32.000000	n/a	2	-1.692708e-01	-1.692708e-01
72.882090	1.483132	dec_nonsocial_accept	1.483132	32.000000	n/a	2	-1.695479e-01	-1.695479e-01
72.882090	1.483132	dec_accept	1.483132	32.000000	n/a	2	-1.684783e-01	-1.684783e-01
72.882090	1.483132	dec_nonsocial_accept_low	1.483132	32.000000	n/a	2	-1.705729e-01	-1.705729e-01
83.749040	1.015612	dec_social_choice	1.015612	16.000000	n/a	2	-1.074219e-01	-1.074219e-01
83.749040	1.015612	dec_choice	1.015612	16.000000	n/a	2	-1.080729e-01	-1.080729e-01
83.749040	1.015612	dec_social_accept	1.015612	16.000000	n/a	2	-1.070479e-01	-1.070479e-01
83.749040	1.015612	dec_accept	1.015612	16.000000	n/a	2	-1.080729e-01	-1.080729e-01
83.749040	1.015612	dec_social_accept_low	1.015612	16.000000	n/a	2	-1.080729e-01	-1.080729e-01
91.397064	0.802154	dec_social_choice	0.802154	16.000000	n/a	4	1.757812e-02	1.757812e-02
91.397064	0.802154	dec_choice	0.802154	16.000000	n/a	4	1.692708e-02	1.692708e-02
91.397064	0.802154	dec_social_accept	0.802154	16.000000	n/a	4	1.795213e-02	1.795213e-02
91.397064	0.802154	dec_accept	0.802154	16.000000	n/a	4	1.692708e-02	1.692708e-02
91.397064	0.802154	dec_social_high	0.802154	16.000000	n/a	4	1.692708e-02	1.692708e-02
91.397064	0.802154	dec_social_accept_high	0.802154	16.000000	n/a	4	1.692708e-02	1.692708e-02
100.647064	0.751168	dec_social_choice	0.751168	16.000000	n/a	2	-1.074219e-01	-1.074219e-01
100.647064	0.751168	dec_choice	0.751168	16.000000	n/a	2	-1.080729e-01	-1.080729e-01
100.647064	0.751168	dec_social_accept	0.751168	16.000000	n/a	2	-1.070479e-01	-1.070479e-01
100.647064	0.751168	dec_accept	0.751168	16.000000	n/a	2	-1.080729e-01	-1.080729e-01
100.647064	0.751168	dec_social_low	0.751168	16.000000	n/a	2	-1.080729e-01	-1.080729e-01
100.647064	0.751168	dec_social_accept_low	0.751168	16.000000	n/a	2	-1.080729e-01	-1.080729e-01
109.898790	0.882517	dec_social_choice	0.882517	32.000000	n/a	2	-1.699219e-01	-1.699219e-01
109.898790	0.882517	dec_choice	0.882517	32.000000	n/a	2	-1.705729e-01	-1.705729e-01
109.898790	0.882517	dec_social_accept	0.882517	32.000000	n/a	2	-1.695479e-01	-1.695479e-01
109.898790	0.882517	dec_accept	0.882517	32.000000	n/a	2	-1.705729e-01	-1.705729e-01
109.898790	0.882517	dec_social_low	0.882517	32.000000	n/a	2	-1.705729e-01	-1.705729e-01
109.898790	0.882517	dec_social_accept_low	0.882517	32.000000	n/a	2	-1.705729e-01	-1.705729e-01
116.732910	1.148548	dec_nonsocial_choice	1.148548	16.000000	n/a	8	2.675781e-01	2.675781e-01
116.732910	1.148548	dec_choice	1.148548	16.000000	n/a	8	2.682292e-01	2.682292e-01
116.732910	1.148548	dec_nonsocial_accept	1.148548	16.000000	n/a	8	2.679521e-01	2.679521e-01
116.732910	1.148548	dec_accept	1.148548	16.000000	n/a	8	2.690217e-01	2.690217e-01
116.732910	1.148548	dec_nonsocial_accept_high	1.148548	16.000000	n/a	8	2.669271e-01	2.669271e-01
123.565025	1.215960	dec_social_choice	1.215960	16.000000	n/a	8	2.675781e-01	2.675781e-01
123.565025	1.215960	dec_choice	1.215960	16.000000	n/a	8	2.669271e-01	2.669271e-01
123.565025	1.215960	dec_social_accept	1.215960	16.000000	n/a	8	2.679521e-01	2.679521e-01
123.565025	1.215960	dec_accept	1.215960	16.000000	n/a	8	2.669271e-01	2.669271e-01
123.565025	1.215960	dec_social_accept_high	1.215960	16.000000	n/a	8	2.669271e-01	2.669271e-01
131.215010	0.932166	dec_nonsocial_choice	0.932166	32.000000	n/a	16	2.675781e-01	2.675781e-01
131.215010	0.932166	dec_choice	0.932166	32.000000	n/a	16	2.682292e-01	2.682292e-01
131.215010	0.932166	dec_nonsocial_accept	0.932166	32.000000	n/a	16	2.679521e-01	2.679521e-01
131.215010	0.932166	dec_accept	0.932166	32.000000	n/a	16	2.690217e-01	2.690217e-01
131.215010	0.932166	dec_nonsocial_high	0.932166	32.000000	n/a	16	2.682292e-01	2.682292e-01
131.215010	0.932166	dec_nonsocial_accept_high	0.932166	32.000000	n/a	16	2.690217e-01	2.690217e-01
138.048460	1.149700	dec_social_choice	1.149700	32.000000	n/a	3	-1.386719e-01	-1.386719e-01
138.048460	1.149700	dec_choice	1.149700	32.000000	n/a	3	-1.393229e-01	-1.393229e-01
138.048460	1.149700	dec_social_accept	1.149700	32.000000	n/a	3	-1.382979e-01	-1.382979e-01
138.048460	1.149700	dec_accept	1.149700	32.000000	n/a	3	-1.393229e-01	-1.393229e-01
138.048460	1.149700	dec_social_accept_low	1.149700	32.000000	n/a	3	-1.393229e-01	-1.393229e-01
144.881300	1.316853	dec_nonsocial_choice	1.316853	16.000000	n/a	1	-1.699219e-01	-1.699219e-01
144.881300	1.316853	dec_choice	1.316853	16.000000	n/a	1	-1.692708e-01	-1.692708e-01
144.881300	1.316853	dec_nonsocial_accept	1.316853	16.000000	n/a	1	-1.695479e-01	-1.695479e-01
144.881300	1.316853	dec_accept	1.316853	16.000000	n/a	1	-1.684783e-01	-1.684783e-01
144.881300	1.316853	dec_nonsocial_accept_low	1.316853	16.000000	n/a	1	-1.705729e-01	-1.705729e-01
151.714680	1.482995	dec_social_choice	1.482995	32.000000	n/a	8	1.757812e-02	1.757812e-02
151.714680	1.482995	dec_choice	1.482995	32.000000	n/a	8	1.692708e-02	1.692708e-02
151.714680	1.482995	dec_social_accept	1.482995	32.000000	n/a	8	1.795213e-02	1.795213e-02
151.714680	1.482995	dec_accept	1.482995	32.000000	n/a	8	1.692708e-02	1.692708e-02
151.714680	1.482995	dec_social_accept_high	1.482995	32.000000	n/a	8	1.692708e-02	1.692708e-02
159.364910	1.016746	dec_nonsocial_choice	1.016746	16.000000	n/a	4	1.757812e-02	1.757812e-02
159.364910	1.016746	dec_choice	1.016746	16.000000	n/a	4	1.822917e-02	1.822917e-02
159.364910	1.016746	dec_nonsocial_accept	1.016746	16.000000	n/a	4	1.795213e-02	1.795213e-02
159.364910	1.016746	dec_accept	1.016746	16.000000	n/a	4	1.902174e-02	1.902174e-02
159.364910	1.016746	dec_nonsocial_high	1.016746	16.000000	n/a	4	1.822917e-02	1.822917e-02
159.364910	1.016746	dec_nonsocial_accept_high	1.016746	16.000000	n/a	4	1.902174e-02	1.902174e-02
170.230970	1.067197	dec_social_choice	1.067197	16.000000	n/a	2	-1.074219e-01	-1.074219e-01
170.230970	1.067197	dec_choice	1.067197	16.000000	n/a	2	-1.080729e-01	-1.080729e-01
170.230970	1.067197	dec_social_accept	1.067197	16.000000	n/a	2	-1.070479e-01	-1.070479e-01
170.230970	1.067197	dec_accept	1.067197	16.000000	n/a	2	-1.080729e-01	-1.080729e-01
170.230970	1.067197	dec_social_accept_low	1.067197	16.000000	n/a	2	-1.080729e-01	-1.080729e-01
177.881120	1.066339	dec_social_choice	1.066339	16.000000	n/a	1	-1.699219e-01	-1.699219e-01
177.881120	1.066339	dec_choice	1.066339	16.000000	n/a	1	-1.705729e-01	-1.705729e-01
177.881120	1.066339	dec_social_accept	1.066339	16.000000	n/a	1	-1.695479e-01	-1.695479e-01
177.881120	1.066339	dec_accept	1.066339	16.000000	n/a	1	-1.705729e-01	-1.705729e-01
177.881120	1.066339	dec_social_accept_low	1.066339	16.000000	n/a	1	-1.705729e-01	-1.705729e-01
187.132020	1.332852	dec_nonsocial_choice	1.332852	16.000000	n/a	1	-1.699219e-01	-1.699219e-01
187.132020	1.332852	dec_choice	1.332852	16.000000	n/a	1	-1.692708e-01	-1.692708e-01
187.132020	1.332852	dec_nonsocial_accept	1.332852	16.000000	n/a	1	-1.695479e-01	-1.695479e-01
187.132020	1.332852	dec_accept	1.332852	16.000000	n/a	1	-1.684783e-01	-1.684783e-01
187.132020	1.332852	dec_nonsocial_accept_low	1.332852	16.000000	n/a	1	-1.705729e-01	-1.705729e-01
193.965650	0.898556	dec_social_choice	0.898556	16.000000	n/a	8	2.675781e-01	2.675781e-01
193.965650	0.898556	dec_choice	0.898556	16.000000	n/a	8	2.669271e-01	2.669271e-01
193.965650	0.898556	dec_social_accept	0.898556	16.000000	n/a	8	2.679521e-01	2.679521e-01
193.965650	0.898556	dec_accept	0.898556	16.000000	n/a	8	2.669271e-01	2.669271e-01
193.965650	0.898556	dec_social_high	0.898556	16.000000	n/a	8	2.669271e-01	2.669271e-01
193.965650	0.898556	dec_social_accept_high	0.898556	16.000000	n/a	8	2.669271e-01	2.669271e-01
200.797970	1.083485	dec_nonsocial_choice	1.083485	32.000000	n/a	8	1.757812e-02	1.757812e-02
200.797970	1.083485	dec_choice	1.083485	32.000000	n/a	8	1.822917e-02	1.822917e-02
200.797970	1.083485	dec_nonsocial_accept	1.083485	32.000000	n/a	8	1.795213e-02	1.795213e-02
200.797970	1.083485	dec_accept	1.083485	32.000000	n/a	8	1.902174e-02	1.902174e-02
200.797970	1.083485	dec_nonsocial_accept_high	1.083485	32.000000	n/a	8	1.692708e-02	1.692708e-02
208.448880	1.232473	dec_nonsocial_choice	1.232473	16.000000	n/a	2	-1.074219e-01	-1.074219e-01
208.448880	1.232473	dec_choice	1.232473	16.000000	n/a	2	-1.067708e-01	-1.067708e-01
208.448880	1.232473	dec_nonsocial_accept	1.232473	16.000000	n/a	2	-1.070479e-01	-1.070479e-01
208.448880	1.232473	dec_accept	1.232473	16.000000	n/a	2	-1.059783e-01	-1.059783e-01
208.448880	1.232473	dec_nonsocial_low	1.232473	16.000000	n/a	2	-1.067708e-01	-1.067708e-01
208.448880	1.232473	dec_nonsocial_accept_low	1.232473	16.000000	n/a	2	-1.059783e-01	-1.059783e-01
216.099000	1.098941	dec_nonsocial_choice	1.098941	32.000000	n/a	3	-1.386719e-01	-1.386719e-01
216.099000	1.098941	dec_choice	1.098941	32.000000	n/a	3	-1.380208e-01	-1.380208e-01
216.099000	1.098941	dec_nonsocial_accept	1.098941	32.000000	n/a	3	-1.382979e-01	-1.382979e-01
216.099000	1.098941	dec_accept	1.098941	32.000000	n/a	3	-1.372283e-01	-1.372283e-01
216.099000	1.098941	dec_nonsocial_low	1.098941	32.000000	n/a	3	-1.380208e-01	-1.380208e-01
216.099000	1.098941	dec_nonsocial_accept_low	1.098941	32.000000	n/a	3	-1.372283e-01	-1.372283e-01
225.364940	0.765694	dec_social_choice	0.765694	16.000000	n/a	2	-1.074219e-01	-1.074219e-01
225.364940	0.765694	dec_choice	0.765694	16.000000	n/a	2	-1.080729e-01	-1.080729e-01
225.364940	0.765694	dec_social_accept	0.765694	16.000000	n/a	2	-1.070479e-01	-1.070479e-01
225.364940	0.765694	dec_accept	0.765694	16.000000	n/a	2	-1.080729e-01	-1.080729e-01
225.364940	0.765694	dec_social_low	0.765694	16.000000	n/a	2	-1.080729e-01	-1.080729e-01
225.364940	0.765694	dec_social_accept_low	0.765694	16.000000	n/a	2	-1.080729e-01	-1.080729e-01
234.633000	1.164407	dec_nonsocial_choice	1.164407	16.000000	n/a	2	-1.074219e-01	-1.074219e-01
234.633000	1.164407	dec_choice	1.164407	16.000000	n/a	2	-1.067708e-01	-1.067708e-01
234.633000	1.164407	dec_nonsocial_accept	1.164407	16.000000	n/a	2	-1.070479e-01	-1.070479e-01
234.633000	1.164407	dec_accept	1.164407	16.000000	n/a	2	-1.059783e-01	-1.059783e-01
234.633000	1.164407	dec_nonsocial_accept_low	1.164407	16.000000	n/a	2	-1.080729e-01	-1.080729e-01
243.898390	1.098982	dec_social_choice	1.098982	32.000000	n/a	16	2.675781e-01	2.675781e-01
243.898390	1.098982	dec_choice	1.098982	32.000000	n/a	16	2.669271e-01	2.669271e-01
243.898390	1.098982	dec_social_accept	1.098982	32.000000	n/a	16	2.679521e-01	2.679521e-01
243.898390	1.098982	dec_accept	1.098982	32.000000	n/a	16	2.669271e-01	2.669271e-01
243.898390	1.098982	dec_social_high	1.098982	32.000000	n/a	16	2.669271e-01	2.669271e-01
243.898390	1.098982	dec_social_accept_high	1.098982	32.000000	n/a	16	2.669271e-01	2.669271e-01
250.730990	0.933867	dec_social_choice	0.933867	32.000000	n/a	2	-1.699219e-01	-1.699219e-01
250.730990	0.933867	dec_choice	0.933867	32.000000	n/a	2	-1.705729e-01	-1.705729e-01
250.730990	0.933867	dec_social_accept	0.933867	32.000000	n/a	2	-1.695479e-01	-1.695479e-01
250.730990	0.933867	dec_accept	0.933867	32.000000	n/a	2	-1.705729e-01	-1.705729e-01
250.730990	0.933867	dec_social_low	0.933867	32.000000	n/a	2	-1.705729e-01	-1.705729e-01
250.730990	0.933867	dec_social_accept_low	0.933867	32.000000	n/a	2	-1.705729e-01	-1.705729e-01
258.381900	1.016123	dec_nonsocial_choice	1.016123	32.000000	n/a	16	2.675781e-01	2.675781e-01
258.381900	1.016123	dec_choice	1.016123	32.000000	n/a	16	2.682292e-01	2.682292e-01
258.381900	1.016123	dec_nonsocial_accept	1.016123	32.000000	n/a	16	2.679521e-01	2.679521e-01
258.381900	1.016123	dec_accept	1.016123	32.000000	n/a	16	2.690217e-01	2.690217e-01
258.381900	1.016123	dec_nonsocial_accept_high	1.016123	32.000000	n/a	16	2.669271e-01	2.669271e-01
265.215180	1.132787	dec_social_choice	1.132787	32.000000	n/a	8	1.757812e-02	1.757812e-02
265.215180	1.132787	dec_choice	1.132787	32.000000	n/a	8	1.692708e-02	1.692708e-02
265.215180	1.132787	dec_social_accept	1.132787	32.000000	n/a	8	1.795213e-02	1.795213e-02
265.215180	1.132787	dec_accept	1.132787	32.000000	n/a	8	1.692708e-02	1.692708e-02
265.215180	1.132787	dec_social_accept_high	1.132787	32.000000	n/a	8	1.692708e-02	1.692708e-02
277.698120	0.933015	dec_nonsocial_choice	0.933015	32.000000	n/a	2	-1.699219e-01	-1.699219e-01
277.698120	0.933015	dec_choice	0.933015	32.000000	n/a	2	-1.692708e-01	-1.692708e-01
277.698120	0.933015	dec_nonsocial_accept	0.933015	32.000000	n/a	2	-1.695479e-01	-1.695479e-01
277.698120	0.933015	dec_accept	0.933015	32.000000	n/a	2	-1.684783e-01	-1.684783e-01
277.698120	0.933015	dec_nonsocial_accept_low	0.933015	32.000000	n/a	2	-1.705729e-01	-1.705729e-01
284.530030	0.800468	dec_social_choice	0.800468	16.000000	n/a	2	-1.074219e-01	-1.074219e-01
284.530030	0.800468	dec_choice	0.800468	16.000000	n/a	2	-1.080729e-01	-1.080729e-01
284.530030	0.800468	dec_social_accept	0.800468	16.000000	n/a	2	-1.070479e-01	-1.070479e-01
284.530030	0.800468	dec_accept	0.800468	16.000000	n/a	2	-1.080729e-01	-1.080729e-01
284.530030	0.800468	dec_social_low	0.800468	16.000000	n/a	2	-1.080729e-01	-1.080729e-01
284.530030	0.800468	dec_social_accept_low	0.800468	16.000000	n/a	2	-1.080729e-01	-1.080729e-01
291.364840	1.049974	dec_social_choice	1.049974	32.000000	n/a	8	1.757812e-02	1.757812e-02
291.364840	1.049974	dec_choice	1.049974	32.000000	n/a	8	1.692708e-02	1.692708e-02
291.364840	1.049974	dec_social_accept	1.049974	32.000000	n/a	8	1.795213e-02	1.795213e-02
291.364840	1.049974	dec_accept	1.049974	32.000000	n/a	8	1.692708e-02	1.692708e-02
291.364840	1.049974	dec_social_accept_high	1.049974	32.000000	n/a	8	1.692708e-02	1.692708e-02
299.015100	1.465948	dec_nonsocial_choice	1.465948	16.000000	n/a	2	-1.074219e-01	-1.074219e-01
299.015100	1.465948	dec_choice	1.465948	16.000000	n/a	2	-1.067708e-01	-1.067708e-01
299.015100	1.465948	dec_nonsocial_accept	1.465948	16.000000	n/a	2	-1.070479e-01	-1.070479e-01
299.015100	1.465948	dec_accept	1.465948	16.000000	n/a	2	-1.059783e-01	-1.059783e-01
299.015100	1.465948	dec_nonsocial_accept_low	1.465948	16.000000	n/a	2	-1.080729e-01	-1.080729e-01
306.664100	0.916607	dec_nonsocial_choice	0.916607	16.000000	n/a	4	1.757812e-02	1.757812e-02
306.664100	0.916607	dec_choice	0.916607	16.000000	n/a	4	1.822917e-02	1.822917e-02
306.664100	0.916607	dec_nonsocial_accept	0.916607	16.000000	n/a	4	1.795213e-02	1.795213e-02
306.664100	0.916607	dec_accept	0.916607	16.000000	n/a	4	1.902174e-02	1.902174e-02
306.664100	0.916607	dec_nonsocial_high	0.916607	16.000000	n/a	4	1.822917e-02	1.822917e-02
306.664100	0.916607	dec_nonsocial_accept_high	0.916607	16.000000	n/a	4	1.902174e-02	1.902174e-02
317.531070	0.783655	dec_nonsocial_choice	0.783655	16.000000	n/a	8	2.675781e-01	2.675781e-01
317.531070	0.783655	dec_choice	0.783655	16.000000	n/a	8	2.682292e-01	2.682292e-01
317.531070	0.783655	dec_nonsocial_accept	0.783655	16.000000	n/a	8	2.679521e-01	2.679521e-01
317.531070	0.783655	dec_accept	0.783655	16.000000	n/a	8	2.690217e-01	2.690217e-01
317.531070	0.783655	dec_nonsocial_high	0.783655	16.000000	n/a	8	2.682292e-01	2.682292e-01
317.531070	0.783655	dec_nonsocial_accept_high	0.783655	16.000000	n/a	8	2.690217e-01	2.690217e-01
324.365050	0.899241	dec_nonsocial_choice	0.899241	32.000000	n/a	16	2.675781e-01	2.675781e-01
324.365050	0.899241	dec_choice	0.899241	32.000000	n/a	16	2.682292e-01	2.682292e-01
324.365050	0.899241	dec_nonsocial_accept	0.899241	32.000000	n/a	16	2.679521e-01	2.679521e-01
324.365050	0.899241	dec_accept	0.899241	32.000000	n/a	16	2.690217e-01	2.690217e-01
324.365050	0.899241	dec_nonsocial_high	0.899241	32.000000	n/a	16	2.682292e-01	2.682292e-01
324.365050	0.899241	dec_nonsocial_accept_high	0.899241	32.000000	n/a	16	2.690217e-01	2.690217e-01
331.197240	1.133889	dec_nonsocial_choice	1.133889	32.000000	n/a	3	-1.386719e-01	-1.386719e-01
331.197240	1.133889	dec_choice	1.133889	32.000000	n/a	3	-1.380208e-01	-1.380208e-01
331.197240	1.133889	dec_nonsocial_accept	1.133889	32.000000	n/a	3	-1.382979e-01	-1.382979e-01
331.197240	1.133889	dec_accept	1.133889	32.000000	n/a	3	-1.372283e-01	-1.372283e-01
331.197240	1.133889	dec_nonsocial_accept_low	1.133889	32.000000	n/a	3	-1.393229e-01	-1.393229e-01
338.030940	0.983411	dec_social_choice	0.983411	32.000000	n/a	16	2.675781e-01	2.675781e-01
338.030940	0.983411	dec_choice	0.983411	32.000000	n/a	16	2.669271e-01	2.669271e-01
338.030940	0.983411	dec_social_accept	0.983411	32.000000	n/a	16	2.679521e-01	2.679521e-01
338.030940	0.983411	dec_accept	0.983411	32.000000	n/a	16	2.669271e-01	2.669271e-01
338.030940	0.983411	dec_social_high	0.983411	32.000000	n/a	16	2.669271e-01	2.669271e-01
338.030940	0.983411	dec_social_accept_high	0.983411	32.000000	n/a	16	2.669271e-01	2.669271e-01
344.864000	0.916282	dec_nonsocial_choice	0.916282	32.000000	n/a	8	1.757812e-02	1.757812e-02
344.864000	0.916282	dec_choice	0.916282	32.000000	n/a	8	1.822917e-02	1.822917e-02
344.864000	0.916282	dec_nonsocial_accept	0.916282	32.000000	n/a	8	1.795213e-02	1.795213e-02
344.864000	0.916282	dec_accept	0.916282	32.000000	n/a	8	1.902174e-02	1.902174e-02
344.864000	0.916282	dec_nonsocial_accept_high	0.916282	32.000000	n/a	8	1.692708e-02	1.692708e-02
351.697570	0.733512	dec_nonsocial_choice	0.733512	16.000000	n/a	2	-1.074219e-01	-1.074219e-01
351.697570	0.733512	dec_choice	0.733512	16.000000	n/a	2	-1.067708e-01	-1.067708e-01
351.697570	0.733512	dec_nonsocial_accept	0.733512	16.000000	n/a	2	-1.070479e-01	-1.070479e-01
351.697570	0.733512	dec_accept	0.733512	16.000000	n/a	2	-1.059783e-01	-1.059783e-01
351.697570	0.733512	dec_nonsocial_accept_low	0.733512	16.000000	n/a	2	-1.080729e-01	-1.080729e-01
358.531100	1.283119	dec_nonsocial_choice	1.283119	32.000000	n/a	0	0	-2.324219e-01
358.531100	1.283119	dec_choice	1.283119	32.000000	n/a	0	0	-2.317708e-01
358.531100	1.283119	dec_nonsocial_reject	1.283119	32.000000	n/a	0	0	1.250000e-01
358.531100	1.283119	dec_reject	1.283119	32.000000	n/a	0	0	0
358.531100	1.283119	dec_nonsocial_low	1.283119	32.000000	n/a	0	-2.317708e-01	-2.317708e-01
358.531100	1.283119	dec_nonsocial_reject_low	1.283119	32.000000	n/a	8	0	-2.500000e-01
365.364800	1.215794	dec_social_choice	1.215794	32.000000	n/a	8	1.757812e-02	1.757812e-02
365.364800	1.215794	dec_choice	1.215794	32.000000	n/a	8	1.692708e-02	1.692708e-02
365.364800	1.215794	dec_social_accept	1.215794	32.000000	n/a	8	1.795213e-02	1.795213e-02
365.364800	1.215794	dec_accept	1.215794	32.000000	n/a	8	1.692708e-02	1.692708e-02
365.364800	1.215794	dec_social_accept_high	1.215794	32.000000	n/a	8	1.692708e-02	1.692708e-02
373.014070	0.983665	dec_nonsocial_choice	0.983665	32.000000	n/a	2	-1.699219e-01	-1.699219e-01
373.014070	0.983665	dec_choice	0.983665	32.000000	n/a	2	-1.692708e-01	-1.692708e-01
373.014070	0.983665	dec_nonsocial_accept	0.983665	32.000000	n/a	2	-1.695479e-01	-1.695479e-01
373.014070	0.983665	dec_accept	0.983665	32.000000	n/a	2	-1.684783e-01	-1.684783e-01
373.014070	0.983665	dec_nonsocial_accept_low	0.983665	32.000000	n/a	2	-1.705729e-01	-1.705729e-01
