onset	duration	trial_type	response_time	Endowment	Endowment_pmod	Decision	Decision_pmod	Offer_pmod
4.519702	2	cue_nonsocial	n/a	32	7	n/a	n/a	n/a
4.519702	2	cue_nonsocial_high	n/a	32	9	n/a	n/a	n/a
11.353243	2	cue_nonsocial	n/a	32	7	n/a	n/a	n/a
11.353243	2	cue_nonsocial_high	n/a	32	9	n/a	n/a	n/a
19.003086	2	cue_nonsocial	n/a	32	7	n/a	n/a	n/a
19.003086	2	cue_nonsocial_high	n/a	32	9	n/a	n/a	n/a
25.889100	2	cue_social	n/a	32	9	n/a	n/a	n/a
25.889100	2	cue_social_high	n/a	32	7	n/a	n/a	n/a
32.669884	2	cue_nonsocial	n/a	16	-9	n/a	n/a	n/a
32.669884	2	cue_nonsocial_low	n/a	16	-7	n/a	n/a	n/a
40.363194	2	cue_social	n/a	16	-7	n/a	n/a	n/a
40.363194	2	cue_social_low	n/a	16	-9	n/a	n/a	n/a
47.136402	2	cue_nonsocial	n/a	32	7	n/a	n/a	n/a
47.136402	2	cue_nonsocial_high	n/a	32	9	n/a	n/a	n/a
58.003864	2	cue_nonsocial	n/a	16	-9	n/a	n/a	n/a
58.003864	2	cue_nonsocial_low	n/a	16	-7	n/a	n/a	n/a
64.836310	2	cue_nonsocial	n/a	32	7	n/a	n/a	n/a
64.836310	2	cue_nonsocial_high	n/a	32	9	n/a	n/a	n/a
71.669670	2	cue_nonsocial	n/a	16	-9	n/a	n/a	n/a
71.669670	2	cue_nonsocial_low	n/a	16	-7	n/a	n/a	n/a
78.572845	2	cue_social	n/a	32	9	n/a	n/a	n/a
78.572845	2	cue_social_high	n/a	32	7	n/a	n/a	n/a
85.336340	2	cue_nonsocial	n/a	16	-9	n/a	n/a	n/a
85.336340	2	cue_nonsocial_low	n/a	16	-7	n/a	n/a	n/a
92.221950	2	cue_social	n/a	32	9	n/a	n/a	n/a
92.221950	2	cue_social_high	n/a	32	7	n/a	n/a	n/a
99.819786	2	cue_nonsocial	n/a	32	7	n/a	n/a	n/a
99.819786	2	cue_nonsocial_high	n/a	32	9	n/a	n/a	n/a
110.766010	2	cue_social	n/a	32	9	n/a	n/a	n/a
110.766010	2	cue_social_high	n/a	32	7	n/a	n/a	n/a
117.519300	2	cue_nonsocial	n/a	16	-9	n/a	n/a	n/a
117.519300	2	cue_nonsocial_low	n/a	16	-7	n/a	n/a	n/a
125.169670	2	cue_nonsocial	n/a	16	-9	n/a	n/a	n/a
125.169670	2	cue_nonsocial_low	n/a	16	-7	n/a	n/a	n/a
134.502120	2	cue_social	n/a	16	-7	n/a	n/a	n/a
134.502120	2	cue_social_low	n/a	16	-9	n/a	n/a	n/a
141.269700	2	cue_nonsocial	n/a	32	7	n/a	n/a	n/a
141.269700	2	cue_nonsocial_high	n/a	32	9	n/a	n/a	n/a
153.824620	2	cue_social	n/a	16	-7	n/a	n/a	n/a
153.824620	2	cue_social_low	n/a	16	-9	n/a	n/a	n/a
163.020100	2	cue_nonsocial	n/a	16	-9	n/a	n/a	n/a
163.020100	2	cue_nonsocial_low	n/a	16	-7	n/a	n/a	n/a
169.916800	2	cue_social	n/a	32	9	n/a	n/a	n/a
169.916800	2	cue_social_high	n/a	32	7	n/a	n/a	n/a
176.785080	2	cue_social	n/a	32	9	n/a	n/a	n/a
176.785080	2	cue_social_high	n/a	32	7	n/a	n/a	n/a
183.581150	2	cue_social	n/a	16	-7	n/a	n/a	n/a
183.581150	2	cue_social_low	n/a	16	-9	n/a	n/a	n/a
192.786680	2	cue_nonsocial	n/a	16	-9	n/a	n/a	n/a
192.786680	2	cue_nonsocial_low	n/a	16	-7	n/a	n/a	n/a
200.487600	2	cue_social	n/a	32	9	n/a	n/a	n/a
200.487600	2	cue_social_high	n/a	32	7	n/a	n/a	n/a
211.347120	2	cue_social	n/a	32	9	n/a	n/a	n/a
211.347120	2	cue_social_high	n/a	32	7	n/a	n/a	n/a
218.135860	2	cue_nonsocial	n/a	16	-9	n/a	n/a	n/a
218.135860	2	cue_nonsocial_low	n/a	16	-7	n/a	n/a	n/a
224.969850	2	cue_nonsocial	n/a	16	-9	n/a	n/a	n/a
224.969850	2	cue_nonsocial_low	n/a	16	-7	n/a	n/a	n/a
232.686480	2	cue_social	n/a	16	-7	n/a	n/a	n/a
232.686480	2	cue_social_low	n/a	16	-9	n/a	n/a	n/a
239.452970	2	cue_nonsocial	n/a	32	7	n/a	n/a	n/a
239.452970	2	cue_nonsocial_high	n/a	32	9	n/a	n/a	n/a
247.102390	2	cue_nonsocial	n/a	32	7	n/a	n/a	n/a
247.102390	2	cue_nonsocial_high	n/a	32	9	n/a	n/a	n/a
254.012200	2	cue_social	n/a	16	-7	n/a	n/a	n/a
254.012200	2	cue_social_low	n/a	16	-9	n/a	n/a	n/a
260.822140	2	cue_social	n/a	32	9	n/a	n/a	n/a
260.822140	2	cue_social_high	n/a	32	7	n/a	n/a	n/a
270.095300	2	cue_social	n/a	16	-7	n/a	n/a	n/a
270.095300	2	cue_social_low	n/a	16	-9	n/a	n/a	n/a
277.669280	2	cue_nonsocial	n/a	16	-9	n/a	n/a	n/a
277.669280	2	cue_nonsocial_low	n/a	16	-7	n/a	n/a	n/a
285.319150	2	cue_nonsocial	n/a	32	7	n/a	n/a	n/a
285.319150	2	cue_nonsocial_high	n/a	32	9	n/a	n/a	n/a
294.627960	2	cue_social	n/a	32	9	n/a	n/a	n/a
294.627960	2	cue_social_high	n/a	32	7	n/a	n/a	n/a
303.871830	2	cue_social	n/a	16	-7	n/a	n/a	n/a
303.871830	2	cue_social_low	n/a	16	-9	n/a	n/a	n/a
311.469300	2	cue_nonsocial	n/a	32	7	n/a	n/a	n/a
311.469300	2	cue_nonsocial_high	n/a	32	9	n/a	n/a	n/a
318.365400	2	cue_social	n/a	16	-7	n/a	n/a	n/a
318.365400	2	cue_social_low	n/a	16	-9	n/a	n/a	n/a
325.219120	2	cue_social	n/a	16	-7	n/a	n/a	n/a
325.219120	2	cue_social_low	n/a	16	-9	n/a	n/a	n/a
332.028080	2	cue_social	n/a	32	9	n/a	n/a	n/a
332.028080	2	cue_social_high	n/a	32	7	n/a	n/a	n/a
341.290040	2	cue_social	n/a	16	-7	n/a	n/a	n/a
341.290040	2	cue_social_low	n/a	16	-9	n/a	n/a	n/a
348.869080	2	cue_nonsocial	n/a	32	7	n/a	n/a	n/a
348.869080	2	cue_nonsocial_high	n/a	32	9	n/a	n/a	n/a
355.761840	2	cue_social	n/a	16	-7	n/a	n/a	n/a
355.761840	2	cue_social_low	n/a	16	-9	n/a	n/a	n/a
362.535830	2	cue_nonsocial	n/a	32	7	n/a	n/a	n/a
362.535830	2	cue_nonsocial_high	n/a	32	9	n/a	n/a	n/a
370.235800	2	cue_social	n/a	16	-7	n/a	n/a	n/a
370.235800	2	cue_social_low	n/a	16	-9	n/a	n/a	n/a
6.526640	0.882902	dec_nonsocial_choice	0.882902	32.000000	n/a	3	-1.367188e-01	-1.367188e-01
6.526640	0.882902	dec_choice	0.882902	32.000000	n/a	3	-1.367188e-01	-1.367188e-01
6.526640	0.882902	dec_nonsocial_accept	0.882902	32.000000	n/a	3	-1.367188e-01	-1.367188e-01
6.526640	0.882902	dec_accept	0.882902	32.000000	n/a	3	-1.367188e-01	-1.367188e-01
6.526640	0.882902	dec_nonsocial_low	0.882902	32.000000	n/a	3	-1.367188e-01	-1.367188e-01
6.526640	0.882902	dec_nonsocial_accept_low	0.882902	32.000000	n/a	3	-1.367188e-01	-1.367188e-01
13.359924	0.765671	dec_nonsocial_choice	0.765671	32.000000	n/a	16	2.695312e-01	2.695312e-01
13.359924	0.765671	dec_choice	0.765671	32.000000	n/a	16	2.695312e-01	2.695312e-01
13.359924	0.765671	dec_nonsocial_accept	0.765671	32.000000	n/a	16	2.695312e-01	2.695312e-01
13.359924	0.765671	dec_accept	0.765671	32.000000	n/a	16	2.695312e-01	2.695312e-01
13.359924	0.765671	dec_nonsocial_high	0.765671	32.000000	n/a	16	2.695312e-01	2.695312e-01
13.359924	0.765671	dec_nonsocial_accept_high	0.765671	32.000000	n/a	16	2.695312e-01	2.695312e-01
21.010231	0.765368	dec_nonsocial_choice	0.765368	32.000000	n/a	3	-1.367188e-01	-1.367188e-01
21.010231	0.765368	dec_choice	0.765368	32.000000	n/a	3	-1.367188e-01	-1.367188e-01
21.010231	0.765368	dec_nonsocial_accept	0.765368	32.000000	n/a	3	-1.367188e-01	-1.367188e-01
21.010231	0.765368	dec_accept	0.765368	32.000000	n/a	3	-1.367188e-01	-1.367188e-01
21.010231	0.765368	dec_nonsocial_low	0.765368	32.000000	n/a	3	-1.367188e-01	-1.367188e-01
21.010231	0.765368	dec_nonsocial_accept_low	0.765368	32.000000	n/a	3	-1.367188e-01	-1.367188e-01
27.842888	0.833288	dec_social_choice	0.833288	32.000000	n/a	3	-1.367188e-01	-1.367188e-01
27.842888	0.833288	dec_choice	0.833288	32.000000	n/a	3	-1.367188e-01	-1.367188e-01
27.842888	0.833288	dec_social_accept	0.833288	32.000000	n/a	3	-1.367188e-01	-1.367188e-01
27.842888	0.833288	dec_accept	0.833288	32.000000	n/a	3	-1.367188e-01	-1.367188e-01
27.842888	0.833288	dec_social_accept_low	0.833288	32.000000	n/a	3	-1.367188e-01	-1.367188e-01
34.675620	1.000223	dec_nonsocial_choice	1.000223	16.000000	n/a	4	1.953125e-02	1.953125e-02
34.675620	1.000223	dec_choice	1.000223	16.000000	n/a	4	1.953125e-02	1.953125e-02
34.675620	1.000223	dec_nonsocial_accept	1.000223	16.000000	n/a	4	1.953125e-02	1.953125e-02
34.675620	1.000223	dec_accept	1.000223	16.000000	n/a	4	1.953125e-02	1.953125e-02
34.675620	1.000223	dec_nonsocial_high	1.000223	16.000000	n/a	4	1.953125e-02	1.953125e-02
34.675620	1.000223	dec_nonsocial_accept_high	1.000223	16.000000	n/a	4	1.953125e-02	1.953125e-02
42.309690	0.866129	dec_social_choice	0.866129	16.000000	n/a	4	1.953125e-02	1.953125e-02
42.309690	0.866129	dec_choice	0.866129	16.000000	n/a	4	1.953125e-02	1.953125e-02
42.309690	0.866129	dec_social_accept	0.866129	16.000000	n/a	4	1.953125e-02	1.953125e-02
42.309690	0.866129	dec_accept	0.866129	16.000000	n/a	4	1.953125e-02	1.953125e-02
42.309690	0.866129	dec_social_high	0.866129	16.000000	n/a	4	1.953125e-02	1.953125e-02
42.309690	0.866129	dec_social_accept_high	0.866129	16.000000	n/a	4	1.953125e-02	1.953125e-02
49.142677	1.550208	dec_nonsocial_choice	1.550208	32.000000	n/a	2	-1.679688e-01	-1.679688e-01
49.142677	1.550208	dec_choice	1.550208	32.000000	n/a	2	-1.679688e-01	-1.679688e-01
49.142677	1.550208	dec_nonsocial_accept	1.550208	32.000000	n/a	2	-1.679688e-01	-1.679688e-01
49.142677	1.550208	dec_accept	1.550208	32.000000	n/a	2	-1.679688e-01	-1.679688e-01
49.142677	1.550208	dec_nonsocial_accept_low	1.550208	32.000000	n/a	2	-1.679688e-01	-1.679688e-01
60.009666	0.815947	dec_nonsocial_choice	0.815947	16.000000	n/a	2	-1.054688e-01	-1.054688e-01
60.009666	0.815947	dec_choice	0.815947	16.000000	n/a	2	-1.054688e-01	-1.054688e-01
60.009666	0.815947	dec_nonsocial_accept	0.815947	16.000000	n/a	2	-1.054688e-01	-1.054688e-01
60.009666	0.815947	dec_accept	0.815947	16.000000	n/a	2	-1.054688e-01	-1.054688e-01
60.009666	0.815947	dec_nonsocial_low	0.815947	16.000000	n/a	2	-1.054688e-01	-1.054688e-01
60.009666	0.815947	dec_nonsocial_accept_low	0.815947	16.000000	n/a	2	-1.054688e-01	-1.054688e-01
66.842930	0.816009	dec_nonsocial_choice	0.816009	32.000000	n/a	2	-1.679688e-01	-1.679688e-01
66.842930	0.816009	dec_choice	0.816009	32.000000	n/a	2	-1.679688e-01	-1.679688e-01
66.842930	0.816009	dec_nonsocial_accept	0.816009	32.000000	n/a	2	-1.679688e-01	-1.679688e-01
66.842930	0.816009	dec_accept	0.816009	32.000000	n/a	2	-1.679688e-01	-1.679688e-01
66.842930	0.816009	dec_nonsocial_low	0.816009	32.000000	n/a	2	-1.679688e-01	-1.679688e-01
66.842930	0.816009	dec_nonsocial_accept_low	0.816009	32.000000	n/a	2	-1.679688e-01	-1.679688e-01
73.675705	1.266536	dec_nonsocial_choice	1.266536	16.000000	n/a	2	-1.054688e-01	-1.054688e-01
73.675705	1.266536	dec_choice	1.266536	16.000000	n/a	2	-1.054688e-01	-1.054688e-01
73.675705	1.266536	dec_nonsocial_accept	1.266536	16.000000	n/a	2	-1.054688e-01	-1.054688e-01
73.675705	1.266536	dec_accept	1.266536	16.000000	n/a	2	-1.054688e-01	-1.054688e-01
73.675705	1.266536	dec_nonsocial_accept_low	1.266536	16.000000	n/a	2	-1.054688e-01	-1.054688e-01
80.508140	0.767676	dec_social_choice	0.767676	32.000000	n/a	16	2.695312e-01	2.695312e-01
80.508140	0.767676	dec_choice	0.767676	32.000000	n/a	16	2.695312e-01	2.695312e-01
80.508140	0.767676	dec_social_accept	0.767676	32.000000	n/a	16	2.695312e-01	2.695312e-01
80.508140	0.767676	dec_accept	0.767676	32.000000	n/a	16	2.695312e-01	2.695312e-01
80.508140	0.767676	dec_social_high	0.767676	32.000000	n/a	16	2.695312e-01	2.695312e-01
80.508140	0.767676	dec_social_accept_high	0.767676	32.000000	n/a	16	2.695312e-01	2.695312e-01
87.342940	1.065458	dec_nonsocial_choice	1.065458	16.000000	n/a	8	2.695312e-01	2.695312e-01
87.342940	1.065458	dec_choice	1.065458	16.000000	n/a	8	2.695312e-01	2.695312e-01
87.342940	1.065458	dec_nonsocial_accept	1.065458	16.000000	n/a	8	2.695312e-01	2.695312e-01
87.342940	1.065458	dec_accept	1.065458	16.000000	n/a	8	2.695312e-01	2.695312e-01
87.342940	1.065458	dec_nonsocial_accept_high	1.065458	16.000000	n/a	8	2.695312e-01	2.695312e-01
94.176500	1.199376	dec_social_choice	1.199376	32.000000	n/a	2	-1.679688e-01	-1.679688e-01
94.176500	1.199376	dec_choice	1.199376	32.000000	n/a	2	-1.679688e-01	-1.679688e-01
94.176500	1.199376	dec_social_accept	1.199376	32.000000	n/a	2	-1.679688e-01	-1.679688e-01
94.176500	1.199376	dec_accept	1.199376	32.000000	n/a	2	-1.679688e-01	-1.679688e-01
94.176500	1.199376	dec_social_accept_low	1.199376	32.000000	n/a	2	-1.679688e-01	-1.679688e-01
101.824900	1.266789	dec_nonsocial_choice	1.266789	32.000000	n/a	2	-1.679688e-01	-1.679688e-01
101.824900	1.266789	dec_choice	1.266789	32.000000	n/a	2	-1.679688e-01	-1.679688e-01
101.824900	1.266789	dec_nonsocial_accept	1.266789	32.000000	n/a	2	-1.679688e-01	-1.679688e-01
101.824900	1.266789	dec_accept	1.266789	32.000000	n/a	2	-1.679688e-01	-1.679688e-01
101.824900	1.266789	dec_nonsocial_accept_low	1.266789	32.000000	n/a	2	-1.679688e-01	-1.679688e-01
112.691956	0.967120	dec_social_choice	0.967120	32.000000	n/a	16	2.695312e-01	2.695312e-01
112.691956	0.967120	dec_choice	0.967120	32.000000	n/a	16	2.695312e-01	2.695312e-01
112.691956	0.967120	dec_social_accept	0.967120	32.000000	n/a	16	2.695312e-01	2.695312e-01
112.691956	0.967120	dec_accept	0.967120	32.000000	n/a	16	2.695312e-01	2.695312e-01
112.691956	0.967120	dec_social_high	0.967120	32.000000	n/a	16	2.695312e-01	2.695312e-01
112.691956	0.967120	dec_social_accept_high	0.967120	32.000000	n/a	16	2.695312e-01	2.695312e-01
119.525986	0.933122	dec_nonsocial_choice	0.933122	16.000000	n/a	8	2.695312e-01	2.695312e-01
119.525986	0.933122	dec_choice	0.933122	16.000000	n/a	8	2.695312e-01	2.695312e-01
119.525986	0.933122	dec_nonsocial_accept	0.933122	16.000000	n/a	8	2.695312e-01	2.695312e-01
119.525986	0.933122	dec_accept	0.933122	16.000000	n/a	8	2.695312e-01	2.695312e-01
119.525986	0.933122	dec_nonsocial_high	0.933122	16.000000	n/a	8	2.695312e-01	2.695312e-01
119.525986	0.933122	dec_nonsocial_accept_high	0.933122	16.000000	n/a	8	2.695312e-01	2.695312e-01
127.174904	1.084117	dec_nonsocial_choice	1.084117	16.000000	n/a	8	2.695312e-01	2.695312e-01
127.174904	1.084117	dec_choice	1.084117	16.000000	n/a	8	2.695312e-01	2.695312e-01
127.174904	1.084117	dec_nonsocial_accept	1.084117	16.000000	n/a	8	2.695312e-01	2.695312e-01
127.174904	1.084117	dec_accept	1.084117	16.000000	n/a	8	2.695312e-01	2.695312e-01
127.174904	1.084117	dec_nonsocial_accept_high	1.084117	16.000000	n/a	8	2.695312e-01	2.695312e-01
136.442400	1.033463	dec_social_choice	1.033463	16.000000	n/a	2	-1.054688e-01	-1.054688e-01
136.442400	1.033463	dec_choice	1.033463	16.000000	n/a	2	-1.054688e-01	-1.054688e-01
136.442400	1.033463	dec_social_accept	1.033463	16.000000	n/a	2	-1.054688e-01	-1.054688e-01
136.442400	1.033463	dec_accept	1.033463	16.000000	n/a	2	-1.054688e-01	-1.054688e-01
136.442400	1.033463	dec_social_low	1.033463	16.000000	n/a	2	-1.054688e-01	-1.054688e-01
136.442400	1.033463	dec_social_accept_low	1.033463	16.000000	n/a	2	-1.054688e-01	-1.054688e-01
143.275910	1.017766	dec_nonsocial_choice	1.017766	32.000000	n/a	3	-1.367188e-01	-1.367188e-01
143.275910	1.017766	dec_choice	1.017766	32.000000	n/a	3	-1.367188e-01	-1.367188e-01
143.275910	1.017766	dec_nonsocial_accept	1.017766	32.000000	n/a	3	-1.367188e-01	-1.367188e-01
143.275910	1.017766	dec_accept	1.017766	32.000000	n/a	3	-1.367188e-01	-1.367188e-01
143.275910	1.017766	dec_nonsocial_accept_low	1.017766	32.000000	n/a	3	-1.367188e-01	-1.367188e-01
155.757970	1.000783	dec_social_choice	1.000783	16.000000	n/a	2	-1.054688e-01	-1.054688e-01
155.757970	1.000783	dec_choice	1.000783	16.000000	n/a	2	-1.054688e-01	-1.054688e-01
155.757970	1.000783	dec_social_accept	1.000783	16.000000	n/a	2	-1.054688e-01	-1.054688e-01
155.757970	1.000783	dec_accept	1.000783	16.000000	n/a	2	-1.054688e-01	-1.054688e-01
155.757970	1.000783	dec_social_low	1.000783	16.000000	n/a	2	-1.054688e-01	-1.054688e-01
155.757970	1.000783	dec_social_accept_low	1.000783	16.000000	n/a	2	-1.054688e-01	-1.054688e-01
165.025630	1.100005	dec_nonsocial_choice	1.100005	16.000000	n/a	2	-1.054688e-01	-1.054688e-01
165.025630	1.100005	dec_choice	1.100005	16.000000	n/a	2	-1.054688e-01	-1.054688e-01
165.025630	1.100005	dec_nonsocial_accept	1.100005	16.000000	n/a	2	-1.054688e-01	-1.054688e-01
165.025630	1.100005	dec_accept	1.100005	16.000000	n/a	2	-1.054688e-01	-1.054688e-01
165.025630	1.100005	dec_nonsocial_accept_low	1.100005	16.000000	n/a	2	-1.054688e-01	-1.054688e-01
171.858980	0.766365	dec_social_choice	0.766365	32.000000	n/a	8	1.953125e-02	1.953125e-02
171.858980	0.766365	dec_choice	0.766365	32.000000	n/a	8	1.953125e-02	1.953125e-02
171.858980	0.766365	dec_social_accept	0.766365	32.000000	n/a	8	1.953125e-02	1.953125e-02
171.858980	0.766365	dec_accept	0.766365	32.000000	n/a	8	1.953125e-02	1.953125e-02
171.858980	0.766365	dec_social_accept_high	0.766365	32.000000	n/a	8	1.953125e-02	1.953125e-02
178.692060	1.066576	dec_social_choice	1.066576	32.000000	n/a	16	2.695312e-01	2.695312e-01
178.692060	1.066576	dec_choice	1.066576	32.000000	n/a	16	2.695312e-01	2.695312e-01
178.692060	1.066576	dec_social_accept	1.066576	32.000000	n/a	16	2.695312e-01	2.695312e-01
178.692060	1.066576	dec_accept	1.066576	32.000000	n/a	16	2.695312e-01	2.695312e-01
178.692060	1.066576	dec_social_accept_high	1.066576	32.000000	n/a	16	2.695312e-01	2.695312e-01
185.526000	1.165332	dec_social_choice	1.165332	16.000000	n/a	4	1.953125e-02	1.953125e-02
185.526000	1.165332	dec_choice	1.165332	16.000000	n/a	4	1.953125e-02	1.953125e-02
185.526000	1.165332	dec_social_accept	1.165332	16.000000	n/a	4	1.953125e-02	1.953125e-02
185.526000	1.165332	dec_accept	1.165332	16.000000	n/a	4	1.953125e-02	1.953125e-02
185.526000	1.165332	dec_social_accept_high	1.165332	16.000000	n/a	4	1.953125e-02	1.953125e-02
194.792020	1.283293	dec_nonsocial_choice	1.283293	16.000000	n/a	1	-1.679688e-01	-1.679688e-01
194.792020	1.283293	dec_choice	1.283293	16.000000	n/a	1	-1.679688e-01	-1.679688e-01
194.792020	1.283293	dec_nonsocial_accept	1.283293	16.000000	n/a	1	-1.679688e-01	-1.679688e-01
194.792020	1.283293	dec_accept	1.283293	16.000000	n/a	1	-1.679688e-01	-1.679688e-01
194.792020	1.283293	dec_nonsocial_low	1.283293	16.000000	n/a	1	-1.679688e-01	-1.679688e-01
194.792020	1.283293	dec_nonsocial_accept_low	1.283293	16.000000	n/a	1	-1.679688e-01	-1.679688e-01
202.442730	1.099520	dec_social_choice	1.099520	32.000000	n/a	3	-1.367188e-01	-1.367188e-01
202.442730	1.099520	dec_choice	1.099520	32.000000	n/a	3	-1.367188e-01	-1.367188e-01
202.442730	1.099520	dec_social_accept	1.099520	32.000000	n/a	3	-1.367188e-01	-1.367188e-01
202.442730	1.099520	dec_accept	1.099520	32.000000	n/a	3	-1.367188e-01	-1.367188e-01
202.442730	1.099520	dec_social_accept_low	1.099520	32.000000	n/a	3	-1.367188e-01	-1.367188e-01
213.309200	1.199749	dec_social_choice	1.199749	32.000000	n/a	8	1.953125e-02	1.953125e-02
213.309200	1.199749	dec_choice	1.199749	32.000000	n/a	8	1.953125e-02	1.953125e-02
213.309200	1.199749	dec_social_accept	1.199749	32.000000	n/a	8	1.953125e-02	1.953125e-02
213.309200	1.199749	dec_accept	1.199749	32.000000	n/a	8	1.953125e-02	1.953125e-02
213.309200	1.199749	dec_social_accept_high	1.199749	32.000000	n/a	8	1.953125e-02	1.953125e-02
220.142230	1.015977	dec_nonsocial_choice	1.015977	16.000000	n/a	8	2.695312e-01	2.695312e-01
220.142230	1.015977	dec_choice	1.015977	16.000000	n/a	8	2.695312e-01	2.695312e-01
220.142230	1.015977	dec_nonsocial_accept	1.015977	16.000000	n/a	8	2.695312e-01	2.695312e-01
220.142230	1.015977	dec_accept	1.015977	16.000000	n/a	8	2.695312e-01	2.695312e-01
220.142230	1.015977	dec_nonsocial_accept_high	1.015977	16.000000	n/a	8	2.695312e-01	2.695312e-01
226.975740	0.849737	dec_nonsocial_choice	0.849737	16.000000	n/a	1	-1.679688e-01	-1.679688e-01
226.975740	0.849737	dec_choice	0.849737	16.000000	n/a	1	-1.679688e-01	-1.679688e-01
226.975740	0.849737	dec_nonsocial_accept	0.849737	16.000000	n/a	1	-1.679688e-01	-1.679688e-01
226.975740	0.849737	dec_accept	0.849737	16.000000	n/a	1	-1.679688e-01	-1.679688e-01
226.975740	0.849737	dec_nonsocial_accept_low	0.849737	16.000000	n/a	1	-1.679688e-01	-1.679688e-01
234.625890	0.983222	dec_social_choice	0.983222	16.000000	n/a	8	2.695312e-01	2.695312e-01
234.625890	0.983222	dec_choice	0.983222	16.000000	n/a	8	2.695312e-01	2.695312e-01
234.625890	0.983222	dec_social_accept	0.983222	16.000000	n/a	8	2.695312e-01	2.695312e-01
234.625890	0.983222	dec_accept	0.983222	16.000000	n/a	8	2.695312e-01	2.695312e-01
234.625890	0.983222	dec_social_high	0.983222	16.000000	n/a	8	2.695312e-01	2.695312e-01
234.625890	0.983222	dec_social_accept_high	0.983222	16.000000	n/a	8	2.695312e-01	2.695312e-01
241.459930	1.348780	dec_nonsocial_choice	1.348780	32.000000	n/a	8	1.953125e-02	1.953125e-02
241.459930	1.348780	dec_choice	1.348780	32.000000	n/a	8	1.953125e-02	1.953125e-02
241.459930	1.348780	dec_nonsocial_accept	1.348780	32.000000	n/a	8	1.953125e-02	1.953125e-02
241.459930	1.348780	dec_accept	1.348780	32.000000	n/a	8	1.953125e-02	1.953125e-02
241.459930	1.348780	dec_nonsocial_high	1.348780	32.000000	n/a	8	1.953125e-02	1.953125e-02
241.459930	1.348780	dec_nonsocial_accept_high	1.348780	32.000000	n/a	8	1.953125e-02	1.953125e-02
249.109530	0.882306	dec_nonsocial_choice	0.882306	32.000000	n/a	8	1.953125e-02	1.953125e-02
249.109530	0.882306	dec_choice	0.882306	32.000000	n/a	8	1.953125e-02	1.953125e-02
249.109530	0.882306	dec_nonsocial_accept	0.882306	32.000000	n/a	8	1.953125e-02	1.953125e-02
249.109530	0.882306	dec_accept	0.882306	32.000000	n/a	8	1.953125e-02	1.953125e-02
249.109530	0.882306	dec_nonsocial_accept_high	0.882306	32.000000	n/a	8	1.953125e-02	1.953125e-02
255.941650	1.217416	dec_social_choice	1.217416	16.000000	n/a	1	-1.679688e-01	-1.679688e-01
255.941650	1.217416	dec_choice	1.217416	16.000000	n/a	1	-1.679688e-01	-1.679688e-01
255.941650	1.217416	dec_social_accept	1.217416	16.000000	n/a	1	-1.679688e-01	-1.679688e-01
255.941650	1.217416	dec_accept	1.217416	16.000000	n/a	1	-1.679688e-01	-1.679688e-01
255.941650	1.217416	dec_social_accept_low	1.217416	16.000000	n/a	1	-1.679688e-01	-1.679688e-01
262.775450	1.350023	dec_social_choice	1.350023	32.000000	n/a	3	-1.367188e-01	-1.367188e-01
262.775450	1.350023	dec_choice	1.350023	32.000000	n/a	3	-1.367188e-01	-1.367188e-01
262.775450	1.350023	dec_social_accept	1.350023	32.000000	n/a	3	-1.367188e-01	-1.367188e-01
262.775450	1.350023	dec_accept	1.350023	32.000000	n/a	3	-1.367188e-01	-1.367188e-01
262.775450	1.350023	dec_social_accept_low	1.350023	32.000000	n/a	3	-1.367188e-01	-1.367188e-01
272.025450	1.332787	dec_social_choice	1.332787	16.000000	n/a	8	2.695312e-01	2.695312e-01
272.025450	1.332787	dec_choice	1.332787	16.000000	n/a	8	2.695312e-01	2.695312e-01
272.025450	1.332787	dec_social_accept	1.332787	16.000000	n/a	8	2.695312e-01	2.695312e-01
272.025450	1.332787	dec_accept	1.332787	16.000000	n/a	8	2.695312e-01	2.695312e-01
272.025450	1.332787	dec_social_high	1.332787	16.000000	n/a	8	2.695312e-01	2.695312e-01
272.025450	1.332787	dec_social_accept_high	1.332787	16.000000	n/a	8	2.695312e-01	2.695312e-01
279.675050	1.066226	dec_nonsocial_choice	1.066226	16.000000	n/a	4	1.953125e-02	1.953125e-02
279.675050	1.066226	dec_choice	1.066226	16.000000	n/a	4	1.953125e-02	1.953125e-02
279.675050	1.066226	dec_nonsocial_accept	1.066226	16.000000	n/a	4	1.953125e-02	1.953125e-02
279.675050	1.066226	dec_accept	1.066226	16.000000	n/a	4	1.953125e-02	1.953125e-02
279.675050	1.066226	dec_nonsocial_high	1.066226	16.000000	n/a	4	1.953125e-02	1.953125e-02
279.675050	1.066226	dec_nonsocial_accept_high	1.066226	16.000000	n/a	4	1.953125e-02	1.953125e-02
287.325840	0.949745	dec_nonsocial_choice	0.949745	32.000000	n/a	16	2.695312e-01	2.695312e-01
287.325840	0.949745	dec_choice	0.949745	32.000000	n/a	16	2.695312e-01	2.695312e-01
287.325840	0.949745	dec_nonsocial_accept	0.949745	32.000000	n/a	16	2.695312e-01	2.695312e-01
287.325840	0.949745	dec_accept	0.949745	32.000000	n/a	16	2.695312e-01	2.695312e-01
287.325840	0.949745	dec_nonsocial_high	0.949745	32.000000	n/a	16	2.695312e-01	2.695312e-01
287.325840	0.949745	dec_nonsocial_accept_high	0.949745	32.000000	n/a	16	2.695312e-01	2.695312e-01
296.574950	0.916645	dec_social_choice	0.916645	32.000000	n/a	2	-1.679688e-01	-1.679688e-01
296.574950	0.916645	dec_choice	0.916645	32.000000	n/a	2	-1.679688e-01	-1.679688e-01
296.574950	0.916645	dec_social_accept	0.916645	32.000000	n/a	2	-1.679688e-01	-1.679688e-01
296.574950	0.916645	dec_accept	0.916645	32.000000	n/a	2	-1.679688e-01	-1.679688e-01
296.574950	0.916645	dec_social_accept_low	0.916645	32.000000	n/a	2	-1.679688e-01	-1.679688e-01
305.841830	1.017247	dec_social_choice	1.017247	16.000000	n/a	1	-1.679688e-01	-1.679688e-01
305.841830	1.017247	dec_choice	1.017247	16.000000	n/a	1	-1.679688e-01	-1.679688e-01
305.841830	1.017247	dec_social_accept	1.017247	16.000000	n/a	1	-1.679688e-01	-1.679688e-01
305.841830	1.017247	dec_accept	1.017247	16.000000	n/a	1	-1.679688e-01	-1.679688e-01
305.841830	1.017247	dec_social_low	1.017247	16.000000	n/a	1	-1.679688e-01	-1.679688e-01
305.841830	1.017247	dec_social_accept_low	1.017247	16.000000	n/a	1	-1.679688e-01	-1.679688e-01
313.474800	0.800739	dec_nonsocial_choice	0.800739	32.000000	n/a	8	1.953125e-02	1.953125e-02
313.474800	0.800739	dec_choice	0.800739	32.000000	n/a	8	1.953125e-02	1.953125e-02
313.474800	0.800739	dec_nonsocial_accept	0.800739	32.000000	n/a	8	1.953125e-02	1.953125e-02
313.474800	0.800739	dec_accept	0.800739	32.000000	n/a	8	1.953125e-02	1.953125e-02
313.474800	0.800739	dec_nonsocial_high	0.800739	32.000000	n/a	8	1.953125e-02	1.953125e-02
313.474800	0.800739	dec_nonsocial_accept_high	0.800739	32.000000	n/a	8	1.953125e-02	1.953125e-02
320.307830	1.517206	dec_social_choice	1.517206	16.000000	n/a	2	-1.054688e-01	-1.054688e-01
320.307830	1.517206	dec_choice	1.517206	16.000000	n/a	2	-1.054688e-01	-1.054688e-01
320.307830	1.517206	dec_social_accept	1.517206	16.000000	n/a	2	-1.054688e-01	-1.054688e-01
320.307830	1.517206	dec_accept	1.517206	16.000000	n/a	2	-1.054688e-01	-1.054688e-01
320.307830	1.517206	dec_social_accept_low	1.517206	16.000000	n/a	2	-1.054688e-01	-1.054688e-01
327.140900	0.867735	dec_social_choice	0.867735	16.000000	n/a	8	2.695312e-01	2.695312e-01
327.140900	0.867735	dec_choice	0.867735	16.000000	n/a	8	2.695312e-01	2.695312e-01
327.140900	0.867735	dec_social_accept	0.867735	16.000000	n/a	8	2.695312e-01	2.695312e-01
327.140900	0.867735	dec_accept	0.867735	16.000000	n/a	8	2.695312e-01	2.695312e-01
327.140900	0.867735	dec_social_accept_high	0.867735	16.000000	n/a	8	2.695312e-01	2.695312e-01
333.974730	0.733610	dec_social_choice	0.733610	32.000000	n/a	2	-1.679688e-01	-1.679688e-01
333.974730	0.733610	dec_choice	0.733610	32.000000	n/a	2	-1.679688e-01	-1.679688e-01
333.974730	0.733610	dec_social_accept	0.733610	32.000000	n/a	2	-1.679688e-01	-1.679688e-01
333.974730	0.733610	dec_accept	0.733610	32.000000	n/a	2	-1.679688e-01	-1.679688e-01
333.974730	0.733610	dec_social_accept_low	0.733610	32.000000	n/a	2	-1.679688e-01	-1.679688e-01
343.225500	1.166062	dec_social_choice	1.166062	16.000000	n/a	4	1.953125e-02	1.953125e-02
343.225500	1.166062	dec_choice	1.166062	16.000000	n/a	4	1.953125e-02	1.953125e-02
343.225500	1.166062	dec_social_accept	1.166062	16.000000	n/a	4	1.953125e-02	1.953125e-02
343.225500	1.166062	dec_accept	1.166062	16.000000	n/a	4	1.953125e-02	1.953125e-02
343.225500	1.166062	dec_social_high	1.166062	16.000000	n/a	4	1.953125e-02	1.953125e-02
343.225500	1.166062	dec_social_accept_high	1.166062	16.000000	n/a	4	1.953125e-02	1.953125e-02
350.875900	1.032955	dec_nonsocial_choice	1.032955	32.000000	n/a	2	-1.679688e-01	-1.679688e-01
350.875900	1.032955	dec_choice	1.032955	32.000000	n/a	2	-1.679688e-01	-1.679688e-01
350.875900	1.032955	dec_nonsocial_accept	1.032955	32.000000	n/a	2	-1.679688e-01	-1.679688e-01
350.875900	1.032955	dec_accept	1.032955	32.000000	n/a	2	-1.679688e-01	-1.679688e-01
350.875900	1.032955	dec_nonsocial_accept_low	1.032955	32.000000	n/a	2	-1.679688e-01	-1.679688e-01
357.709840	1.248891	dec_social_choice	1.248891	16.000000	n/a	1	-1.679688e-01	-1.679688e-01
357.709840	1.248891	dec_choice	1.248891	16.000000	n/a	1	-1.679688e-01	-1.679688e-01
357.709840	1.248891	dec_social_accept	1.248891	16.000000	n/a	1	-1.679688e-01	-1.679688e-01
357.709840	1.248891	dec_accept	1.248891	16.000000	n/a	1	-1.679688e-01	-1.679688e-01
357.709840	1.248891	dec_social_low	1.248891	16.000000	n/a	1	-1.679688e-01	-1.679688e-01
357.709840	1.248891	dec_social_accept_low	1.248891	16.000000	n/a	1	-1.679688e-01	-1.679688e-01
364.541800	1.133126	dec_nonsocial_choice	1.133126	32.000000	n/a	8	1.953125e-02	1.953125e-02
364.541800	1.133126	dec_choice	1.133126	32.000000	n/a	8	1.953125e-02	1.953125e-02
364.541800	1.133126	dec_nonsocial_accept	1.133126	32.000000	n/a	8	1.953125e-02	1.953125e-02
364.541800	1.133126	dec_accept	1.133126	32.000000	n/a	8	1.953125e-02	1.953125e-02
364.541800	1.133126	dec_nonsocial_high	1.133126	32.000000	n/a	8	1.953125e-02	1.953125e-02
364.541800	1.133126	dec_nonsocial_accept_high	1.133126	32.000000	n/a	8	1.953125e-02	1.953125e-02
372.191830	0.900165	dec_social_choice	0.900165	16.000000	n/a	4	1.953125e-02	1.953125e-02
372.191830	0.900165	dec_choice	0.900165	16.000000	n/a	4	1.953125e-02	1.953125e-02
372.191830	0.900165	dec_social_accept	0.900165	16.000000	n/a	4	1.953125e-02	1.953125e-02
372.191830	0.900165	dec_accept	0.900165	16.000000	n/a	4	1.953125e-02	1.953125e-02
372.191830	0.900165	dec_social_high	0.900165	16.000000	n/a	4	1.953125e-02	1.953125e-02
372.191830	0.900165	dec_social_accept_high	0.900165	16.000000	n/a	4	1.953125e-02	1.953125e-02
