TrialNumber,nTrial,Block,Endowment,ITI,ISI,L_Option,R_Option,ran,order,cue_Onset,endowment_onset,endowment_offset,ISI_onset,ISI_offset,decision_onset,resp,rt,resp_onset,decision_offset,trialDuration,ITIonset,ITIoffset
1,1,3,32,2.98,1,3,0,1.0,0.0,4.592991,5.5022354,5.5180774,5.5182204,6.518172,6.5183473,1.0,2.617303,9.13565,10.284524,3.7668223,10.285301,13.266654
2,2,3,16,1.365,1,8,0,1.0,1.0,13.858628,14.75196,14.768698,14.768776,15.768901,15.76905,1.0,2.1998703,17.96892,19.536295,3.7677822,19.536938,20.902851
3,3,3,16,0.5575,1,2,0,1.0,2.0,21.494646,22.40179,22.418013,22.418089,23.417658,23.417805,1.0,2.0176704,25.435476,27.183697,3.766431,27.184343,27.743244
4,4,2,32,1.365,1,0,16,1.0,3.0,28.245617,29.234863,29.251926,29.252003,30.251907,30.252054,1.0,1.150192,31.402246,34.017864,3.766355,34.018517,35.38508
5,5,3,16,1.365,1,0,2,1.0,4.0,36.009064,36.88487,36.90193,36.90201,37.90193,37.902077,1.0,1.9833877,39.885464,41.66885,3.7673028,41.669483,43.035282
6,6,2,16,4.595,1,0,2,1.0,5.0,43.545376,44.53488,44.55193,44.552013,45.551834,45.551983,2.0,2.0162172,47.5682,49.31872,3.767275,49.319363,53.91545
7,7,2,32,4.595,1,0,2,1.0,6.0,54.412792,55.40132,55.418552,55.418705,56.41828,56.41843,1.0,1.800083,58.218513,60.185005,3.76712,60.185658,64.78152
8,8,3,32,2.98,1,0,2,1.0,7.0,65.36328,66.26854,66.284874,66.285,67.28465,67.284805,1.0,1.96726,69.25206,71.05099,3.7667274,71.051636,74.033264
9,9,3,16,0.5575,1,1,0,1.0,8.0,74.61538,75.51864,75.53478,75.53486,76.53445,76.53459,2.0,2.8007746,79.335365,80.30203,3.7680027,80.302704,80.862816
10,10,2,32,0.5575,1,8,0,1.0,9.0,81.36202,82.351425,82.36849,82.368576,83.36818,83.368324,1.0,1.6167256,84.98505,87.13683,3.7690563,87.13749,87.69638
11,11,2,32,0.5575,1,3,0,1.0,10.0,88.19597,89.184586,89.201904,89.202,90.2013,90.201454,1.0,1.9839004,92.185356,93.96884,3.7679257,93.96949,94.52848
12,12,2,32,2.98,1,3,0,1.0,11.0,95.02895,96.0181,96.03527,96.03537,97.03553,97.035675,1.0,1.2659357,98.301605,100.80381,3.768707,100.80449,103.78615
13,13,2,16,0.5575,1,8,0,1.0,12.0,104.29601,105.28453,105.301834,105.30193,106.3024,106.30254,1.0,1.5492966,107.851845,110.06951,3.7675416,110.07019,110.629036
14,14,2,32,2.98,1,8,0,1.0,13.0,111.128624,112.1181,112.13513,112.13523,113.13522,113.13537,1.0,1.6000108,114.735374,116.90126,3.7664318,116.9019,119.88274
15,15,3,32,1.365,1,0,8,1.0,14.0,120.46947,121.36873,121.38498,121.38507,122.38536,122.385506,2.0,1.649828,124.03533,126.1527,3.7677405,126.15335,127.52
16,16,3,32,0.5575,1,16,0,1.0,15.0,128.10583,129.01843,129.0347,129.03479,130.03477,130.03493,1.0,1.0833234,131.11826,133.80215,3.7677574,133.8028,134.36171
17,17,2,16,1.365,1,8,0,1.0,16.0,134.86226,135.85133,135.86842,135.86855,136.86937,136.86952,1.0,1.1489325,138.01845,140.63617,3.7672012,140.63684,142.00374
18,18,3,32,2.98,1,0,2,1.0,17.0,142.5799,143.50139,143.51842,143.51855,144.51898,144.51915,1.0,1.833126,146.35228,148.286,3.7673984,148.28667,151.26762
19,19,3,32,0.5575,1,8,0,1.0,18.0,151.83263,152.75131,152.76831,152.76843,153.76788,153.76804,1.0,1.4340351,155.20207,157.53493,3.7674193,157.53557,158.09442
20,20,2,32,1.365,1,2,0,1.0,19.0,158.59558,159.58463,159.60175,159.60185,160.60226,160.60242,2.0,1.1328144,161.73523,164.36955,3.7676804,164.37021,165.73619
21,21,3,16,6.21,1,8,0,1.0,20.0,166.28616,167.23502,167.25179,167.25188,168.2519,168.25206,1.0,1.1829231,169.43498,172.01897,3.7674403,172.0196,178.2306
22,22,2,16,0.5575,1,0,4,1.0,21.0,178.72845,179.71786,179.73494,179.73502,180.73482,180.73497,2.0,1.98363,182.7186,184.50159,3.767161,184.50223,185.06122
23,23,3,16,0.5575,1,0,2,1.0,22.0,185.6045,186.55167,186.56847,186.56854,187.56818,187.56833,1.0,1.2163306,188.78467,191.33531,3.767526,191.33597,191.89502
24,24,2,16,0.5575,1,0,1,1.0,23.0,192.39505,193.3846,193.40169,193.40181,194.40161,194.40176,1.0,1.483372,195.88513,198.1689,3.7676797,198.16954,198.72864
25,25,2,16,0.5575,1,4,0,1.0,24.0,199.22945,200.21788,200.23486,200.23499,201.23436,201.23451,1.0,1.2839476,202.51846,205.00247,3.7685232,205.00314,205.56212
26,26,3,32,1.365,1,0,2,1.0,25.0,206.14131,207.05156,207.06783,207.06789,208.06815,208.06828,1.0,1.4668542,209.53514,211.8356,3.767857,211.83626,213.20303
27,27,3,32,0.5575,1,0,16,1.0,26.0,213.75801,214.70186,214.71822,214.7183,215.71826,215.71841,2.0,1.2500712,216.96848,219.48462,3.7667756,219.48529,220.04407
28,28,3,16,0.5575,1,1,0,1.0,27.0,220.60219,221.53452,221.55174,221.5519,222.55284,222.553,2.0,1.3987561,223.95174,226.31934,3.7669015,226.31999,226.87946
29,29,2,32,0.5575,1,0,16,1.0,28.0,227.37837,228.36778,228.38486,228.38493,229.38455,229.3847,2.0,1.5167774,230.90147,233.15195,3.767791,233.1526,233.71231
30,30,2,32,0.5575,1,0,16,1.0,29.0,234.21207,235.20114,235.21823,235.21835,236.21832,236.21848,2.0,1.1497029,237.36818,239.98494,3.7670166,239.98561,240.54457
31,31,3,16,1.365,1,0,4,1.0,30.0,241.09827,242.03485,242.05157,242.05171,243.05237,243.0525,2.0,1.3655359,244.41805,246.8195,3.7675183,246.82013,248.18611
32,32,2,32,1.365,1,16,0,1.0,31.0,248.695,249.68442,249.7015,249.7016,250.70113,250.70128,1.0,1.2005769,251.90186,254.46718,3.7664466,254.46783,255.8345
33,33,2,16,1.365,1,4,0,1.0,32.0,256.3454,257.33444,257.35153,257.35168,258.35175,258.3519,2.0,1.1161624,259.46805,262.1188,3.7674432,262.11945,263.48532
34,34,3,32,2.98,1,3,0,1.0,33.0,264.06006,264.98444,265.00146,265.0016,266.00214,266.0023,2.0,1.6657896,267.6681,269.76993,3.7681854,269.7706,272.75214
35,35,3,32,0.5575,1,8,0,1.0,34.0,273.30988,274.25146,274.26816,274.26828,275.26776,275.2679,1.0,1.0167325,276.28464,279.03564,3.7682781,279.0363,279.59583
36,36,2,32,0.5575,1,2,0,1.0,35.0,280.09512,281.0844,281.1015,281.1016,282.10144,282.1016,2.0,1.0337896,283.1354,285.86838,3.7673318,285.86905,286.4286
37,37,3,16,0.5575,1,8,0,1.0,36.0,286.97134,287.91806,287.93478,287.93488,288.93478,288.93494,1.0,1.0663629,290.00128,292.70193,3.7675395,292.70258,293.2616
38,38,2,32,1.365,1,0,3,1.0,37.0,293.76172,294.75107,294.76822,294.76837,295.76877,295.76892,1.0,1.2656761,297.0346,299.5365,3.7681196,299.53714,300.90356
39,39,3,32,1.365,1,8,0,1.0,38.0,301.46896,302.40125,302.41812,302.4182,303.41864,303.4188,1.0,1.2494518,304.66824,307.18536,3.7671335,307.18604,308.55334
40,40,2,16,1.365,1,0,1,1.0,39.0,309.06146,310.051,310.06818,310.0683,311.06824,311.0684,1.0,1.3331938,312.40158,314.83502,3.7671793,314.8357,316.20175
41,41,2,32,0.5575,1,0,2,1.0,40.0,316.7123,317.701,317.71805,317.71814,318.71863,318.71878,1.0,1.2327217,319.9515,322.48605,3.7678251,322.48672,323.04703
42,42,3,32,0.5575,1,0,3,1.0,41.0,323.60196,324.53433,324.55148,324.5516,325.5525,325.5527,1.0,2.7323768,328.28506,329.31992,3.7677624,329.32056,329.88007
43,43,3,16,0.5575,1,4,0,1.0,42.0,330.44516,331.36765,331.38474,331.38483,332.38486,332.38498,1.0,1.4999181,333.88492,336.15262,3.7681708,336.15326,336.71292
44,44,2,16,2.98,1,0,4,1.0,43.0,337.21155,338.20108,338.21808,338.21823,339.21857,339.21872,2.0,1.482878,340.7016,342.98602,3.7678494,342.9867,345.9692
45,45,2,32,0.5575,1,3,0,1.0,44.0,346.4785,347.46762,347.48465,347.48474,348.484,348.48416,2.0,1.8841538,350.36832,352.2512,3.7675748,352.25186,352.811
46,46,3,16,0.5575,1,0,1,1.0,45.0,353.36383,354.3013,354.31796,354.31802,355.31818,355.3183,2.0,2.0000055,357.31833,359.08508,3.7673438,359.08575,359.6451
47,47,2,16,0.5575,1,0,2,1.0,46.0,360.14536,361.13422,361.15134,361.15143,362.15164,362.1518,1.0,1.8996902,364.05148,365.91794,3.7667036,365.9186,366.47745
48,48,3,32,4.595,1,0,16,1.0,47.0,367.03793,367.96762,367.98468,367.9848,368.98508,368.98523,2.0,1.0995961,370.0848,372.7515,3.7668064,372.75214,377.34906
