onset	duration	trial_type	rt	resp	gender	image_left	image_right
0.596020200289786	3.00178469996899	decision	2.0324756000191	left	D	DD017.jpg	DD018.jpg
4.14584280038252	1.00008059991524	loss	NaN	n/a	n/a	DD017.jpg	DD018.jpg
11.0959521001205	3.00137950014323	decision	2.28282990027219	right	D	DD035.jpg	DD036.jpg
14.6459909002297	1.00011759996414	win	NaN	n/a	n/a	DD035.jpg	DD036.jpg
21.5628536003642	3.00090099964291	decision	2.28223829995841	left	D	DD021.jpg	DD022.jpg
25.1125200004317	1.01632749987766	loss	NaN	n/a	n/a	DD021.jpg	DD022.jpg
32.0457809004001	3.00161209981889	decision	1.53355009993538	right	S	SD025.jpg	SD026.jpg
35.5957861002535	1.00028549972922	loss	NaN	n/a	n/a	SD025.jpg	SD026.jpg
38.3125017001294	3.00194879993796	decision	1.28266080003232	right	S	SD027.jpg	SD028.jpg
41.8624106002972	1.0000720997341	loss	NaN	n/a	n/a	SD027.jpg	SD028.jpg
44.5795975001529	3.00164359994233	decision	1.78222020016983	right	S	SD023.jpg	SD024.jpg
48.1290994002484	1.00001489976421	win	NaN	n/a	n/a	SD023.jpg	SD024.jpg
50.8457348002121	3.0008911001496	decision	2.2831532000564	right	D	DD037.jpg	DD038.jpg
54.3960446002893	1.01632290007547	win	NaN	n/a	n/a	DD037.jpg	DD038.jpg
59.2456849003211	3.00117449974641	decision	2.03334499988705	left	S	SD011.jpg	SD012.jpg
62.7956611001864	1.01674479991198	loss	NaN	n/a	n/a	SD011.jpg	SD012.jpg
67.6291284002364	3.00153960008174	decision	1.53286759974435	right	D	DD009.jpg	DD010.jpg
71.1790328002535	1.01654019998387	win	NaN	n/a	n/a	DD009.jpg	DD010.jpg
73.9126568003558	3.00117099983618	decision	1.7830850998871	right	D	DD027.jpg	DD028.jpg
77.4626327999867	1.01634860038757	win	NaN	n/a	n/a	DD027.jpg	DD028.jpg
82.3124294001609	3.00116720004007	decision	1.78244790015742	right	D	DD015.jpg	DD016.jpg
85.8622251003981	1.00009660003707	loss	NaN	n/a	n/a	DD015.jpg	DD016.jpg
92.7788472003303	3.00126709975302	decision	2.28283149981871	left	S	SD029.jpg	SD030.jpg
96.3291873000562	1.01637340011075	loss	NaN	n/a	n/a	SD029.jpg	SD030.jpg
101.162459900137	3.00068970024586	decision	1.28323480021209	right	S	SD015.jpg	SD016.jpg
104.71231209999	1.01647930033505	win	NaN	n/a	n/a	SD015.jpg	SD016.jpg
111.645451900084	3.0021915002726	decision	1.53288879990578	right	S	SD007.jpg	SD008.jpg
115.195537000429	1.01646579988301	win	NaN	n/a	n/a	SD007.jpg	SD008.jpg
120.028801599983	3.00151490001008	decision	1.78267250023782	right	S	SD017.jpg	SD018.jpg
123.578631100245	1.00051390007138	win	NaN	n/a	n/a	SD017.jpg	SD018.jpg
126.295426600147	3.00045350007713	decision	2.0330294999294	right	D	DD033.jpg	DD034.jpg
129.845347900409	1.00008399970829	win	NaN	n/a	n/a	DD033.jpg	DD034.jpg
132.578876500018	3.00126910023391	decision	2.28375140018761	right	D	DD007.jpg	DD008.jpg
136.1290450003	1.01629739999771	loss	NaN	n/a	n/a	DD007.jpg	DD008.jpg
138.862162500154	3.00109970010817	decision	2.03339979983866	right	D	DD023.jpg	DD024.jpg
142.412382000126	1.01641520019621	loss	NaN	n/a	n/a	DD023.jpg	DD024.jpg
155.662195600104	3.00097220018506	decision	2.282403500285	right	S	SD009.jpg	SD010.jpg
159.211974400096	1.00004690000787	loss	NaN	n/a	n/a	SD009.jpg	SD010.jpg
164.028831300326	3.00156380003318	decision	2.53264619968832	left	D	DD001.jpg	DD002.jpg
167.578644100111	1.00014890031889	win	NaN	n/a	n/a	DD001.jpg	DD002.jpg
170.328714500181	3.00172690022737	decision	2.03255259990692	left	S	SD019.jpg	SD020.jpg
173.878549500369	1.00002190005034	loss	NaN	n/a	n/a	SD019.jpg	SD020.jpg
180.811992499977	3.00133570004255	decision	1.53358940035105	right	D	DD031.jpg	DD032.jpg
184.361938000191	1.00029460014775	loss	NaN	n/a	n/a	DD031.jpg	DD032.jpg
189.178714400157	3.0020011998713	decision	2.03259789990261	right	S	SD005.jpg	SD006.jpg
192.728538100142	1.016695600003	win	NaN	n/a	n/a	SD005.jpg	SD006.jpg
195.495300400071	3.00128310034052	decision	2.03313790028915	left	D	DD019.jpg	DD020.jpg
199.045242900029	1.01661800034344	win	NaN	n/a	n/a	DD019.jpg	DD020.jpg
205.97899740003	3.00076440023258	decision	1.78332799999043	right	S	SD013.jpg	SD014.jpg
209.528501500376	1.01671519968659	loss	NaN	n/a	n/a	SD013.jpg	SD014.jpg
216.461949700024	3.00192690035328	decision	1.7825103001669	left	S	SD031.jpg	SD032.jpg
220.011843900196	1.01664240006357	loss	NaN	n/a	n/a	SD031.jpg	SD032.jpg
224.845207000151	3.0009705000557	decision	1.28243659995496	right	D	DD039.jpg	DD040.jpg
228.394989300054	1.00009750016034	loss	NaN	n/a	n/a	DD039.jpg	DD040.jpg
231.128349800128	3.00143980002031	decision	1.78333069989458	right	D	DD005.jpg	DD006.jpg
234.678458400071	1.00002810033038	loss	NaN	n/a	n/a	DD005.jpg	DD006.jpg
241.595183500089	3.00076550012454	decision	1.28327740030363	right	S	SD037.jpg	SD038.jpg
245.145115600433	1.01686039986089	loss	NaN	n/a	n/a	SD037.jpg	SD038.jpg
247.878390599973	3.00112520018592	decision	1.53340930026025	left	S	SD039.jpg	SD040.jpg
251.428233300336	1.00015719980001	win	NaN	n/a	n/a	SD039.jpg	SD040.jpg
254.145101000089	3.00181360030547	decision	1.78278900031	left	S	SD033.jpg	SD034.jpg
257.694854300003	1.01674790028483	loss	NaN	n/a	n/a	SD033.jpg	SD034.jpg
260.428479700349	3.00148849980906	decision	1.28294289996848	right	D	DD013.jpg	DD014.jpg
263.978165000211	1.00005860021338	win	NaN	n/a	n/a	DD013.jpg	DD014.jpg
268.794996100012	3.00092420028523	decision	1.78334420034662	left	S	SD001.jpg	SD002.jpg
272.34505920019	1.01655649999157	win	NaN	n/a	n/a	SD001.jpg	SD002.jpg
275.078201500233	3.00102300010622	decision	1.53314199997112	right	D	DD003.jpg	DD004.jpg
278.628059800249	1.0001253997907	win	NaN	n/a	n/a	DD003.jpg	DD004.jpg
283.444975400344	3.00142399966717	decision	1.78304699994624	left	S	SD003.jpg	SD004.jpg
286.994873800315	1.00009940005839	win	NaN	n/a	n/a	SD003.jpg	SD004.jpg
293.911503200419	3.00203959969804	decision	1.78285499988124	right	D	DD025.jpg	DD026.jpg
297.461787000299	1.01622329978272	win	NaN	n/a	n/a	DD025.jpg	DD026.jpg
304.411500700284	3.00199089990929	decision	1.53253269987181	right	S	SD035.jpg	SD036.jpg
307.961451100186	1.01666440023109	win	NaN	n/a	n/a	SD035.jpg	SD036.jpg
310.694876700174	3.00205860007554	decision	1.53268009983003	left	D	DD011.jpg	DD012.jpg
314.244637800381	1.00006929971278	loss	NaN	n/a	n/a	DD011.jpg	DD012.jpg
316.961358100176	3.00055269990116	decision	1.53322019986808	right	S	SD021.jpg	SD022.jpg
320.511430600192	1.00039200019091	win	NaN	n/a	n/a	SD021.jpg	SD022.jpg
325.32814340014	3.00132169993594	decision	1.28245500009507	right	D	DD029.jpg	DD030.jpg
328.878320500255	1.01642889995128	loss	NaN	n/a	n/a	DD029.jpg	DD030.jpg
