instrText,stimDoor,stimDoorLure,stimFace,stimFaceLure,Instructions.thisRepN,Instructions.thisTrialN,Instructions.thisN,Instructions.thisIndex,Trials.thisRepN,Trials.thisTrialN,Trials.thisN,Trials.thisIndex,Func,Keys,Text,RespTime,Onset,Offset,SystemTime_Start,SystemTime_Stop,Stim,Lure,Participant*,Age,date,expName,psychopyVersion,frameRate,
"In the earlier Feedback Games, you chose which doors contained a prize, and which peers liked you. 

You then saw positive or negative feedback (green check mark or red X) from the door or peer you selected.

You will now see a series of doors and peers, some of which you saw during the earlier Feedback Games, and some that you have never seen before.

Please press the spacebar to continue.",,,,,0,0,0,0,,,,,instrFunc,space,"In the earlier Feedback Games, you chose which doors contained a prize, and which peers liked you. 

You then saw positive or negative feedback (green check mark or red X) from the door or peer you selected.

You will now see a series of doors and peers, some of which you saw during the earlier Feedback Games, and some that you have never seen before.

Please press the spacebar to continue.",21.807897599996068,13.151487799943425,35.120238040341064,2024-04-17 15:37:37.317377,2024-04-17 15:37:59.269998,,,10998,18-29,2024_Apr_17_1537,Recall,2021.2.3,59.95318855686176,
"For doors/peers that you remember selecting and getting feedback from, your job is to RECALL what feedback you received. 

Press '1' if you recall positive feedback. 

Press '2' if you recall negative feedback

Press the spacebar to continue.",,,,,0,1,1,1,,,,,instrFunc,space,"For doors/peers that you remember selecting and getting feedback from, your job is to RECALL what feedback you received. 

Press '1' if you recall positive feedback. 

Press '2' if you recall negative feedback

Press the spacebar to continue.",15.669213600107469,35.00203859992325,50.72230048000347,2024-04-17 15:37:59.270803,2024-04-17 15:38:14.980191,,,10998,18-29,2024_Apr_17_1537,Recall,2021.2.3,59.95318855686176,
"For doors/peers that you don't remember getting feedback from, your job is to PREDICT what feedback you WOULD HAVE received.

Press '9' if you predict positive feedback.

Press '0' if you predict negative feedback. 

Please press the spacebar to continue.",,,,,0,2,2,2,,,,,instrFunc,space,"For doors/peers that you don't remember getting feedback from, your job is to PREDICT what feedback you WOULD HAVE received.

Press '9' if you predict positive feedback.

Press '0' if you predict negative feedback. 

Please press the spacebar to continue.",15.614000799949281,50.7134592999937,66.3845168800326,2024-04-17 15:38:14.981191,2024-04-17 15:38:30.641198,,,10998,18-29,2024_Apr_17_1537,Recall,2021.2.3,59.95318855686176,
"This task is self-paced, and the prompts will always stay on the screen so that you know which buttons to press.

On the next screen we will show you what those prompts look like, so that you know exactly what to expect. 

You will start with either doors or peers, and then switch halfway through. 

Please press the spacebar to continue.",,,,,0,3,3,3,,,,,instrFunc,space,"This task is self-paced, and the prompts will always stay on the screen so that you know which buttons to press.

On the next screen we will show you what those prompts look like, so that you know exactly what to expect. 

You will start with either doors or peers, and then switch halfway through. 

Please press the spacebar to continue.",22.8841059000697,66.37110659992322,89.31571878003888,2024-04-17 15:38:30.642200,2024-04-17 15:38:53.575590,,,10998,18-29,2024_Apr_17_1537,Recall,2021.2.3,59.95318855686176,
,,,,,,,,,,,,,imgtextFunc,space,"Here is what the screen will look like while you make your ratings.
The green circles remind you to press 1 or 9 for positive feedback.
The red circles remind you to press 2 or 0 for negative feedback.









Please let the experimenter know if you have any questions.

Whenever you're ready, press the spacebar to start the task.",23.778244800050743,89.45303490001243,113.4106179800583,2024-04-17 15:38:53.586533,2024-04-17 15:39:17.542818,,,10998,18-29,2024_Apr_17_1537,Recall,2021.2.3,59.95318855686176,
,L_SD509.jpg,1,L_MF509.jpg,1,,,,,0,0,0,98,imgFunc,2,NA,16.922028000000864,113.40517139993608,130.46416102000512,2024-04-17 15:39:17.590703,2024-04-17 15:39:34.637980,L_MF509.jpg,1,10998,18-29,2024_Apr_17_1537,Recall,2021.2.3,59.95318855686176,
,SD009.jpg,0,MF009.jpg,0,,,,,0,1,1,58,imgFunc,1,NA,1.6357705000555143,130.4596569999121,132.2142451799009,2024-04-17 15:39:34.650200,2024-04-17 15:39:36.405433,MF009.jpg,0,10998,18-29,2024_Apr_17_1537,Recall,2021.2.3,59.95318855686176,
,SD011.jpg,0,MF011.jpg,0,,,,,0,2,2,60,imgFunc,1,NA,1.756943800020963,132.19421459990554,134.04147647984792,2024-04-17 15:39:36.413413,2024-04-17 15:39:38.257180,MF011.jpg,0,10998,18-29,2024_Apr_17_1537,Recall,2021.2.3,59.95318855686176,
,SD028.jpg,0,MF028.jpg,0,,,,,0,3,3,77,imgFunc,2,NA,1.2851529999170452,134.04202870000154,135.42180578014813,2024-04-17 15:39:38.264161,2024-04-17 15:39:39.641506,MF028.jpg,0,10998,18-29,2024_Apr_17_1537,Recall,2021.2.3,59.95318855686176,
,DD005.jpg,0,FF005.jpg,0,,,,,0,4,4,4,imgFunc,1,NA,3.3319115000776947,135.42726179992314,138.85817967983894,2024-04-17 15:39:39.648494,2024-04-17 15:39:43.077080,FF005.jpg,0,10998,18-29,2024_Apr_17_1537,Recall,2021.2.3,59.95318855686176,
,DD033.jpg,0,FF033.jpg,0,,,,,0,5,5,32,imgFunc,1,NA,0.6660995000274852,138.86107470002025,139.62472968001384,2024-04-17 15:39:43.084077,2024-04-17 15:39:43.845041,FF033.jpg,0,10998,18-29,2024_Apr_17_1537,Recall,2021.2.3,59.95318855686176,
,SD013.jpg,0,MF013.jpg,0,,,,,0,6,6,62,imgFunc,1,NA,1.851159599958919,139.62802129995544,141.57399607996922,2024-04-17 15:39:43.852028,2024-04-17 15:39:45.795813,MF013.jpg,0,10998,18-29,2024_Apr_17_1537,Recall,2021.2.3,59.95318855686176,
,L_DD506.jpg,1,L_FF506.jpg,1,,,,,0,7,7,45,imgFunc,0,NA,9.187335300026461,141.57981069991365,150.86512107995804,2024-04-17 15:39:45.803792,2024-04-17 15:39:55.086169,L_FF506.jpg,1,10998,18-29,2024_Apr_17_1537,Recall,2021.2.3,59.95318855686176,
,SD012.jpg,0,MF012.jpg,0,,,,,0,8,8,61,imgFunc,9,NA,5.505573699949309,150.87761009996757,156.47431828000117,2024-04-17 15:39:55.095124,2024-04-17 15:40:00.691128,MF012.jpg,0,10998,18-29,2024_Apr_17_1537,Recall,2021.2.3,59.95318855686176,
,SD036.jpg,0,MF036.jpg,0,,,,,0,9,9,85,imgFunc,1,NA,1.8241961000021547,156.48736019991338,158.4095289799152,2024-04-17 15:40:00.702102,2024-04-17 15:40:02.623846,MF036.jpg,0,10998,18-29,2024_Apr_17_1537,Recall,2021.2.3,59.95318855686176,
,SD001.jpg,0,MF001.jpg,0,,,,,0,10,10,50,imgFunc,2,NA,1.5918508999748155,158.40779600001406,160.09015758009627,2024-04-17 15:40:02.630621,2024-04-17 15:40:04.309247,MF001.jpg,0,10998,18-29,2024_Apr_17_1537,Recall,2021.2.3,59.95318855686176,
,L_SD502.jpg,1,L_MF502.jpg,1,,,,,0,11,11,91,imgFunc,0,NA,3.8299538999563083,160.097219999996,164.02863718010485,2024-04-17 15:40:04.317019,2024-04-17 15:40:08.245647,L_MF502.jpg,1,10998,18-29,2024_Apr_17_1537,Recall,2021.2.3,59.95318855686176,
,DD034.jpg,0,FF034.jpg,0,,,,,0,12,12,33,imgFunc,2,NA,3.191581999999471,164.0395983000053,167.34297585999593,2024-04-17 15:40:08.258613,2024-04-17 15:40:11.547866,FF034.jpg,0,10998,18-29,2024_Apr_17_1537,Recall,2021.2.3,59.95318855686176,
,DD001.jpg,0,FF001.jpg,0,,,,,0,13,13,0,imgFunc,1,NA,0.6987812999868765,167.33238109992817,168.12881078012288,2024-04-17 15:40:11.554851,2024-04-17 15:40:12.348731,FF001.jpg,0,10998,18-29,2024_Apr_17_1537,Recall,2021.2.3,59.95318855686176,
,DD040.jpg,0,FF040.jpg,0,,,,,0,14,14,39,imgFunc,1,NA,0.6407101999502629,168.13448040001094,168.86093928001355,2024-04-17 15:40:12.356681,2024-04-17 15:40:13.082000,FF040.jpg,0,10998,18-29,2024_Apr_17_1537,Recall,2021.2.3,59.95318855686176,
,SD038.jpg,0,MF038.jpg,0,,,,,0,15,15,87,imgFunc,1,NA,1.5695083000464365,168.86982349993195,170.53312218002975,2024-04-17 15:40:13.089956,2024-04-17 15:40:14.750555,MF038.jpg,0,10998,18-29,2024_Apr_17_1537,Recall,2021.2.3,59.95318855686176,
,DD006.jpg,0,FF006.jpg,0,,,,,0,16,16,5,imgFunc,1,NA,0.9938808999722824,170.53332509996835,171.61263628001325,2024-04-17 15:40:14.757536,2024-04-17 15:40:15.834653,FF006.jpg,0,10998,18-29,2024_Apr_17_1537,Recall,2021.2.3,59.95318855686176,
,SD018.jpg,0,MF018.jpg,0,,,,,0,17,17,67,imgFunc,2,NA,0.8375768000259995,171.61768209992442,172.54559918004088,2024-04-17 15:40:15.842640,2024-04-17 15:40:16.768171,MF018.jpg,0,10998,18-29,2024_Apr_17_1537,Recall,2021.2.3,59.95318855686176,
,SD021.jpg,0,MF021.jpg,0,,,,,0,18,18,70,imgFunc,1,NA,0.7270550000248477,172.5521239999216,173.363739579916,2024-04-17 15:40:16.776121,2024-04-17 15:40:17.585516,MF021.jpg,0,10998,18-29,2024_Apr_17_1537,Recall,2021.2.3,59.95318855686176,
,SD029.jpg,0,MF029.jpg,0,,,,,0,19,19,78,imgFunc,2,NA,1.8611668000230566,173.37005039991345,175.3331806800561,2024-04-17 15:40:17.592503,2024-04-17 15:40:19.553263,MF029.jpg,0,10998,18-29,2024_Apr_17_1537,Recall,2021.2.3,59.95318855686176,
,SD037.jpg,0,MF037.jpg,0,,,,,0,20,20,86,imgFunc,9,NA,4.103208200074732,175.335939600016,179.53442358004395,2024-04-17 15:40:19.561249,2024-04-17 15:40:23.756517,MF037.jpg,0,10998,18-29,2024_Apr_17_1537,Recall,2021.2.3,59.95318855686176,
,L_SD501.jpg,1,L_MF501.jpg,1,,,,,0,21,21,90,imgFunc,0,NA,0.7146797999739647,179.54058629996143,180.3506954801269,2024-04-17 15:40:23.765467,2024-04-17 15:40:24.573311,L_MF501.jpg,1,10998,18-29,2024_Apr_17_1537,Recall,2021.2.3,59.95318855686176,
,SD027.jpg,0,MF027.jpg,0,,,,,0,22,22,76,imgFunc,0,NA,1.1230256999842823,180.35617719998118,181.56933347997256,2024-04-17 15:40:24.581290,2024-04-17 15:40:25.791089,MF027.jpg,0,10998,18-29,2024_Apr_17_1537,Recall,2021.2.3,59.95318855686176,
,SD010.jpg,0,MF010.jpg,0,,,,,0,23,23,59,imgFunc,9,NA,3.5528921999502927,181.57463909999933,185.22146248014178,2024-04-17 15:40:25.799069,2024-04-17 15:40:29.443822,MF010.jpg,0,10998,18-29,2024_Apr_17_1537,Recall,2021.2.3,59.95318855686176,
,SD026.jpg,0,MF026.jpg,0,,,,,0,24,24,75,imgFunc,1,NA,1.6925024000229314,185.22687459993176,187.00801077997312,2024-04-17 15:40:29.450595,2024-04-17 15:40:31.228464,MF026.jpg,0,10998,18-29,2024_Apr_17_1537,Recall,2021.2.3,59.95318855686176,
,DD031.jpg,0,FF031.jpg,0,,,,,0,25,25,30,imgFunc,1,NA,3.5416116999695078,187.01768739998806,190.6662654799875,2024-04-17 15:40:31.236244,2024-04-17 15:40:34.881991,FF031.jpg,0,10998,18-29,2024_Apr_17_1537,Recall,2021.2.3,59.95318855686176,
,DD012.jpg,0,FF012.jpg,0,,,,,0,26,26,11,imgFunc,2,NA,1.7624895999906585,190.66882679995615,192.53052927996032,2024-04-17 15:40:34.889770,2024-04-17 15:40:36.748343,FF012.jpg,0,10998,18-29,2024_Apr_17_1537,Recall,2021.2.3,59.95318855686176,
,DD028.jpg,0,FF028.jpg,0,,,,,0,27,27,27,imgFunc,2,NA,2.2509906999766827,192.53217689995654,194.8815309801139,2024-04-17 15:40:36.755112,2024-04-17 15:40:39.100921,FF028.jpg,0,10998,18-29,2024_Apr_17_1537,Recall,2021.2.3,59.95318855686176,
,DD030.jpg,0,FF030.jpg,0,,,,,0,28,28,29,imgFunc,2,NA,5.755891899927519,194.88325529999565,200.73316758009605,2024-04-17 15:40:39.107902,2024-04-17 15:40:44.955196,FF030.jpg,0,10998,18-29,2024_Apr_17_1537,Recall,2021.2.3,59.95318855686176,
,SD033.jpg,0,MF033.jpg,0,,,,,0,29,29,82,imgFunc,0,NA,2.765184900024906,200.74594189994968,203.60649847995955,2024-04-17 15:40:44.964150,2024-04-17 15:40:47.823856,MF033.jpg,0,10998,18-29,2024_Apr_17_1537,Recall,2021.2.3,59.95318855686176,
,DD023.jpg,0,FF023.jpg,0,,,,,0,30,30,22,imgFunc,1,NA,1.4321732999524102,203.60733729996718,205.1366712799063,2024-04-17 15:40:47.830844,2024-04-17 15:40:49.357763,FF023.jpg,0,10998,18-29,2024_Apr_17_1537,Recall,2021.2.3,59.95318855686176,
,DD029.jpg,0,FF029.jpg,0,,,,,0,31,31,28,imgFunc,2,NA,1.7997906000819057,205.14332229993306,207.04027888004202,2024-04-17 15:40:49.365748,2024-04-17 15:40:51.259695,FF029.jpg,0,10998,18-29,2024_Apr_17_1537,Recall,2021.2.3,59.95318855686176,
,DD019.jpg,0,FF019.jpg,0,,,,,0,32,32,18,imgFunc,1,NA,1.8877187999896705,207.0475248999428,209.02749487990513,2024-04-17 15:40:51.266680,2024-04-17 15:40:53.243874,FF019.jpg,0,10998,18-29,2024_Apr_17_1537,Recall,2021.2.3,59.95318855686176,
,DD027.jpg,0,FF027.jpg,0,,,,,0,33,33,26,imgFunc,9,NA,2.8889897998888046,209.0303954000119,212.01176558004227,2024-04-17 15:40:53.251825,2024-04-17 15:40:56.229880,FF027.jpg,0,10998,18-29,2024_Apr_17_1537,Recall,2021.2.3,59.95318855686176,
,SD034.jpg,0,MF034.jpg,0,,,,,0,34,34,83,imgFunc,0,NA,1.4409682999830693,212.0142249999335,213.54364398005418,2024-04-17 15:40:56.236861,2024-04-17 15:40:57.763808,MF034.jpg,0,10998,18-29,2024_Apr_17_1537,Recall,2021.2.3,59.95318855686176,
,DD021.jpg,0,FF021.jpg,0,,,,,0,35,35,20,imgFunc,2,NA,1.9938648000825197,213.54928079992533,215.6306693799561,2024-04-17 15:40:57.770768,2024-04-17 15:40:59.849244,FF021.jpg,0,10998,18-29,2024_Apr_17_1537,Recall,2021.2.3,59.95318855686176,
,DD022.jpg,0,FF022.jpg,0,,,,,0,36,36,21,imgFunc,9,NA,2.4056412000209093,215.63355149992276,218.12731577991508,2024-04-17 15:40:59.858199,2024-04-17 15:41:02.350571,FF022.jpg,0,10998,18-29,2024_Apr_17_1537,Recall,2021.2.3,59.95318855686176,
,SD003.jpg,0,MF003.jpg,0,,,,,0,37,37,52,imgFunc,1,NA,2.6163524999283254,218.13474499993026,220.84929318004288,2024-04-17 15:41:02.357530,2024-04-17 15:41:05.069020,MF003.jpg,0,10998,18-29,2024_Apr_17_1537,Recall,2021.2.3,59.95318855686176,
,L_DD501.jpg,1,L_FF501.jpg,1,,,,,0,38,38,40,imgFunc,9,NA,2.8013497999636456,220.85387869994156,223.75279318005778,2024-04-17 15:41:05.075976,2024-04-17 15:41:07.971386,L_FF501.jpg,1,10998,18-29,2024_Apr_17_1537,Recall,2021.2.3,59.95318855686176,
,DD015.jpg,0,FF015.jpg,0,,,,,0,39,39,14,imgFunc,1,NA,3.59651840000879,223.75466550001875,227.43645088013727,2024-04-17 15:41:07.979162,2024-04-17 15:41:11.657464,FF015.jpg,0,10998,18-29,2024_Apr_17_1537,Recall,2021.2.3,59.95318855686176,
,SD017.jpg,0,MF017.jpg,0,,,,,0,40,40,66,imgFunc,0,NA,2.3499068999662995,227.44123969995417,229.88842738000676,2024-04-17 15:41:11.664452,2024-04-17 15:41:14.109020,MF017.jpg,0,10998,18-29,2024_Apr_17_1537,Recall,2021.2.3,59.95318855686176,
,SD031.jpg,0,MF031.jpg,0,,,,,0,41,41,80,imgFunc,2,NA,2.0520467999158427,229.8910981999943,232.03795308002736,2024-04-17 15:41:14.116006,2024-04-17 15:41:16.260254,MF031.jpg,0,10998,18-29,2024_Apr_17_1537,Recall,2021.2.3,59.95318855686176,
,DD009.jpg,0,FF009.jpg,0,,,,,0,42,42,8,imgFunc,1,NA,0.6757053000619635,232.04349479998928,232.8064324799925,2024-04-17 15:41:16.268234,2024-04-17 15:41:17.028058,FF009.jpg,0,10998,18-29,2024_Apr_17_1537,Recall,2021.2.3,59.95318855686176,
,DD017.jpg,0,FF017.jpg,0,,,,,0,43,43,16,imgFunc,2,NA,1.9416918000206351,232.81747959996574,234.86405518010724,2024-04-17 15:41:17.035009,2024-04-17 15:41:19.079576,FF017.jpg,0,10998,18-29,2024_Apr_17_1537,Recall,2021.2.3,59.95318855686176,
,L_SD510.jpg,1,L_MF510.jpg,1,,,,,0,44,44,99,imgFunc,9,NA,1.8964593999553472,234.8626400999492,236.85960798012093,2024-04-17 15:41:19.086535,2024-04-17 15:41:21.081235,L_MF510.jpg,1,10998,18-29,2024_Apr_17_1537,Recall,2021.2.3,59.95318855686176,
,DD025.jpg,0,FF025.jpg,0,,,,,0,45,45,24,imgFunc,2,NA,2.2318902999395505,236.86323989997618,239.19305198010989,2024-04-17 15:41:21.088195,2024-04-17 15:41:23.415952,FF025.jpg,0,10998,18-29,2024_Apr_17_1537,Recall,2021.2.3,59.95318855686176,
,DD039.jpg,0,FF039.jpg,0,,,,,0,46,46,38,imgFunc,2,NA,1.4608281999826431,239.20227799995337,240.7646000800887,2024-04-17 15:41:23.423910,2024-04-17 15:41:24.983749,FF039.jpg,0,10998,18-29,2024_Apr_17_1537,Recall,2021.2.3,59.95318855686176,
,DD038.jpg,0,FF038.jpg,0,,,,,0,47,47,37,imgFunc,1,NA,0.8942990000359714,240.76884149992839,241.76408297999296,2024-04-17 15:41:24.991726,2024-04-17 15:41:25.984107,FF038.jpg,0,10998,18-29,2024_Apr_17_1537,Recall,2021.2.3,59.95318855686176,
,SD007.jpg,0,MF007.jpg,0,,,,,0,48,48,56,imgFunc,0,NA,3.991224700002931,241.76825849991292,245.8496609799331,2024-04-17 15:41:25.992057,2024-04-17 15:41:30.070462,MF007.jpg,0,10998,18-29,2024_Apr_17_1537,Recall,2021.2.3,59.95318855686176,
,SD040.jpg,0,MF040.jpg,0,,,,,0,49,49,89,imgFunc,9,NA,2.2712465000804514,245.85644549992867,248.2225978799397,2024-04-17 15:41:30.077237,2024-04-17 15:41:32.439240,MF040.jpg,0,10998,18-29,2024_Apr_17_1537,Recall,2021.2.3,59.95318855686176,
,DD003.jpg,0,FF003.jpg,0,,,,,0,50,50,2,imgFunc,0,NA,1.6637023999355733,248.22369869996328,249.986530079972,2024-04-17 15:41:32.447009,2024-04-17 15:41:34.206903,FF003.jpg,0,10998,18-29,2024_Apr_17_1537,Recall,2021.2.3,59.95318855686176,
,DD010.jpg,0,FF010.jpg,0,,,,,0,51,51,9,imgFunc,0,NA,1.1651949000079185,249.9941863999702,251.2570465799654,2024-04-17 15:41:34.214677,2024-04-17 15:41:35.473659,FF010.jpg,0,10998,18-29,2024_Apr_17_1537,Recall,2021.2.3,59.95318855686176,
,SD024.jpg,0,MF024.jpg,0,,,,,0,52,52,73,imgFunc,1,NA,1.5116600999608636,251.25578759994823,252.85552137997,2024-04-17 15:41:35.480424,2024-04-17 15:41:37.075636,MF024.jpg,0,10998,18-29,2024_Apr_17_1537,Recall,2021.2.3,59.95318855686176,
,SD016.jpg,0,MF016.jpg,0,,,,,0,53,53,65,imgFunc,1,NA,1.04682110005524,252.86433609994128,254.00838838005438,2024-04-17 15:41:37.084396,2024-04-17 15:41:38.225824,MF016.jpg,0,10998,18-29,2024_Apr_17_1537,Recall,2021.2.3,59.95318855686176,
,L_DD509.jpg,1,L_FF509.jpg,1,,,,,0,54,54,48,imgFunc,2,NA,1.4061596000101417,254.00912489998154,255.50715438008774,2024-04-17 15:41:38.232805,2024-04-17 15:41:39.727790,L_FF509.jpg,1,10998,18-29,2024_Apr_17_1537,Recall,2021.2.3,59.95318855686176,
,DD014.jpg,0,FF014.jpg,0,,,,,0,55,55,13,imgFunc,9,NA,1.8080286999465898,255.5111748999916,257.40700708003715,2024-04-17 15:41:39.735769,2024-04-17 15:41:41.628718,FF014.jpg,0,10998,18-29,2024_Apr_17_1537,Recall,2021.2.3,59.95318855686176,
,L_DD502.jpg,1,L_FF502.jpg,1,,,,,0,56,56,41,imgFunc,1,NA,1.323234900017269,257.4119564999128,258.82410828000866,2024-04-17 15:41:41.636697,2024-04-17 15:41:43.046156,L_FF502.jpg,1,10998,18-29,2024_Apr_17_1537,Recall,2021.2.3,59.95318855686176,
,SD020.jpg,0,MF020.jpg,0,,,,,0,57,57,69,imgFunc,1,NA,1.274360099923797,258.82919419999234,260.1934947799891,2024-04-17 15:41:43.053144,2024-04-17 15:41:44.414506,MF020.jpg,0,10998,18-29,2024_Apr_17_1537,Recall,2021.2.3,59.95318855686176,
,DD011.jpg,0,FF011.jpg,0,,,,,0,58,58,10,imgFunc,1,NA,1.3302601999603212,260.19687999994494,261.6269586799899,2024-04-17 15:41:44.421494,2024-04-17 15:41:45.848679,FF011.jpg,0,10998,18-29,2024_Apr_17_1537,Recall,2021.2.3,59.95318855686176,
,DD036.jpg,0,FF036.jpg,0,,,,,0,59,59,35,imgFunc,0,NA,2.6952180999796838,261.6319236999843,264.41205128014553,2024-04-17 15:41:45.856636,2024-04-17 15:41:48.633799,FF036.jpg,0,10998,18-29,2024_Apr_17_1537,Recall,2021.2.3,59.95318855686176,
,DD032.jpg,0,FF032.jpg,0,,,,,0,60,60,31,imgFunc,2,NA,1.8136623000027612,264.417529999977,266.33058217994403,2024-04-17 15:41:48.641778,2024-04-17 15:41:50.551702,FF032.jpg,0,10998,18-29,2024_Apr_17_1537,Recall,2021.2.3,59.95318855686176,
,DD013.jpg,0,FF013.jpg,0,,,,,0,61,61,12,imgFunc,2,NA,1.0115831999573857,266.3395254999632,267.45234158006497,2024-04-17 15:41:50.558690,2024-04-17 15:41:51.669085,FF013.jpg,0,10998,18-29,2024_Apr_17_1537,Recall,2021.2.3,59.95318855686176,
,L_DD504.jpg,1,L_FF504.jpg,1,,,,,0,62,62,43,imgFunc,2,NA,1.4131557999644428,267.4501891999971,268.9474614801584,2024-04-17 15:41:51.676066,2024-04-17 15:41:53.170102,L_FF504.jpg,1,10998,18-29,2024_Apr_17_1537,Recall,2021.2.3,59.95318855686176,
,SD035.jpg,0,MF035.jpg,0,,,,,0,63,63,84,imgFunc,1,NA,0.8933102999581024,268.95411369996145,269.93372038018424,2024-04-17 15:41:53.178088,2024-04-17 15:41:54.154476,MF035.jpg,0,10998,18-29,2024_Apr_17_1537,Recall,2021.2.3,59.95318855686176,
,DD007.jpg,0,FF007.jpg,0,,,,,0,64,64,6,imgFunc,9,NA,2.195685900049284,269.9394591000164,272.23652627994306,2024-04-17 15:41:54.162460,2024-04-17 15:41:56.456303,FF007.jpg,0,10998,18-29,2024_Apr_17_1537,Recall,2021.2.3,59.95318855686176,
,L_SD504.jpg,1,L_MF504.jpg,1,,,,,0,65,65,93,imgFunc,2,NA,2.841978900018148,272.2373753999127,275.16934827994555,2024-04-17 15:41:56.463086,2024-04-17 15:41:59.391699,L_MF504.jpg,1,10998,18-29,2024_Apr_17_1537,Recall,2021.2.3,59.95318855686176,
,L_DD505.jpg,1,L_FF505.jpg,1,,,,,0,66,66,44,imgFunc,9,NA,5.856218800065108,275.17533789994195,281.1271126801148,2024-04-17 15:41:59.398478,2024-04-17 15:42:05.346036,L_FF505.jpg,1,10998,18-29,2024_Apr_17_1537,Recall,2021.2.3,59.95318855686176,
,SD008.jpg,0,MF008.jpg,0,,,,,0,67,67,57,imgFunc,0,NA,3.0916031999513507,281.13950559997465,284.33385057991836,2024-04-17 15:42:05.354806,2024-04-17 15:42:08.548113,MF008.jpg,0,10998,18-29,2024_Apr_17_1537,Recall,2021.2.3,59.95318855686176,
,L_DD508.jpg,1,L_FF508.jpg,1,,,,,0,68,68,47,imgFunc,9,NA,0.8988437000662088,284.3322894999292,285.329321679892,2024-04-17 15:42:08.555072,2024-04-17 15:42:09.549449,L_FF508.jpg,1,10998,18-29,2024_Apr_17_1537,Recall,2021.2.3,59.95318855686176,
,DD026.jpg,0,FF026.jpg,0,,,,,0,69,69,25,imgFunc,2,NA,1.82173279998824,285.33748759992886,287.25057078001555,2024-04-17 15:42:09.556400,2024-04-17 15:42:11.467323,FF026.jpg,0,10998,18-29,2024_Apr_17_1537,Recall,2021.2.3,59.95318855686176,
,DD020.jpg,0,FF020.jpg,0,,,,,0,70,70,19,imgFunc,1,NA,5.089587999973446,287.26154989993665,292.45994867989793,2024-04-17 15:42:11.475281,2024-04-17 15:42:16.670791,FF020.jpg,0,10998,18-29,2024_Apr_17_1537,Recall,2021.2.3,59.95318855686176,
,SD014.jpg,0,MF014.jpg,0,,,,,0,71,71,63,imgFunc,2,NA,1.1757300000172108,292.4633004999487,293.7408257800853,2024-04-17 15:42:16.678750,2024-04-17 15:42:17.955115,MF014.jpg,0,10998,18-29,2024_Apr_17_1537,Recall,2021.2.3,59.95318855686176,
,SD023.jpg,0,MF023.jpg,0,,,,,0,72,72,72,imgFunc,2,NA,1.7653228000272065,293.7378840999445,295.60137448005844,2024-04-17 15:42:17.962096,2024-04-17 15:42:19.823152,MF023.jpg,0,10998,18-29,2024_Apr_17_1537,Recall,2021.2.3,59.95318855686176,
,DD016.jpg,0,FF016.jpg,0,,,,,0,73,73,15,imgFunc,2,NA,11.977259999956004,295.60596329998225,307.6752889800118,2024-04-17 15:42:19.831110,2024-04-17 15:42:31.898060,FF016.jpg,0,10998,18-29,2024_Apr_17_1537,Recall,2021.2.3,59.95318855686176,
,DD035.jpg,0,FF035.jpg,0,,,,,0,74,74,34,imgFunc,9,NA,2.2298500000033528,307.72159500001,310.0780653799884,2024-04-17 15:42:31.909826,2024-04-17 15:42:34.265742,FF035.jpg,0,10998,18-29,2024_Apr_17_1537,Recall,2021.2.3,59.95318855686176,
,L_DD507.jpg,1,L_FF507.jpg,1,,,,,0,75,75,46,imgFunc,9,NA,2.4271055000135675,310.05228689999785,312.56929008010775,2024-04-17 15:42:34.272515,2024-04-17 15:42:36.784952,L_FF507.jpg,1,10998,18-29,2024_Apr_17_1537,Recall,2021.2.3,59.95318855686176,
,L_DD503.jpg,1,L_FF503.jpg,1,,,,,0,76,76,42,imgFunc,0,NA,3.284406000049785,312.57068909995724,315.9524032799527,2024-04-17 15:42:36.791938,2024-04-17 15:42:40.170386,L_FF503.jpg,1,10998,18-29,2024_Apr_17_1537,Recall,2021.2.3,59.95318855686176,
,L_SD505.jpg,1,L_MF505.jpg,1,,,,,0,77,77,94,imgFunc,1,NA,2.879885300062597,315.9593191000167,318.94040868012235,2024-04-17 15:42:40.178365,2024-04-17 15:42:43.156213,L_MF505.jpg,1,10998,18-29,2024_Apr_17_1537,Recall,2021.2.3,59.95318855686176,
,DD008.jpg,0,FF008.jpg,0,,,,,0,78,78,7,imgFunc,0,NA,4.132132399943657,318.9389838000061,323.1701577800559,2024-04-17 15:42:43.164191,2024-04-17 15:42:47.392436,FF008.jpg,0,10998,18-29,2024_Apr_17_1537,Recall,2021.2.3,59.95318855686176,
,SD032.jpg,0,MF032.jpg,0,,,,,0,79,79,81,imgFunc,0,NA,3.479787699994631,323.1753121999791,326.739040179993,2024-04-17 15:42:47.400415,2024-04-17 15:42:50.961911,MF032.jpg,0,10998,18-29,2024_Apr_17_1537,Recall,2021.2.3,59.95318855686176,
,DD004.jpg,0,FF004.jpg,0,,,,,0,80,80,3,imgFunc,0,NA,0.7732240000041202,326.7459219999146,327.60897008003667,2024-04-17 15:42:50.968892,2024-04-17 15:42:51.829195,FF004.jpg,0,10998,18-29,2024_Apr_17_1537,Recall,2021.2.3,59.95318855686176,
,SD002.jpg,0,MF002.jpg,0,,,,,0,81,81,51,imgFunc,9,NA,1.2360185000579804,327.6110775999259,328.94127948000096,2024-04-17 15:42:51.836176,2024-04-17 15:42:53.163633,MF002.jpg,0,10998,18-29,2024_Apr_17_1537,Recall,2021.2.3,59.95318855686176,
,L_SD506.jpg,1,L_MF506.jpg,1,,,,,0,82,82,95,imgFunc,9,NA,2.244834099896252,328.94619980000425,331.2764673801139,2024-04-17 15:42:53.170614,2024-04-17 15:42:55.498403,L_MF506.jpg,1,10998,18-29,2024_Apr_17_1537,Recall,2021.2.3,59.95318855686176,
,L_SD503.jpg,1,L_MF503.jpg,1,,,,,0,83,83,92,imgFunc,0,NA,1.2419684000778943,331.28500209993217,332.6313096799422,2024-04-17 15:42:55.505385,2024-04-17 15:42:56.849180,L_MF503.jpg,1,10998,18-29,2024_Apr_17_1537,Recall,2021.2.3,59.95318855686176,
,DD002.jpg,0,FF002.jpg,0,,,,,0,84,84,1,imgFunc,0,NA,0.8370991999981925,332.6342291999608,333.5637078798609,2024-04-17 15:42:56.856959,2024-04-17 15:42:57.783214,FF002.jpg,0,10998,18-29,2024_Apr_17_1537,Recall,2021.2.3,59.95318855686176,
,DD037.jpg,0,FF037.jpg,0,,,,,0,85,85,36,imgFunc,9,NA,1.8570333999814466,333.5663730999222,335.51371897989884,2024-04-17 15:42:57.791224,2024-04-17 15:42:59.734778,FF037.jpg,0,10998,18-29,2024_Apr_17_1537,Recall,2021.2.3,59.95318855686176,
,L_SD508.jpg,1,L_MF508.jpg,1,,,,,0,86,86,97,imgFunc,0,NA,1.0875644000479952,335.51980219990946,336.6997063799063,2024-04-17 15:42:59.742567,2024-04-17 15:43:00.918694,L_MF508.jpg,1,10998,18-29,2024_Apr_17_1537,Recall,2021.2.3,59.95318855686176,
,SD039.jpg,0,MF039.jpg,0,,,,,0,87,87,88,imgFunc,2,NA,1.8786009999457747,336.7044804999605,338.68642008001916,2024-04-17 15:43:00.925652,2024-04-17 15:43:02.903902,MF039.jpg,0,10998,18-29,2024_Apr_17_1537,Recall,2021.2.3,59.95318855686176,
,SD005.jpg,0,MF005.jpg,0,,,,,0,88,88,54,imgFunc,0,NA,2.7979233999503776,338.6895920999814,341.58651967998594,2024-04-17 15:43:02.910881,2024-04-17 15:43:05.805323,MF005.jpg,0,10998,18-29,2024_Apr_17_1537,Recall,2021.2.3,59.95318855686176,
,DD018.jpg,0,FF018.jpg,0,,,,,0,89,89,17,imgFunc,9,NA,1.496921299956739,341.59049510001205,343.1878610800486,2024-04-17 15:43:05.813102,2024-04-17 15:43:07.406852,FF018.jpg,0,10998,18-29,2024_Apr_17_1537,Recall,2021.2.3,59.95318855686176,
,SD006.jpg,0,MF006.jpg,0,,,,,0,90,90,55,imgFunc,0,NA,1.3570965999970213,343.19401330000255,344.6405480799731,2024-04-17 15:43:07.414628,2024-04-17 15:43:08.857876,MF006.jpg,0,10998,18-29,2024_Apr_17_1537,Recall,2021.2.3,59.95318855686176,
,SD019.jpg,0,MF019.jpg,0,,,,,0,91,91,68,imgFunc,0,NA,0.8106270999414846,344.64442449994385,345.5577834799187,2024-04-17 15:43:08.864836,2024-04-17 15:43:09.775435,MF019.jpg,0,10998,18-29,2024_Apr_17_1537,Recall,2021.2.3,59.95318855686176,
,SD015.jpg,0,MF015.jpg,0,,,,,0,92,92,64,imgFunc,9,NA,1.091304300003685,345.5638372999383,346.7600356800249,2024-04-17 15:43:09.782388,2024-04-17 15:43:10.976224,MF015.jpg,0,10998,18-29,2024_Apr_17_1537,Recall,2021.2.3,59.95318855686176,
,L_DD510.jpg,1,L_FF510.jpg,1,,,,,0,93,93,49,imgFunc,1,NA,1.6905517999548465,346.76448779995553,348.56146867992356,2024-04-17 15:43:10.984183,2024-04-17 15:43:12.777593,L_FF510.jpg,1,10998,18-29,2024_Apr_17_1537,Recall,2021.2.3,59.95318855686176,
,DD024.jpg,0,FF024.jpg,0,,,,,0,94,94,23,imgFunc,0,NA,2.130453099962324,348.5646418000106,350.79545358009636,2024-04-17 15:43:12.784571,2024-04-17 15:43:15.012626,FF024.jpg,0,10998,18-29,2024_Apr_17_1537,Recall,2021.2.3,59.95318855686176,
,SD030.jpg,0,MF030.jpg,0,,,,,0,95,95,79,imgFunc,9,NA,2.2058496000245214,350.80122579995077,353.09828368003946,2024-04-17 15:43:15.019611,2024-04-17 15:43:17.314139,MF030.jpg,0,10998,18-29,2024_Apr_17_1537,Recall,2021.2.3,59.95318855686176,
,L_SD507.jpg,1,L_MF507.jpg,1,,,,,0,96,96,96,imgFunc,0,NA,1.805432299966924,353.0978490000125,354.994096280192,2024-04-17 15:43:17.321126,2024-04-17 15:43:19.215072,L_MF507.jpg,1,10998,18-29,2024_Apr_17_1537,Recall,2021.2.3,59.95318855686176,
,SD022.jpg,0,MF022.jpg,0,,,,,0,97,97,71,imgFunc,2,NA,2.6293698999797925,355.00176409992855,357.7327699799789,2024-04-17 15:43:19.223051,2024-04-17 15:43:21.950713,MF022.jpg,0,10998,18-29,2024_Apr_17_1537,Recall,2021.2.3,59.95318855686176,
,SD004.jpg,0,MF004.jpg,0,,,,,0,98,98,53,imgFunc,0,NA,8.147989400080405,357.7313838999253,365.96628507995047,2024-04-17 15:43:21.957672,2024-04-17 15:43:30.189935,MF004.jpg,0,10998,18-29,2024_Apr_17_1537,Recall,2021.2.3,59.95318855686176,
,SD025.jpg,0,MF025.jpg,0,,,,,0,99,99,74,imgFunc,2,NA,12.743804799974896,365.9832654999336,378.834021280054,2024-04-17 15:43:30.199729,2024-04-17 15:43:43.049192,MF025.jpg,0,10998,18-29,2024_Apr_17_1537,Recall,2021.2.3,59.95318855686176,
,,,,,,,,,,,,,instrFunc,space,"Great work! 

 Now you will switch to the other image type.

 Press the spacebar whenever you are ready to start.",2.0773841000627726,378.7617176999338,380.8719468800118,2024-04-17 15:43:43.050196,2024-04-17 15:43:45.149595,,,10998,18-29,2024_Apr_17_1537,Recall,2021.2.3,59.95318855686176,
,DD003.jpg,0,FF003.jpg,0,,,,,0,0,0,2,imgFunc,2,NA,2.7019314999924973,380.9851588999154,383.8107895400608,2024-04-17 15:43:45.184476,2024-04-17 15:43:48.002350,DD003.jpg,0,10998,18-29,2024_Apr_17_1537,Recall,2021.2.3,59.95318855686176,
,DD019.jpg,0,FF019.jpg,0,,,,,0,1,1,18,imgFunc,1,NA,1.7692934999940917,383.78997179993894,385.6526850799564,2024-04-17 15:43:48.010329,2024-04-17 15:43:49.870366,DD019.jpg,0,10998,18-29,2024_Apr_17_1537,Recall,2021.2.3,59.95318855686176,
,L_SD509.jpg,1,L_MF509.jpg,1,,,,,0,2,2,98,imgFunc,1,NA,0.7585122999735177,385.648558099987,386.49305477994494,2024-04-17 15:43:49.878344,2024-04-17 15:43:50.721090,L_SD509.jpg,1,10998,18-29,2024_Apr_17_1537,Recall,2021.2.3,59.95318855686176,
,DD035.jpg,0,FF035.jpg,0,,,,,0,3,3,34,imgFunc,1,NA,0.8268117000116035,386.5004011999117,387.41407727997284,2024-04-17 15:43:50.728077,2024-04-17 15:43:51.638750,DD035.jpg,0,10998,18-29,2024_Apr_17_1537,Recall,2021.2.3,59.95318855686176,
,SD026.jpg,0,MF026.jpg,0,,,,,0,4,4,75,imgFunc,2,NA,1.8170685999793932,387.4140941000078,389.3107511800481,2024-04-17 15:43:51.645703,2024-04-17 15:43:53.539682,SD026.jpg,0,10998,18-29,2024_Apr_17_1537,Recall,2021.2.3,59.95318855686176,
,L_DD503.jpg,1,L_FF503.jpg,1,,,,,0,5,5,42,imgFunc,0,NA,3.13055990007706,389.3169648000039,392.53137658000924,2024-04-17 15:43:53.547629,2024-04-17 15:43:56.758702,L_DD503.jpg,1,10998,18-29,2024_Apr_17_1537,Recall,2021.2.3,59.95318855686176,
,SD036.jpg,0,MF036.jpg,0,,,,,0,6,6,85,imgFunc,0,NA,3.2364017000654712,392.53868689993396,395.87015098007396,2024-04-17 15:43:56.766475,2024-04-17 15:44:00.094283,SD036.jpg,0,10998,18-29,2024_Apr_17_1537,Recall,2021.2.3,59.95318855686176,
,SD017.jpg,0,MF017.jpg,0,,,,,0,7,7,66,imgFunc,2,NA,1.513855299912393,395.87737140001263,397.4915263799485,2024-04-17 15:44:00.102135,2024-04-17 15:44:01.712357,SD017.jpg,0,10998,18-29,2024_Apr_17_1537,Recall,2021.2.3,59.95318855686176,
,DD023.jpg,0,FF023.jpg,0,,,,,0,8,8,22,imgFunc,1,NA,2.4041923999320716,397.49120829999447,399.9893398799468,2024-04-17 15:44:01.719125,2024-04-17 15:44:04.214036,DD023.jpg,0,10998,18-29,2024_Apr_17_1537,Recall,2021.2.3,59.95318855686176,
,DD010.jpg,0,FF010.jpg,0,,,,,0,9,9,9,imgFunc,9,NA,2.086054400075227,399.9931874999311,402.1741368799703,2024-04-17 15:44:04.221810,2024-04-17 15:44:06.399115,DD010.jpg,0,10998,18-29,2024_Apr_17_1537,Recall,2021.2.3,59.95318855686176,
,DD027.jpg,0,FF027.jpg,0,,,,,0,10,10,26,imgFunc,1,NA,1.9763106000609696,402.1748037999496,404.23888067994267,2024-04-17 15:44:06.405891,2024-04-17 15:44:08.466939,DD027.jpg,0,10998,18-29,2024_Apr_17_1537,Recall,2021.2.3,59.95318855686176,
,L_SD503.jpg,1,L_MF503.jpg,1,,,,,0,11,11,92,imgFunc,1,NA,3.061255200067535,404.24190269992687,407.3882531799609,2024-04-17 15:44:08.474889,2024-04-17 15:44:11.619530,L_SD503.jpg,1,10998,18-29,2024_Apr_17_1537,Recall,2021.2.3,59.95318855686176,
,SD007.jpg,0,MF007.jpg,0,,,,,0,12,12,56,imgFunc,1,NA,1.045434100087732,407.3936400999082,408.52208797994535,2024-04-17 15:44:11.627478,2024-04-17 15:44:12.753060,SD007.jpg,0,10998,18-29,2024_Apr_17_1537,Recall,2021.2.3,59.95318855686176,
,DD005.jpg,0,FF005.jpg,0,,,,,0,13,13,4,imgFunc,9,NA,1.8308036000235006,408.53626959992107,410.4655615799129,2024-04-17 15:44:12.761071,2024-04-17 15:44:14.687920,DD005.jpg,0,10998,18-29,2024_Apr_17_1537,Recall,2021.2.3,59.95318855686176,
,L_SD501.jpg,1,L_MF501.jpg,1,,,,,0,14,14,90,imgFunc,2,NA,1.8242301000282168,410.46282679995056,412.37489318009466,2024-04-17 15:44:14.695906,2024-04-17 15:44:16.605783,L_SD501.jpg,1,10998,18-29,2024_Apr_17_1537,Recall,2021.2.3,59.95318855686176,
,DD022.jpg,0,FF022.jpg,0,,,,,0,15,15,21,imgFunc,1,NA,1.3223049999214709,412.380700299982,413.7939011800336,2024-04-17 15:44:16.613762,2024-04-17 15:44:18.023435,DD022.jpg,0,10998,18-29,2024_Apr_17_1537,Recall,2021.2.3,59.95318855686176,
,DD031.jpg,0,FF031.jpg,0,,,,,0,16,16,30,imgFunc,2,NA,2.9317429000511765,413.8033295000205,416.8181619801326,2024-04-17 15:44:18.030417,2024-04-17 15:44:21.042402,DD031.jpg,0,10998,18-29,2024_Apr_17_1537,Recall,2021.2.3,59.95318855686176,
,SD001.jpg,0,MF001.jpg,0,,,,,0,17,17,50,imgFunc,1,NA,6.731741700088605,416.81941329990514,423.63689367996994,2024-04-17 15:44:21.050388,2024-04-17 15:44:27.864267,SD001.jpg,0,10998,18-29,2024_Apr_17_1537,Recall,2021.2.3,59.95318855686176,
,L_DD501.jpg,1,L_FF501.jpg,1,,,,,0,18,18,40,imgFunc,2,NA,1.9045716000255197,423.64683350000996,425.64071328006685,2024-04-17 15:44:27.873039,2024-04-17 15:44:29.865717,L_DD501.jpg,1,10998,18-29,2024_Apr_17_1537,Recall,2021.2.3,59.95318855686176,
,DD026.jpg,0,FF026.jpg,0,,,,,0,19,19,25,imgFunc,2,NA,2.098498999956064,425.65297569998074,427.850964780082,2024-04-17 15:44:29.872512,2024-04-17 15:44:32.067433,DD026.jpg,0,10998,18-29,2024_Apr_17_1537,Recall,2021.2.3,59.95318855686176,
,DD001.jpg,0,FF001.jpg,0,,,,,0,20,20,0,imgFunc,1,NA,1.0115324999205768,427.8436407999834,428.94062438001856,2024-04-17 15:44:32.075204,2024-04-17 15:44:33.168395,DD001.jpg,0,10998,18-29,2024_Apr_17_1537,Recall,2021.2.3,59.95318855686176,
,SD004.jpg,0,MF004.jpg,0,,,,,0,21,21,53,imgFunc,9,NA,2.068870500079356,428.94620160001796,431.10876008006744,2024-04-17 15:44:33.176373,2024-04-17 15:44:35.336370,SD004.jpg,0,10998,18-29,2024_Apr_17_1537,Recall,2021.2.3,59.95318855686176,
,DD008.jpg,0,FF008.jpg,0,,,,,0,22,22,7,imgFunc,1,NA,1.5832702999468893,431.12021289998665,432.80045968014747,2024-04-17 15:44:35.344142,2024-04-17 15:44:37.020971,DD008.jpg,0,10998,18-29,2024_Apr_17_1537,Recall,2021.2.3,59.95318855686176,
,DD033.jpg,0,FF033.jpg,0,,,,,0,23,23,32,imgFunc,1,NA,1.0858631000155583,432.80120019998867,433.98173918004613,2024-04-17 15:44:37.027746,2024-04-17 15:44:38.205182,DD033.jpg,0,10998,18-29,2024_Apr_17_1537,Recall,2021.2.3,59.95318855686176,
,SD030.jpg,0,MF030.jpg,0,,,,,0,24,24,79,imgFunc,2,NA,2.0369900999357924,433.98607310000807,436.11579258018173,2024-04-17 15:44:38.212142,2024-04-17 15:44:40.339465,SD030.jpg,0,10998,18-29,2024_Apr_17_1537,Recall,2021.2.3,59.95318855686176,
,DD034.jpg,0,FF034.jpg,0,,,,,0,25,25,33,imgFunc,2,NA,1.635000400012359,436.11610979994293,437.8473825799301,2024-04-17 15:44:40.346447,2024-04-17 15:44:42.074867,DD034.jpg,0,10998,18-29,2024_Apr_17_1537,Recall,2021.2.3,59.95318855686176,
,DD004.jpg,0,FF004.jpg,0,,,,,0,26,26,3,imgFunc,1,NA,1.211307100020349,437.85993339994457,439.1704508800758,2024-04-17 15:44:42.082815,2024-04-17 15:44:43.392232,DD004.jpg,0,10998,18-29,2024_Apr_17_1537,Recall,2021.2.3,59.95318855686176,
,SD009.jpg,0,MF009.jpg,0,,,,,0,27,27,58,imgFunc,1,NA,1.4902288999874145,439.1728933999548,440.7520919800736,2024-04-17 15:44:43.400221,2024-04-17 15:44:44.977010,SD009.jpg,0,10998,18-29,2024_Apr_17_1537,Recall,2021.2.3,59.95318855686176,
,SD038.jpg,0,MF038.jpg,0,,,,,0,28,28,87,imgFunc,0,NA,2.5051645000930876,440.7499110000208,443.34628638008144,2024-04-17 15:44:44.983965,2024-04-17 15:44:47.578351,SD038.jpg,0,10998,18-29,2024_Apr_17_1537,Recall,2021.2.3,59.95318855686176,
,SD025.jpg,0,MF025.jpg,0,,,,,0,29,29,74,imgFunc,1,NA,1.3630323000252247,443.3560686999699,444.80349868000485,2024-04-17 15:44:47.585335,2024-04-17 15:44:49.029451,SD025.jpg,0,10998,18-29,2024_Apr_17_1537,Recall,2021.2.3,59.95318855686176,
,DD013.jpg,0,FF013.jpg,0,,,,,0,30,30,12,imgFunc,2,NA,2.272672999999486,444.8063619999448,447.1704694799846,2024-04-17 15:44:49.036432,2024-04-17 15:44:51.398153,DD013.jpg,0,10998,18-29,2024_Apr_17_1537,Recall,2021.2.3,59.95318855686176,
,L_DD505.jpg,1,L_FF505.jpg,1,,,,,0,31,31,44,imgFunc,2,NA,1.873074800008908,447.17400339990854,449.13714177988004,2024-04-17 15:44:51.405141,2024-04-17 15:44:53.365944,L_DD505.jpg,1,10998,18-29,2024_Apr_17_1537,Recall,2021.2.3,59.95318855686176,
,SD018.jpg,0,MF018.jpg,0,,,,,0,32,32,67,imgFunc,9,NA,2.40305389999412,449.14002819999587,451.6209512799978,2024-04-17 15:44:53.372904,2024-04-17 15:44:55.851323,SD018.jpg,0,10998,18-29,2024_Apr_17_1537,Recall,2021.2.3,59.95318855686176,
,L_DD502.jpg,1,L_FF502.jpg,1,,,,,0,33,33,41,imgFunc,1,NA,1.9084313999628648,451.6271036999533,453.62237578001805,2024-04-17 15:44:55.859270,2024-04-17 15:44:57.853389,L_DD502.jpg,1,10998,18-29,2024_Apr_17_1537,Recall,2021.2.3,59.95318855686176,
,SD033.jpg,0,MF033.jpg,0,,,,,0,34,34,82,imgFunc,2,NA,1.3700887999730185,453.63710509997327,455.0992716799956,2024-04-17 15:44:57.860372,2024-04-17 15:44:59.320107,SD033.jpg,0,10998,18-29,2024_Apr_17_1537,Recall,2021.2.3,59.95318855686176,
,SD022.jpg,0,MF022.jpg,0,,,,,0,35,35,71,imgFunc,0,NA,3.121891599963419,455.1015375999268,458.3142062800471,2024-04-17 15:44:59.328877,2024-04-17 15:45:02.540072,SD022.jpg,0,10998,18-29,2024_Apr_17_1537,Recall,2021.2.3,59.95318855686176,
,L_DD504.jpg,1,L_FF504.jpg,1,,,,,0,36,36,43,imgFunc,2,NA,1.7800030000507832,458.3229340999387,460.20196947990917,2024-04-17 15:45:02.547056,2024-04-17 15:45:04.423709,L_DD504.jpg,1,10998,18-29,2024_Apr_17_1537,Recall,2021.2.3,59.95318855686176,
,SD037.jpg,0,MF037.jpg,0,,,,,0,37,37,86,imgFunc,2,NA,2.067146999994293,460.2121112999739,462.3769670800539,2024-04-17 15:45:04.431490,2024-04-17 15:45:06.593001,SD037.jpg,0,10998,18-29,2024_Apr_17_1537,Recall,2021.2.3,59.95318855686176,
,L_DD507.jpg,1,L_FF507.jpg,1,,,,,0,38,38,46,imgFunc,2,NA,1.315226599923335,462.3720789999934,463.78505618020426,2024-04-17 15:45:06.599979,2024-04-17 15:45:08.010435,L_DD507.jpg,1,10998,18-29,2024_Apr_17_1537,Recall,2021.2.3,59.95318855686176,
,SD005.jpg,0,MF005.jpg,0,,,,,0,39,39,54,imgFunc,0,NA,3.4909895999589935,463.78805849992204,467.3686924800277,2024-04-17 15:45:08.017421,2024-04-17 15:45:11.595874,SD005.jpg,0,10998,18-29,2024_Apr_17_1537,Recall,2021.2.3,59.95318855686176,
,DD014.jpg,0,FF014.jpg,0,,,,,0,40,40,13,imgFunc,1,NA,1.9784978000679985,467.37262009992264,469.435903579928,2024-04-17 15:45:11.602855,2024-04-17 15:45:13.663846,DD014.jpg,0,10998,18-29,2024_Apr_17_1537,Recall,2021.2.3,59.95318855686176,
,SD021.jpg,0,MF021.jpg,0,,,,,0,41,41,70,imgFunc,2,NA,5.551725700031966,469.43940319994,475.07233417988755,2024-04-17 15:45:13.671825,2024-04-17 15:45:19.301614,SD021.jpg,0,10998,18-29,2024_Apr_17_1537,Recall,2021.2.3,59.95318855686176,
,DD020.jpg,0,FF020.jpg,0,,,,,0,42,42,19,imgFunc,1,NA,1.435628000064753,475.091752099921,476.61640697997063,2024-04-17 15:45:19.311588,2024-04-17 15:45:20.835542,DD020.jpg,0,10998,18-29,2024_Apr_17_1537,Recall,2021.2.3,59.95318855686176,
,SD011.jpg,0,MF011.jpg,0,,,,,0,43,43,60,imgFunc,9,NA,3.799930200097151,476.6151073999936,480.51357328007,2024-04-17 15:45:20.843528,2024-04-17 15:45:24.738743,SD011.jpg,0,10998,18-29,2024_Apr_17_1537,Recall,2021.2.3,59.95318855686176,
,DD040.jpg,0,FF040.jpg,0,,,,,0,44,44,39,imgFunc,1,NA,1.8722066000336781,480.5191037999466,482.48036427993793,2024-04-17 15:45:24.746702,2024-04-17 15:45:26.707320,DD040.jpg,0,10998,18-29,2024_Apr_17_1537,Recall,2021.2.3,59.95318855686176,
,DD025.jpg,0,FF025.jpg,0,,,,,0,45,45,24,imgFunc,2,NA,1.9919561999849975,482.48770779999904,484.5669445800595,2024-04-17 15:45:26.714303,2024-04-17 15:45:28.791387,DD025.jpg,0,10998,18-29,2024_Apr_17_1537,Recall,2021.2.3,59.95318855686176,
,DD036.jpg,0,FF036.jpg,0,,,,,0,46,46,35,imgFunc,2,NA,6.303581699961796,484.57578499999363,490.9756033801241,2024-04-17 15:45:28.799163,2024-04-17 15:45:35.195822,DD036.jpg,0,10998,18-29,2024_Apr_17_1537,Recall,2021.2.3,59.95318855686176,
,SD006.jpg,0,MF006.jpg,0,,,,,0,47,47,55,imgFunc,9,NA,2.290773899992928,490.9804293999914,493.35742608015426,2024-04-17 15:45:35.205592,2024-04-17 15:45:37.580837,SD006.jpg,0,10998,18-29,2024_Apr_17_1537,Recall,2021.2.3,59.95318855686176,
,L_DD506.jpg,1,L_FF506.jpg,1,,,,,0,48,48,45,imgFunc,9,NA,4.037096399930306,493.3619885999942,497.49420748010743,2024-04-17 15:45:37.587624,2024-04-17 15:45:41.716796,L_DD506.jpg,1,10998,18-29,2024_Apr_17_1537,Recall,2021.2.3,59.95318855686176,
,L_SD504.jpg,1,L_MF504.jpg,1,,,,,0,49,49,93,imgFunc,1,NA,3.800455500022508,497.50254419993144,501.4015239800792,2024-04-17 15:45:41.724747,2024-04-17 15:45:45.620148,L_SD504.jpg,1,10998,18-29,2024_Apr_17_1537,Recall,2021.2.3,59.95318855686176,
,DD021.jpg,0,FF021.jpg,0,,,,,0,50,50,20,imgFunc,2,NA,2.639464300009422,501.3996668999316,504.13113908004016,2024-04-17 15:45:45.627107,2024-04-17 15:45:48.355656,DD021.jpg,0,10998,18-29,2024_Apr_17_1537,Recall,2021.2.3,59.95318855686176,
,DD017.jpg,0,FF017.jpg,0,,,,,0,51,51,16,imgFunc,2,NA,1.6468713000649586,504.136284600012,505.8789068800397,2024-04-17 15:45:48.364632,2024-04-17 15:45:50.106017,DD017.jpg,0,10998,18-29,2024_Apr_17_1537,Recall,2021.2.3,59.95318855686176,
,DD016.jpg,0,FF016.jpg,0,,,,,0,52,52,15,imgFunc,9,NA,2.8177616000175476,505.8932978999801,508.80757907999214,2024-04-17 15:45:50.113996,2024-04-17 15:45:53.025671,DD016.jpg,0,10998,18-29,2024_Apr_17_1537,Recall,2021.2.3,59.95318855686176,
,DD038.jpg,0,FF038.jpg,0,,,,,0,53,53,37,imgFunc,9,NA,1.4239455999340862,508.8071603999706,510.3196965800598,2024-04-17 15:45:53.032652,2024-04-17 15:45:54.542653,DD038.jpg,0,10998,18-29,2024_Apr_17_1537,Recall,2021.2.3,59.95318855686176,
,DD032.jpg,0,FF032.jpg,0,,,,,0,54,54,31,imgFunc,1,NA,1.4201594000915065,510.3229129000101,511.8375899801031,2024-04-17 15:45:54.550632,2024-04-17 15:45:56.061568,DD032.jpg,0,10998,18-29,2024_Apr_17_1537,Recall,2021.2.3,59.95318855686176,
,DD024.jpg,0,FF024.jpg,0,,,,,0,55,55,23,imgFunc,2,NA,0.8159574000164866,511.8392995999893,512.7487773800967,2024-04-17 15:45:56.070482,2024-04-17 15:45:56.978860,DD024.jpg,0,10998,18-29,2024_Apr_17_1537,Recall,2021.2.3,59.95318855686176,
,DD028.jpg,0,FF028.jpg,0,,,,,0,56,56,27,imgFunc,1,NA,0.6757142000133172,512.7635059999302,513.5421575799119,2024-04-17 15:45:56.985843,2024-04-17 15:45:57.761951,DD028.jpg,0,10998,18-29,2024_Apr_17_1537,Recall,2021.2.3,59.95318855686176,
,DD009.jpg,0,FF009.jpg,0,,,,,0,57,57,8,imgFunc,1,NA,2.149989299941808,513.5452201999724,515.7926834799582,2024-04-17 15:45:57.769723,2024-04-17 15:46:00.013570,DD009.jpg,0,10998,18-29,2024_Apr_17_1537,Recall,2021.2.3,59.95318855686176,
,L_SD507.jpg,1,L_MF507.jpg,1,,,,,0,58,58,96,imgFunc,0,NA,3.2954825999913737,515.799863299937,519.1948477799306,2024-04-17 15:46:00.022339,2024-04-17 15:46:03.415869,L_SD507.jpg,1,10998,18-29,2024_Apr_17_1537,Recall,2021.2.3,59.95318855686176,
,SD031.jpg,0,MF031.jpg,0,,,,,0,59,59,80,imgFunc,2,NA,2.4423510000342503,519.1969233999262,521.7285814799834,2024-04-17 15:46:03.422825,2024-04-17 15:46:05.951255,SD031.jpg,0,10998,18-29,2024_Apr_17_1537,Recall,2021.2.3,59.95318855686176,
,SD010.jpg,0,MF010.jpg,0,,,,,0,60,60,59,imgFunc,0,NA,3.277346400078386,521.729731899919,525.0942754799034,2024-04-17 15:46:05.958238,2024-04-17 15:46:09.320030,SD010.jpg,0,10998,18-29,2024_Apr_17_1537,Recall,2021.2.3,59.95318855686176,
,SD035.jpg,0,MF035.jpg,0,,,,,0,61,61,84,imgFunc,9,NA,1.7977602999890223,525.097332199919,526.9785543800099,2024-04-17 15:46:09.327011,2024-04-17 15:46:11.205021,SD035.jpg,0,10998,18-29,2024_Apr_17_1537,Recall,2021.2.3,59.95318855686176,
,DD018.jpg,0,FF018.jpg,0,,,,,0,62,62,17,imgFunc,1,NA,2.521915299934335,526.9811191000044,529.5949105799664,2024-04-17 15:46:11.212978,2024-04-17 15:46:13.823588,DD018.jpg,0,10998,18-29,2024_Apr_17_1537,Recall,2021.2.3,59.95318855686176,
,L_DD508.jpg,1,L_FF508.jpg,1,,,,,0,63,63,47,imgFunc,9,NA,2.4171662000007927,529.5979039999656,532.0963911800645,2024-04-17 15:46:13.830577,2024-04-17 15:46:16.325912,L_DD508.jpg,1,10998,18-29,2024_Apr_17_1537,Recall,2021.2.3,59.95318855686176,
,L_SD505.jpg,1,L_MF505.jpg,1,,,,,0,64,64,94,imgFunc,1,NA,1.9137142000254244,532.1014291999163,534.0980680800276,2024-04-17 15:46:16.332901,2024-04-17 15:46:18.327084,L_SD505.jpg,1,10998,18-29,2024_Apr_17_1537,Recall,2021.2.3,59.95318855686176,
,DD007.jpg,0,FF007.jpg,0,,,,,0,65,65,6,imgFunc,1,NA,0.6797981000272557,534.1112441999139,534.8894089800306,2024-04-17 15:46:18.335042,2024-04-17 15:46:19.110993,DD007.jpg,0,10998,18-29,2024_Apr_17_1537,Recall,2021.2.3,59.95318855686176,
,SD020.jpg,0,MF020.jpg,0,,,,,0,66,66,69,imgFunc,2,NA,8.19441180001013,534.900780399912,543.2002794798464,2024-04-17 15:46:19.118950,2024-04-17 15:46:27.416301,SD020.jpg,0,10998,18-29,2024_Apr_17_1537,Recall,2021.2.3,59.95318855686176,
,SD040.jpg,0,MF040.jpg,0,,,,,0,67,67,89,imgFunc,0,NA,2.2374150999821723,543.2018890000181,545.5295285800239,2024-04-17 15:46:27.426178,2024-04-17 15:46:29.751801,SD040.jpg,0,10998,18-29,2024_Apr_17_1537,Recall,2021.2.3,59.95318855686176,
,L_SD510.jpg,1,L_MF510.jpg,1,,,,,0,68,68,99,imgFunc,0,NA,1.005730500095524,545.5292805999052,546.6269265799783,2024-04-17 15:46:29.758577,2024-04-17 15:46:30.852979,L_SD510.jpg,1,10998,18-29,2024_Apr_17_1537,Recall,2021.2.3,59.95318855686176,
,L_DD510.jpg,1,L_FF510.jpg,1,,,,,0,69,69,49,imgFunc,0,NA,1.2545240999897942,546.6407114999602,547.9864323799266,2024-04-17 15:46:30.860832,2024-04-17 15:46:32.204336,L_DD510.jpg,1,10998,18-29,2024_Apr_17_1537,Recall,2021.2.3,59.95318855686176,
,SD003.jpg,0,MF003.jpg,0,,,,,0,70,70,52,imgFunc,0,NA,1.6153978999936953,547.9837435999652,549.6950610800413,2024-04-17 15:46:32.212115,2024-04-17 15:46:33.920984,SD003.jpg,0,10998,18-29,2024_Apr_17_1537,Recall,2021.2.3,59.95318855686176,
,DD012.jpg,0,FF012.jpg,0,,,,,0,71,71,11,imgFunc,1,NA,1.347442000056617,549.699629199924,551.1298486799933,2024-04-17 15:46:33.928930,2024-04-17 15:46:35.355516,DD012.jpg,0,10998,18-29,2024_Apr_17_1537,Recall,2021.2.3,59.95318855686176,
,L_SD506.jpg,1,L_MF506.jpg,1,,,,,0,72,72,95,imgFunc,1,NA,2.6616573999635875,551.1373359999852,553.8845020800363,2024-04-17 15:46:35.363291,2024-04-17 15:46:38.107895,L_SD506.jpg,1,10998,18-29,2024_Apr_17_1537,Recall,2021.2.3,59.95318855686176,
,SD016.jpg,0,MF016.jpg,0,,,,,0,73,73,65,imgFunc,2,NA,2.872044299961999,553.8869850999909,556.8506266800687,2024-04-17 15:46:38.114884,2024-04-17 15:46:41.075983,SD016.jpg,0,10998,18-29,2024_Apr_17_1537,Recall,2021.2.3,59.95318855686176,
,L_SD508.jpg,1,L_MF508.jpg,1,,,,,0,74,74,97,imgFunc,0,NA,1.4911896000849083,556.851885400014,558.4325815800112,2024-04-17 15:46:41.082964,2024-04-17 15:46:42.660633,L_SD508.jpg,1,10998,18-29,2024_Apr_17_1537,Recall,2021.2.3,59.95318855686176,
,DD037.jpg,0,FF037.jpg,0,,,,,0,75,75,36,imgFunc,0,NA,1.9693845000583678,558.4377004000125,560.5016374801053,2024-04-17 15:46:42.667614,2024-04-17 15:46:44.729143,DD037.jpg,0,10998,18-29,2024_Apr_17_1537,Recall,2021.2.3,59.95318855686176,
,SD013.jpg,0,MF013.jpg,0,,,,,0,76,76,62,imgFunc,1,NA,3.2020102998940274,560.5010703000007,563.7818983801408,2024-04-17 15:46:44.737116,2024-04-17 15:46:48.015118,SD013.jpg,0,10998,18-29,2024_Apr_17_1537,Recall,2021.2.3,59.95318855686176,
,SD028.jpg,0,MF028.jpg,0,,,,,0,77,77,77,imgFunc,1,NA,1.7298541000345722,563.7893024999648,565.6015616799705,2024-04-17 15:46:48.022079,2024-04-17 15:46:49.832276,SD028.jpg,0,10998,18-29,2024_Apr_17_1537,Recall,2021.2.3,59.95318855686176,
,DD039.jpg,0,FF039.jpg,0,,,,,0,78,78,38,imgFunc,2,NA,2.271636600024067,565.607469099923,567.9726551799104,2024-04-17 15:46:49.839258,2024-04-17 15:46:52.201294,DD039.jpg,0,10998,18-29,2024_Apr_17_1537,Recall,2021.2.3,59.95318855686176,
,L_SD502.jpg,1,L_MF502.jpg,1,,,,,0,79,79,91,imgFunc,9,NA,1.7891109000192955,567.9779132999247,569.8566866798792,2024-04-17 15:46:52.209274,2024-04-17 15:46:54.085289,L_SD502.jpg,1,10998,18-29,2024_Apr_17_1537,Recall,2021.2.3,59.95318855686176,
,SD039.jpg,0,MF039.jpg,0,,,,,0,80,80,88,imgFunc,1,NA,1.869121600058861,569.8582337999251,571.8064732799539,2024-04-17 15:46:54.092263,2024-04-17 15:46:56.037208,SD039.jpg,0,10998,18-29,2024_Apr_17_1537,Recall,2021.2.3,59.95318855686176,
,SD014.jpg,0,MF014.jpg,0,,,,,0,81,81,63,imgFunc,9,NA,2.5476800999604166,571.8116668999428,574.4435406799894,2024-04-17 15:46:56.044006,2024-04-17 15:46:58.672372,SD014.jpg,0,10998,18-29,2024_Apr_17_1537,Recall,2021.2.3,59.95318855686176,
,SD024.jpg,0,MF024.jpg,0,,,,,0,82,82,73,imgFunc,1,NA,2.1840780000202358,574.447172599961,576.7113962798612,2024-04-17 15:46:58.680152,2024-04-17 15:47:00.940514,SD024.jpg,0,10998,18-29,2024_Apr_17_1537,Recall,2021.2.3,59.95318855686176,
,SD019.jpg,0,MF019.jpg,0,,,,,0,83,83,68,imgFunc,0,NA,1.7108352999202907,576.7205390000017,578.517773980042,2024-04-17 15:47:00.948295,2024-04-17 15:47:02.742079,SD019.jpg,0,10998,18-29,2024_Apr_17_1537,Recall,2021.2.3,59.95318855686176,
,SD015.jpg,0,MF015.jpg,0,,,,,0,84,84,64,imgFunc,0,NA,0.9711703999200836,578.515928799985,579.5797917800955,2024-04-17 15:47:02.748858,2024-04-17 15:47:03.809170,SD015.jpg,0,10998,18-29,2024_Apr_17_1537,Recall,2021.2.3,59.95318855686176,
,SD029.jpg,0,MF029.jpg,0,,,,,0,85,85,78,imgFunc,1,NA,2.955527300015092,579.5879597999156,582.6365334799048,2024-04-17 15:47:03.816007,2024-04-17 15:47:06.861439,SD029.jpg,0,10998,18-29,2024_Apr_17_1537,Recall,2021.2.3,59.95318855686176,
,SD008.jpg,0,MF008.jpg,0,,,,,0,86,86,57,imgFunc,9,NA,1.850005600019358,582.6372030000202,584.567705480149,2024-04-17 15:47:06.868343,2024-04-17 15:47:08.795729,SD008.jpg,0,10998,18-29,2024_Apr_17_1537,Recall,2021.2.3,59.95318855686176,
,SD002.jpg,0,MF002.jpg,0,,,,,0,87,87,51,imgFunc,9,NA,1.7357231000205502,584.5674560000189,586.3816072799964,2024-04-17 15:47:08.802710,2024-04-17 15:47:10.613900,SD002.jpg,0,10998,18-29,2024_Apr_17_1537,Recall,2021.2.3,59.95318855686176,
,DD011.jpg,0,FF011.jpg,0,,,,,0,88,88,10,imgFunc,9,NA,1.2030909999739379,586.3877723999321,587.685068879975,2024-04-17 15:47:10.620888,2024-04-17 15:47:11.915404,DD011.jpg,0,10998,18-29,2024_Apr_17_1537,Recall,2021.2.3,59.95318855686176,
,L_DD509.jpg,1,L_FF509.jpg,1,,,,,0,89,89,48,imgFunc,0,NA,2.431053099920973,587.7039512000047,590.2323643800337,2024-04-17 15:47:11.923383,2024-04-17 15:47:14.449866,L_DD509.jpg,1,10998,18-29,2024_Apr_17_1537,Recall,2021.2.3,59.95318855686176,
,SD027.jpg,0,MF027.jpg,0,,,,,0,90,90,76,imgFunc,0,NA,1.2571556000038981,590.2299272000091,591.5770705800969,2024-04-17 15:47:14.456847,2024-04-17 15:47:15.801287,SD027.jpg,0,10998,18-29,2024_Apr_17_1537,Recall,2021.2.3,59.95318855686176,
,SD032.jpg,0,MF032.jpg,0,,,,,0,91,91,81,imgFunc,2,NA,1.8297999000642449,591.5772750999313,593.4899005800253,2024-04-17 15:47:15.809242,2024-04-17 15:47:17.719000,SD032.jpg,0,10998,18-29,2024_Apr_17_1537,Recall,2021.2.3,59.95318855686176,
,DD006.jpg,0,FF006.jpg,0,,,,,0,92,92,5,imgFunc,0,NA,2.068299200036563,593.4987078999402,595.6624884800985,2024-04-17 15:47:17.725981,2024-04-17 15:47:19.887215,DD006.jpg,0,10998,18-29,2024_Apr_17_1537,Recall,2021.2.3,59.95318855686176,
,SD023.jpg,0,MF023.jpg,0,,,,,0,93,93,72,imgFunc,9,NA,2.301006899913773,595.6660691999132,598.0642126799794,2024-04-17 15:47:19.894196,2024-04-17 15:47:22.289225,SD023.jpg,0,10998,18-29,2024_Apr_17_1537,Recall,2021.2.3,59.95318855686176,
,DD029.jpg,0,FF029.jpg,0,,,,,0,94,94,28,imgFunc,0,NA,2.093331699958071,598.0656612999737,600.2462210799567,2024-04-17 15:47:22.296212,2024-04-17 15:47:24.474372,DD029.jpg,0,10998,18-29,2024_Apr_17_1537,Recall,2021.2.3,59.95318855686176,
,SD034.jpg,0,MF034.jpg,0,,,,,0,95,95,83,imgFunc,1,NA,1.3723295000381768,600.2590087999124,601.7219710800564,2024-04-17 15:47:24.481354,2024-04-17 15:47:25.941885,SD034.jpg,0,10998,18-29,2024_Apr_17_1537,Recall,2021.2.3,59.95318855686176,
,DD015.jpg,0,FF015.jpg,0,,,,,0,96,96,14,imgFunc,9,NA,3.7479875999270007,601.7231538000051,605.5692172801355,2024-04-17 15:47:25.950652,2024-04-17 15:47:29.793774,DD015.jpg,0,10998,18-29,2024_Apr_17_1537,Recall,2021.2.3,59.95318855686176,
,DD030.jpg,0,FF030.jpg,0,,,,,0,97,97,29,imgFunc,9,NA,1.4133831000654027,605.5779157999204,607.0926208798774,2024-04-17 15:47:29.801538,2024-04-17 15:47:31.312272,DD030.jpg,0,10998,18-29,2024_Apr_17_1537,Recall,2021.2.3,59.95318855686176,
,DD002.jpg,0,FF002.jpg,0,,,,,0,98,98,1,imgFunc,2,NA,1.7351571000181139,607.088173499913,608.9187493799254,2024-04-17 15:47:31.320044,2024-04-17 15:47:33.146862,DD002.jpg,0,10998,18-29,2024_Apr_17_1537,Recall,2021.2.3,59.95318855686176,
,SD012.jpg,0,MF012.jpg,0,,,,,0,99,99,61,imgFunc,1,NA,1.7624130999902263,608.9247501000063,610.7721406801138,2024-04-17 15:47:33.154641,2024-04-17 15:47:34.998515,SD012.jpg,0,10998,18-29,2024_Apr_17_1537,Recall,2021.2.3,59.95318855686176,
