TrialNumber,Trialn,TrialType,Partner,Feedback,ITI,ISI,ran,order,studyStart,InitFixOnset,decision_onset,resp,resp_onset,rt,ISI_onset,isi_for_trial,ISI_offset,outcome_val,outcome_onset,outcome_offset,trialDuration,ITIonset,ITIoffset,final_fix_offset
1,1,8,3,2,2.422500e+00,1.615000e+00,1.0,0.0,2.6000198e-06,0.0094582,4.0361285,1.0,4.7720013,0.7358729,4.8724794,3.579127,8.453766,5.0,8.453913,9.062336,5.026208,9.062532,11.486727,--
2,2,4,2,1,8.075000e-01,8.075000e-01,1.0,1.0,--,--,11.502236,1.0,12.138856,0.6366196,12.239224,2.8708804,15.111775,7.0,15.111892,15.718706,4.216469,15.718857,16.528748,--
3,3,4,2,1,2.422500e+00,1.615000e+00,1.0,2.0,--,--,16.539371,1.0,17.172075,0.6327038,17.272446,3.6822963,20.956919,6.0,20.957037,21.56219,5.0228176,21.562338,23.986462,--
4,4,4,2,1,8.075000e-01,8.075000e-01,1.0,3.0,--,--,23.997126,1.0,24.838705,0.8415787,24.9391,2.6659212,27.607166,8.0,27.607283,28.212708,4.2155824,28.212894,29.02289,--
5,5,2,1,2,2.422500e+00,2.422500e+00,1.0,4.0,--,--,29.028027,1.0,29.65544,0.6274121,29.755806,4.495088,34.254093,5.0,34.254208,34.858906,5.830878,34.85906,37.28337,--
6,6,1,1,1,8.075000e-01,8.075000e-01,1.0,5.0,--,--,37.285175,1.0,38.638664,1.3534908,38.739033,2.154009,40.894695,6.0,40.89481,41.499264,4.214092,41.499416,42.30961,--
7,7,3,1,3,2.422500e+00,1.615000e+00,1.0,6.0,--,--,42.311382,1.0,43.03882,0.7274382,43.13921,3.5875618,46.7283,4.0,46.728413,47.335133,5.02375,47.33528,49.75978,--
8,8,4,2,1,8.075000e-01,2.422500e+00,1.0,7.0,--,--,49.771797,1.0,51.122173,1.3503752,51.22258,3.7721248,54.997204,7.0,54.99732,55.601955,5.8301587,55.602104,56.411774,--
9,9,9,3,3,4.037500e+00,1.615000e+00,1.0,8.0,--,--,56.42407,1.0,56.638405,0.2143343,56.73876,4.1006656,60.84237,2.0,60.842487,61.44789,5.023821,61.44804,65.488014,--
10,10,5,2,2,8.075000e-01,1.615000e+00,1.0,9.0,--,--,65.49995,2.0,66.122795,0.6228488,66.22314,3.6921513,69.91759,5.0,69.9177,70.52301,5.023066,70.52316,71.33284,--
11,11,3,1,3,8.075000e-01,1.615000e+00,1.0,10.0,--,--,71.335724,1.0,72.271996,0.9362733,72.372375,3.3787267,75.7538,3.0,75.753914,76.35947,5.0237403,76.35963,77.16951,--
12,12,6,2,3,8.075000e-01,8.075000e-01,1.0,11.0,--,--,77.18098,1.0,77.906075,0.7250974,78.00645,2.7824025,80.79089,1.0,80.79101,81.39567,4.2146916,81.39582,82.205795,--
13,13,6,2,3,8.075000e-01,2.422500e+00,1.0,12.0,--,--,82.21655,1.0,82.83936,0.6228146,82.93973,4.4996853,87.44187,2.0,87.441986,88.04727,5.8307166,88.04742,88.85711,--
14,14,7,3,1,2.422500e+00,8.075000e-01,1.0,13.0,--,--,88.86876,1.0,90.32219,1.4534283,90.42261,2.0540717,92.47986,6.0,92.47997,93.085526,4.216768,93.085686,95.51068,--
15,15,9,3,3,8.075000e-01,1.615000e+00,1.0,14.0,--,--,95.52105,1.0,96.04014,0.519089,96.140495,3.795911,99.9377,4.0,99.93781,100.54317,5.0221195,100.5434,101.35256,--
16,16,3,1,3,8.075000e-01,8.075000e-01,1.0,15.0,--,--,101.355515,1.0,102.505226,1.1497087,102.60562,2.3577912,104.96565,3.0,104.965775,105.57145,4.2159357,105.57161,106.38163,--
17,17,9,3,3,2.422500e+00,2.422500e+00,1.0,16.0,--,--,106.39315,2.0,106.92187,0.5287149,107.02221,4.5937853,111.61754,8.0,111.617645,112.22158,5.82843,112.221725,114.645905,--
18,18,7,3,1,8.882500e+00,2.422500e+00,1.0,17.0,--,--,114.65627,1.0,115.689705,1.033434,115.79006,4.089066,119.88133,7.0,119.881454,120.48598,5.829704,120.48614,129.37076,--
19,19,1,1,1,5.652500e+00,8.075000e-01,1.0,18.0,--,--,129.37366,1.0,129.90517,0.5315125,130.00554,2.9759874,132.98352,7.0,132.98363,133.58777,4.2141137,133.58792,139.24274,--
20,20,9,3,3,5.652500e+00,2.422500e+00,1.0,19.0,--,--,139.25433,1.0,139.98843,0.7340993,140.08884,4.3884006,144.4792,4.0,144.47932,145.08377,5.829439,145.08392,150.7385,--
21,21,9,3,3,5.652500e+00,2.422500e+00,1.0,20.0,--,--,150.74887,1.0,151.48834,0.7394631,151.58875,4.383037,155.97403,2.0,155.97414,156.57806,5.8291855,156.57822,162.23247,--
22,22,3,1,3,8.075000e-01,8.075000e-01,1.0,21.0,--,--,162.23537,1.0,162.67163,0.4362716,162.77202,3.0712285,165.84558,1.0,165.8457,166.44975,4.2143865,166.4499,167.25928,--
23,23,7,3,1,2.422500e+00,8.075000e-01,1.0,22.0,--,--,167.27069,1.0,168.82137,1.5506642,168.92174,1.9568357,170.88103,8.0,170.88113,171.48657,4.21588,171.48672,173.91096,--
24,24,7,3,1,4.037500e+00,1.615000e+00,1.0,23.0,--,--,173.92136,1.0,174.65495,0.7336013,174.7553,3.5813987,178.33875,6.0,178.33887,178.94237,5.021011,178.94252,182.98303,--
25,25,8,3,2,4.037500e+00,1.615000e+00,1.0,24.0,--,--,182.99345,1.0,183.4216,0.4281456,183.522,3.8868544,187.41034,5.0,187.41046,188.01595,5.0224876,188.01608,192.05576,--
26,26,1,1,1,2.422500e+00,8.075000e-01,1.0,25.0,--,--,192.05869,2.0,192.88802,0.8293316,192.98837,2.6781683,195.66853,1.0,195.66866,196.27403,4.2153473,196.27419,198.6986,--
27,27,7,3,1,8.075000e-01,1.615000e+00,1.0,26.0,--,--,198.71,1.0,200.15462,1.4445988,200.25496,2.8704011,203.12761,9.0,203.12773,203.73378,5.023773,203.73393,204.5448,--
28,28,1,1,1,2.422500e+00,1.615000e+00,1.0,27.0,--,--,204.54765,2.0,206.30455,1.7569029,206.40492,2.5580971,208.96577,2.0,208.9659,209.56987,5.022221,209.57002,211.99503,--
29,29,9,3,3,5.652500e+00,8.075000e-01,1.0,28.0,--,--,212.00652,2.0,212.12138,0.1148638,212.22176,3.3926363,215.61546,7.0,215.61559,216.22017,4.2136526,216.22032,221.87529,--
30,30,6,2,3,4.037500e+00,2.422500e+00,1.0,29.0,--,--,221.88675,1.0,222.52142,0.6346697,222.62177,4.48783,227.11134,3.0,227.11145,227.71568,5.828938,227.71584,231.75508,--
31,31,4,2,1,2.422500e+00,2.422500e+00,1.0,30.0,--,--,231.76634,1.0,231.98805,0.2217047,232.08847,4.9007955,236.99033,6.0,236.99043,237.59494,5.8285947,237.59508,240.01938,--
32,32,5,2,2,8.075000e-01,1.615000e+00,1.0,31.0,--,--,240.03003,2.0,240.25476,0.2247374,240.35513,4.0902624,244.44704,5.0,244.44716,245.05159,5.0215673,245.05174,245.86125,--
33,33,3,1,3,7.267500e+00,8.075000e-01,1.0,32.0,--,--,245.86421,1.0,246.08807,0.2238596,246.18843,3.2836404,249.47491,3.0,249.47504,250.0796,4.215392,250.07976,257.34903,--
34,34,2,1,2,8.075000e-01,2.422500e+00,1.0,33.0,--,--,257.3509,2.0,258.0881,0.7372078,258.1885,4.385292,262.5761,5.0,262.57623,263.18063,5.829754,263.1808,263.9905,--
35,35,6,2,3,4.037500e+00,2.422500e+00,1.0,34.0,--,--,264.00195,1.0,265.03766,1.0357134,265.138,4.0867867,269.22592,2.0,269.226,269.83688,5.834931,269.837,273.87656,--
36,36,3,1,3,2.422500e+00,1.615000e+00,1.0,35.0,--,--,273.87955,1.0,275.73755,1.8580216,275.83795,2.4569783,278.29593,2.0,278.29605,278.89948,5.019926,278.89963,281.32394,--
37,37,6,2,3,8.075000e-01,8.075000e-01,1.0,36.0,--,--,281.3356,0.0,284.11606,2.7804615,284.2164,0.7270385,284.9457,999.0,284.94583,285.55054,4.2149506,285.5507,286.36044,--
38,38,4,2,1,8.075000e-01,2.422500e+00,1.0,37.0,--,--,286.3713,1.0,287.40466,1.0333678,287.505,4.0891323,291.59637,7.0,291.5965,292.20102,5.8296986,292.20117,293.0107,--
39,39,1,1,1,2.422500e+00,2.422500e+00,1.0,38.0,--,--,293.01407,1.0,293.85446,0.8404,293.95486,4.2821,298.23938,8.0,298.2395,298.84943,5.835365,298.84958,301.27448,--
40,40,3,1,3,4.037500e+00,8.075000e-01,1.0,39.0,--,--,301.27628,1.0,301.3878,0.1115028,301.4882,3.3959973,304.8857,2.0,304.88583,305.49072,4.214436,305.49088,309.53043,--
41,41,4,2,1,4.037500e+00,2.422500e+00,1.0,40.0,--,--,309.54208,1.0,309.65417,0.1120941,309.75452,5.010406,314.7668,9.0,314.76694,315.372,5.829921,315.37216,319.41113,--
42,42,7,3,1,8.075000e-01,2.422500e+00,1.0,41.0,--,--,319.42273,2.0,321.18777,1.765044,321.28812,3.357456,324.64835,2.0,324.64847,325.25195,5.829225,325.2521,326.06137,--
43,43,9,3,3,8.075000e-01,1.615000e+00,1.0,42.0,--,--,326.07208,1.0,327.8378,1.7657152,327.9382,2.5492847,330.48965,1.0,330.48978,331.09433,5.022243,331.09448,331.9044,--
44,44,6,2,3,8.075000e-01,8.075000e-01,1.0,43.0,--,--,331.91583,1.0,332.53897,0.6231257,332.6393,2.8843744,335.5264,4.0,335.52652,336.13107,4.2152386,336.13123,336.94043,--
45,45,3,1,3,8.075000e-01,8.075000e-01,1.0,44.0,--,--,336.94333,1.0,337.57086,0.6275368,337.67123,2.8799632,340.5522,1.0,340.5523,341.15585,4.2125025,341.156,341.96567,--
46,46,1,1,1,8.075000e-01,1.615000e+00,1.0,45.0,--,--,341.96753,1.0,342.70428,0.7367716,342.80466,3.5782285,346.38586,7.0,346.386,346.99045,5.0229216,346.9906,347.80057,--
47,47,6,2,3,8.075000e-01,8.075000e-01,1.0,46.0,--,--,347.8126,1.0,348.53802,0.7254468,348.6384,2.7820532,351.42316,4.0,351.42328,352.02798,4.215387,352.02814,352.8378,--
48,48,7,3,1,2.422500e+00,2.422500e+00,1.0,47.0,--,--,352.84958,1.0,353.6877,0.8381116,353.78806,4.2843885,358.07532,6.0,358.07544,358.68597,5.8363833,358.68613,361.11032,--
49,49,9,3,3,8.075000e-01,2.422500e+00,1.0,48.0,--,--,361.1207,2.0,362.5708,1.4501035,362.67117,3.6723964,366.3452,6.0,366.34534,366.95016,5.8294687,366.95032,367.7595,--
50,50,4,2,1,8.075000e-01,1.615000e+00,1.0,49.0,--,--,367.7706,1.0,369.53757,1.7669855,369.63794,2.5480144,372.18796,6.0,372.18808,372.7925,5.0219088,372.79266,373.60217,--
51,51,1,1,1,8.075000e-01,1.615000e+00,1.0,50.0,--,--,373.60507,1.0,375.05444,1.4493953,375.15485,2.8656046,378.02258,7.0,378.02267,378.62662,5.0215697,378.62677,379.43555,--
52,52,7,3,1,8.075000e-01,2.422500e+00,1.0,51.0,--,--,379.44727,1.0,381.62067,2.1734085,381.72104,2.9490914,384.6727,9.0,384.67282,385.27783,5.8305516,385.27798,386.0881,--
53,53,1,1,1,8.075000e-01,8.075000e-01,1.0,52.0,--,--,386.09116,1.0,387.43738,1.3462132,387.53775,2.1612868,389.70126,6.0,389.7014,390.30548,4.2143087,390.30563,391.11526,--
54,54,6,2,3,7.267500e+00,1.615000e+00,1.0,53.0,--,--,391.1267,1.0,391.2376,0.1109007,391.338,4.204099,395.54428,3.0,395.54437,396.1489,5.02219,396.14905,403.41824,411.9999
