onset	duration	trial_type	rt	resp	gender	image_left	image_right
0.638452500003041	3.00053190000472	decision	2.28411480000068	left	F	FF017.jpg	FF018.jpg
4.1883780000062	1.00006259999645	loss	NaN	n/a	n/a	FF017.jpg	FF018.jpg
11.1384840999963	3.00140120000287	decision	2.53428940000595	left	F	FF035.jpg	FF036.jpg
14.6882477000036	1.00009760000103	win	NaN	n/a	n/a	FF035.jpg	FF036.jpg
21.6384002999985	3.00038209999911	decision	2.78519300000335	left	F	FF021.jpg	FF022.jpg
25.1883822999953	1.01658840000164	loss	NaN	n/a	n/a	FF021.jpg	FF022.jpg
32.1549738000031	3.00097599999572	decision	2.28338929999154	right	M	MF025.jpg	MF026.jpg
35.705123000007	1.01652659999672	loss	NaN	n/a	n/a	MF025.jpg	MF026.jpg
38.4717481999978	3.00137680000626	decision	2.78446779999649	left	M	MF027.jpg	MF028.jpg
42.0216182000004	1.01672699999472	loss	NaN	n/a	n/a	MF027.jpg	MF028.jpg
44.7882857999939	3.00053889999981	decision	2.80057980000856	right	M	MF023.jpg	MF024.jpg
48.3383373999968	1.01651929999935	win	NaN	n/a	n/a	MF023.jpg	MF024.jpg
51.1049832999997	3.05023389999405	decision	3.04970139999932	left	F	FF037.jpg	FF038.jpg
54.704817100006	1.00017659999139	win	NaN	n/a	n/a	FF037.jpg	FF038.jpg
59.5548497999989	3.00081789999967	decision	2.7842432000034	right	M	MF011.jpg	MF012.jpg
63.1051220999943	1.0164894000045	loss	NaN	n/a	n/a	MF011.jpg	MF012.jpg
67.9715546000079	3.00124399999913	decision	1.78322129999287	right	F	FF009.jpg	FF010.jpg
71.5214855999948	1.01672120000876	win	NaN	n/a	n/a	FF009.jpg	FF010.jpg
74.2882562000013	3.00160499999765	decision	2.28326300000481	right	F	FF027.jpg	FF028.jpg
77.8381691999966	1.0165854000079	win	NaN	n/a	n/a	FF027.jpg	FF028.jpg
82.7047853999975	3.0017838000058	decision	2.28344320000906	right	F	FF015.jpg	FF016.jpg
86.2547487999982	1.00017790000129	loss	NaN	n/a	n/a	FF015.jpg	FF016.jpg
93.2047732000065	3.00094459998945	decision	1.78402449999703	left	M	MF029.jpg	MF030.jpg
96.7547564999986	1.01676539999607	loss	NaN	n/a	n/a	MF029.jpg	MF030.jpg
101.621511400008	3.00124959999812	decision	2.28416619999916	left	M	MF015.jpg	MF016.jpg
105.171421399995	1.01673890001257	win	NaN	n/a	n/a	MF015.jpg	MF016.jpg
112.138145599994	3.00155980000272	decision	2.53437810001196	left	M	MF007.jpg	MF008.jpg
115.687994499996	1.00011900000391	win	NaN	n/a	n/a	MF007.jpg	MF008.jpg
120.538130700006	3.00157609999587	decision	2.28375849999429	left	M	MF017.jpg	MF018.jpg
124.088059400005	1.01656360000197	win	NaN	n/a	n/a	MF017.jpg	MF018.jpg
126.854672300004	3.00160029999097	decision	2.28391919999558	left	F	FF033.jpg	FF034.jpg
130.404616400003	1.01676739999675	win	NaN	n/a	n/a	FF033.jpg	FF034.jpg
133.171427499998	3.00119700000505	decision	2.28337089999695	right	F	FF007.jpg	FF008.jpg
136.721309300003	1.00005099999544	loss	NaN	n/a	n/a	FF007.jpg	FF008.jpg
139.471387400001	3.00086899999587	decision	2.28319610000472	left	F	FF023.jpg	FF024.jpg
143.0213181	1.01667169999564	loss	NaN	n/a	n/a	FF023.jpg	FF024.jpg
156.288004000002	3.00168790000316	decision	2.28365450000274	left	M	MF009.jpg	MF010.jpg
159.837853000005	1.00010269999621	loss	NaN	n/a	n/a	MF009.jpg	MF010.jpg
164.687960399999	3.00158179999562	decision	1.78328650000913	right	F	FF001.jpg	FF002.jpg
168.237859100002	1.01665469999716	win	NaN	n/a	n/a	FF001.jpg	FF002.jpg
171.004591799996	3.00194400000328	decision	2.03397480001149	left	M	MF019.jpg	MF020.jpg
174.554507199995	1.01670580000791	loss	NaN	n/a	n/a	MF019.jpg	MF020.jpg
181.521212000007	3.00096619999385	decision	2.03434349999588	right	F	FF031.jpg	FF032.jpg
185.071164399997	1.00005090000923	loss	NaN	n/a	n/a	FF031.jpg	FF032.jpg
189.921660100008	3.00084519998927	decision	2.03230299999996	right	M	MF005.jpg	MF006.jpg
193.471117599998	1.00009840000712	win	NaN	n/a	n/a	MF005.jpg	MF006.jpg
196.221178699998	3.00235950000933	decision	2.53378910000902	right	F	FF019.jpg	FF020.jpg
199.771101000006	1.01659289999225	win	NaN	n/a	n/a	FF019.jpg	FF020.jpg
206.737843399998	3.00055209999846	decision	1.78317219999735	right	M	MF013.jpg	MF014.jpg
210.2877515	1.01665580000554	loss	NaN	n/a	n/a	MF013.jpg	MF014.jpg
217.254467899998	3.00166930000705	decision	2.03303439999581	left	M	MF031.jpg	MF032.jpg
220.804407899996	1.00003510000533	loss	NaN	n/a	n/a	MF031.jpg	MF032.jpg
225.654408799994	3.0014552000066	decision	2.28384650000953	left	F	FF039.jpg	FF040.jpg
229.204387799997	1.01661030000832	loss	NaN	n/a	n/a	FF039.jpg	FF040.jpg
231.971079299998	3.00148720000288	decision	2.03373409999767	left	F	FF005.jpg	FF006.jpg
235.521059200008	1.01648039999418	loss	NaN	n/a	n/a	FF005.jpg	FF006.jpg
242.487688399997	3.0018415000086	decision	2.03374160001113	left	M	MF037.jpg	MF038.jpg
246.037504799999	1.00003379999544	loss	NaN	n/a	n/a	MF037.jpg	MF038.jpg
248.787550299996	3.00203350000083	decision	2.28390900000522	right	M	MF039.jpg	MF040.jpg
252.337869199997	1.00000430000364	win	NaN	n/a	n/a	MF039.jpg	MF040.jpg
255.087719100004	3.00169269999606	decision	2.54995299999428	right	M	MF033.jpg	MF034.jpg
258.637510400004	1.01668919999793	loss	NaN	n/a	n/a	MF033.jpg	MF034.jpg
261.404302800001	3.00076229999831	decision	2.55006599999615	left	F	FF013.jpg	FF014.jpg
264.954255400007	1.00042399999802	win	NaN	n/a	n/a	FF013.jpg	FF014.jpg
269.804271600005	3.00065079999331	decision	2.03303749999031	left	M	MF001.jpg	MF002.jpg
273.354671499997	1.01611789999879	win	NaN	n/a	n/a	MF001.jpg	MF002.jpg
276.121445800003	3.00105730000359	decision	2.03354550000222	right	F	FF003.jpg	FF004.jpg
279.670824700006	1.0165122999897	win	NaN	n/a	n/a	FF003.jpg	FF004.jpg
284.537487299996	3.00158000001102	decision	2.03315220000513	right	M	MF003.jpg	MF004.jpg
288.087406000006	1.01672030000191	win	NaN	n/a	n/a	MF003.jpg	MF004.jpg
295.054144499998	3.00058229999559	decision	2.28326520000701	right	F	FF025.jpg	FF026.jpg
298.604053699994	1.01671870000428	win	NaN	n/a	n/a	FF025.jpg	FF026.jpg
305.570725500002	3.00065639999229	decision	2.28316629999608	left	M	MF035.jpg	MF036.jpg
309.120605500008	1.00008399999933	win	NaN	n/a	n/a	MF035.jpg	MF036.jpg
311.870733200005	3.00173099999665	decision	2.03450989999692	left	F	FF011.jpg	FF012.jpg
315.421010100006	1.01633859999129	loss	NaN	n/a	n/a	FF011.jpg	FF012.jpg
318.187361500008	3.00099189998582	decision	2.03337839999585	right	M	MF021.jpg	MF022.jpg
321.737312800004	1.0167400999926	win	NaN	n/a	n/a	MF021.jpg	MF022.jpg
326.603946000003	3.00103839999065	decision	2.53341689999797	right	F	FF029.jpg	FF030.jpg
330.153976200003	1.0000180999923	loss	NaN	n/a	n/a	FF029.jpg	FF030.jpg
