TrialNumber,Trialn,TrialType,Partner,Feedback,ITI,ISI,ran,order,studyStart,InitFixOnset,decision_onset,resp,resp_onset,rt,ISI_onset,isi_for_trial,ISI_offset,outcome_val,outcome_onset,outcome_offset,trialDuration,ITIonset,ITIoffset,final_fix_offset
1,1,6,2,3,8.075000e-01,1.615000e+00,1.0,0.0,2.4999026e-06,0.009316,4.0251985,0.0,6.8007097,2.7755113,6.9011183,1.5394888,8.443582,999.0,8.443725,9.049066,5.023867,9.049247,9.858645,--
2,2,1,1,1,2.422500e+00,2.422500e+00,1.0,1.0,--,--,9.865301,1.0,10.799431,0.93413,10.899759,4.18837,15.090407,6.0,15.090521,15.697041,5.83174,15.6971855,18.121572,--
3,3,8,3,2,8.075000e-01,8.075000e-01,1.0,2.0,--,--,18.14637,2.0,18.882898,0.7365297,18.983217,2.7709703,21.755993,5.0,21.756105,22.362003,4.2156334,22.362143,23.172312,--
4,4,4,2,1,4.037500e+00,1.615000e+00,1.0,3.0,--,--,23.184063,1.0,24.11609,0.9320287,24.216417,3.3829713,27.600897,9.0,27.60101,28.206995,5.0229316,28.207136,32.246925,--
5,5,2,1,2,2.422500e+00,8.075000e-01,1.0,4.0,--,--,32.24978,1.0,32.982964,0.7331842,33.083294,2.7743158,35.859894,5.0,35.860004,36.464897,4.21512,36.465042,38.889133,--
6,6,7,3,1,2.422500e+00,8.075000e-01,1.0,5.0,--,--,38.901222,1.0,39.83279,0.9315682,39.933163,2.5759318,42.51078,7.0,42.510895,43.11725,4.2160273,43.117393,45.541904,--
7,7,9,3,3,8.075000e-01,2.422500e+00,1.0,6.0,--,--,45.55278,2.0,46.483425,0.9306433,46.583744,4.191857,50.776875,9.0,50.776993,51.38302,5.8302364,51.383163,52.19258,--
8,8,6,2,3,8.075000e-01,1.615000e+00,1.0,7.0,--,--,52.20374,1.0,53.13309,0.92935,53.233414,3.38565,56.621,3.0,56.62111,57.225983,5.0222425,57.226128,58.035896,--
9,9,6,2,3,4.037500e+00,1.615000e+00,1.0,8.0,--,--,58.04601,2.0,58.782898,0.7368879,58.88325,3.5781121,62.46384,9.0,62.46395,63.068077,5.022068,63.06822,67.107765,--
10,10,1,1,1,5.652500e+00,1.615000e+00,1.0,9.0,--,--,67.11063,1.0,67.84931,0.7386863,67.94965,3.5763137,71.528305,7.0,71.52843,72.13281,5.0221887,72.13296,77.787285,--
11,11,4,2,1,2.422500e+00,8.075000e-01,1.0,10.0,--,--,77.79834,2.0,79.24951,1.4511737,79.349846,2.0563264,81.40782,4.0,81.407936,82.01192,4.2135806,82.01206,84.43689,--
12,12,3,1,3,8.075000e-01,1.615000e+00,1.0,11.0,--,--,84.43971,1.0,85.16605,0.72634,85.266365,3.58866,88.856895,3.0,88.85701,89.46279,5.0230794,89.46294,90.27297,--
13,13,4,2,1,8.075000e-01,8.075000e-01,1.0,12.0,--,--,90.284164,2.0,90.91625,0.6320854,91.01661,2.8754146,93.894806,1.0,93.89492,94.500145,4.2159805,94.50029,95.309654,--
14,14,3,1,3,8.075000e-01,8.075000e-01,1.0,13.0,--,--,95.31248,1.0,96.04954,0.7370606,96.14987,2.7704394,98.921585,4.0,98.9217,99.52701,4.214527,99.52715,100.33683,--
15,15,3,1,3,7.267500e+00,2.422500e+00,1.0,14.0,--,--,100.338585,2.0,101.06602,0.7274309,101.16634,4.395069,105.56391,8.0,105.564026,106.16796,5.829376,106.168106,113.43753,--
16,16,9,3,3,5.652500e+00,2.422500e+00,1.0,15.0,--,--,113.44958,1.0,114.499535,1.0499526,114.59991,4.0725474,118.673965,2.0,118.67408,119.27907,5.8294873,119.27921,124.93368,--
17,17,7,3,1,2.422500e+00,1.615000e+00,1.0,16.0,--,--,124.94467,2.0,125.68291,0.7382336,125.78329,3.5767665,129.36191,2.0,129.36203,129.96713,5.022453,129.96727,132.39204,--
18,18,7,3,1,8.075000e-01,1.615000e+00,1.0,17.0,--,--,132.40292,1.0,133.1328,0.7298718,133.23312,3.5851283,136.8209,8.0,136.82103,137.42453,5.021611,137.42468,138.23392,--
19,19,5,2,2,2.422500e+00,2.422500e+00,1.0,18.0,--,--,138.24496,2.0,138.98273,0.7377658,139.08322,4.384734,143.46982,5.0,143.46994,144.07454,5.829578,144.07468,146.4993,--
20,20,1,1,1,8.075000e-01,8.075000e-01,1.0,19.0,--,--,146.50215,1.0,147.13275,0.6306007,147.2331,2.8768992,150.11098,9.0,150.11111,150.716,4.213863,150.71616,151.52594,--
21,21,6,2,3,8.075000e-01,2.422500e+00,1.0,20.0,--,--,151.5367,2.0,152.16592,0.6292329,152.26627,4.493267,156.76192,9.0,156.76204,157.36702,5.830321,157.36716,158.17654,--
22,22,4,2,1,4.037500e+00,2.422500e+00,1.0,21.0,--,--,158.18675,2.0,159.01595,0.8292002,159.1163,4.2932997,163.41164,2.0,163.41176,164.02211,5.835366,164.02226,168.06169,--
23,23,6,2,3,8.075000e-01,2.422500e+00,1.0,22.0,--,--,168.07164,1.0,168.89923,0.8275879,168.99956,4.2949123,173.29593,3.0,173.29605,173.90099,5.829342,173.90114,174.71092,--
24,24,1,1,1,2.422500e+00,8.075000e-01,1.0,23.0,--,--,174.71396,2.0,175.44937,0.7354157,175.54971,2.7720842,178.32361,1.0,178.32372,178.92906,4.2150946,178.9292,181.35393,--
25,25,7,3,1,2.422500e+00,2.422500e+00,1.0,24.0,--,--,181.36615,2.0,182.39929,1.0331362,182.49962,4.0893636,186.59096,1.0,186.59106,187.19516,5.82901,187.19531,189.62003,--
26,26,3,1,3,8.075000e-01,1.615000e+00,1.0,25.0,--,--,189.62282,1.0,190.566,0.9431692,190.66632,3.3718307,194.03981,4.0,194.03993,194.64433,5.0215063,194.64447,195.45406,--
27,27,4,2,1,7.267500e+00,2.422500e+00,1.0,26.0,--,--,195.46523,2.0,196.2992,0.8339691,196.39952,4.288531,200.68964,2.0,200.68976,201.29495,5.8297253,201.29509,208.56427,--
28,28,7,3,1,8.075000e-01,1.615000e+00,1.0,27.0,--,--,208.57626,1.0,209.41605,0.8397725,209.51639,3.4752276,212.9937,8.0,212.9938,213.5974,5.021126,213.59753,214.40692,--
29,29,1,1,1,4.037500e+00,1.615000e+00,1.0,28.0,--,--,214.40977,2.0,215.03261,0.6228359,215.13295,3.6921642,218.82793,1.0,218.82805,219.43176,5.021981,219.43192,223.47197,--
30,30,3,1,3,4.037500e+00,1.615000e+00,1.0,29.0,--,--,223.47375,2.0,224.30049,0.8267334,224.40082,3.4882667,227.89091,7.0,227.89104,228.49507,5.0213223,228.49522,232.53458,--
31,31,1,1,1,8.882500e+00,2.422500e+00,1.0,30.0,--,--,232.53636,2.0,233.36584,0.8294955,233.46619,4.2930045,237.76193,1.0,237.76205,238.36703,5.830685,238.36719,247.25197,--
32,32,2,1,2,8.075000e-01,1.615000e+00,1.0,31.0,--,--,247.25375,2.0,248.2991,1.0453469,248.39941,3.269653,251.67093,5.0,251.67105,252.27605,5.0222955,252.27618,253.08597,--
33,33,7,3,1,8.075000e-01,8.075000e-01,1.0,32.0,--,--,253.0979,2.0,254.13239,1.0344847,254.23273,2.4730153,256.70792,1.0,256.70804,257.31302,4.2151303,257.31317,258.12244,--
34,34,6,2,3,2.422500e+00,8.075000e-01,1.0,33.0,--,--,258.13333,2.0,259.06558,0.9322503,259.16595,2.5752497,261.74347,7.0,261.7436,262.34805,4.2147474,262.3482,264.77316,--
35,35,3,1,3,2.422500e+00,2.422500e+00,1.0,34.0,--,--,264.77603,2.0,265.39938,0.6233627,265.4998,4.4991374,270.00073,9.0,270.00085,270.6045,5.828482,270.60464,273.02914,--
36,36,1,1,1,8.075000e-01,8.075000e-01,1.0,35.0,--,--,273.0309,2.0,273.76572,0.7347787,273.86603,2.7727213,276.6406,2.0,276.64072,277.24542,4.2145004,277.24557,278.05493,--
37,37,6,2,3,2.422500e+00,1.615000e+00,1.0,36.0,--,--,278.06607,2.0,279.09897,1.0329161,279.1993,3.282084,282.4838,6.0,282.48392,283.08853,5.022482,283.08868,285.51282,--
38,38,9,3,3,8.075000e-01,8.075000e-01,1.0,37.0,--,--,285.52493,2.0,286.04892,0.5239755,286.14926,2.9835246,289.13492,7.0,289.13504,289.73904,4.214113,289.7392,290.54895,--
39,39,5,2,2,8.075000e-01,8.075000e-01,1.0,38.0,--,--,290.5602,2.0,291.49905,0.9388551,291.59937,2.568645,294.17087,5.0,294.171,294.7757,4.2154818,294.77582,295.58597,--
40,40,4,2,1,8.075000e-01,2.422500e+00,1.0,39.0,--,--,295.5961,2.0,296.5324,0.936298,296.63272,4.186202,300.82092,4.0,300.82104,301.42606,5.8299465,301.4262,302.23605,--
41,41,9,3,3,8.075000e-01,8.075000e-01,1.0,40.0,--,--,302.24817,2.0,303.18216,0.9340204,303.28262,2.5734797,305.85895,6.0,305.85907,306.46396,4.21582,306.4641,307.27405,--
42,42,7,3,1,8.075000e-01,1.615000e+00,1.0,41.0,--,--,307.2849,2.0,308.2154,0.9304931,308.31573,3.384507,311.7028,2.0,311.7029,312.30737,5.0224595,312.3075,313.11682,--
43,43,9,3,3,8.075000e-01,2.422500e+00,1.0,42.0,--,--,313.12762,2.0,314.3657,1.238059,314.466,3.884441,318.35196,9.0,318.35208,318.95706,5.829426,318.95718,319.7666,--
44,44,9,3,3,8.075000e-01,2.422500e+00,1.0,43.0,--,--,319.7776,2.0,321.01535,1.2377851,321.1157,3.8847148,325.00192,9.0,325.00204,325.60605,5.8284745,325.6062,326.41592,--
45,45,4,2,1,5.652500e+00,8.075000e-01,1.0,44.0,--,--,326.42673,2.0,327.56558,1.1388552,327.6659,2.3686447,330.03616,4.0,330.0363,330.64105,4.2143455,330.6412,336.29593,--
46,46,3,1,3,4.037500e+00,2.422500e+00,1.0,45.0,--,--,336.29883,2.0,337.23212,0.9332906,337.33246,4.1892095,341.5236,7.0,341.5237,342.1351,5.8362775,342.13525,346.17462,--
47,47,6,2,3,8.075000e-01,1.615000e+00,1.0,46.0,--,--,346.18668,2.0,347.2322,1.045529,347.3326,3.269471,350.60376,6.0,350.60388,351.20828,5.021607,351.20844,352.01794,--
48,48,4,2,1,2.422500e+00,8.075000e-01,1.0,47.0,--,--,352.0281,2.0,352.76556,0.7374486,352.86594,2.7700515,355.63794,1.0,355.63806,356.24265,4.2145133,356.24277,358.66742,--
49,49,7,3,1,2.422500e+00,2.422500e+00,1.0,48.0,--,--,358.6795,1.0,359.9169,1.2374113,360.01724,3.8850887,363.90485,8.0,363.90497,364.50906,5.8295503,364.50922,366.93402,--
50,50,8,3,2,4.037500e+00,8.075000e-01,1.0,49.0,--,--,366.9448,2.0,368.0821,1.1372931,368.18243,2.3702068,370.5549,5.0,370.55502,371.1607,4.2159023,371.16086,375.20016,--
51,51,1,1,1,8.075000e-01,2.422500e+00,1.0,50.0,--,--,375.20294,2.0,376.13232,0.9293649,376.23264,4.1931353,380.42795,4.0,380.42807,381.03354,5.830593,381.0337,381.84283,--
52,52,9,3,3,8.075000e-01,8.075000e-01,1.0,51.0,--,--,381.85486,1.0,382.9986,1.1437174,383.0989,2.3637826,385.4646,1.0,385.46472,386.0701,4.215221,386.07022,386.87943,--
53,53,3,1,3,8.075000e-01,1.615000e+00,1.0,52.0,--,--,386.8825,2.0,388.23227,1.3497396,388.3326,2.9652605,391.29996,9.0,391.30008,391.90366,5.0211267,391.90378,392.71295,--
54,54,9,3,3,5.652500e+00,1.615000e+00,1.0,53.0,--,--,392.72495,2.0,394.18216,1.4571981,394.28247,2.857802,397.14197,9.0,397.14206,397.74573,5.0207725,397.74588,403.401,411.99973
