TrialNumber,nTrial,Block,Endowment,ITI,ISI,L_Option,R_Option,ran,order,cue_Onset,endowment_onset,endowment_offset,ISI_onset,ISI_offset,decision_onset,resp,rt,resp_onset,decision_offset,trialDuration,ITIonset,ITIoffset
1,1,3,16,4.595,1,2,0,1.0,0.0,4.5725293,5.5041423,5.5213494,5.5214577,6.5224032,6.522576,2.0,0.9323075,7.4548836,10.28875,3.7667992,10.2895,14.88684
2,2,3,32,1.365,1,0,8,1.0,1.0,15.448656,16.37126,16.387932,16.38806,17.388374,17.388515,2.0,0.9662018,18.354717,21.15598,3.7680047,21.156635,22.523697
3,3,2,32,0.5575,1,0,2,1.0,2.0,23.031908,24.020924,24.037973,24.038052,25.03883,25.03897,1.0,1.032842,26.071812,28.805712,3.7672787,28.806355,29.365225
4,4,2,16,2.98,1,0,4,1.0,3.0,29.864794,30.854395,30.871672,30.8718,31.871675,31.871817,1.0,1.2334788,33.105297,35.638824,3.7675512,35.639477,38.620544
5,5,2,32,0.5575,1,0,8,1.0,4.0,39.114998,40.104065,40.121487,40.121647,41.121967,41.122135,1.0,1.1157864,42.237923,44.889732,3.768128,44.89037,45.449856
6,6,3,32,6.21,1,8,0,1.0,5.0,46.02272,46.937958,46.954067,46.95414,47.954597,47.95474,2.0,1.2330763,49.187817,51.720673,3.7664635,51.721306,57.932148
7,7,2,32,0.5575,1,0,2,1.0,6.0,58.431705,59.42079,59.437893,59.43797,60.437828,60.43797,1.0,0.9835723,61.421543,64.20565,3.768209,64.20628,64.76586
8,8,3,32,1.365,1,16,0,1.0,7.0,65.3325,66.254036,66.27155,66.27168,67.271576,67.27172,1.0,0.900017,68.17174,71.0373,3.7661424,71.03797,72.40379
9,9,3,16,0.5575,1,0,1,1.0,8.0,72.96871,73.88737,73.904495,73.90457,74.90565,74.90579,1.0,0.9492258,75.85502,78.672424,3.7671807,78.67308,79.231895
10,10,3,16,0.5575,1,0,2,1.0,9.0,79.79429,80.72065,80.73787,80.73795,81.73854,81.73868,1.0,0.9326131,82.671295,85.50587,3.767737,85.50654,86.06574
11,11,3,16,0.5575,1,0,8,1.0,10.0,86.61229,87.55439,87.571,87.571075,88.570854,88.57101,2.0,0.9502874,89.52129,92.337135,3.7667005,92.33782,92.89659
12,12,3,16,0.5575,1,0,8,1.0,11.0,93.44965,94.38805,94.404396,94.40454,95.40461,95.40475,2.0,0.7831958,96.18794,99.170944,3.7667563,99.171616,99.731674
13,13,3,32,0.5575,1,8,0,1.0,12.0,100.289406,101.220764,101.23777,101.23785,102.23813,102.23827,1.0,1.1330695,103.371346,106.00386,3.7661178,106.00451,106.56462
14,14,2,16,0.5575,1,0,8,1.0,13.0,107.064896,108.05398,108.0711,108.071175,109.07085,109.07099,2.0,0.783976,109.854965,112.838776,3.7683659,112.83947,113.398636
15,15,3,32,4.595,1,3,0,1.0,14.0,113.95768,114.887344,114.9044,114.90455,115.90476,115.90491,2.0,1.4502428,117.35515,119.670586,3.7662208,119.671234,124.26806
16,16,2,32,1.365,1,0,2,1.0,15.0,124.76471,125.75424,125.771286,125.77144,126.77177,126.771904,1.0,1.0330452,127.80495,130.5393,3.7679522,130.53996,131.90749
17,17,3,16,1.365,1,0,1,1.0,16.0,132.48317,133.4039,133.42084,133.42091,134.4207,134.42088,1.0,0.9339509,135.35483,138.1878,3.7674646,138.18845,139.55461
18,18,3,16,1.365,1,4,0,1.0,17.0,140.05344,141.05446,141.0709,141.07098,142.07066,142.07082,2.0,1.1341021,143.20493,145.8379,3.7676399,145.83856,147.20438
19,19,2,16,0.5575,1,4,0,1.0,18.0,147.71468,148.70416,148.72101,148.72115,149.72069,149.72083,2.0,0.8003078,150.52113,153.48775,3.7674515,153.48839,154.04726
20,20,3,32,0.5575,1,16,0,1.0,19.0,154.61684,155.53728,155.55452,155.55466,156.55452,156.55467,1.0,0.7501454,157.30481,160.32045,3.766321,160.3211,160.88054
21,21,3,16,2.98,1,0,2,1.0,20.0,161.4798,162.37117,162.38765,162.38779,163.3886,163.38875,1.0,0.9827842,164.37154,167.15565,3.76745,167.1563,170.13756
22,22,2,32,0.5575,1,3,0,1.0,21.0,170.64772,171.63715,171.65446,171.6546,172.65433,172.65448,1.0,0.8503132,173.50479,176.42154,3.7676015,176.42218,176.9814
23,23,2,16,1.365,1,1,0,1.0,22.0,177.4813,178.47038,178.48737,178.48744,179.48756,179.4877,2.0,1.0001732,180.48788,183.25372,3.7665548,183.25438,184.62064
24,24,3,16,0.5575,1,0,1,1.0,23.0,185.18106,186.1206,186.13736,186.1375,187.13678,187.13692,1.0,0.9508103,188.08772,190.90388,3.7675085,190.90454,191.46346
25,25,2,16,0.5575,1,0,2,1.0,24.0,191.96448,192.95372,192.97067,192.97076,193.97139,193.97153,1.0,0.8497244,194.82126,197.73805,3.7670789,197.73872,198.29802
26,26,2,16,1.365,1,2,0,1.0,25.0,198.79788,199.78719,199.80443,199.80455,200.80534,200.80548,2.0,0.9822975,201.78778,204.57257,3.7676284,204.57321,205.9392
27,27,3,16,4.595,1,1,0,1.0,26.0,206.50034,207.43726,207.45404,207.45412,208.45459,208.45473,2.0,0.8656766,209.3204,212.22224,3.7680614,212.2229,216.8195
28,28,2,32,2.98,1,0,2,1.0,27.0,217.31436,218.3034,218.32082,218.32089,219.32153,219.32167,1.0,0.8823457,220.20403,223.08853,3.7673986,223.08917,226.07022
29,29,2,16,0.5575,1,2,0,1.0,28.0,226.58092,227.5702,227.58717,227.58725,228.58647,228.58661,2.0,0.9008332,229.48744,232.3533,3.7672296,232.35394,232.91312
30,30,3,32,0.5575,1,16,0,1.0,29.0,233.47543,234.4037,234.42062,234.4207,235.42055,235.42068,1.0,0.8336851,236.25436,239.18674,3.7666106,239.18741,239.74721
31,31,2,32,0.5575,1,16,0,1.0,30.0,240.2476,241.23679,241.25392,241.254,242.25423,242.25436,1.0,0.783483,243.03784,246.02075,3.766934,246.02141,246.58055
32,32,3,16,1.365,1,0,2,1.0,31.0,247.14088,248.07042,248.08752,248.08766,249.0875,249.08763,1.0,0.9497631,250.0374,252.8546,3.7675226,252.85527,254.22224
33,33,2,16,1.365,1,0,4,1.0,32.0,254.731,255.72006,255.73717,255.73726,256.7373,256.73746,1.0,1.333165,258.07062,260.5051,3.7681694,260.50574,261.87238
34,34,2,16,0.5575,1,0,4,1.0,33.0,262.3806,263.37,263.38702,263.3871,264.3879,264.38806,1.0,0.8659804,265.25403,268.1556,3.768103,268.15625,268.71518
35,35,3,32,1.365,1,16,0,1.0,34.0,269.31577,270.20386,270.22043,270.2205,271.22113,271.22128,1.0,0.9160949,272.13736,274.9876,3.766868,274.98825,276.3541
36,36,2,32,0.5575,1,0,8,1.0,35.0,276.86438,277.85336,277.87036,277.87045,278.8706,278.87073,1.0,1.1666249,280.03735,282.63727,3.7670655,282.6379,283.19724
37,37,2,32,0.5575,1,0,2,1.0,36.0,283.69757,284.68695,284.70447,284.7046,285.7044,285.70456,1.0,0.8491758,286.55374,289.47156,3.7675538,289.47223,290.0311
38,38,3,32,0.5575,1,0,3,1.0,37.0,290.5976,291.52002,291.53745,291.53757,292.53745,292.5376,1.0,1.0831447,293.62073,296.30368,3.7666247,296.30432,296.86346
39,39,2,16,1.365,1,8,0,1.0,38.0,297.36438,298.35364,298.3705,298.37064,299.37045,299.37057,1.0,0.9502409,300.32083,303.1377,3.7676513,303.13834,304.5044
40,40,3,32,1.365,1,0,2,1.0,39.0,305.06372,306.00372,306.02048,306.0206,307.0208,307.02097,1.0,0.8158446,307.83682,310.78845,3.7680092,310.7891,312.15546
41,41,2,16,1.365,1,2,0,1.0,40.0,312.66406,313.65323,313.67026,313.67032,314.66965,314.6698,2.0,0.9008359,315.57065,318.43716,3.767906,318.4378,319.8043
42,42,2,16,0.5575,1,2,0,1.0,41.0,320.3141,321.30334,321.3202,321.32028,322.32123,322.32135,2.0,0.765815,323.0872,326.08923,3.768401,326.08987,326.6487
43,43,2,32,2.98,1,16,0,1.0,42.0,327.14758,328.1368,328.1537,328.15384,329.15457,329.15472,1.0,0.7328035,329.88754,332.92242,3.7682388,332.92307,335.9044
44,44,2,16,0.5575,1,8,0,1.0,43.0,336.4137,337.40305,337.42026,337.42038,338.4199,338.42004,1.0,1.0338309,339.4539,342.1863,3.766801,342.18698,342.7474
45,45,2,32,0.5575,1,16,0,1.0,44.0,343.24716,344.2364,344.25342,344.25348,345.25427,345.25443,1.0,1.0658695,346.32028,349.02173,3.7678494,349.02237,349.58295
46,46,3,16,2.98,1,0,4,1.0,45.0,350.14932,351.06946,351.08688,351.08694,352.08765,352.0878,1.0,0.8827233,352.97052,355.8544,3.7671435,355.85504,358.83636
47,47,3,16,2.98,1,0,4,1.0,46.0,359.38437,360.32004,360.33713,360.33725,361.33643,361.33658,1.0,0.7839306,362.1205,365.1029,3.7668655,365.10355,368.08514
48,48,3,32,2.98,1,2,0,1.0,47.0,368.6122,369.5702,369.5864,369.58652,370.586,370.58612,2.0,1.0008535,371.58698,374.35324,3.7676427,374.35388,377.3351
