onset	duration	trial_type	response_time	Endowment	Decision	Offer
4.505636	2	cue_nonsocial	n/a	16	n/a	n/a
4.505636	2	cue_nonsocial_low	n/a	16	n/a	n/a
6.512683	1.699340	dec_nonsocial_low	1.699340	16	n/a	4
6.512683	1.699340	dec_nonsocial_low_accept	1.699340	16	accept	4
12.156556	2	cue_nonsocial	n/a	32	n/a	n/a
12.156556	2	cue_nonsocial_high	n/a	32	n/a	n/a
14.161772	1.250027	dec_nonsocial_high	1.250027	32	n/a	2
14.161772	1.250027	dec_nonsocial_high_reject	1.250027	32	reject	2
18.998453	2	cue_social	n/a	16	n/a	n/a
18.998453	2	cue_social_low	n/a	16	n/a	n/a
20.995848	1.015777	dec_social_low	1.015777	16	n/a	2
20.995848	1.015777	dec_social_low_reject	1.015777	16	reject	2
26.735155	2	cue_social	n/a	32	n/a	n/a
26.735155	2	cue_social_high	n/a	32	n/a	n/a
28.645918	1.115158	dec_social_high	1.115158	32	n/a	8
28.645918	1.115158	dec_social_high_accept	1.115158	32	accept	8
34.401140	2	cue_social	n/a	16	n/a	n/a
34.401140	2	cue_social_low	n/a	16	n/a	n/a
36.295750	0.965788	dec_social_low	0.965788	16	n/a	8
36.295750	0.965788	dec_social_low_accept	0.965788	16	accept	8
41.218494	2	cue_social	n/a	16	n/a	n/a
41.218494	2	cue_social_low	n/a	16	n/a	n/a
43.128746	0.916013	dec_social_low	0.916013	16	n/a	2
43.128746	0.916013	dec_social_low_reject	0.916013	16	reject	2
50.396732	2	cue_social	n/a	16	n/a	n/a
50.396732	2	cue_social_low	n/a	16	n/a	n/a
52.395170	1.233462	dec_social_low	1.233462	16	n/a	4
52.395170	1.233462	dec_social_low_reject	1.233462	16	reject	4
58.038795	2	cue_nonsocial	n/a	16	n/a	n/a
58.038795	2	cue_nonsocial_low	n/a	16	n/a	n/a
60.045193	1.366138	dec_nonsocial_low	1.366138	16	n/a	4
60.045193	1.366138	dec_nonsocial_low_reject	1.366138	16	reject	4
64.871860	2	cue_nonsocial	n/a	16	n/a	n/a
64.871860	2	cue_nonsocial_low	n/a	16	n/a	n/a
66.877780	0.967021	dec_nonsocial_low	0.967021	16	n/a	2
66.877780	0.967021	dec_nonsocial_low_reject	0.967021	16	reject	2
71.706180	2	cue_nonsocial	n/a	32	n/a	n/a
71.706180	2	cue_nonsocial_high	n/a	32	n/a	n/a
73.711845	0.966329	dec_nonsocial_high	0.966329	32	n/a	3
73.711845	0.966329	dec_nonsocial_high_reject	0.966329	32	reject	3
78.606170	2	cue_social	n/a	32	n/a	n/a
78.606170	2	cue_social_high	n/a	32	n/a	n/a
80.544990	0.950432	dec_social_high	0.950432	32	n/a	16
80.544990	0.950432	dec_social_high_accept	0.950432	32	accept	16
85.458305	2	cue_social	n/a	32	n/a	n/a
85.458305	2	cue_social_high	n/a	32	n/a	n/a
87.378580	0.950217	dec_social_high	0.950217	32	n/a	3
87.378580	0.950217	dec_social_high_reject	0.950217	32	reject	3
93.090324	2	cue_social	n/a	32	n/a	n/a
93.090324	2	cue_social_high	n/a	32	n/a	n/a
95.028755	0.932840	dec_social_high	0.932840	32	n/a	2
95.028755	0.932840	dec_social_high_reject	0.932840	32	reject	2
100.671540	2	cue_nonsocial	n/a	32	n/a	n/a
100.671540	2	cue_nonsocial_high	n/a	32	n/a	n/a
102.677980	1.050676	dec_nonsocial_high	1.050676	32	n/a	16
102.677980	1.050676	dec_nonsocial_high_accept	1.050676	32	accept	16
109.921990	2	cue_nonsocial	n/a	16	n/a	n/a
109.921990	2	cue_nonsocial_low	n/a	16	n/a	n/a
111.928920	1.149319	dec_nonsocial_low	1.149319	16	n/a	2
111.928920	1.149319	dec_nonsocial_low_reject	1.149319	16	reject	2
117.681170	2	cue_social	n/a	16	n/a	n/a
117.681170	2	cue_social_low	n/a	16	n/a	n/a
119.577900	1.050534	dec_social_low	1.050534	16	n/a	4
119.577900	1.050534	dec_social_low_reject	1.050534	16	reject	4
124.405880	2	cue_nonsocial	n/a	32	n/a	n/a
124.405880	2	cue_nonsocial_high	n/a	32	n/a	n/a
126.412025	0.899835	dec_nonsocial_high	0.899835	32	n/a	8
126.412025	0.899835	dec_nonsocial_high_accept	0.899835	32	accept	8
135.271870	2	cue_nonsocial	n/a	32	n/a	n/a
135.271870	2	cue_nonsocial_high	n/a	32	n/a	n/a
137.278750	0.883011	dec_nonsocial_high	0.883011	32	n/a	2
137.278750	0.883011	dec_nonsocial_high_reject	0.883011	32	reject	2
142.200360	2	cue_social	n/a	32	n/a	n/a
142.200360	2	cue_social_high	n/a	32	n/a	n/a
144.111790	0.949627	dec_social_high	0.949627	32	n/a	2
144.111790	0.949627	dec_social_high_reject	0.949627	32	reject	2
153.080730	2	cue_social	n/a	32	n/a	n/a
153.080730	2	cue_social_high	n/a	32	n/a	n/a
154.978420	0.865864	dec_social_high	0.865864	32	n/a	2
154.978420	0.865864	dec_social_high_reject	0.865864	32	reject	2
159.862920	2	cue_social	n/a	32	n/a	n/a
159.862920	2	cue_social_high	n/a	32	n/a	n/a
161.812030	1.065508	dec_social_high	1.065508	32	n/a	16
161.812030	1.065508	dec_social_high_accept	1.065508	32	accept	16
169.127380	2	cue_social	n/a	16	n/a	n/a
169.127380	2	cue_social_low	n/a	16	n/a	n/a
171.077500	0.750887	dec_social_low	0.750887	16	n/a	8
171.077500	0.750887	dec_social_low_accept	0.750887	16	accept	8
175.904970	2	cue_nonsocial	n/a	32	n/a	n/a
175.904970	2	cue_nonsocial_high	n/a	32	n/a	n/a
177.911870	0.849560	dec_nonsocial_high	0.849560	32	n/a	2
177.911870	0.849560	dec_nonsocial_high_reject	0.849560	32	reject	2
186.771930	2	cue_nonsocial	n/a	32	n/a	n/a
186.771930	2	cue_nonsocial_high	n/a	32	n/a	n/a
188.777820	0.983909	dec_nonsocial_high	0.983909	32	n/a	16
188.777820	0.983909	dec_nonsocial_high_accept	0.983909	32	accept	16
194.508790	2	cue_social	n/a	16	n/a	n/a
194.508790	2	cue_social_low	n/a	16	n/a	n/a
196.411800	0.865931	dec_social_low	0.865931	16	n/a	1
196.411800	0.865931	dec_social_low_reject	0.865931	16	reject	1
201.238420	2	cue_nonsocial	n/a	16	n/a	n/a
201.238420	2	cue_nonsocial_low	n/a	16	n/a	n/a
203.245030	0.716209	dec_nonsocial_low	0.716209	16	n/a	8
203.245030	0.716209	dec_nonsocial_low_accept	0.716209	16	accept	8
208.102690	2	cue_social	n/a	32	n/a	n/a
208.102690	2	cue_social_high	n/a	32	n/a	n/a
210.078410	0.767351	dec_social_high	0.767351	32	n/a	16
210.078410	0.767351	dec_social_high_accept	0.767351	32	accept	16
214.904940	2	cue_nonsocial	n/a	16	n/a	n/a
214.904940	2	cue_nonsocial_low	n/a	16	n/a	n/a
216.911330	0.816548	dec_nonsocial_low	0.816548	16	n/a	1
216.911330	0.816548	dec_nonsocial_low_reject	0.816548	16	reject	1
221.738850	2	cue_nonsocial	n/a	16	n/a	n/a
221.738850	2	cue_nonsocial_low	n/a	16	n/a	n/a
223.745710	1.349206	dec_nonsocial_low	1.349206	16	n/a	4
223.745710	1.349206	dec_nonsocial_low_reject	1.349206	16	reject	4
231.005300	2	cue_nonsocial	n/a	32	n/a	n/a
231.005300	2	cue_nonsocial_high	n/a	32	n/a	n/a
233.011830	0.799900	dec_nonsocial_high	0.799900	32	n/a	16
233.011830	0.799900	dec_nonsocial_high_accept	0.799900	32	accept	16
237.838870	2	cue_nonsocial	n/a	32	n/a	n/a
237.838870	2	cue_nonsocial_high	n/a	32	n/a	n/a
239.844020	0.766993	dec_nonsocial_high	0.766993	32	n/a	16
239.844020	0.766993	dec_nonsocial_high_accept	0.766993	32	accept	16
245.487990	2	cue_nonsocial	n/a	32	n/a	n/a
245.487990	2	cue_nonsocial_high	n/a	32	n/a	n/a
247.494900	0.833282	dec_nonsocial_high	0.833282	32	n/a	3
247.494900	0.833282	dec_nonsocial_high_reject	0.833282	32	reject	3
254.738500	2	cue_nonsocial	n/a	32	n/a	n/a
254.738500	2	cue_nonsocial_high	n/a	32	n/a	n/a
256.745800	0.865275	dec_nonsocial_high	0.865275	32	n/a	2
256.745800	0.865275	dec_nonsocial_high_reject	0.865275	32	reject	2
261.571500	2	cue_nonsocial	n/a	32	n/a	n/a
261.571500	2	cue_nonsocial_high	n/a	32	n/a	n/a
263.578740	1.082836	dec_nonsocial_high	1.082836	32	n/a	2
263.578740	1.082836	dec_nonsocial_high_reject	1.082836	32	reject	2
268.474060	2	cue_social	n/a	16	n/a	n/a
268.474060	2	cue_social_low	n/a	16	n/a	n/a
270.411830	1.716082	dec_social_low	1.716082	16	n/a	4
270.411830	1.716082	dec_social_low_reject	1.716082	16	reject	4
275.238280	2	cue_nonsocial	n/a	32	n/a	n/a
275.238280	2	cue_nonsocial_high	n/a	32	n/a	n/a
277.244720	0.866420	dec_nonsocial_high	0.866420	32	n/a	3
277.244720	0.866420	dec_nonsocial_high_reject	0.866420	32	reject	3
282.172400	2	cue_social	n/a	16	n/a	n/a
282.172400	2	cue_social_low	n/a	16	n/a	n/a
284.077730	1.866624	dec_social_low	1.866624	16	n/a	4
284.077730	1.866624	dec_social_low_reject	1.866624	16	reject	4
291.396000	2	cue_social	n/a	32	n/a	n/a
291.396000	2	cue_social_high	n/a	32	n/a	n/a
293.344570	0.933273	dec_social_high	0.933273	32	n/a	8
293.344570	0.933273	dec_social_high_accept	0.933273	32	accept	8
299.046750	2	cue_social	n/a	32	n/a	n/a
299.046750	2	cue_social_high	n/a	32	n/a	n/a
300.994500	0.916516	dec_social_high	0.916516	32	n/a	3
300.994500	0.916516	dec_social_high_reject	0.916516	32	reject	3
305.892800	2	cue_social	n/a	16	n/a	n/a
305.892800	2	cue_social_low	n/a	16	n/a	n/a
307.827000	1.083852	dec_social_low	1.083852	16	n/a	2
307.827000	1.083852	dec_social_low_reject	1.083852	16	reject	2
312.654750	2	cue_nonsocial	n/a	32	n/a	n/a
312.654750	2	cue_nonsocial_high	n/a	32	n/a	n/a
314.661770	0.949436	dec_nonsocial_high	0.949436	32	n/a	8
314.661770	0.949436	dec_nonsocial_high_accept	0.949436	32	accept	8
325.138280	2	cue_nonsocial	n/a	16	n/a	n/a
325.138280	2	cue_nonsocial_low	n/a	16	n/a	n/a
327.144700	0.816252	dec_nonsocial_low	0.816252	16	n/a	4
327.144700	0.816252	dec_nonsocial_low_reject	0.816252	16	reject	4
332.068270	2	cue_social	n/a	16	n/a	n/a
332.068270	2	cue_social_low	n/a	16	n/a	n/a
333.977750	0.916341	dec_social_low	0.916341	16	n/a	1
333.977750	0.916341	dec_social_low_reject	0.916341	16	reject	1
339.705300	2	cue_social	n/a	32	n/a	n/a
339.705300	2	cue_social_high	n/a	32	n/a	n/a
341.627620	0.800581	dec_social_high	0.800581	32	n/a	16
341.627620	0.800581	dec_social_high_accept	0.800581	32	accept	16
346.455020	2	cue_nonsocial	n/a	32	n/a	n/a
346.455020	2	cue_nonsocial_high	n/a	32	n/a	n/a
348.461800	0.665550	dec_nonsocial_high	0.665550	32	n/a	16
348.461800	0.665550	dec_nonsocial_high_accept	0.665550	32	accept	16
354.179100	2	cue_social	n/a	32	n/a	n/a
354.179100	2	cue_social_high	n/a	32	n/a	n/a
356.110170	0.867548	dec_social_high	0.867548	32	n/a	3
356.110170	0.867548	dec_social_high_reject	0.867548	32	reject	3
361.003500	2	cue_social	n/a	32	n/a	n/a
361.003500	2	cue_social_high	n/a	32	n/a	n/a
362.943820	0.733952	dec_social_high	0.733952	32	n/a	2
362.943820	0.733952	dec_social_high_reject	0.733952	32	reject	2
368.588000	2	cue_nonsocial	n/a	16	n/a	n/a
368.588000	2	cue_nonsocial_low	n/a	16	n/a	n/a
370.594850	0.766251	dec_nonsocial_low	0.766251	16	n/a	2
370.594850	0.766251	dec_nonsocial_low_reject	0.766251	16	reject	2
