onset	duration	trial_type	response_time	Endowment	Endowment_pmod	Decision	Decision_pmod	Offer_pmod
4.505636	2	cue_nonsocial	n/a	16	-10	n/a	n/a	n/a
4.505636	2	cue_nonsocial_low	n/a	16	-9	n/a	n/a	n/a
12.156556	2	cue_nonsocial	n/a	32	6	n/a	n/a	n/a
12.156556	2	cue_nonsocial_high	n/a	32	7	n/a	n/a	n/a
18.998453	2	cue_social	n/a	16	-9	n/a	n/a	n/a
18.998453	2	cue_social_low	n/a	16	-10	n/a	n/a	n/a
26.735155	2	cue_social	n/a	32	7	n/a	n/a	n/a
26.735155	2	cue_social_high	n/a	32	6	n/a	n/a	n/a
34.401140	2	cue_social	n/a	16	-9	n/a	n/a	n/a
34.401140	2	cue_social_low	n/a	16	-10	n/a	n/a	n/a
41.218494	2	cue_social	n/a	16	-9	n/a	n/a	n/a
41.218494	2	cue_social_low	n/a	16	-10	n/a	n/a	n/a
50.396732	2	cue_social	n/a	16	-9	n/a	n/a	n/a
50.396732	2	cue_social_low	n/a	16	-10	n/a	n/a	n/a
58.038795	2	cue_nonsocial	n/a	16	-10	n/a	n/a	n/a
58.038795	2	cue_nonsocial_low	n/a	16	-9	n/a	n/a	n/a
64.871860	2	cue_nonsocial	n/a	16	-10	n/a	n/a	n/a
64.871860	2	cue_nonsocial_low	n/a	16	-9	n/a	n/a	n/a
71.706180	2	cue_nonsocial	n/a	32	6	n/a	n/a	n/a
71.706180	2	cue_nonsocial_high	n/a	32	7	n/a	n/a	n/a
78.606170	2	cue_social	n/a	32	7	n/a	n/a	n/a
78.606170	2	cue_social_high	n/a	32	6	n/a	n/a	n/a
85.458305	2	cue_social	n/a	32	7	n/a	n/a	n/a
85.458305	2	cue_social_high	n/a	32	6	n/a	n/a	n/a
93.090324	2	cue_social	n/a	32	7	n/a	n/a	n/a
93.090324	2	cue_social_high	n/a	32	6	n/a	n/a	n/a
100.671540	2	cue_nonsocial	n/a	32	6	n/a	n/a	n/a
100.671540	2	cue_nonsocial_high	n/a	32	7	n/a	n/a	n/a
109.921990	2	cue_nonsocial	n/a	16	-10	n/a	n/a	n/a
109.921990	2	cue_nonsocial_low	n/a	16	-9	n/a	n/a	n/a
117.681170	2	cue_social	n/a	16	-9	n/a	n/a	n/a
117.681170	2	cue_social_low	n/a	16	-10	n/a	n/a	n/a
124.405880	2	cue_nonsocial	n/a	32	6	n/a	n/a	n/a
124.405880	2	cue_nonsocial_high	n/a	32	7	n/a	n/a	n/a
135.271870	2	cue_nonsocial	n/a	32	6	n/a	n/a	n/a
135.271870	2	cue_nonsocial_high	n/a	32	7	n/a	n/a	n/a
142.200360	2	cue_social	n/a	32	7	n/a	n/a	n/a
142.200360	2	cue_social_high	n/a	32	6	n/a	n/a	n/a
153.080730	2	cue_social	n/a	32	7	n/a	n/a	n/a
153.080730	2	cue_social_high	n/a	32	6	n/a	n/a	n/a
159.862920	2	cue_social	n/a	32	7	n/a	n/a	n/a
159.862920	2	cue_social_high	n/a	32	6	n/a	n/a	n/a
169.127380	2	cue_social	n/a	16	-9	n/a	n/a	n/a
169.127380	2	cue_social_low	n/a	16	-10	n/a	n/a	n/a
175.904970	2	cue_nonsocial	n/a	32	6	n/a	n/a	n/a
175.904970	2	cue_nonsocial_high	n/a	32	7	n/a	n/a	n/a
186.771930	2	cue_nonsocial	n/a	32	6	n/a	n/a	n/a
186.771930	2	cue_nonsocial_high	n/a	32	7	n/a	n/a	n/a
194.508790	2	cue_social	n/a	16	-9	n/a	n/a	n/a
194.508790	2	cue_social_low	n/a	16	-10	n/a	n/a	n/a
201.238420	2	cue_nonsocial	n/a	16	-10	n/a	n/a	n/a
201.238420	2	cue_nonsocial_low	n/a	16	-9	n/a	n/a	n/a
208.102690	2	cue_social	n/a	32	7	n/a	n/a	n/a
208.102690	2	cue_social_high	n/a	32	6	n/a	n/a	n/a
214.904940	2	cue_nonsocial	n/a	16	-10	n/a	n/a	n/a
214.904940	2	cue_nonsocial_low	n/a	16	-9	n/a	n/a	n/a
221.738850	2	cue_nonsocial	n/a	16	-10	n/a	n/a	n/a
221.738850	2	cue_nonsocial_low	n/a	16	-9	n/a	n/a	n/a
231.005300	2	cue_nonsocial	n/a	32	6	n/a	n/a	n/a
231.005300	2	cue_nonsocial_high	n/a	32	7	n/a	n/a	n/a
237.838870	2	cue_nonsocial	n/a	32	6	n/a	n/a	n/a
237.838870	2	cue_nonsocial_high	n/a	32	7	n/a	n/a	n/a
245.487990	2	cue_nonsocial	n/a	32	6	n/a	n/a	n/a
245.487990	2	cue_nonsocial_high	n/a	32	7	n/a	n/a	n/a
254.738500	2	cue_nonsocial	n/a	32	6	n/a	n/a	n/a
254.738500	2	cue_nonsocial_high	n/a	32	7	n/a	n/a	n/a
261.571500	2	cue_nonsocial	n/a	32	6	n/a	n/a	n/a
261.571500	2	cue_nonsocial_high	n/a	32	7	n/a	n/a	n/a
268.474060	2	cue_social	n/a	16	-9	n/a	n/a	n/a
268.474060	2	cue_social_low	n/a	16	-10	n/a	n/a	n/a
275.238280	2	cue_nonsocial	n/a	32	6	n/a	n/a	n/a
275.238280	2	cue_nonsocial_high	n/a	32	7	n/a	n/a	n/a
282.172400	2	cue_social	n/a	16	-9	n/a	n/a	n/a
282.172400	2	cue_social_low	n/a	16	-10	n/a	n/a	n/a
291.396000	2	cue_social	n/a	32	7	n/a	n/a	n/a
291.396000	2	cue_social_high	n/a	32	6	n/a	n/a	n/a
299.046750	2	cue_social	n/a	32	7	n/a	n/a	n/a
299.046750	2	cue_social_high	n/a	32	6	n/a	n/a	n/a
305.892800	2	cue_social	n/a	16	-9	n/a	n/a	n/a
305.892800	2	cue_social_low	n/a	16	-10	n/a	n/a	n/a
312.654750	2	cue_nonsocial	n/a	32	6	n/a	n/a	n/a
312.654750	2	cue_nonsocial_high	n/a	32	7	n/a	n/a	n/a
325.138280	2	cue_nonsocial	n/a	16	-10	n/a	n/a	n/a
325.138280	2	cue_nonsocial_low	n/a	16	-9	n/a	n/a	n/a
332.068270	2	cue_social	n/a	16	-9	n/a	n/a	n/a
332.068270	2	cue_social_low	n/a	16	-10	n/a	n/a	n/a
339.705300	2	cue_social	n/a	32	7	n/a	n/a	n/a
339.705300	2	cue_social_high	n/a	32	6	n/a	n/a	n/a
346.455020	2	cue_nonsocial	n/a	32	6	n/a	n/a	n/a
346.455020	2	cue_nonsocial_high	n/a	32	7	n/a	n/a	n/a
354.179100	2	cue_social	n/a	32	7	n/a	n/a	n/a
354.179100	2	cue_social_high	n/a	32	6	n/a	n/a	n/a
361.003500	2	cue_social	n/a	32	7	n/a	n/a	n/a
361.003500	2	cue_social_high	n/a	32	6	n/a	n/a	n/a
368.588000	2	cue_nonsocial	n/a	16	-10	n/a	n/a	n/a
368.588000	2	cue_nonsocial_low	n/a	16	-9	n/a	n/a	n/a
6.512683	1.699340	dec_nonsocial_choice	1.699340	16.000000	n/a	4	1.953125e-02	1.953125e-02
6.512683	1.699340	dec_choice	1.699340	16.000000	n/a	4	1.953125e-02	1.953125e-02
6.512683	1.699340	dec_nonsocial_accept	1.699340	16.000000	n/a	4	-1.764706e-01	-1.764706e-01
6.512683	1.699340	dec_accept	1.699340	16.000000	n/a	4	-1.666667e-01	-1.666667e-01
6.512683	1.699340	dec_nonsocial_high	1.699340	16.000000	n/a	4	1.953125e-02	1.953125e-02
6.512683	1.699340	dec_nonsocial_accept_high	1.699340	16.000000	n/a	4	-1.666667e-01	-1.666667e-01
14.161772	1.250027	dec_nonsocial_choice	1.250027	32.000000	n/a	0	0	-2.304688e-01
14.161772	1.250027	dec_choice	1.250027	32.000000	n/a	0	0	-2.304688e-01
14.161772	1.250027	dec_nonsocial_reject	1.250027	32.000000	n/a	0	0	-6.048387e-02
14.161772	1.250027	dec_reject	1.250027	32.000000	n/a	0	0	-5.625000e-02
14.161772	1.250027	dec_nonsocial_low	1.250027	32.000000	n/a	0	-2.304688e-01	-2.304688e-01
14.161772	1.250027	dec_nonsocial_reject_low	1.250027	32.000000	n/a	2	-5.625000e-02	-1.187500e-01
20.995848	1.015777	dec_social_choice	1.015777	16.000000	n/a	0	0	-2.304688e-01
20.995848	1.015777	dec_choice	1.015777	16.000000	n/a	0	0	-2.304688e-01
20.995848	1.015777	dec_social_reject	1.015777	16.000000	n/a	0	0	2.016129e-03
20.995848	1.015777	dec_reject	1.015777	16.000000	n/a	0	0	-1.953125e-03
20.995848	1.015777	dec_social_reject_low	1.015777	16.000000	n/a	2	-1.054688e-01	-2.304688e-01
28.645918	1.115158	dec_social_choice	1.115158	32.000000	n/a	8	1.953125e-02	1.953125e-02
28.645918	1.115158	dec_choice	1.115158	32.000000	n/a	8	1.953125e-02	1.953125e-02
28.645918	1.115158	dec_social_accept	1.115158	32.000000	n/a	8	-1.764706e-01	-1.764706e-01
28.645918	1.115158	dec_accept	1.115158	32.000000	n/a	8	-1.875000e-01	-1.875000e-01
28.645918	1.115158	dec_social_accept_high	1.115158	32.000000	n/a	8	1.953125e-02	1.953125e-02
36.295750	0.965788	dec_social_choice	0.965788	16.000000	n/a	8	2.695312e-01	2.695312e-01
36.295750	0.965788	dec_choice	0.965788	16.000000	n/a	8	2.695312e-01	2.695312e-01
36.295750	0.965788	dec_social_accept	0.965788	16.000000	n/a	8	7.352941e-02	7.352941e-02
36.295750	0.965788	dec_accept	0.965788	16.000000	n/a	8	6.250000e-02	6.250000e-02
36.295750	0.965788	dec_social_high	0.965788	16.000000	n/a	8	2.695312e-01	2.695312e-01
36.295750	0.965788	dec_social_accept_high	0.965788	16.000000	n/a	8	2.695312e-01	2.695312e-01
43.128746	0.916013	dec_social_choice	0.916013	16.000000	n/a	0	0	-2.304688e-01
43.128746	0.916013	dec_choice	0.916013	16.000000	n/a	0	0	-2.304688e-01
43.128746	0.916013	dec_social_reject	0.916013	16.000000	n/a	0	0	2.016129e-03
43.128746	0.916013	dec_reject	0.916013	16.000000	n/a	0	0	-1.953125e-03
43.128746	0.916013	dec_social_low	0.916013	16.000000	n/a	0	-2.304688e-01	-2.304688e-01
43.128746	0.916013	dec_social_reject_low	0.916013	16.000000	n/a	2	-1.054688e-01	-2.304688e-01
52.395170	1.233462	dec_social_choice	1.233462	16.000000	n/a	0	0	-2.304688e-01
52.395170	1.233462	dec_choice	1.233462	16.000000	n/a	0	0	-2.304688e-01
52.395170	1.233462	dec_social_reject	1.233462	16.000000	n/a	0	0	1.270161e-01
52.395170	1.233462	dec_reject	1.233462	16.000000	n/a	0	0	1.230469e-01
52.395170	1.233462	dec_social_low	1.233462	16.000000	n/a	0	-2.304688e-01	-2.304688e-01
52.395170	1.233462	dec_social_reject_low	1.233462	16.000000	n/a	4	1.953125e-02	-2.304688e-01
60.045193	1.366138	dec_nonsocial_choice	1.366138	16.000000	n/a	0	0	-2.304688e-01
60.045193	1.366138	dec_choice	1.366138	16.000000	n/a	0	0	-2.304688e-01
60.045193	1.366138	dec_nonsocial_reject	1.366138	16.000000	n/a	0	0	1.270161e-01
60.045193	1.366138	dec_reject	1.366138	16.000000	n/a	0	0	1.312500e-01
60.045193	1.366138	dec_nonsocial_reject_low	1.366138	16.000000	n/a	4	1.230469e-01	-1.269531e-01
66.877780	0.967021	dec_nonsocial_choice	0.967021	16.000000	n/a	0	0	-2.304688e-01
66.877780	0.967021	dec_choice	0.967021	16.000000	n/a	0	0	-2.304688e-01
66.877780	0.967021	dec_nonsocial_reject	0.967021	16.000000	n/a	0	0	2.016129e-03
66.877780	0.967021	dec_reject	0.967021	16.000000	n/a	0	0	6.250000e-03
66.877780	0.967021	dec_nonsocial_low	0.967021	16.000000	n/a	0	-2.304688e-01	-2.304688e-01
66.877780	0.967021	dec_nonsocial_reject_low	0.967021	16.000000	n/a	2	6.250000e-03	-1.187500e-01
73.711845	0.966329	dec_nonsocial_choice	0.966329	32.000000	n/a	0	0	-2.304688e-01
73.711845	0.966329	dec_choice	0.966329	32.000000	n/a	0	0	-2.304688e-01
73.711845	0.966329	dec_nonsocial_reject	0.966329	32.000000	n/a	0	0	-2.923387e-02
73.711845	0.966329	dec_reject	0.966329	32.000000	n/a	0	0	-2.500000e-02
73.711845	0.966329	dec_nonsocial_reject_low	0.966329	32.000000	n/a	3	-3.320312e-02	-1.269531e-01
80.544990	0.950432	dec_social_choice	0.950432	32.000000	n/a	16	2.695312e-01	2.695312e-01
80.544990	0.950432	dec_choice	0.950432	32.000000	n/a	16	2.695312e-01	2.695312e-01
80.544990	0.950432	dec_social_accept	0.950432	32.000000	n/a	16	7.352941e-02	7.352941e-02
80.544990	0.950432	dec_accept	0.950432	32.000000	n/a	16	6.250000e-02	6.250000e-02
80.544990	0.950432	dec_social_accept_high	0.950432	32.000000	n/a	16	2.695312e-01	2.695312e-01
87.378580	0.950217	dec_social_choice	0.950217	32.000000	n/a	0	0	-2.304688e-01
87.378580	0.950217	dec_choice	0.950217	32.000000	n/a	0	0	-2.304688e-01
87.378580	0.950217	dec_social_reject	0.950217	32.000000	n/a	0	0	-2.923387e-02
87.378580	0.950217	dec_reject	0.950217	32.000000	n/a	0	0	-3.320312e-02
87.378580	0.950217	dec_social_reject_low	0.950217	32.000000	n/a	3	-1.367188e-01	-2.304688e-01
95.028755	0.932840	dec_social_choice	0.932840	32.000000	n/a	0	0	-2.304688e-01
95.028755	0.932840	dec_choice	0.932840	32.000000	n/a	0	0	-2.304688e-01
95.028755	0.932840	dec_social_reject	0.932840	32.000000	n/a	0	0	-6.048387e-02
95.028755	0.932840	dec_reject	0.932840	32.000000	n/a	0	0	-6.445312e-02
95.028755	0.932840	dec_social_low	0.932840	32.000000	n/a	0	-2.304688e-01	-2.304688e-01
95.028755	0.932840	dec_social_reject_low	0.932840	32.000000	n/a	2	-1.679688e-01	-2.304688e-01
102.677980	1.050676	dec_nonsocial_choice	1.050676	32.000000	n/a	16	2.695312e-01	2.695312e-01
102.677980	1.050676	dec_choice	1.050676	32.000000	n/a	16	2.695312e-01	2.695312e-01
102.677980	1.050676	dec_nonsocial_accept	1.050676	32.000000	n/a	16	7.352941e-02	7.352941e-02
102.677980	1.050676	dec_accept	1.050676	32.000000	n/a	16	8.333333e-02	8.333333e-02
102.677980	1.050676	dec_nonsocial_accept_high	1.050676	32.000000	n/a	16	6.250000e-02	6.250000e-02
111.928920	1.149319	dec_nonsocial_choice	1.149319	16.000000	n/a	0	0	-2.304688e-01
111.928920	1.149319	dec_choice	1.149319	16.000000	n/a	0	0	-2.304688e-01
111.928920	1.149319	dec_nonsocial_reject	1.149319	16.000000	n/a	0	0	2.016129e-03
111.928920	1.149319	dec_reject	1.149319	16.000000	n/a	0	0	6.250000e-03
111.928920	1.149319	dec_nonsocial_reject_low	1.149319	16.000000	n/a	2	-1.953125e-03	-1.269531e-01
119.577900	1.050534	dec_social_choice	1.050534	16.000000	n/a	0	0	-2.304688e-01
119.577900	1.050534	dec_choice	1.050534	16.000000	n/a	0	0	-2.304688e-01
119.577900	1.050534	dec_social_reject	1.050534	16.000000	n/a	0	0	1.270161e-01
119.577900	1.050534	dec_reject	1.050534	16.000000	n/a	0	0	1.230469e-01
119.577900	1.050534	dec_social_reject_low	1.050534	16.000000	n/a	4	1.953125e-02	-2.304688e-01
126.412025	0.899835	dec_nonsocial_choice	0.899835	32.000000	n/a	8	1.953125e-02	1.953125e-02
126.412025	0.899835	dec_choice	0.899835	32.000000	n/a	8	1.953125e-02	1.953125e-02
126.412025	0.899835	dec_nonsocial_accept	0.899835	32.000000	n/a	8	-1.764706e-01	-1.764706e-01
126.412025	0.899835	dec_accept	0.899835	32.000000	n/a	8	-1.666667e-01	-1.666667e-01
126.412025	0.899835	dec_nonsocial_high	0.899835	32.000000	n/a	8	1.953125e-02	1.953125e-02
126.412025	0.899835	dec_nonsocial_accept_high	0.899835	32.000000	n/a	8	-1.666667e-01	-1.666667e-01
137.278750	0.883011	dec_nonsocial_choice	0.883011	32.000000	n/a	0	0	-2.304688e-01
137.278750	0.883011	dec_choice	0.883011	32.000000	n/a	0	0	-2.304688e-01
137.278750	0.883011	dec_nonsocial_reject	0.883011	32.000000	n/a	0	0	-6.048387e-02
137.278750	0.883011	dec_reject	0.883011	32.000000	n/a	0	0	-5.625000e-02
137.278750	0.883011	dec_nonsocial_low	0.883011	32.000000	n/a	0	-2.304688e-01	-2.304688e-01
137.278750	0.883011	dec_nonsocial_reject_low	0.883011	32.000000	n/a	2	-5.625000e-02	-1.187500e-01
144.111790	0.949627	dec_social_choice	0.949627	32.000000	n/a	0	0	-2.304688e-01
144.111790	0.949627	dec_choice	0.949627	32.000000	n/a	0	0	-2.304688e-01
144.111790	0.949627	dec_social_reject	0.949627	32.000000	n/a	0	0	-6.048387e-02
144.111790	0.949627	dec_reject	0.949627	32.000000	n/a	0	0	-6.445312e-02
144.111790	0.949627	dec_social_reject_low	0.949627	32.000000	n/a	2	-1.679688e-01	-2.304688e-01
154.978420	0.865864	dec_social_choice	0.865864	32.000000	n/a	0	0	-2.304688e-01
154.978420	0.865864	dec_choice	0.865864	32.000000	n/a	0	0	-2.304688e-01
154.978420	0.865864	dec_social_reject	0.865864	32.000000	n/a	0	0	-6.048387e-02
154.978420	0.865864	dec_reject	0.865864	32.000000	n/a	0	0	-6.445312e-02
154.978420	0.865864	dec_social_low	0.865864	32.000000	n/a	0	-2.304688e-01	-2.304688e-01
154.978420	0.865864	dec_social_reject_low	0.865864	32.000000	n/a	2	-1.679688e-01	-2.304688e-01
161.812030	1.065508	dec_social_choice	1.065508	32.000000	n/a	16	2.695312e-01	2.695312e-01
161.812030	1.065508	dec_choice	1.065508	32.000000	n/a	16	2.695312e-01	2.695312e-01
161.812030	1.065508	dec_social_accept	1.065508	32.000000	n/a	16	7.352941e-02	7.352941e-02
161.812030	1.065508	dec_accept	1.065508	32.000000	n/a	16	6.250000e-02	6.250000e-02
161.812030	1.065508	dec_social_high	1.065508	32.000000	n/a	16	2.695312e-01	2.695312e-01
161.812030	1.065508	dec_social_accept_high	1.065508	32.000000	n/a	16	2.695312e-01	2.695312e-01
171.077500	0.750887	dec_social_choice	0.750887	16.000000	n/a	8	2.695312e-01	2.695312e-01
171.077500	0.750887	dec_choice	0.750887	16.000000	n/a	8	2.695312e-01	2.695312e-01
171.077500	0.750887	dec_social_accept	0.750887	16.000000	n/a	8	7.352941e-02	7.352941e-02
171.077500	0.750887	dec_accept	0.750887	16.000000	n/a	8	6.250000e-02	6.250000e-02
171.077500	0.750887	dec_social_high	0.750887	16.000000	n/a	8	2.695312e-01	2.695312e-01
171.077500	0.750887	dec_social_accept_high	0.750887	16.000000	n/a	8	2.695312e-01	2.695312e-01
177.911870	0.849560	dec_nonsocial_choice	0.849560	32.000000	n/a	0	0	-2.304688e-01
177.911870	0.849560	dec_choice	0.849560	32.000000	n/a	0	0	-2.304688e-01
177.911870	0.849560	dec_nonsocial_reject	0.849560	32.000000	n/a	0	0	-6.048387e-02
177.911870	0.849560	dec_reject	0.849560	32.000000	n/a	0	0	-5.625000e-02
177.911870	0.849560	dec_nonsocial_low	0.849560	32.000000	n/a	0	-2.304688e-01	-2.304688e-01
177.911870	0.849560	dec_nonsocial_reject_low	0.849560	32.000000	n/a	2	-5.625000e-02	-1.187500e-01
188.777820	0.983909	dec_nonsocial_choice	0.983909	32.000000	n/a	16	2.695312e-01	2.695312e-01
188.777820	0.983909	dec_choice	0.983909	32.000000	n/a	16	2.695312e-01	2.695312e-01
188.777820	0.983909	dec_nonsocial_accept	0.983909	32.000000	n/a	16	7.352941e-02	7.352941e-02
188.777820	0.983909	dec_accept	0.983909	32.000000	n/a	16	8.333333e-02	8.333333e-02
188.777820	0.983909	dec_nonsocial_accept_high	0.983909	32.000000	n/a	16	6.250000e-02	6.250000e-02
196.411800	0.865931	dec_social_choice	0.865931	16.000000	n/a	0	0	-2.304688e-01
196.411800	0.865931	dec_choice	0.865931	16.000000	n/a	0	0	-2.304688e-01
196.411800	0.865931	dec_social_reject	0.865931	16.000000	n/a	0	0	-6.048387e-02
196.411800	0.865931	dec_reject	0.865931	16.000000	n/a	0	0	-6.445312e-02
196.411800	0.865931	dec_social_reject_low	0.865931	16.000000	n/a	1	-1.679688e-01	-2.304688e-01
203.245030	0.716209	dec_nonsocial_choice	0.716209	16.000000	n/a	8	2.695312e-01	2.695312e-01
203.245030	0.716209	dec_choice	0.716209	16.000000	n/a	8	2.695312e-01	2.695312e-01
203.245030	0.716209	dec_nonsocial_accept	0.716209	16.000000	n/a	8	7.352941e-02	7.352941e-02
203.245030	0.716209	dec_accept	0.716209	16.000000	n/a	8	8.333333e-02	8.333333e-02
203.245030	0.716209	dec_nonsocial_accept_high	0.716209	16.000000	n/a	8	6.250000e-02	6.250000e-02
210.078410	0.767351	dec_social_choice	0.767351	32.000000	n/a	16	2.695312e-01	2.695312e-01
210.078410	0.767351	dec_choice	0.767351	32.000000	n/a	16	2.695312e-01	2.695312e-01
210.078410	0.767351	dec_social_accept	0.767351	32.000000	n/a	16	7.352941e-02	7.352941e-02
210.078410	0.767351	dec_accept	0.767351	32.000000	n/a	16	6.250000e-02	6.250000e-02
210.078410	0.767351	dec_social_accept_high	0.767351	32.000000	n/a	16	2.695312e-01	2.695312e-01
216.911330	0.816548	dec_nonsocial_choice	0.816548	16.000000	n/a	0	0	-2.304688e-01
216.911330	0.816548	dec_choice	0.816548	16.000000	n/a	0	0	-2.304688e-01
216.911330	0.816548	dec_nonsocial_reject	0.816548	16.000000	n/a	0	0	-6.048387e-02
216.911330	0.816548	dec_reject	0.816548	16.000000	n/a	0	0	-5.625000e-02
216.911330	0.816548	dec_nonsocial_reject_low	0.816548	16.000000	n/a	1	-6.445312e-02	-1.269531e-01
223.745710	1.349206	dec_nonsocial_choice	1.349206	16.000000	n/a	0	0	-2.304688e-01
223.745710	1.349206	dec_choice	1.349206	16.000000	n/a	0	0	-2.304688e-01
223.745710	1.349206	dec_nonsocial_reject	1.349206	16.000000	n/a	0	0	1.270161e-01
223.745710	1.349206	dec_reject	1.349206	16.000000	n/a	0	0	1.312500e-01
223.745710	1.349206	dec_nonsocial_reject_low	1.349206	16.000000	n/a	4	1.230469e-01	-1.269531e-01
233.011830	0.799900	dec_nonsocial_choice	0.799900	32.000000	n/a	16	2.695312e-01	2.695312e-01
233.011830	0.799900	dec_choice	0.799900	32.000000	n/a	16	2.695312e-01	2.695312e-01
233.011830	0.799900	dec_nonsocial_accept	0.799900	32.000000	n/a	16	7.352941e-02	7.352941e-02
233.011830	0.799900	dec_accept	0.799900	32.000000	n/a	16	8.333333e-02	8.333333e-02
233.011830	0.799900	dec_nonsocial_accept_high	0.799900	32.000000	n/a	16	6.250000e-02	6.250000e-02
239.844020	0.766993	dec_nonsocial_choice	0.766993	32.000000	n/a	16	2.695312e-01	2.695312e-01
239.844020	0.766993	dec_choice	0.766993	32.000000	n/a	16	2.695312e-01	2.695312e-01
239.844020	0.766993	dec_nonsocial_accept	0.766993	32.000000	n/a	16	7.352941e-02	7.352941e-02
239.844020	0.766993	dec_accept	0.766993	32.000000	n/a	16	8.333333e-02	8.333333e-02
239.844020	0.766993	dec_nonsocial_accept_high	0.766993	32.000000	n/a	16	6.250000e-02	6.250000e-02
247.494900	0.833282	dec_nonsocial_choice	0.833282	32.000000	n/a	0	0	-2.304688e-01
247.494900	0.833282	dec_choice	0.833282	32.000000	n/a	0	0	-2.304688e-01
247.494900	0.833282	dec_nonsocial_reject	0.833282	32.000000	n/a	0	0	-2.923387e-02
247.494900	0.833282	dec_reject	0.833282	32.000000	n/a	0	0	-2.500000e-02
247.494900	0.833282	dec_nonsocial_low	0.833282	32.000000	n/a	0	-2.304688e-01	-2.304688e-01
247.494900	0.833282	dec_nonsocial_reject_low	0.833282	32.000000	n/a	3	-2.500000e-02	-1.187500e-01
256.745800	0.865275	dec_nonsocial_choice	0.865275	32.000000	n/a	0	0	-2.304688e-01
256.745800	0.865275	dec_choice	0.865275	32.000000	n/a	0	0	-2.304688e-01
256.745800	0.865275	dec_nonsocial_reject	0.865275	32.000000	n/a	0	0	-6.048387e-02
256.745800	0.865275	dec_reject	0.865275	32.000000	n/a	0	0	-5.625000e-02
256.745800	0.865275	dec_nonsocial_low	0.865275	32.000000	n/a	0	-2.304688e-01	-2.304688e-01
256.745800	0.865275	dec_nonsocial_reject_low	0.865275	32.000000	n/a	2	-5.625000e-02	-1.187500e-01
263.578740	1.082836	dec_nonsocial_choice	1.082836	32.000000	n/a	0	0	-2.304688e-01
263.578740	1.082836	dec_choice	1.082836	32.000000	n/a	0	0	-2.304688e-01
263.578740	1.082836	dec_nonsocial_reject	1.082836	32.000000	n/a	0	0	-6.048387e-02
263.578740	1.082836	dec_reject	1.082836	32.000000	n/a	0	0	-5.625000e-02
263.578740	1.082836	dec_nonsocial_reject_low	1.082836	32.000000	n/a	2	-6.445312e-02	-1.269531e-01
270.411830	1.716082	dec_social_choice	1.716082	16.000000	n/a	0	0	-2.304688e-01
270.411830	1.716082	dec_choice	1.716082	16.000000	n/a	0	0	-2.304688e-01
270.411830	1.716082	dec_social_reject	1.716082	16.000000	n/a	0	0	1.270161e-01
270.411830	1.716082	dec_reject	1.716082	16.000000	n/a	0	0	1.230469e-01
270.411830	1.716082	dec_social_reject_low	1.716082	16.000000	n/a	4	1.953125e-02	-2.304688e-01
277.244720	0.866420	dec_nonsocial_choice	0.866420	32.000000	n/a	0	0	-2.304688e-01
277.244720	0.866420	dec_choice	0.866420	32.000000	n/a	0	0	-2.304688e-01
277.244720	0.866420	dec_nonsocial_reject	0.866420	32.000000	n/a	0	0	-2.923387e-02
277.244720	0.866420	dec_reject	0.866420	32.000000	n/a	0	0	-2.500000e-02
277.244720	0.866420	dec_nonsocial_low	0.866420	32.000000	n/a	0	-2.304688e-01	-2.304688e-01
277.244720	0.866420	dec_nonsocial_reject_low	0.866420	32.000000	n/a	3	-2.500000e-02	-1.187500e-01
284.077730	1.866624	dec_social_choice	1.866624	16.000000	n/a	0	0	-2.304688e-01
284.077730	1.866624	dec_choice	1.866624	16.000000	n/a	0	0	-2.304688e-01
284.077730	1.866624	dec_social_reject	1.866624	16.000000	n/a	0	0	1.270161e-01
284.077730	1.866624	dec_reject	1.866624	16.000000	n/a	0	0	1.230469e-01
284.077730	1.866624	dec_social_reject_low	1.866624	16.000000	n/a	4	1.953125e-02	-2.304688e-01
293.344570	0.933273	dec_social_choice	0.933273	32.000000	n/a	8	1.953125e-02	1.953125e-02
293.344570	0.933273	dec_choice	0.933273	32.000000	n/a	8	1.953125e-02	1.953125e-02
293.344570	0.933273	dec_social_accept	0.933273	32.000000	n/a	8	-1.764706e-01	-1.764706e-01
293.344570	0.933273	dec_accept	0.933273	32.000000	n/a	8	-1.875000e-01	-1.875000e-01
293.344570	0.933273	dec_social_high	0.933273	32.000000	n/a	8	1.953125e-02	1.953125e-02
293.344570	0.933273	dec_social_accept_high	0.933273	32.000000	n/a	8	1.953125e-02	1.953125e-02
300.994500	0.916516	dec_social_choice	0.916516	32.000000	n/a	0	0	-2.304688e-01
300.994500	0.916516	dec_choice	0.916516	32.000000	n/a	0	0	-2.304688e-01
300.994500	0.916516	dec_social_reject	0.916516	32.000000	n/a	0	0	-2.923387e-02
300.994500	0.916516	dec_reject	0.916516	32.000000	n/a	0	0	-3.320312e-02
300.994500	0.916516	dec_social_low	0.916516	32.000000	n/a	0	-2.304688e-01	-2.304688e-01
300.994500	0.916516	dec_social_reject_low	0.916516	32.000000	n/a	3	-1.367188e-01	-2.304688e-01
307.827000	1.083852	dec_social_choice	1.083852	16.000000	n/a	0	0	-2.304688e-01
307.827000	1.083852	dec_choice	1.083852	16.000000	n/a	0	0	-2.304688e-01
307.827000	1.083852	dec_social_reject	1.083852	16.000000	n/a	0	0	2.016129e-03
307.827000	1.083852	dec_reject	1.083852	16.000000	n/a	0	0	-1.953125e-03
307.827000	1.083852	dec_social_reject_low	1.083852	16.000000	n/a	2	-1.054688e-01	-2.304688e-01
314.661770	0.949436	dec_nonsocial_choice	0.949436	32.000000	n/a	8	1.953125e-02	1.953125e-02
314.661770	0.949436	dec_choice	0.949436	32.000000	n/a	8	1.953125e-02	1.953125e-02
314.661770	0.949436	dec_nonsocial_accept	0.949436	32.000000	n/a	8	-1.764706e-01	-1.764706e-01
314.661770	0.949436	dec_accept	0.949436	32.000000	n/a	8	-1.666667e-01	-1.666667e-01
314.661770	0.949436	dec_nonsocial_accept_high	0.949436	32.000000	n/a	8	-1.875000e-01	-1.875000e-01
327.144700	0.816252	dec_nonsocial_choice	0.816252	16.000000	n/a	0	0	-2.304688e-01
327.144700	0.816252	dec_choice	0.816252	16.000000	n/a	0	0	-2.304688e-01
327.144700	0.816252	dec_nonsocial_reject	0.816252	16.000000	n/a	0	0	1.270161e-01
327.144700	0.816252	dec_reject	0.816252	16.000000	n/a	0	0	1.312500e-01
327.144700	0.816252	dec_nonsocial_reject_low	0.816252	16.000000	n/a	4	1.230469e-01	-1.269531e-01
333.977750	0.916341	dec_social_choice	0.916341	16.000000	n/a	0	0	-2.304688e-01
333.977750	0.916341	dec_choice	0.916341	16.000000	n/a	0	0	-2.304688e-01
333.977750	0.916341	dec_social_reject	0.916341	16.000000	n/a	0	0	-6.048387e-02
333.977750	0.916341	dec_reject	0.916341	16.000000	n/a	0	0	-6.445312e-02
333.977750	0.916341	dec_social_low	0.916341	16.000000	n/a	0	-2.304688e-01	-2.304688e-01
333.977750	0.916341	dec_social_reject_low	0.916341	16.000000	n/a	1	-1.679688e-01	-2.304688e-01
341.627620	0.800581	dec_social_choice	0.800581	32.000000	n/a	16	2.695312e-01	2.695312e-01
341.627620	0.800581	dec_choice	0.800581	32.000000	n/a	16	2.695312e-01	2.695312e-01
341.627620	0.800581	dec_social_accept	0.800581	32.000000	n/a	16	7.352941e-02	7.352941e-02
341.627620	0.800581	dec_accept	0.800581	32.000000	n/a	16	6.250000e-02	6.250000e-02
341.627620	0.800581	dec_social_accept_high	0.800581	32.000000	n/a	16	2.695312e-01	2.695312e-01
348.461800	0.665550	dec_nonsocial_choice	0.665550	32.000000	n/a	16	2.695312e-01	2.695312e-01
348.461800	0.665550	dec_choice	0.665550	32.000000	n/a	16	2.695312e-01	2.695312e-01
348.461800	0.665550	dec_nonsocial_accept	0.665550	32.000000	n/a	16	7.352941e-02	7.352941e-02
348.461800	0.665550	dec_accept	0.665550	32.000000	n/a	16	8.333333e-02	8.333333e-02
348.461800	0.665550	dec_nonsocial_accept_high	0.665550	32.000000	n/a	16	6.250000e-02	6.250000e-02
356.110170	0.867548	dec_social_choice	0.867548	32.000000	n/a	0	0	-2.304688e-01
356.110170	0.867548	dec_choice	0.867548	32.000000	n/a	0	0	-2.304688e-01
356.110170	0.867548	dec_social_reject	0.867548	32.000000	n/a	0	0	-2.923387e-02
356.110170	0.867548	dec_reject	0.867548	32.000000	n/a	0	0	-3.320312e-02
356.110170	0.867548	dec_social_reject_low	0.867548	32.000000	n/a	3	-1.367188e-01	-2.304688e-01
362.943820	0.733952	dec_social_choice	0.733952	32.000000	n/a	0	0	-2.304688e-01
362.943820	0.733952	dec_choice	0.733952	32.000000	n/a	0	0	-2.304688e-01
362.943820	0.733952	dec_social_reject	0.733952	32.000000	n/a	0	0	-6.048387e-02
362.943820	0.733952	dec_reject	0.733952	32.000000	n/a	0	0	-6.445312e-02
362.943820	0.733952	dec_social_reject_low	0.733952	32.000000	n/a	2	-1.679688e-01	-2.304688e-01
370.594850	0.766251	dec_nonsocial_choice	0.766251	16.000000	n/a	0	0	-2.304688e-01
370.594850	0.766251	dec_choice	0.766251	16.000000	n/a	0	0	-2.304688e-01
370.594850	0.766251	dec_nonsocial_reject	0.766251	16.000000	n/a	0	0	2.016129e-03
370.594850	0.766251	dec_reject	0.766251	16.000000	n/a	0	0	6.250000e-03
370.594850	0.766251	dec_nonsocial_reject_low	0.766251	16.000000	n/a	2	-1.953125e-03	-1.269531e-01
