instrText,stimDoor,stimDoorLure,stimFace,stimFaceLure,Instructions.thisRepN,Instructions.thisTrialN,Instructions.thisN,Instructions.thisIndex,Trials.thisRepN,Trials.thisTrialN,Trials.thisN,Trials.thisIndex,Func,Keys,Text,RespTime,Onset,Offset,SystemTime_Start,SystemTime_Stop,Stim,Lure,Participant*,Age,date,expName,psychopyVersion,frameRate,
"In the earlier Feedback Games, you chose which doors contained a prize, and which peers liked you. 

You then saw positive or negative feedback (green check mark or red X) from the door or peer you selected.

You will now see a series of doors and peers, some of which you saw during the earlier Feedback Games, and some that you have never seen before.

Please press the spacebar to continue.",,,,,0,0,0,0,,,,,instrFunc,space,"In the earlier Feedback Games, you chose which doors contained a prize, and which peers liked you. 

You then saw positive or negative feedback (green check mark or red X) from the door or peer you selected.

You will now see a series of doors and peers, some of which you saw during the earlier Feedback Games, and some that you have never seen before.

Please press the spacebar to continue.",23.063504000077955,12.666631200001575,35.84077941009309,2024-04-18 13:50:56.840408,2024-04-18 13:51:20.005972,,,11030,18-29,2024_Apr_18_1350,Recall,2021.2.3,59.879558245658565,
"For doors/peers that you remember selecting and getting feedback from, your job is to RECALL what feedback you received. 

Press '1' if you recall positive feedback. 

Press '2' if you recall negative feedback

Press the spacebar to continue.",,,,,0,1,1,1,,,,,instrFunc,space,"For doors/peers that you remember selecting and getting feedback from, your job is to RECALL what feedback you received. 

Press '1' if you recall positive feedback. 

Press '2' if you recall negative feedback

Press the spacebar to continue.",12.275503500015475,35.782635100069456,48.11659216997214,2024-04-18 13:51:20.006948,2024-04-18 13:51:32.330560,,,11030,18-29,2024_Apr_18_1350,Recall,2021.2.3,59.879558245658565,
"For doors/peers that you don't remember getting feedback from, your job is to PREDICT what feedback you WOULD HAVE received.

Press '9' if you predict positive feedback.

Press '0' if you predict negative feedback. 

Please press the spacebar to continue.",,,,,0,2,2,2,,,,,instrFunc,space,"For doors/peers that you don't remember getting feedback from, your job is to PREDICT what feedback you WOULD HAVE received.

Press '9' if you predict positive feedback.

Press '0' if you predict negative feedback. 

Please press the spacebar to continue.",10.780038100085221,48.102525700000115,58.93730767001398,2024-04-18 13:51:32.331537,2024-04-18 13:51:43.155336,,,11030,18-29,2024_Apr_18_1350,Recall,2021.2.3,59.879558245658565,
"This task is self-paced, and the prompts will always stay on the screen so that you know which buttons to press.

On the next screen we will show you what those prompts look like, so that you know exactly what to expect. 

You will start with either doors or peers, and then switch halfway through. 

Please press the spacebar to continue.",,,,,0,3,3,3,,,,,instrFunc,space,"This task is self-paced, and the prompts will always stay on the screen so that you know which buttons to press.

On the next screen we will show you what those prompts look like, so that you know exactly what to expect. 

You will start with either doors or peers, and then switch halfway through. 

Please press the spacebar to continue.",17.868009999976493,58.92612290009856,76.84951877000276,2024-04-18 13:51:43.156129,2024-04-18 13:52:01.068688,,,11030,18-29,2024_Apr_18_1350,Recall,2021.2.3,59.879558245658565,
,,,,,,,,,,,,,imgtextFunc,space,"Here is what the screen will look like while you make your ratings.
The green circles remind you to press 1 or 9 for positive feedback.
The red circles remind you to press 2 or 0 for negative feedback.









Please let the experimenter know if you have any questions.

Whenever you're ready, press the spacebar to start the task.",26.557501500006765,76.97268670005724,103.70192066999152,2024-04-18 13:52:01.078664,2024-04-18 13:52:27.805288,,,11030,18-29,2024_Apr_18_1350,Recall,2021.2.3,59.879558245658565,
,SD001.jpg,0,MF001.jpg,0,,,,,0,0,0,50,imgFunc,0,NA,6.014396399958059,103.70776340004522,109.83746308018453,2024-04-18 13:52:27.864110,2024-04-18 13:52:33.993119,SD001.jpg,0,11030,18-29,2024_Apr_18_1350,Recall,2021.2.3,59.879558245658565,
,L_DD507.jpg,1,L_FF507.jpg,1,,,,,0,1,1,46,imgFunc,9,NA,3.952797400066629,109.8177048000507,113.86212916998193,2024-04-18 13:52:34.002102,2024-04-18 13:52:38.045441,L_DD507.jpg,1,11030,18-29,2024_Apr_18_1350,Recall,2021.2.3,59.879558245658565,
,DD014.jpg,0,FF014.jpg,0,,,,,0,2,2,13,imgFunc,9,NA,1.8488359999610111,113.86556000006385,115.7962127700448,2024-04-18 13:52:38.053234,2024-04-18 13:52:39.980489,DD014.jpg,0,11030,18-29,2024_Apr_18_1350,Recall,2021.2.3,59.879558245658565,
,SD007.jpg,0,MF007.jpg,0,,,,,0,3,3,56,imgFunc,9,NA,2.090126800001599,115.80033750005532,117.98080896993633,2024-04-18 13:52:39.988264,2024-04-18 13:52:42.164955,SD007.jpg,0,11030,18-29,2024_Apr_18_1350,Recall,2021.2.3,59.879558245658565,
,SD003.jpg,0,MF003.jpg,0,,,,,0,4,4,52,imgFunc,1,NA,3.500015199999325,117.99036420008633,121.58833077014424,2024-04-18 13:52:42.172734,2024-04-18 13:52:45.767704,SD003.jpg,0,11030,18-29,2024_Apr_18_1350,Recall,2021.2.3,59.879558245658565,
,DD012.jpg,0,FF012.jpg,0,,,,,0,5,5,11,imgFunc,9,NA,3.80904099997133,121.5931019000709,125.4915718700504,2024-04-18 13:52:45.775477,2024-04-18 13:52:49.670507,DD012.jpg,0,11030,18-29,2024_Apr_18_1350,Recall,2021.2.3,59.879558245658565,
,DD034.jpg,0,FF034.jpg,0,,,,,0,6,6,33,imgFunc,1,NA,2.3273356000427157,125.49084179999772,127.90527166996617,2024-04-18 13:52:49.678493,2024-04-18 13:52:52.089587,DD034.jpg,0,11030,18-29,2024_Apr_18_1350,Recall,2021.2.3,59.879558245658565,
,DD003.jpg,0,FF003.jpg,0,,,,,0,7,7,2,imgFunc,0,NA,3.060268000001088,127.90983500005677,131.05611246998888,2024-04-18 13:52:52.097575,2024-04-18 13:52:55.241206,DD003.jpg,0,11030,18-29,2024_Apr_18_1350,Recall,2021.2.3,59.879558245658565,
,L_SD507.jpg,1,L_MF507.jpg,1,,,,,0,8,8,96,imgFunc,0,NA,1.0405750999925658,131.0575172000099,132.1867694699904,2024-04-18 13:52:55.249182,2024-04-18 13:52:56.375182,L_SD507.jpg,1,11030,18-29,2024_Apr_18_1350,Recall,2021.2.3,59.879558245658565,
,SD014.jpg,0,MF014.jpg,0,,,,,0,9,9,63,imgFunc,0,NA,3.585898300050758,132.19233490002807,135.85697166982573,2024-04-18 13:52:56.382174,2024-04-18 13:53:00.044424,SD014.jpg,0,11030,18-29,2024_Apr_18_1350,Recall,2021.2.3,59.879558245658565,
,DD009.jpg,0,FF009.jpg,0,,,,,0,10,10,8,imgFunc,1,NA,2.4347118000732735,135.86339600000065,138.3779855699977,2024-04-18 13:53:00.052372,2024-04-18 13:53:02.563718,DD009.jpg,0,11030,18-29,2024_Apr_18_1350,Recall,2021.2.3,59.879558245658565,
,SD018.jpg,0,MF018.jpg,0,,,,,0,11,11,67,imgFunc,2,NA,4.989523900090717,138.38082459999714,143.46187526988797,2024-04-18 13:53:02.571676,2024-04-18 13:53:07.650435,SD018.jpg,0,11030,18-29,2024_Apr_18_1350,Recall,2021.2.3,59.879558245658565,
,DD035.jpg,0,FF035.jpg,0,,,,,0,12,12,34,imgFunc,1,NA,1.2304559000767767,143.47566180001013,144.802530869958,2024-04-18 13:53:07.659413,2024-04-18 13:53:08.984231,DD035.jpg,0,11030,18-29,2024_Apr_18_1350,Recall,2021.2.3,59.879558245658565,
,SD027.jpg,0,MF027.jpg,0,,,,,0,13,13,76,imgFunc,2,NA,2.2998371000867337,144.80666170001496,147.20480946998578,2024-04-18 13:53:08.992005,2024-04-18 13:53:11.387013,SD027.jpg,0,11030,18-29,2024_Apr_18_1350,Recall,2021.2.3,59.879558245658565,
,SD008.jpg,0,MF008.jpg,0,,,,,0,14,14,57,imgFunc,0,NA,2.4965880000963807,147.2019328000024,149.78146666986868,2024-04-18 13:53:11.394790,2024-04-18 13:53:13.971328,SD008.jpg,0,11030,18-29,2024_Apr_18_1350,Recall,2021.2.3,59.879558245658565,
,SD015.jpg,0,MF015.jpg,0,,,,,0,15,15,64,imgFunc,1,NA,2.115070499945432,149.79139550006948,151.98895307001658,2024-04-18 13:53:13.979109,2024-04-18 13:53:16.173202,SD015.jpg,0,11030,18-29,2024_Apr_18_1350,Recall,2021.2.3,59.879558245658565,
,SD030.jpg,0,MF030.jpg,0,,,,,0,16,16,79,imgFunc,0,NA,2.3278630999848247,152.00221120007336,154.43302527011838,2024-04-18 13:53:16.180975,2024-04-18 13:53:18.608697,SD030.jpg,0,11030,18-29,2024_Apr_18_1350,Recall,2021.2.3,59.879558245658565,
,DD016.jpg,0,FF016.jpg,0,,,,,0,17,17,15,imgFunc,1,NA,1.5284945000894368,154.43361440009903,156.0623932700837,2024-04-18 13:53:18.615649,2024-04-18 13:53:20.242340,DD016.jpg,0,11030,18-29,2024_Apr_18_1350,Recall,2021.2.3,59.879558245658565,
,DD040.jpg,0,FF040.jpg,0,,,,,0,18,18,39,imgFunc,1,NA,1.692334400024265,156.0617541000247,157.843136869953,2024-04-18 13:53:20.249300,2024-04-18 13:53:22.027393,DD040.jpg,0,11030,18-29,2024_Apr_18_1350,Recall,2021.2.3,59.879558245658565,
,SD032.jpg,0,MF032.jpg,0,,,,,0,19,19,81,imgFunc,1,NA,1.0058062000898644,157.8442844999954,158.93990607000887,2024-04-18 13:53:22.035344,2024-04-18 13:53:23.128455,SD032.jpg,0,11030,18-29,2024_Apr_18_1350,Recall,2021.2.3,59.879558245658565,
,SD011.jpg,0,MF011.jpg,0,,,,,0,20,20,60,imgFunc,1,NA,0.9608291999902576,158.94529300008435,159.99051016999874,2024-04-18 13:53:23.135442,2024-04-18 13:53:24.178667,SD011.jpg,0,11030,18-29,2024_Apr_18_1350,Recall,2021.2.3,59.879558245658565,
,SD037.jpg,0,MF037.jpg,0,,,,,0,21,21,86,imgFunc,2,NA,5.123642300022766,159.99847830005456,165.21482047007885,2024-04-18 13:53:24.185647,2024-04-18 13:53:29.399219,SD037.jpg,0,11030,18-29,2024_Apr_18_1350,Recall,2021.2.3,59.879558245658565,
,SD033.jpg,0,MF033.jpg,0,,,,,0,22,22,82,imgFunc,1,NA,1.7253435999155045,165.22070300008636,167.03065937000792,2024-04-18 13:53:29.408168,2024-04-18 13:53:31.217373,SD033.jpg,0,11030,18-29,2024_Apr_18_1350,Recall,2021.2.3,59.879558245658565,
,SD040.jpg,0,MF040.jpg,0,,,,,0,23,23,89,imgFunc,2,NA,1.1572194000473246,167.03698430000804,168.2813786698971,2024-04-18 13:53:31.225330,2024-04-18 13:53:32.468051,SD040.jpg,0,11030,18-29,2024_Apr_18_1350,Recall,2021.2.3,59.879558245658565,
,L_SD509.jpg,1,L_MF509.jpg,1,,,,,0,24,24,98,imgFunc,1,NA,1.1848095000023022,168.2891867000144,169.56841746985447,2024-04-18 13:53:32.476030,2024-04-18 13:53:33.752631,L_SD509.jpg,1,11030,18-29,2024_Apr_18_1350,Recall,2021.2.3,59.879558245658565,
,DD037.jpg,0,FF037.jpg,0,,,,,0,25,25,36,imgFunc,2,NA,2.7449807999655604,169.57738330005668,172.40786546992604,2024-04-18 13:53:33.760580,2024-04-18 13:53:36.588674,DD037.jpg,0,11030,18-29,2024_Apr_18_1350,Recall,2021.2.3,59.879558245658565,
,L_SD502.jpg,1,L_MF502.jpg,1,,,,,0,26,26,91,imgFunc,0,NA,5.344678199966438,172.40968430007342,177.83988606999628,2024-04-18 13:53:36.596442,2024-04-18 13:53:42.025002,L_SD502.jpg,1,11030,18-29,2024_Apr_18_1350,Recall,2021.2.3,59.879558245658565,
,SD035.jpg,0,MF035.jpg,0,,,,,0,27,27,84,imgFunc,0,NA,1.6928624999709427,177.86163380008657,179.65514276991598,2024-04-18 13:53:42.034776,2024-04-18 13:53:43.827080,SD035.jpg,0,11030,18-29,2024_Apr_18_1350,Recall,2021.2.3,59.879558245658565,
,SD021.jpg,0,MF021.jpg,0,,,,,0,28,28,70,imgFunc,1,NA,2.662478700047359,179.65995120001025,182.42265626997687,2024-04-18 13:53:43.834927,2024-04-18 13:53:46.595136,SD021.jpg,0,11030,18-29,2024_Apr_18_1350,Recall,2021.2.3,59.879558245658565,
,SD023.jpg,0,MF023.jpg,0,,,,,0,29,29,72,imgFunc,1,NA,1.3298571000341326,182.4242175000254,183.85401747003198,2024-04-18 13:53:46.602915,2024-04-18 13:53:48.028897,SD023.jpg,0,11030,18-29,2024_Apr_18_1350,Recall,2021.2.3,59.879558245658565,
,DD019.jpg,0,FF019.jpg,0,,,,,0,30,30,18,imgFunc,1,NA,0.8467894999776036,183.8592097000219,184.80417837004643,2024-04-18 13:53:48.037851,2024-04-18 13:53:48.980370,DD019.jpg,0,11030,18-29,2024_Apr_18_1350,Recall,2021.2.3,59.879558245658565,
,L_DD501.jpg,1,L_FF501.jpg,1,,,,,0,31,31,40,imgFunc,1,NA,0.7663619000231847,184.8037908000406,185.66541637002956,2024-04-18 13:53:48.987323,2024-04-18 13:53:49.847034,L_DD501.jpg,1,11030,18-29,2024_Apr_18_1350,Recall,2021.2.3,59.879558245658565,
,DD022.jpg,0,FF022.jpg,0,,,,,0,32,32,21,imgFunc,2,NA,1.1012792000547051,185.66888160002418,186.86488276987802,2024-04-18 13:53:49.855013,2024-04-18 13:53:51.047837,DD022.jpg,0,11030,18-29,2024_Apr_18_1350,Recall,2021.2.3,59.879558245658565,
,DD007.jpg,0,FF007.jpg,0,,,,,0,33,33,6,imgFunc,0,NA,1.9320803999435157,186.87007060006727,188.90105247008614,2024-04-18 13:53:51.054818,2024-04-18 13:53:53.083093,DD007.jpg,0,11030,18-29,2024_Apr_18_1350,Recall,2021.2.3,59.879558245658565,
,L_DD510.jpg,1,L_FF510.jpg,1,,,,,0,34,34,49,imgFunc,1,NA,2.9560591999907047,188.902099500061,191.94786147016566,2024-04-18 13:53:53.091072,2024-04-18 13:53:56.134968,L_DD510.jpg,1,11030,18-29,2024_Apr_18_1350,Recall,2021.2.3,59.879558245658565,
,DD013.jpg,0,FF013.jpg,0,,,,,0,35,35,12,imgFunc,1,NA,0.7657561999512836,191.95623470004648,192.8192199699115,2024-04-18 13:53:56.142947,2024-04-18 13:53:57.002618,DD013.jpg,0,11030,18-29,2024_Apr_18_1350,Recall,2021.2.3,59.879558245658565,
,SD034.jpg,0,MF034.jpg,0,,,,,0,36,36,83,imgFunc,1,NA,1.189186399918981,192.8209653000813,194.0980909699574,2024-04-18 13:53:57.010598,2024-04-18 13:53:58.286236,SD034.jpg,0,11030,18-29,2024_Apr_18_1350,Recall,2021.2.3,59.879558245658565,
,SD012.jpg,0,MF012.jpg,0,,,,,0,37,37,61,imgFunc,1,NA,0.6985018999548629,194.11150340002496,194.9073059699731,2024-04-18 13:53:58.294179,2024-04-18 13:53:59.087067,SD012.jpg,0,11030,18-29,2024_Apr_18_1350,Recall,2021.2.3,59.879558245658565,
,DD011.jpg,0,FF011.jpg,0,,,,,0,38,38,10,imgFunc,1,NA,0.7917924999492243,194.9063349000644,195.7870059700217,2024-04-18 13:53:59.094049,2024-04-18 13:53:59.971712,DD011.jpg,0,11030,18-29,2024_Apr_18_1350,Recall,2021.2.3,59.879558245658565,
,DD002.jpg,0,FF002.jpg,0,,,,,0,39,39,1,imgFunc,1,NA,1.1929792000446469,195.80116220004857,197.09552167006768,2024-04-18 13:53:59.979691,2024-04-18 13:54:01.271888,DD002.jpg,0,11030,18-29,2024_Apr_18_1350,Recall,2021.2.3,59.879558245658565,
,DD004.jpg,0,FF004.jpg,0,,,,,0,40,40,3,imgFunc,1,NA,1.096127999946475,197.09012290008832,198.27058767003473,2024-04-18 13:54:01.279866,2024-04-18 13:54:02.456733,DD004.jpg,0,11030,18-29,2024_Apr_18_1350,Recall,2021.2.3,59.879558245658565,
,L_DD504.jpg,1,L_FF504.jpg,1,,,,,0,41,41,43,imgFunc,9,NA,1.6419084999943152,198.28020050004125,200.00847136997618,2024-04-18 13:54:02.464713,2024-04-18 13:54:04.191203,L_DD504.jpg,1,11030,18-29,2024_Apr_18_1350,Recall,2021.2.3,59.879558245658565,
,DD039.jpg,0,FF039.jpg,0,,,,,0,42,42,38,imgFunc,9,NA,1.4533068999880925,200.01275039999746,201.55936466995627,2024-04-18 13:54:04.198163,2024-04-18 13:54:05.742074,DD039.jpg,0,11030,18-29,2024_Apr_18_1350,Recall,2021.2.3,59.879558245658565,
,SD002.jpg,0,MF002.jpg,0,,,,,0,43,43,51,imgFunc,9,NA,1.1948481000727043,201.5595963000087,202.83927446999587,2024-04-18 13:54:05.749034,2024-04-18 13:54:07.026300,SD002.jpg,0,11030,18-29,2024_Apr_18_1350,Recall,2021.2.3,59.879558245658565,
,DD031.jpg,0,FF031.jpg,0,,,,,0,44,44,30,imgFunc,2,NA,1.224858400062658,202.84928530000616,204.1628814699361,2024-04-18 13:54:07.034078,2024-04-18 13:54:08.344276,DD031.jpg,0,11030,18-29,2024_Apr_18_1350,Recall,2021.2.3,59.879558245658565,
,SD019.jpg,0,MF019.jpg,0,,,,,0,45,45,68,imgFunc,2,NA,3.554731599986553,204.16748090006877,207.8162689700257,2024-04-18 13:54:08.351257,2024-04-18 13:54:11.997484,SD019.jpg,0,11030,18-29,2024_Apr_18_1350,Recall,2021.2.3,59.879558245658565,
,SD028.jpg,0,MF028.jpg,0,,,,,0,46,46,77,imgFunc,2,NA,1.3080115000484511,207.8144125000108,209.21087786986027,2024-04-18 13:54:12.004338,2024-04-18 13:54:13.397669,SD028.jpg,0,11030,18-29,2024_Apr_18_1350,Recall,2021.2.3,59.879558245658565,
,L_DD505.jpg,1,L_FF505.jpg,1,,,,,0,47,47,44,imgFunc,1,NA,0.9385280999122187,209.2158872000873,210.24606457003392,2024-04-18 13:54:13.404445,2024-04-18 13:54:14.431652,L_DD505.jpg,1,11030,18-29,2024_Apr_18_1350,Recall,2021.2.3,59.879558245658565,
,DD032.jpg,0,FF032.jpg,0,,,,,0,48,48,31,imgFunc,0,NA,2.3542667999863625,210.24815850006416,212.69608237000648,2024-04-18 13:54:14.438434,2024-04-18 13:54:16.883403,DD032.jpg,0,11030,18-29,2024_Apr_18_1350,Recall,2021.2.3,59.879558245658565,
,DD001.jpg,0,FF001.jpg,0,,,,,0,49,49,0,imgFunc,2,NA,1.6472431999864057,212.69888690009248,214.4293644700665,2024-04-18 13:54:16.891265,2024-04-18 13:54:18.618148,DD001.jpg,0,11030,18-29,2024_Apr_18_1350,Recall,2021.2.3,59.879558245658565,
,L_SD508.jpg,1,L_MF508.jpg,1,,,,,0,50,50,97,imgFunc,9,NA,1.920788900111802,214.43327850010246,216.4305338700069,2024-04-18 13:54:18.625107,2024-04-18 13:54:20.619819,L_SD508.jpg,1,11030,18-29,2024_Apr_18_1350,Recall,2021.2.3,59.879558245658565,
,SD039.jpg,0,MF039.jpg,0,,,,,0,51,51,88,imgFunc,1,NA,1.0311988999601454,216.43530230002943,217.54770787002053,2024-04-18 13:54:20.626778,2024-04-18 13:54:21.736823,SD039.jpg,0,11030,18-29,2024_Apr_18_1350,Recall,2021.2.3,59.879558245658565,
,SD005.jpg,0,MF005.jpg,0,,,,,0,52,52,54,imgFunc,0,NA,2.4181687999516726,217.55205400008708,220.0504638699349,2024-04-18 13:54:21.743804,2024-04-18 13:54:24.239162,SD005.jpg,0,11030,18-29,2024_Apr_18_1350,Recall,2021.2.3,59.879558245658565,
,SD013.jpg,0,MF013.jpg,0,,,,,0,53,53,62,imgFunc,2,NA,2.195703799952753,220.06237060006242,222.3424323699437,2024-04-18 13:54:24.246144,2024-04-18 13:54:26.524053,SD013.jpg,0,11030,18-29,2024_Apr_18_1350,Recall,2021.2.3,59.879558245658565,
,DD033.jpg,0,FF033.jpg,0,,,,,0,54,54,32,imgFunc,1,NA,1.2159699999028817,222.3461021000985,223.65879907005,2024-04-18 13:54:26.531035,2024-04-18 13:54:27.841575,DD033.jpg,0,11030,18-29,2024_Apr_18_1350,Recall,2021.2.3,59.879558245658565,
,L_SD510.jpg,1,L_MF510.jpg,1,,,,,0,55,55,99,imgFunc,9,NA,2.4383317000465468,223.65973700000905,226.19040756998584,2024-04-18 13:54:27.848556,2024-04-18 13:54:30.376796,L_SD510.jpg,1,11030,18-29,2024_Apr_18_1350,Recall,2021.2.3,59.879558245658565,
,SD010.jpg,0,MF010.jpg,0,,,,,0,56,56,59,imgFunc,1,NA,1.2645568000152707,226.19361020007636,227.53953367006034,2024-04-18 13:54:30.383778,2024-04-18 13:54:31.727339,SD010.jpg,0,11030,18-29,2024_Apr_18_1350,Recall,2021.2.3,59.879558245658565,
,DD030.jpg,0,FF030.jpg,0,,,,,0,57,57,29,imgFunc,2,NA,2.2428271000972018,227.54321360005997,229.87397156993393,2024-04-18 13:54:31.734319,2024-04-18 13:54:34.062122,DD030.jpg,0,11030,18-29,2024_Apr_18_1350,Recall,2021.2.3,59.879558245658565,
,DD036.jpg,0,FF036.jpg,0,,,,,0,58,58,35,imgFunc,1,NA,0.8002762999385595,229.88179610006046,230.77841947006527,2024-04-18 13:54:34.069103,2024-04-18 13:54:34.962726,DD036.jpg,0,11030,18-29,2024_Apr_18_1350,Recall,2021.2.3,59.879558245658565,
,DD018.jpg,0,FF018.jpg,0,,,,,0,59,59,17,imgFunc,9,NA,1.382728400058113,230.77936950000003,232.2440379699692,2024-04-18 13:54:34.969707,2024-04-18 13:54:36.431400,DD018.jpg,0,11030,18-29,2024_Apr_18_1350,Recall,2021.2.3,59.879558245658565,
,SD017.jpg,0,MF017.jpg,0,,,,,0,60,60,66,imgFunc,1,NA,3.3787108999677002,232.24739140004385,235.71219496999402,2024-04-18 13:54:36.438377,2024-04-18 13:54:39.900663,SD017.jpg,0,11030,18-29,2024_Apr_18_1350,Recall,2021.2.3,59.879558245658565,
,SD038.jpg,0,MF038.jpg,0,,,,,0,61,61,87,imgFunc,1,NA,0.9185020000441,235.715568200103,236.71118707000278,2024-04-18 13:54:39.907672,2024-04-18 13:54:40.901094,SD038.jpg,0,11030,18-29,2024_Apr_18_1350,Recall,2021.2.3,59.879558245658565,
,L_DD503.jpg,1,L_FF503.jpg,1,,,,,0,62,62,42,imgFunc,9,NA,1.5864925000350922,236.727772800019,238.40753226995002,2024-04-18 13:54:40.908071,2024-04-18 13:54:42.585260,L_DD503.jpg,1,11030,18-29,2024_Apr_18_1350,Recall,2021.2.3,59.879558245658565,
,DD026.jpg,0,FF026.jpg,0,,,,,0,63,63,25,imgFunc,0,NA,1.2853797998977825,238.40476510010194,239.7855141700711,2024-04-18 13:54:42.592209,2024-04-18 13:54:43.970210,DD026.jpg,0,11030,18-29,2024_Apr_18_1350,Recall,2021.2.3,59.879558245658565,
,SD004.jpg,0,MF004.jpg,0,,,,,0,64,64,53,imgFunc,2,NA,2.4454161999747157,239.78892940003425,242.3193408700172,2024-04-18 13:54:43.977187,2024-04-18 13:54:46.505728,SD004.jpg,0,11030,18-29,2024_Apr_18_1350,Recall,2021.2.3,59.879558245658565,
,L_DD502.jpg,1,L_FF502.jpg,1,,,,,0,65,65,41,imgFunc,9,NA,3.410867500002496,242.31918039999437,245.81579996994697,2024-04-18 13:54:46.512714,2024-04-18 13:54:50.007200,L_DD502.jpg,1,11030,18-29,2024_Apr_18_1350,Recall,2021.2.3,59.879558245658565,
,L_DD506.jpg,1,L_FF506.jpg,1,,,,,0,66,66,45,imgFunc,1,NA,1.5713946000905707,245.83073829999194,247.49244536983315,2024-04-18 13:54:50.015148,2024-04-18 13:54:51.674729,L_DD506.jpg,1,11030,18-29,2024_Apr_18_1350,Recall,2021.2.3,59.879558245658565,
,DD025.jpg,0,FF025.jpg,0,,,,,0,67,67,24,imgFunc,2,NA,2.399659699993208,247.49054340005387,249.97174826986156,2024-04-18 13:54:51.682708,2024-04-18 13:54:54.160320,DD025.jpg,0,11030,18-29,2024_Apr_18_1350,Recall,2021.2.3,59.879558245658565,
,DD028.jpg,0,FF028.jpg,0,,,,,0,68,68,27,imgFunc,1,NA,1.417000100016594,249.985126900021,251.4956762699876,2024-04-18 13:54:54.169296,2024-04-18 13:54:55.678279,DD028.jpg,0,11030,18-29,2024_Apr_18_1350,Recall,2021.2.3,59.879558245658565,
,L_SD505.jpg,1,L_MF505.jpg,1,,,,,0,69,69,94,imgFunc,2,NA,1.6749459999846295,251.50314370007254,253.26475847000256,2024-04-18 13:54:55.686258,2024-04-18 13:54:57.445769,L_SD505.jpg,1,11030,18-29,2024_Apr_18_1350,Recall,2021.2.3,59.879558245658565,
,DD027.jpg,0,FF027.jpg,0,,,,,0,70,70,26,imgFunc,1,NA,0.645440399996005,253.26052230002824,253.99083327001426,2024-04-18 13:54:57.453719,2024-04-18 13:54:58.180810,DD027.jpg,0,11030,18-29,2024_Apr_18_1350,Recall,2021.2.3,59.879558245658565,
,SD022.jpg,0,MF022.jpg,0,,,,,0,71,71,71,imgFunc,0,NA,2.4465474999742582,254.0035050000297,256.54757866996806,2024-04-18 13:54:58.188765,2024-04-18 13:55:00.732014,SD022.jpg,0,11030,18-29,2024_Apr_18_1350,Recall,2021.2.3,59.879558245658565,
,L_SD503.jpg,1,L_MF503.jpg,1,,,,,0,72,72,92,imgFunc,0,NA,4.599571699975058,256.54651400004514,261.22839236992877,2024-04-18 13:55:00.738973,2024-04-18 13:55:05.418777,L_SD503.jpg,1,11030,18-29,2024_Apr_18_1350,Recall,2021.2.3,59.879558245658565,
,L_SD504.jpg,1,L_MF504.jpg,1,,,,,0,73,73,93,imgFunc,0,NA,1.3497735999990255,261.2446299000876,262.6886992700165,2024-04-18 13:55:05.426731,2024-04-18 13:55:06.869424,L_SD504.jpg,1,11030,18-29,2024_Apr_18_1350,Recall,2021.2.3,59.879558245658565,
,L_SD506.jpg,1,L_MF506.jpg,1,,,,,0,74,74,95,imgFunc,1,NA,1.126638500019908,262.69162040005904,263.9053036700934,2024-04-18 13:55:06.877202,2024-04-18 13:55:08.086995,L_SD506.jpg,1,11030,18-29,2024_Apr_18_1350,Recall,2021.2.3,59.879558245658565,
,DD021.jpg,0,FF021.jpg,0,,,,,0,75,75,20,imgFunc,9,NA,2.2224091000389308,263.9079009999987,266.2232107699383,2024-04-18 13:55:08.093975,2024-04-18 13:55:10.405516,DD021.jpg,0,11030,18-29,2024_Apr_18_1350,Recall,2021.2.3,59.879558245658565,
,DD008.jpg,0,FF008.jpg,0,,,,,0,76,76,7,imgFunc,1,NA,2.8627603000495583,266.2196499001002,269.1687372701708,2024-04-18 13:55:10.412285,2024-04-18 13:55:13.357754,DD008.jpg,0,11030,18-29,2024_Apr_18_1350,Recall,2021.2.3,59.879558245658565,
,SD009.jpg,0,MF009.jpg,0,,,,,0,77,77,58,imgFunc,1,NA,1.767660400015302,269.1786989000393,271.04265207005665,2024-04-18 13:55:13.364523,2024-04-18 13:55:15.225491,SD009.jpg,0,11030,18-29,2024_Apr_18_1350,Recall,2021.2.3,59.879558245658565,
,DD024.jpg,0,FF024.jpg,0,,,,,0,78,78,23,imgFunc,2,NA,3.2519152000313625,271.03832140006125,274.37073646998033,2024-04-18 13:55:15.233266,2024-04-18 13:55:18.561958,DD024.jpg,0,11030,18-29,2024_Apr_18_1350,Recall,2021.2.3,59.879558245658565,
,SD006.jpg,0,MF006.jpg,0,,,,,0,79,79,55,imgFunc,9,NA,1.99949109996669,274.3786436000373,276.4572086700937,2024-04-18 13:55:18.569915,2024-04-18 13:55:20.646415,SD006.jpg,0,11030,18-29,2024_Apr_18_1350,Recall,2021.2.3,59.879558245658565,
,SD029.jpg,0,MF029.jpg,0,,,,,0,80,80,78,imgFunc,2,NA,1.9430780000984669,276.4589627000969,278.48857157002203,2024-04-18 13:55:20.653368,2024-04-18 13:55:22.680535,SD029.jpg,0,11030,18-29,2024_Apr_18_1350,Recall,2021.2.3,59.879558245658565,
,SD020.jpg,0,MF020.jpg,0,,,,,0,81,81,69,imgFunc,1,NA,1.2148273000493646,278.5072153999936,279.82158666988835,2024-04-18 13:55:22.687492,2024-04-18 13:55:23.999033,SD020.jpg,0,11030,18-29,2024_Apr_18_1350,Recall,2021.2.3,59.879558245658565,
,SD026.jpg,0,MF026.jpg,0,,,,,0,82,82,75,imgFunc,1,NA,1.7475990999955684,279.81453319999855,281.64371056994423,2024-04-18 13:55:24.005981,2024-04-18 13:55:25.833137,SD026.jpg,0,11030,18-29,2024_Apr_18_1350,Recall,2021.2.3,59.879558245658565,
,DD017.jpg,0,FF017.jpg,0,,,,,0,83,83,16,imgFunc,1,NA,1.0861065000062808,281.65193560009357,282.83196626999415,2024-04-18 13:55:25.840097,2024-04-18 13:55:27.017426,DD017.jpg,0,11030,18-29,2024_Apr_18_1350,Recall,2021.2.3,59.879558245658565,
,SD016.jpg,0,MF016.jpg,0,,,,,0,84,84,65,imgFunc,9,NA,3.081428000004962,282.83265980007127,285.9961515699979,2024-04-18 13:55:27.025405,2024-04-18 13:55:30.185988,SD016.jpg,0,11030,18-29,2024_Apr_18_1350,Recall,2021.2.3,59.879558245658565,
,DD038.jpg,0,FF038.jpg,0,,,,,0,85,85,37,imgFunc,1,NA,6.961746199987829,286.00046950008254,293.0528073699679,2024-04-18 13:55:30.192969,2024-04-18 13:55:37.242560,DD038.jpg,0,11030,18-29,2024_Apr_18_1350,Recall,2021.2.3,59.879558245658565,
,SD024.jpg,0,MF024.jpg,0,,,,,0,86,86,73,imgFunc,9,NA,1.36556509998627,293.0688624000177,294.52700527000707,2024-04-18 13:55:37.251338,2024-04-18 13:55:38.709060,SD024.jpg,0,11030,18-29,2024_Apr_18_1350,Recall,2021.2.3,59.879558245658565,
,DD020.jpg,0,FF020.jpg,0,,,,,0,87,87,19,imgFunc,9,NA,1.7383301999652758,294.5360087000299,296.3668668700848,2024-04-18 13:55:38.716832,2024-04-18 13:55:40.543895,DD020.jpg,0,11030,18-29,2024_Apr_18_1350,Recall,2021.2.3,59.879558245658565,
,SD025.jpg,0,MF025.jpg,0,,,,,0,88,88,74,imgFunc,9,NA,1.2958575999364257,296.3624598000897,297.7438666699454,2024-04-18 13:55:40.550685,2024-04-18 13:55:41.928891,SD025.jpg,0,11030,18-29,2024_Apr_18_1350,Recall,2021.2.3,59.879558245658565,
,DD010.jpg,0,FF010.jpg,0,,,,,0,89,89,9,imgFunc,0,NA,1.3618655001046136,297.752521000104,299.2131574701052,2024-04-18 13:55:41.936689,2024-04-18 13:55:43.395792,DD010.jpg,0,11030,18-29,2024_Apr_18_1350,Recall,2021.2.3,59.879558245658565,
,DD029.jpg,0,FF029.jpg,0,,,,,0,90,90,28,imgFunc,1,NA,0.9235850999830291,299.21487050002906,300.22920716996305,2024-04-18 13:55:43.403565,2024-04-18 13:55:44.413384,DD029.jpg,0,11030,18-29,2024_Apr_18_1350,Recall,2021.2.3,59.879558245658565,
,L_DD509.jpg,1,L_FF509.jpg,1,,,,,0,91,91,48,imgFunc,1,NA,1.3955438000848517,300.23853470000904,301.7354694700334,2024-04-18 13:55:44.420152,2024-04-18 13:55:45.914323,L_DD509.jpg,1,11030,18-29,2024_Apr_18_1350,Recall,2021.2.3,59.879558245658565,
,DD023.jpg,0,FF023.jpg,0,,,,,0,92,92,22,imgFunc,9,NA,1.225244399975054,301.72878560004756,303.0416858700337,2024-04-18 13:55:45.922102,2024-04-18 13:55:47.231588,DD023.jpg,0,11030,18-29,2024_Apr_18_1350,Recall,2021.2.3,59.879558245658565,
,L_SD501.jpg,1,L_MF501.jpg,1,,,,,0,93,93,90,imgFunc,9,NA,1.0594217999605462,303.0466108000837,304.19373756996356,2024-04-18 13:55:47.238569,2024-04-18 13:55:48.382523,L_SD501.jpg,1,11030,18-29,2024_Apr_18_1350,Recall,2021.2.3,59.879558245658565,
,SD031.jpg,0,MF031.jpg,0,,,,,0,94,94,80,imgFunc,0,NA,1.6314922999590635,304.1945381000405,305.90835807006806,2024-04-18 13:55:48.390502,2024-04-18 13:55:50.100975,SD031.jpg,0,11030,18-29,2024_Apr_18_1350,Recall,2021.2.3,59.879558245658565,
,SD036.jpg,0,MF036.jpg,0,,,,,0,95,95,85,imgFunc,1,NA,1.8608965000603348,305.91714070003945,307.863194470061,2024-04-18 13:55:50.107929,2024-04-18 13:55:52.051651,SD036.jpg,0,11030,18-29,2024_Apr_18_1350,Recall,2021.2.3,59.879558245658565,
,DD006.jpg,0,FF006.jpg,0,,,,,0,96,96,5,imgFunc,1,NA,0.759445899981074,307.8665715000825,308.71311647002585,2024-04-18 13:55:52.058632,2024-04-18 13:55:52.902383,DD006.jpg,0,11030,18-29,2024_Apr_18_1350,Recall,2021.2.3,59.879558245658565,
,L_DD508.jpg,1,L_FF508.jpg,1,,,,,0,97,97,47,imgFunc,1,NA,0.9167305000592023,308.7173601000104,309.7146445699036,2024-04-18 13:55:52.909365,2024-04-18 13:55:53.903741,L_DD508.jpg,1,11030,18-29,2024_Apr_18_1350,Recall,2021.2.3,59.879558245658565,
,DD015.jpg,0,FF015.jpg,0,,,,,0,98,98,14,imgFunc,9,NA,1.820303799933754,309.717734200065,311.63054117001593,2024-04-18 13:55:53.911696,2024-04-18 13:55:55.821632,DD015.jpg,0,11030,18-29,2024_Apr_18_1350,Recall,2021.2.3,59.879558245658565,
,DD005.jpg,0,FF005.jpg,0,,,,,0,99,99,4,imgFunc,2,NA,2.2194320999551564,311.6385436001001,313.9524443700211,2024-04-18 13:55:55.828620,2024-04-18 13:55:58.139983,DD005.jpg,0,11030,18-29,2024_Apr_18_1350,Recall,2021.2.3,59.879558245658565,
,,,,,,,,,,,,,instrFunc,space,"Great work! 

 Now you will switch to the other image type.

 Press the spacebar whenever you are ready to start.",3.0206475999439135,313.8933753001038,316.95440117002,2024-04-18 13:55:58.140989,2024-04-18 13:56:01.191173,,,11030,18-29,2024_Apr_18_1350,Recall,2021.2.3,59.879558245658565,
,DD009.jpg,0,FF009.jpg,0,,,,,0,0,0,8,imgFunc,1,NA,2.120899499976076,317.049170400016,319.27577470999677,2024-04-18 13:56:01.225083,2024-04-18 13:56:03.443198,FF009.jpg,0,11030,18-29,2024_Apr_18_1350,Recall,2021.2.3,59.879558245658565,
,DD024.jpg,0,FF024.jpg,0,,,,,0,1,1,23,imgFunc,2,NA,2.6166824999963865,319.2655735000735,321.98072667000815,2024-04-18 13:56:03.450158,2024-04-18 13:56:06.162265,FF024.jpg,0,11030,18-29,2024_Apr_18_1350,Recall,2021.2.3,59.879558245658565,
,SD030.jpg,0,MF030.jpg,0,,,,,0,2,2,79,imgFunc,1,NA,1.49008140002843,321.98414429998957,323.5646899698768,2024-04-18 13:56:06.170096,2024-04-18 13:56:07.746791,MF030.jpg,0,11030,18-29,2024_Apr_18_1350,Recall,2021.2.3,59.879558245658565,
,DD032.jpg,0,FF032.jpg,0,,,,,0,3,3,31,imgFunc,1,NA,0.856566600035876,323.5777720999904,324.53835097001866,2024-04-18 13:56:07.755563,2024-04-18 13:56:08.714037,FF032.jpg,0,11030,18-29,2024_Apr_18_1350,Recall,2021.2.3,59.879558245658565,
,SD028.jpg,0,MF028.jpg,0,,,,,0,4,4,77,imgFunc,1,NA,1.2829856000607833,324.5434355000034,325.92502957000397,2024-04-18 13:56:08.721808,2024-04-18 13:56:10.098811,MF028.jpg,0,11030,18-29,2024_Apr_18_1350,Recall,2021.2.3,59.879558245658565,
,SD021.jpg,0,MF021.jpg,0,,,,,0,5,5,70,imgFunc,1,NA,0.7652154000243172,325.9251741000917,326.78768457006663,2024-04-18 13:56:10.106579,2024-04-18 13:56:10.965784,MF021.jpg,0,11030,18-29,2024_Apr_18_1350,Recall,2021.2.3,59.879558245658565,
,L_SD505.jpg,1,L_MF505.jpg,1,,,,,0,6,6,94,imgFunc,1,NA,0.5759489999618381,326.7862872000551,327.45044117001817,2024-04-18 13:56:10.972556,2024-04-18 13:56:11.632992,L_MF505.jpg,1,11030,18-29,2024_Apr_18_1350,Recall,2021.2.3,59.879558245658565,
,DD001.jpg,0,FF001.jpg,0,,,,,0,7,7,0,imgFunc,2,NA,2.091015600017272,327.4554174999939,329.6367557699559,2024-04-18 13:56:11.639764,2024-04-18 13:56:13.818000,FF001.jpg,0,11030,18-29,2024_Apr_18_1350,Recall,2021.2.3,59.879558245658565,
,L_SD509.jpg,1,L_MF509.jpg,1,,,,,0,8,8,98,imgFunc,9,NA,4.581606000079773,329.63644960010424,334.3013013700256,2024-04-18 13:56:13.825773,2024-04-18 13:56:18.487664,L_MF509.jpg,1,11030,18-29,2024_Apr_18_1350,Recall,2021.2.3,59.879558245658565,
,SD023.jpg,0,MF023.jpg,0,,,,,0,9,9,72,imgFunc,9,NA,1.6312957999762148,334.3147854000563,336.0425034700893,2024-04-18 13:56:18.496643,2024-04-18 13:56:20.222041,MF023.jpg,0,11030,18-29,2024_Apr_18_1350,Recall,2021.2.3,59.879558245658565,
,DD019.jpg,0,FF019.jpg,0,,,,,0,10,10,18,imgFunc,1,NA,1.5049159999471158,336.04108800005633,337.6387653698912,2024-04-18 13:56:20.229032,2024-04-18 13:56:21.823771,FF019.jpg,0,11030,18-29,2024_Apr_18_1350,Recall,2021.2.3,59.879558245658565,
,DD013.jpg,0,FF013.jpg,0,,,,,0,11,11,12,imgFunc,2,NA,0.9342617999063805,337.64375450008083,338.67330057010986,2024-04-18 13:56:21.830723,2024-04-18 13:56:22.858013,FF013.jpg,0,11030,18-29,2024_Apr_18_1350,Recall,2021.2.3,59.879558245658565,
,L_SD510.jpg,1,L_MF510.jpg,1,,,,,0,12,12,99,imgFunc,9,NA,1.5981076000025496,338.6758749000728,340.3553783700336,2024-04-18 13:56:22.864969,2024-04-18 13:56:24.542523,L_MF510.jpg,1,11030,18-29,2024_Apr_18_1350,Recall,2021.2.3,59.879558245658565,
,SD026.jpg,0,MF026.jpg,0,,,,,0,13,13,75,imgFunc,1,NA,1.6206332000438124,340.3653893000446,342.07849827001337,2024-04-18 13:56:24.549483,2024-04-18 13:56:26.260396,MF026.jpg,0,11030,18-29,2024_Apr_18_1350,Recall,2021.2.3,59.879558245658565,
,SD010.jpg,0,MF010.jpg,0,,,,,0,14,14,59,imgFunc,9,NA,2.1858935999916866,342.0801293000113,344.36049416987225,2024-04-18 13:56:26.267378,2024-04-18 13:56:28.545334,MF010.jpg,0,11030,18-29,2024_Apr_18_1350,Recall,2021.2.3,59.879558245658565,
,SD006.jpg,0,MF006.jpg,0,,,,,0,15,15,55,imgFunc,9,NA,0.8441215999191627,344.3659294000827,345.2950024701422,2024-04-18 13:56:28.552321,2024-04-18 13:56:29.478825,MF006.jpg,0,11030,18-29,2024_Apr_18_1350,Recall,2021.2.3,59.879558245658565,
,DD031.jpg,0,FF031.jpg,0,,,,,0,16,16,30,imgFunc,1,NA,2.5458026999840513,345.2966157000046,347.9277885699412,2024-04-18 13:56:29.485807,2024-04-18 13:56:32.114229,FF031.jpg,0,11030,18-29,2024_Apr_18_1350,Recall,2021.2.3,59.879558245658565,
,L_DD510.jpg,1,L_FF510.jpg,1,,,,,0,17,17,49,imgFunc,1,NA,0.918241799925454,347.93184050009586,348.94509127002675,2024-04-18 13:56:32.121211,2024-04-18 13:56:33.131522,L_FF510.jpg,1,11030,18-29,2024_Apr_18_1350,Recall,2021.2.3,59.879558245658565,
,DD035.jpg,0,FF035.jpg,0,,,,,0,18,18,34,imgFunc,1,NA,1.638019899954088,348.9479960000608,350.6782399700023,2024-04-18 13:56:33.138504,2024-04-18 13:56:34.865924,FF035.jpg,0,11030,18-29,2024_Apr_18_1350,Recall,2021.2.3,59.879558245658565,
,DD037.jpg,0,FF037.jpg,0,,,,,0,19,19,36,imgFunc,9,NA,2.023104100022465,350.68380790005904,352.79820357006975,2024-04-18 13:56:34.872884,2024-04-18 13:56:36.984228,FF037.jpg,0,11030,18-29,2024_Apr_18_1350,Recall,2021.2.3,59.879558245658565,
,DD016.jpg,0,FF016.jpg,0,,,,,0,20,20,15,imgFunc,1,NA,4.164325900026597,352.8056984000141,357.0555882700719,2024-04-18 13:56:36.992017,2024-04-18 13:56:41.238034,FF016.jpg,0,11030,18-29,2024_Apr_18_1350,Recall,2021.2.3,59.879558245658565,
,SD019.jpg,0,MF019.jpg,0,,,,,0,21,21,68,imgFunc,1,NA,1.0772067999932915,357.06087690009736,358.2225013698917,2024-04-18 13:56:41.245958,2024-04-18 13:56:42.405619,MF019.jpg,0,11030,18-29,2024_Apr_18_1350,Recall,2021.2.3,59.879558245658565,
,SD039.jpg,0,MF039.jpg,0,,,,,0,22,22,88,imgFunc,1,NA,2.008664899971336,358.23346830008086,360.3447255700594,2024-04-18 13:56:42.413598,2024-04-18 13:56:44.522910,MF039.jpg,0,11030,18-29,2024_Apr_18_1350,Recall,2021.2.3,59.879558245658565,
,DD021.jpg,0,FF021.jpg,0,,,,,0,23,23,20,imgFunc,1,NA,1.081335399998352,360.3528349000262,361.5328454700066,2024-04-18 13:56:44.530917,2024-04-18 13:56:45.708221,FF021.jpg,0,11030,18-29,2024_Apr_18_1350,Recall,2021.2.3,59.879558245658565,
,SD025.jpg,0,MF025.jpg,0,,,,,0,24,24,74,imgFunc,1,NA,0.7146088000154123,361.5355258000782,362.347350570024,2024-04-18 13:56:45.715067,2024-04-18 13:56:46.524705,MF025.jpg,0,11030,18-29,2024_Apr_18_1350,Recall,2021.2.3,59.879558245658565,
,DD008.jpg,0,FF008.jpg,0,,,,,0,25,25,7,imgFunc,2,NA,2.174835199955851,362.35526920005213,364.6341528700432,2024-04-18 13:56:46.532655,2024-04-18 13:56:48.809126,FF008.jpg,0,11030,18-29,2024_Apr_18_1350,Recall,2021.2.3,59.879558245658565,
,SD031.jpg,0,MF031.jpg,0,,,,,0,26,26,80,imgFunc,1,NA,0.8613937000045553,364.6286219001049,365.57486067013815,2024-04-18 13:56:48.817113,2024-04-18 13:56:49.760591,MF031.jpg,0,11030,18-29,2024_Apr_18_1350,Recall,2021.2.3,59.879558245658565,
,DD018.jpg,0,FF018.jpg,0,,,,,0,27,27,17,imgFunc,1,NA,0.8627538000000641,365.57933910004795,366.52538617001846,2024-04-18 13:56:49.767579,2024-04-18 13:56:50.711061,FF018.jpg,0,11030,18-29,2024_Apr_18_1350,Recall,2021.2.3,59.879558245658565,
,DD030.jpg,0,FF030.jpg,0,,,,,0,28,28,29,imgFunc,9,NA,2.618258800008334,366.52772680006456,369.2423104699701,2024-04-18 13:56:50.718048,2024-04-18 13:56:53.429970,FF030.jpg,0,11030,18-29,2024_Apr_18_1350,Recall,2021.2.3,59.879558245658565,
,L_SD508.jpg,1,L_MF508.jpg,1,,,,,0,29,29,97,imgFunc,1,NA,2.00280430004932,369.2472092000535,371.3436993700452,2024-04-18 13:56:53.436958,2024-04-18 13:56:55.531374,L_MF508.jpg,1,11030,18-29,2024_Apr_18_1350,Recall,2021.2.3,59.879558245658565,
,SD017.jpg,0,MF017.jpg,0,,,,,0,30,30,66,imgFunc,9,NA,1.6840911000035703,371.3499255999923,373.1293847699417,2024-04-18 13:56:55.538362,2024-04-18 13:56:57.315671,MF017.jpg,0,11030,18-29,2024_Apr_18_1350,Recall,2021.2.3,59.879558245658565,
,DD038.jpg,0,FF038.jpg,0,,,,,0,31,31,37,imgFunc,9,NA,3.4209858999820426,373.1330448000226,376.64863826998044,2024-04-18 13:56:57.322659,2024-04-18 13:57:00.835257,FF038.jpg,0,11030,18-29,2024_Apr_18_1350,Recall,2021.2.3,59.879558245658565,
,L_DD508.jpg,1,L_FF508.jpg,1,,,,,0,32,32,47,imgFunc,1,NA,2.9084607999539003,376.65357050008606,379.6506505700527,2024-04-18 13:57:00.842238,2024-04-18 13:57:03.837291,L_FF508.jpg,1,11030,18-29,2024_Apr_18_1350,Recall,2021.2.3,59.879558245658565,
,SD001.jpg,0,MF001.jpg,0,,,,,0,33,33,50,imgFunc,1,NA,1.0755246999906376,379.65449860005174,380.81775936996564,2024-04-18 13:57:03.844272,2024-04-18 13:57:05.005175,MF001.jpg,0,11030,18-29,2024_Apr_18_1350,Recall,2021.2.3,59.879558245658565,
,SD040.jpg,0,MF040.jpg,0,,,,,0,34,34,89,imgFunc,1,NA,0.5636416999623179,380.82272580009885,381.4684414699441,2024-04-18 13:57:05.012162,2024-04-18 13:57:05.656017,MF040.jpg,0,11030,18-29,2024_Apr_18_1350,Recall,2021.2.3,59.879558245658565,
,SD027.jpg,0,MF027.jpg,0,,,,,0,35,35,76,imgFunc,9,NA,1.0737379000056535,381.47252020007,382.63403726997785,2024-04-18 13:57:05.663825,2024-04-18 13:57:06.822712,MF027.jpg,0,11030,18-29,2024_Apr_18_1350,Recall,2021.2.3,59.879558245658565,
,SD035.jpg,0,MF035.jpg,0,,,,,0,36,36,84,imgFunc,1,NA,1.1028552999487147,382.64353560004383,383.8407302700216,2024-04-18 13:57:06.829489,2024-04-18 13:57:08.023607,MF035.jpg,0,11030,18-29,2024_Apr_18_1350,Recall,2021.2.3,59.879558245658565,
,SD036.jpg,0,MF036.jpg,0,,,,,0,37,37,85,imgFunc,1,NA,0.8578307999996468,383.840459600091,384.7878176700324,2024-04-18 13:57:08.031385,2024-04-18 13:57:08.974962,MF036.jpg,0,11030,18-29,2024_Apr_18_1350,Recall,2021.2.3,59.879558245658565,
,DD015.jpg,0,FF015.jpg,0,,,,,0,38,38,14,imgFunc,1,NA,1.4606247999472544,384.7975562000647,386.35875216987915,2024-04-18 13:57:08.982886,2024-04-18 13:57:10.541911,FF015.jpg,0,11030,18-29,2024_Apr_18_1350,Recall,2021.2.3,59.879558245658565,
,SD038.jpg,0,MF038.jpg,0,,,,,0,39,39,87,imgFunc,1,NA,1.3025615999940783,386.3636445000302,387.76049136999063,2024-04-18 13:57:10.549688,2024-04-18 13:57:11.942670,MF038.jpg,0,11030,18-29,2024_Apr_18_1350,Recall,2021.2.3,59.879558245658565,
,SD016.jpg,0,MF016.jpg,0,,,,,0,40,40,65,imgFunc,9,NA,1.3835618000011891,387.76260790007655,389.2433655699715,2024-04-18 13:57:11.949507,2024-04-18 13:57:13.427308,MF016.jpg,0,11030,18-29,2024_Apr_18_1350,Recall,2021.2.3,59.879558245658565,
,DD002.jpg,0,FF002.jpg,0,,,,,0,41,41,1,imgFunc,9,NA,1.469710500095971,389.25259930000175,390.8164529700298,2024-04-18 13:57:13.435086,2024-04-18 13:57:14.995389,FF002.jpg,0,11030,18-29,2024_Apr_18_1350,Recall,2021.2.3,59.879558245658565,
,L_SD502.jpg,1,L_MF502.jpg,1,,,,,0,42,42,91,imgFunc,1,NA,1.3895105000119656,390.8128237000201,392.29329186992254,2024-04-18 13:57:15.003169,2024-04-18 13:57:16.480204,L_MF502.jpg,1,11030,18-29,2024_Apr_18_1350,Recall,2021.2.3,59.879558245658565,
,L_DD503.jpg,1,L_FF503.jpg,1,,,,,0,43,43,42,imgFunc,9,NA,1.8497960000531748,392.29623320000246,394.22601186996326,2024-04-18 13:57:16.486982,2024-04-18 13:57:18.413885,L_FF503.jpg,1,11030,18-29,2024_Apr_18_1350,Recall,2021.2.3,59.879558245658565,
,DD034.jpg,0,FF034.jpg,0,,,,,0,44,44,33,imgFunc,1,NA,2.2459192000096664,394.23619710002095,396.57439696998335,2024-04-18 13:57:18.426828,2024-04-18 13:57:20.766619,FF034.jpg,0,11030,18-29,2024_Apr_18_1350,Recall,2021.2.3,59.879558245658565,
,DD023.jpg,0,FF023.jpg,0,,,,,0,45,45,22,imgFunc,9,NA,1.5782757999841124,396.5837893000571,398.2462063699495,2024-04-18 13:57:20.773579,2024-04-18 13:57:22.433939,FF023.jpg,0,11030,18-29,2024_Apr_18_1350,Recall,2021.2.3,59.879558245658565,
,SD033.jpg,0,MF033.jpg,0,,,,,0,46,46,82,imgFunc,1,NA,1.2831132999854162,398.2548674000427,399.63461756997276,2024-04-18 13:57:22.440920,2024-04-18 13:57:23.818273,MF033.jpg,0,11030,18-29,2024_Apr_18_1350,Recall,2021.2.3,59.879558245658565,
,DD029.jpg,0,FF029.jpg,0,,,,,0,47,47,28,imgFunc,2,NA,1.9173601999646053,399.6366253000451,401.64915156993084,2024-04-18 13:57:23.826252,2024-04-18 13:57:25.835879,FF029.jpg,0,11030,18-29,2024_Apr_18_1350,Recall,2021.2.3,59.879558245658565,
,DD003.jpg,0,FF003.jpg,0,,,,,0,48,48,2,imgFunc,2,NA,1.0054156000260264,401.6525880000554,402.7499566699844,2024-04-18 13:57:25.842861,2024-04-18 13:57:26.937408,FF003.jpg,0,11030,18-29,2024_Apr_18_1350,Recall,2021.2.3,59.879558245658565,
,L_DD502.jpg,1,L_FF502.jpg,1,,,,,0,49,49,41,imgFunc,1,NA,2.0295101000228897,402.7566949999891,404.870726969908,2024-04-18 13:57:26.944396,2024-04-18 13:57:29.055767,L_FF502.jpg,1,11030,18-29,2024_Apr_18_1350,Recall,2021.2.3,59.879558245658565,
,SD032.jpg,0,MF032.jpg,0,,,,,0,50,50,81,imgFunc,1,NA,0.9771934999153018,404.8729912000708,405.93533006997313,2024-04-18 13:57:29.062756,2024-04-18 13:57:30.122931,MF032.jpg,0,11030,18-29,2024_Apr_18_1350,Recall,2021.2.3,59.879558245658565,
,DD040.jpg,0,FF040.jpg,0,,,,,0,51,51,39,imgFunc,9,NA,2.3579094000160694,405.940128599992,408.3874408699339,2024-04-18 13:57:30.129912,2024-04-18 13:57:32.574957,FF040.jpg,0,11030,18-29,2024_Apr_18_1350,Recall,2021.2.3,59.879558245658565,
,SD034.jpg,0,MF034.jpg,0,,,,,0,52,52,83,imgFunc,9,NA,1.6338929999619722,408.3921013000654,410.1211818699958,2024-04-18 13:57:32.582908,2024-04-18 13:57:34.309311,MF034.jpg,0,11030,18-29,2024_Apr_18_1350,Recall,2021.2.3,59.879558245658565,
,DD033.jpg,0,FF033.jpg,0,,,,,0,53,53,32,imgFunc,1,NA,2.0853614999214187,410.1249188000802,412.3045116700232,2024-04-18 13:57:34.316293,2024-04-18 13:57:36.493739,FF033.jpg,0,11030,18-29,2024_Apr_18_1350,Recall,2021.2.3,59.879558245658565,
,SD002.jpg,0,MF002.jpg,0,,,,,0,54,54,51,imgFunc,9,NA,1.4809242999181151,412.3132459000917,413.8947390699759,2024-04-18 13:57:36.501519,2024-04-18 13:57:38.078546,MF002.jpg,0,11030,18-29,2024_Apr_18_1350,Recall,2021.2.3,59.879558245658565,
,DD006.jpg,0,FF006.jpg,0,,,,,0,55,55,5,imgFunc,9,NA,2.585625799954869,413.8966272000689,416.57711237005424,2024-04-18 13:57:38.086313,2024-04-18 13:57:40.763630,FF006.jpg,0,11030,18-29,2024_Apr_18_1350,Recall,2021.2.3,59.879558245658565,
,L_SD501.jpg,1,L_MF501.jpg,1,,,,,0,56,56,90,imgFunc,1,NA,1.8019575000507757,416.5843000001041,418.4814833700657,2024-04-18 13:57:40.771465,2024-04-18 13:57:42.665057,L_MF501.jpg,1,11030,18-29,2024_Apr_18_1350,Recall,2021.2.3,59.879558245658565,
,DD017.jpg,0,FF017.jpg,0,,,,,0,57,57,16,imgFunc,1,NA,1.1111614999826998,418.48315420001745,419.6799579698127,2024-04-18 13:57:42.672835,2024-04-18 13:57:43.866188,FF017.jpg,0,11030,18-29,2024_Apr_18_1350,Recall,2021.2.3,59.879558245658565,
,DD014.jpg,0,FF014.jpg,0,,,,,0,58,58,13,imgFunc,9,NA,1.8808491999516264,419.68950990005396,421.67038646992296,2024-04-18 13:57:43.872965,2024-04-18 13:57:45.850690,FF014.jpg,0,11030,18-29,2024_Apr_18_1350,Recall,2021.2.3,59.879558245658565,
,SD007.jpg,0,MF007.jpg,0,,,,,0,59,59,56,imgFunc,9,NA,1.7328602999914438,421.6691406000173,423.49983486998826,2024-04-18 13:57:45.858463,2024-04-18 13:57:47.685316,MF007.jpg,0,11030,18-29,2024_Apr_18_1350,Recall,2021.2.3,59.879558245658565,
,DD007.jpg,0,FF007.jpg,0,,,,,0,60,60,6,imgFunc,9,NA,2.467639800044708,423.50235120009165,426.0660117700463,2024-04-18 13:57:47.692297,2024-04-18 13:57:50.253449,FF007.jpg,0,11030,18-29,2024_Apr_18_1350,Recall,2021.2.3,59.879558245658565,
,SD029.jpg,0,MF029.jpg,0,,,,,0,61,61,78,imgFunc,1,NA,1.627965599996969,426.0700682000024,427.78498386999127,2024-04-18 13:57:50.260431,2024-04-18 13:57:51.972430,MF029.jpg,0,11030,18-29,2024_Apr_18_1350,Recall,2021.2.3,59.879558245658565,
,SD014.jpg,0,MF014.jpg,0,,,,,0,62,62,63,imgFunc,2,NA,1.8128923000767827,427.7892015000107,429.68493076995946,2024-04-18 13:57:51.979416,2024-04-18 13:57:53.873367,MF014.jpg,0,11030,18-29,2024_Apr_18_1350,Recall,2021.2.3,59.879558245658565,
,L_SD506.jpg,1,L_MF506.jpg,1,,,,,0,63,63,95,imgFunc,1,NA,1.0808219999307767,429.6892818000633,430.8526164700743,2024-04-18 13:57:53.880354,2024-04-18 13:57:55.041256,L_MF506.jpg,1,11030,18-29,2024_Apr_18_1350,Recall,2021.2.3,59.879558245658565,
,SD012.jpg,0,MF012.jpg,0,,,,,0,64,64,61,imgFunc,1,NA,1.243836999987252,430.8621129000094,432.1893783699488,2024-04-18 13:57:55.049214,2024-04-18 13:57:56.374796,MF012.jpg,0,11030,18-29,2024_Apr_18_1350,Recall,2021.2.3,59.879558245658565,
,DD005.jpg,0,FF005.jpg,0,,,,,0,65,65,4,imgFunc,2,NA,1.2824997000861913,432.19147389999125,433.5556585699087,2024-04-18 13:57:56.381777,2024-04-18 13:57:57.743175,FF005.jpg,0,11030,18-29,2024_Apr_18_1350,Recall,2021.2.3,59.879558245658565,
,SD011.jpg,0,MF011.jpg,0,,,,,0,66,66,60,imgFunc,2,NA,1.4248737000161782,433.56114000000525,435.0730506700929,2024-04-18 13:57:57.750162,2024-04-18 13:57:59.260135,MF011.jpg,0,11030,18-29,2024_Apr_18_1350,Recall,2021.2.3,59.879558245658565,
,DD036.jpg,0,FF036.jpg,0,,,,,0,67,67,35,imgFunc,0,NA,4.0591618999606,435.07881930004805,439.22747967008036,2024-04-18 13:57:59.267122,2024-04-18 13:58:03.413091,FF036.jpg,0,11030,18-29,2024_Apr_18_1350,Recall,2021.2.3,59.879558245658565,
,DD028.jpg,0,FF028.jpg,0,,,,,0,68,68,27,imgFunc,9,NA,2.1945286999689415,439.231784600066,441.5122349699959,2024-04-18 13:58:03.421070,2024-04-18 13:58:05.698461,FF028.jpg,0,11030,18-29,2024_Apr_18_1350,Recall,2021.2.3,59.879558245658565,
,SD015.jpg,0,MF015.jpg,0,,,,,0,69,69,64,imgFunc,1,NA,1.2077251999871805,441.5146530000493,442.8123614700744,2024-04-18 13:58:05.706232,2024-04-18 13:58:06.999392,MF015.jpg,0,11030,18-29,2024_Apr_18_1350,Recall,2021.2.3,59.879558245658565,
,L_SD503.jpg,1,L_MF503.jpg,1,,,,,0,70,70,92,imgFunc,1,NA,1.3007766000228003,442.8215718000429,444.21822576993145,2024-04-18 13:58:07.007158,2024-04-18 13:58:08.400241,L_MF503.jpg,1,11030,18-29,2024_Apr_18_1350,Recall,2021.2.3,59.879558245658565,
,DD020.jpg,0,FF020.jpg,0,,,,,0,71,71,19,imgFunc,9,NA,1.1280504999449477,444.21828160004225,445.427607969963,2024-04-18 13:58:08.410014,2024-04-18 13:58:09.618139,FF020.jpg,0,11030,18-29,2024_Apr_18_1350,Recall,2021.2.3,59.879558245658565,
,DD011.jpg,0,FF011.jpg,0,,,,,0,72,72,10,imgFunc,9,NA,0.7819650999736041,445.4362812000327,446.3161165700294,2024-04-18 13:58:09.624921,2024-04-18 13:58:10.501760,FF011.jpg,0,11030,18-29,2024_Apr_18_1350,Recall,2021.2.3,59.879558245658565,
,DD012.jpg,0,FF012.jpg,0,,,,,0,73,73,11,imgFunc,9,NA,0.864559100009501,446.32180390006397,447.2861105700722,2024-04-18 13:58:10.509534,2024-04-18 13:58:11.469487,FF012.jpg,0,11030,18-29,2024_Apr_18_1350,Recall,2021.2.3,59.879558245658565,
,DD022.jpg,0,FF022.jpg,0,,,,,0,74,74,21,imgFunc,2,NA,1.9485121000325307,447.28579540003557,449.31652657000814,2024-04-18 13:58:11.476252,2024-04-18 13:58:13.504283,FF022.jpg,0,11030,18-29,2024_Apr_18_1350,Recall,2021.2.3,59.879558245658565,
,SD022.jpg,0,MF022.jpg,0,,,,,0,75,75,71,imgFunc,1,NA,1.144043599953875,449.3223725000862,450.55273927003145,2024-04-18 13:58:13.511061,2024-04-18 13:58:14.738399,MF022.jpg,0,11030,18-29,2024_Apr_18_1350,Recall,2021.2.3,59.879558245658565,
,L_SD507.jpg,1,L_MF507.jpg,1,,,,,0,76,76,96,imgFunc,1,NA,0.6921301999827847,450.55814580002334,451.33840387000237,2024-04-18 13:58:14.745193,2024-04-18 13:58:15.522354,L_MF507.jpg,1,11030,18-29,2024_Apr_18_1350,Recall,2021.2.3,59.879558245658565,
,L_SD504.jpg,1,L_MF504.jpg,1,,,,,0,77,77,93,imgFunc,1,NA,1.187659699935466,451.3426885000663,452.6237525700126,2024-04-18 13:58:15.529136,2024-04-18 13:58:16.806447,L_MF504.jpg,1,11030,18-29,2024_Apr_18_1350,Recall,2021.2.3,59.879558245658565,
,L_DD504.jpg,1,L_FF504.jpg,1,,,,,0,78,78,43,imgFunc,9,NA,2.1550310999155045,452.6229326000903,454.8704641701188,2024-04-18 13:58:16.813219,2024-04-18 13:58:19.057799,L_FF504.jpg,1,11030,18-29,2024_Apr_18_1350,Recall,2021.2.3,59.879558245658565,
,SD037.jpg,0,MF037.jpg,0,,,,,0,79,79,86,imgFunc,1,NA,2.199778699898161,454.87420230009593,457.1547908700304,2024-04-18 13:58:19.064780,2024-04-18 13:58:21.342736,MF037.jpg,0,11030,18-29,2024_Apr_18_1350,Recall,2021.2.3,59.879558245658565,
,SD004.jpg,0,MF004.jpg,0,,,,,0,80,80,53,imgFunc,1,NA,1.4277567999670282,457.1583496000385,458.6719496699516,2024-04-18 13:58:21.349696,2024-04-18 13:58:22.860471,MF004.jpg,0,11030,18-29,2024_Apr_18_1350,Recall,2021.2.3,59.879558245658565,
,L_DD507.jpg,1,L_FF507.jpg,1,,,,,0,81,81,46,imgFunc,1,NA,1.3377723000012338,458.6802089000121,460.110011069919,2024-04-18 13:58:22.867452,2024-04-18 13:58:24.294674,L_FF507.jpg,1,11030,18-29,2024_Apr_18_1350,Recall,2021.2.3,59.879558245658565,
,SD020.jpg,0,MF020.jpg,0,,,,,0,82,82,69,imgFunc,1,NA,0.7546947000082582,460.1114003000548,460.95834327011835,2024-04-18 13:58:24.301669,2024-04-18 13:58:25.145415,MF020.jpg,0,11030,18-29,2024_Apr_18_1350,Recall,2021.2.3,59.879558245658565,
,DD026.jpg,0,FF026.jpg,0,,,,,0,83,83,25,imgFunc,2,NA,1.1590889999642968,460.96301930001937,462.21021816995926,2024-04-18 13:58:25.152369,2024-04-18 13:58:26.396966,FF026.jpg,0,11030,18-29,2024_Apr_18_1350,Recall,2021.2.3,59.879558245658565,
,SD008.jpg,0,MF008.jpg,0,,,,,0,84,84,57,imgFunc,9,NA,1.3869701999938115,462.2150125000626,463.6937247699825,2024-04-18 13:58:26.404913,2024-04-18 13:58:27.881009,MF008.jpg,0,11030,18-29,2024_Apr_18_1350,Recall,2021.2.3,59.879558245658565,
,SD003.jpg,0,MF003.jpg,0,,,,,0,85,85,52,imgFunc,9,NA,1.2954836999997497,463.6985337000806,465.0784383700229,2024-04-18 13:58:27.887991,2024-04-18 13:58:29.265316,MF003.jpg,0,11030,18-29,2024_Apr_18_1350,Recall,2021.2.3,59.879558245658565,
,DD010.jpg,0,FF010.jpg,0,,,,,0,86,86,9,imgFunc,9,NA,1.4400926999514922,465.0818791000638,466.61172347003594,2024-04-18 13:58:29.272304,2024-04-18 13:58:30.799484,FF010.jpg,0,11030,18-29,2024_Apr_18_1350,Recall,2021.2.3,59.879558245658565,
,SD013.jpg,0,MF013.jpg,0,,,,,0,87,87,62,imgFunc,1,NA,1.536718999966979,466.6253094000276,468.25599046994466,2024-04-18 13:58:30.806466,2024-04-18 13:58:32.434153,MF013.jpg,0,11030,18-29,2024_Apr_18_1350,Recall,2021.2.3,59.879558245658565,
,SD018.jpg,0,MF018.jpg,0,,,,,0,88,88,67,imgFunc,9,NA,1.4065423000138253,468.251491800067,469.7486125699943,2024-04-18 13:58:32.441143,2024-04-18 13:58:33.935162,MF018.jpg,0,11030,18-29,2024_Apr_18_1350,Recall,2021.2.3,59.879558245658565,
,L_DD501.jpg,1,L_FF501.jpg,1,,,,,0,89,89,40,imgFunc,2,NA,1.4064659000141546,469.755651100073,471.2432744699763,2024-04-18 13:58:33.947111,2024-04-18 13:58:35.436593,L_FF501.jpg,1,11030,18-29,2024_Apr_18_1350,Recall,2021.2.3,59.879558245658565,
,SD005.jpg,0,MF005.jpg,0,,,,,0,90,90,54,imgFunc,9,NA,2.908182799932547,471.25418220006395,474.2513226699084,2024-04-18 13:58:35.444371,2024-04-18 13:58:38.438483,MF005.jpg,0,11030,18-29,2024_Apr_18_1350,Recall,2021.2.3,59.879558245658565,
,L_DD506.jpg,1,L_FF506.jpg,1,,,,,0,91,91,45,imgFunc,0,NA,1.618523299926892,474.255467500072,475.96912276989315,2024-04-18 13:58:38.446260,2024-04-18 13:58:40.156322,L_FF506.jpg,1,11030,18-29,2024_Apr_18_1350,Recall,2021.2.3,59.879558245658565,
,SD009.jpg,0,MF009.jpg,0,,,,,0,92,92,58,imgFunc,2,NA,3.7450465000001714,475.97731630003545,479.8098675699439,2024-04-18 13:58:40.164101,2024-04-18 13:58:43.992822,MF009.jpg,0,11030,18-29,2024_Apr_18_1350,Recall,2021.2.3,59.879558245658565,
,L_DD505.jpg,1,L_FF505.jpg,1,,,,,0,93,93,44,imgFunc,2,NA,1.1687016000505537,479.8093179001007,481.0726325700525,2024-04-18 13:58:44.000597,2024-04-18 13:58:45.260444,L_FF505.jpg,1,11030,18-29,2024_Apr_18_1350,Recall,2021.2.3,59.879558245658565,
,DD027.jpg,0,FF027.jpg,0,,,,,0,94,94,26,imgFunc,1,NA,2.6293471000390127,481.0766999000916,483.7907145700883,2024-04-18 13:58:45.268224,2024-04-18 13:58:47.978365,FF027.jpg,0,11030,18-29,2024_Apr_18_1350,Recall,2021.2.3,59.879558245658565,
,DD025.jpg,0,FF025.jpg,0,,,,,0,95,95,24,imgFunc,9,NA,1.5525562999537215,483.7934145000763,485.44121947011445,2024-04-18 13:58:47.985346,2024-04-18 13:58:49.629987,FF025.jpg,0,11030,18-29,2024_Apr_18_1350,Recall,2021.2.3,59.879558245658565,
,DD004.jpg,0,FF004.jpg,0,,,,,0,96,96,3,imgFunc,0,NA,1.6339085000799969,485.44814019999467,487.17806836985983,2024-04-18 13:58:49.636947,2024-04-18 13:58:51.364368,FF004.jpg,0,11030,18-29,2024_Apr_18_1350,Recall,2021.2.3,59.879558245658565,
,SD024.jpg,0,MF024.jpg,0,,,,,0,97,97,73,imgFunc,1,NA,0.7265416999580339,487.17942140006926,487.99273776996415,2024-04-18 13:58:51.371328,2024-04-18 13:58:52.181512,MF024.jpg,0,11030,18-29,2024_Apr_18_1350,Recall,2021.2.3,59.879558245658565,
,DD039.jpg,0,FF039.jpg,0,,,,,0,98,98,38,imgFunc,1,NA,2.4662847999716178,487.9997964000795,490.5643036700785,2024-04-18 13:58:52.189470,2024-04-18 13:58:54.750670,FF039.jpg,0,11030,18-29,2024_Apr_18_1350,Recall,2021.2.3,59.879558245658565,
,L_DD509.jpg,1,L_FF509.jpg,1,,,,,0,99,99,48,imgFunc,9,NA,1.027317599975504,490.5669048000127,491.67910526995547,2024-04-18 13:58:54.757658,2024-04-18 13:58:55.867699,L_FF509.jpg,1,11030,18-29,2024_Apr_18_1350,Recall,2021.2.3,59.879558245658565,
