onset	duration	trial_type	rt	resp
0.0003119000466540456	0.6032183000352234	fixation_1	999	999
0.6035810000030324	3.001912000006996	face	2.0324953000526875	2
3.6055426000384614	0.6032183000352234	fixation_2	999	999
4.153323100064881	1.0164601999567822	feedback win	999	999
5.169785300036892	5.316829700022936	ITI	999	999
10.489951700088568	0.5966668999753892	fixation_1	999	999
11.086668100091629	3.0009302999824286	face	2.283132299897261	2
14.08764450007584	0.5966668999753892	fixation_2	999	999
14.636531100026332	1.016674599959515	feedback loss	999	999
15.653207800001837	1.1174072000430897	ITI	999	999
16.77307060000021	0.5970037000952289	fixation_1	999	999
17.37012199999299	3.3002563000191003	face	3.299663000041619	2
20.670409100013785	0.5970037000952289	fixation_2	999	999
21.219572200090624	1.0002332999138162	feedback win	999	999
22.219807400018908	1.11792960006278	ITI	999	999
23.340344100026414	0.5962441000156105	fixation_1	999	999
23.936637500068173	3.001142799970694	face	1.7837377999676391	2
26.937824900029227	0.5962441000156105	fixation_2	999	999
27.48654220008757	1.0166713999351487	feedback win	999	999
28.503215500037186	3.2165152999805287	ITI	999	999
31.72220429999288	0.6143602000083774	fixation_1	999	999
32.33661480003502	3.0020746999653056	face	1.532726899953559	2
35.33873439999297	0.6143602000083774	fixation_2	999	999
35.88651610002853	1.0166596999624744	feedback loss	999	999
36.90317780000623	5.317220600089058	ITI	999	999
42.22326240001712	0.5965077000437304	fixation_1	999	999
42.81982309999876	3.001624900032766	face	1.7831567000830546	1
45.821494700037874	0.5965077000437304	fixation_2	999	999
46.36979370005429	1.01668979995884	feedback loss	999	999
47.3864859000314	3.2160645000403747	ITI	999	999
50.60515670001041	0.6145421999972314	fixation_1	999	999
51.2197518000612	3.001825699931942	face	1.7828781999414787	2
54.22162399999797	0.6145421999972314	fixation_2	999	999
54.76971510006115	1.016747499932535	feedback win	999	999
55.78646640002262	3.217213200055994	ITI	999	999
59.00626460008789	0.6135718999430537	fixation_1	999	999
59.61989060009364	3.0023540999973193	face	1.532937999931164	2
62.62229149998166	0.6135718999430537	fixation_2	999	999
63.16973449999932	1.0166942999931052	feedback loss	999	999
64.18643080000766	1.117766199982725	ITI	999	999
65.30693339998834	0.6127055000979453	fixation_1	999	999
65.91969450004399	3.001980199944228	face	1.7826962999533862	2
68.92171860008966	0.6127055000979453	fixation_2	999	999
69.46964999998454	1.0001490000868216	feedback win	999	999
70.46980100008659	1.1178221999434754	ITI	999	999
71.5902704000473	0.5961540000280365	fixation_1	999	999
72.1864990000613	3.000721800024621	face	2.0321704000234604	2
75.18726680008695	0.5961540000280365	fixation_2	999	999
75.73638880008366	1.000008299946785	feedback win	999	999
76.73639900004491	1.1169242999749258	ITI	999	999
77.85604600002989	0.5969981000525877	fixation_1	999	999
78.4530999000417	3.0009683000389487	face	2.0335517999483272	1
81.45411410008091	0.5969981000525877	fixation_2	999	999
82.00312130001839	1.0164782999781892	feedback loss	999	999
83.0196019000141	3.215968900010921	ITI	999	999
86.23835980007425	0.6146748999599367	fixation_1	999	999
86.85310380009469	3.002027799957432	face	1.7828988999826834	2
89.85517580003943	0.6146748999599367	fixation_2	999	999
90.40297669998836	1.0001052001025528	feedback loss	999	999
91.40308379998896	1.117609400069341	ITI	999	999
92.52340310008731	0.596460499917157	fixation_1	999	999
93.11991970008239	3.0008374999742955	face	2.2831786999013275	1
96.1208040000638	0.596460499917157	fixation_2	999	999
96.66975900006946	1.0166153999743983	feedback win	999	999
97.68637640005909	5.316597800003365	ITI	999	999
103.00585399998818	0.5971358000533655	fixation_1	999	999
103.60305560007691	3.0016556999180466	face	1.7826666999608278	1
106.60475190007128	0.5971358000533655	fixation_2	999	999
107.15301300003193	1.000003800028935	feedback win	999	999
108.15301890007686	1.1179822999984026	ITI	999	999
109.2737503000535	0.6126462999964133	fixation_1	999	999
109.8864559000358	3.0002585999900475	face	2.7992698999587446	1
112.88676000002306	0.6126462999964133	fixation_2	999	999
113.43628610006999	1.016653399914503	feedback win	999	999
114.45294149999972	5.316872800001875	ITI	999	999
119.77265470009297	0.6139986999332905	fixation_1	999	999
120.38672419998329	3.0012118000304326	face	2.2855193000286818	1
123.38798490003683	0.6139986999332905	fixation_2	999	999
123.9362403000705	1.0166263999417424	feedback win	999	999
124.95286870002747	3.216780300019309	ITI	999	999
128.17248579999432	0.6304351000580937	fixation_1	999	999
128.80299120000564	3.0499816000228748	face	3.04939669999294	2
131.85300350002944	0.6304351000580937	fixation_2	999	999
132.4031942000147	1.01648940006271	feedback win	999	999
133.41968560009263	3.2164788999361917	ITI	999	999
136.63893870008178	0.630682299961336	fixation_1	999	999
137.269690599991	3.0013808000367135	face	2.5495706000365317	2
140.27111690002494	0.630682299961336	fixation_2	999	999
140.82059070002288	1.0157000999897718	feedback win	999	999
141.83629290002864	3.216223399969749	ITI	999	999
145.05655219999608	0.5963876000605524	fixation_1	999	999
145.65301460004412	3.050300700007938	face	3.04981370002497	2
148.70334430004004	0.5963876000605524	fixation_2	999	999
149.25283400004264	1.0000317000085488	feedback win	999	999
150.25286770006642	11.61576239997521	ITI	999	999
161.87177530000918	0.6167275999905542	fixation_1	999	999
162.4885771999834	3.000669400091283	face	1.781056800042279	1
165.48929529997986	0.6167275999905542	fixation_2	999	999
166.03624719998334	1.0165706000989303	feedback loss	999	999
167.05281989998184	5.316194400074892	ITI	999	999
172.37190400005784	0.5975710999919102	fixation_1	999	999
172.96954760001972	3.0021001000422984	face	2.032974399975501	2
175.97169390006457	0.5975710999919102	fixation_2	999	999
176.51961730001494	1.01648940006271	feedback win	999	999
177.53610870009288	5.316837999969721	ITI	999	999
182.85603170003742	0.5968029999639839	fixation_1	999	999
183.45290440006647	3.0017808999400586	face	1.5324177999282256	2
186.4547298999969	0.5968029999639839	fixation_2	999	999
187.0028512000572	1.0166620999807492	feedback loss	999	999
188.0195152000524	3.2165722999488935	ITI	999	999
191.23907720006537	0.6137558999471366	fixation_1	999	999
191.85290679999162	3.0012451000511646	face	2.0336942001013085	1
194.85419800004456	0.6137558999471366	fixation_2	999	999
195.40274360007606	1.016780799953267	feedback loss	999	999
196.41952640004456	1.1173296000342816	ITI	999	999
197.5398682000814	0.6295252999989316	fixation_1	999	999
198.1694663000526	3.0010085999965668	face	2.299025399959646	1
201.17052070004866	0.6295252999989316	fixation_2	999	999
201.71949330007192	1.0165796999353915	feedback loss	999	999
202.73607500002254	1.1172786999959499	ITI	999	999
203.856413600035	0.6130017000250518	fixation_1	999	999
204.46949370007496	3.0006659999489784	face	1.533136299927719	1
207.4702043000143	0.6130017000250518	fixation_2	999	999
208.01950340007897	1.0165785999270156	feedback win	999	999
209.03608400002122	5.3165326999733225	ITI	999	999
214.3556675000582	0.6137819000286981	fixation_1	999	999
214.96952530008275	3.000981199904345	face	2.03426300000865	1
217.97054910007864	0.6137819000286981	fixation_2	999	999
218.5194746000925	1.0165347999427468	feedback loss	999	999
219.53601140005048	5.317103800014593	ITI	999	999
224.85616750002373	0.5964807000709698	fixation_1	999	999
225.45274550002068	3.0014011999592185	face	2.532249200041406	2
228.45419240009505	0.5964807000709698	fixation_2	999	999
229.00265280005988	1.00011539994739	feedback win	999	999
230.00277010002173	3.2167339000152424	ITI	999	999
233.22257700003684	0.6134407999925315	fixation_1	999	999
233.83608979999553	3.001850700005889	face	1.5326078000944108	2
236.83798409998417	0.6134407999925315	fixation_2	999	999
237.38607180002145	1.0165376999648288	feedback loss	999	999
238.4026115000015	1.1171062000794336	ITI	999	999
239.5227992000291	0.5965175000019372	fixation_1	999	999
240.11939020000864	3.001118600019254	face	2.0340522000333294	1
243.12055790005252	0.5965175000019372	fixation_2	999	999
243.66938390000723	1.0165711999870837	feedback win	999	999
244.6859572000103	3.216969500062987	ITI	999	999
247.90606960002333	0.5965233000461012	fixation_1	999	999
248.50266770005692	3.001819400000386	face	1.7824536999687552	2
251.50453170004766	0.5965233000461012	fixation_2	999	999
252.0525934000034	1.0167359000770375	feedback loss	999	999
253.06933159998152	1.117865000036545	ITI	999	999
254.1903565999819	0.6122428000671789	fixation_1	999	999
254.80267350003123	3.0019498000619933	face	1.2825995000312105	1
257.8046711999923	0.6122428000671789	fixation_2	999	999
258.352574700024	1.0166907999664545	feedback loss	999	999
259.3692676000064	1.1182219000766054	ITI	999	999
260.4906375000719	0.6119043999351561	fixation_1	999	999
261.10261980001815	3.0014407000271603	face	1.7829539000522345	1
264.1041091000661	0.6119043999351561	fixation_2	999	999
264.6525035999948	1.0000705000711605	feedback loss	999	999
265.65257600008044	1.1171104999957606	ITI	999	999
266.7728445000248	0.6131917999591678	fixation_1	999	999
267.38611860002857	3.001663999981247	face	1.5324935000389814	2
270.38783040002454	0.6131917999591678	fixation_2	999	999
270.9359135000268	1.0000280999811366	feedback win	999	999
271.93594390002545	5.316486999974586	ITI	999	999
277.2556627000449	0.6136285000247881	fixation_1	999	999
277.86937129998114	3.0012052000965923	face	2.534425500081852	1
280.87062200007495	0.6136285000247881	fixation_2	999	999
281.4195418000454	1.0162109000375494	feedback loss	999	999
282.43575469998177	1.1191816000500694	ITI	999	999
283.5582057000138	0.6110479000490159	fixation_1	999	999
284.1693390000146	3.000903800013475	face	2.032289499999024	1
287.1702906000428	0.6110479000490159	fixation_2	999	999
287.7192654000828	1.0165916999103501	feedback loss	999	999
288.73585940001067	3.216753700049594	ITI	999	999
291.9558626000071	0.6133664000080898	fixation_1	999	999
292.56930640002247	3.00094319996424	face	1.5331463000038639	2
295.57028990006074	0.6133664000080898	fixation_2	999	999
296.11921190004796	1.0166295999661088	feedback win	999	999
297.1358435000293	5.316574800061062	ITI	999	999
302.45681610004976	0.6124065000331029	fixation_1	999	999
303.06930199998897	3.0006943000480533	face	2.533158600097522	2
306.07004150003195	0.6124065000331029	fixation_2	999	999
306.6193389000837	1.0164166999747977	feedback loss	999	999
307.6357576000737	5.317123299930245	ITI	999	999
312.9573197000427	0.6285311999963596	fixation_1	999	999
313.58594050002284	3.001014700043015	face	1.2824579000007361	1
316.5870004000608	0.6285311999963596	fixation_2	999	999
317.1357402000576	1.0166589999571443	feedback win	999	999
318.15240120003	1.1183645999990404	ITI	999	999
319.2740241000429	0.6120593999512494	fixation_1	999	999
319.8861735999817	3.0015563000924885	face	2.5342812000308186	2
322.88777630007826	0.6120593999512494	fixation_2	999	999
323.43571750004776	1.000105099985376	feedback loss	999	999
324.43582460004836	1.1175959999673069	ITI	999	999
325.55691270006355	0.612137799966149	fixation_1	999	999
326.16913599998225	3.001263500074856	face	2.0334317000815645	1
329.1704461000627	0.612137799966149	fixation_2	999	999
329.71906889998354	1.0166326001053676	feedback loss	999	999
330.73570339998696	5.315853400039487	ITI	999	999
