onset	duration	trial_type	response_time	Endowment	Endowment_pmod	Decision	Decision_pmod	Offer_pmod
4.507299	2	cue_nonsocial	n/a	16	-7	n/a	n/a	n/a
4.507299	2	cue_nonsocial_low	n/a	16	-8	n/a	n/a	n/a
12.262003	2	cue_social	n/a	32	8	n/a	n/a	n/a
12.262003	2	cue_social_high	n/a	32	9	n/a	n/a	n/a
18.989954	2	cue_nonsocial	n/a	32	9	n/a	n/a	n/a
18.989954	2	cue_nonsocial_high	n/a	32	8	n/a	n/a	n/a
25.823662	2	cue_nonsocial	n/a	32	9	n/a	n/a	n/a
25.823662	2	cue_nonsocial_high	n/a	32	8	n/a	n/a	n/a
32.657185	2	cue_nonsocial	n/a	32	9	n/a	n/a	n/a
32.657185	2	cue_nonsocial_high	n/a	32	8	n/a	n/a	n/a
39.490410	2	cue_nonsocial	n/a	32	9	n/a	n/a	n/a
39.490410	2	cue_nonsocial_high	n/a	32	8	n/a	n/a	n/a
51.973396	2	cue_nonsocial	n/a	32	9	n/a	n/a	n/a
51.973396	2	cue_nonsocial_high	n/a	32	8	n/a	n/a	n/a
58.899080	2	cue_social	n/a	16	-8	n/a	n/a	n/a
58.899080	2	cue_social_low	n/a	16	-7	n/a	n/a	n/a
69.673420	2	cue_nonsocial	n/a	16	-7	n/a	n/a	n/a
69.673420	2	cue_nonsocial_low	n/a	16	-8	n/a	n/a	n/a
76.507090	2	cue_nonsocial	n/a	16	-7	n/a	n/a	n/a
76.507090	2	cue_nonsocial_low	n/a	16	-8	n/a	n/a	n/a
84.248290	2	cue_social	n/a	16	-8	n/a	n/a	n/a
84.248290	2	cue_social_low	n/a	16	-7	n/a	n/a	n/a
91.095810	2	cue_social	n/a	32	8	n/a	n/a	n/a
91.095810	2	cue_social_high	n/a	32	9	n/a	n/a	n/a
97.806915	2	cue_nonsocial	n/a	32	9	n/a	n/a	n/a
97.806915	2	cue_nonsocial_high	n/a	32	8	n/a	n/a	n/a
104.768750	2	cue_social	n/a	32	8	n/a	n/a	n/a
104.768750	2	cue_social_high	n/a	32	9	n/a	n/a	n/a
112.273190	2	cue_nonsocial	n/a	16	-7	n/a	n/a	n/a
112.273190	2	cue_nonsocial_low	n/a	16	-8	n/a	n/a	n/a
119.106850	2	cue_nonsocial	n/a	16	-7	n/a	n/a	n/a
119.106850	2	cue_nonsocial_low	n/a	16	-8	n/a	n/a	n/a
126.040570	2	cue_social	n/a	16	-8	n/a	n/a	n/a
126.040570	2	cue_social_low	n/a	16	-7	n/a	n/a	n/a
132.870540	2	cue_social	n/a	16	-8	n/a	n/a	n/a
132.870540	2	cue_social_low	n/a	16	-7	n/a	n/a	n/a
139.721000	2	cue_social	n/a	16	-8	n/a	n/a	n/a
139.721000	2	cue_social_low	n/a	16	-7	n/a	n/a	n/a
146.474490	2	cue_social	n/a	16	-8	n/a	n/a	n/a
146.474490	2	cue_social_low	n/a	16	-7	n/a	n/a	n/a
154.198650	2	cue_social	n/a	32	8	n/a	n/a	n/a
154.198650	2	cue_social_high	n/a	32	9	n/a	n/a	n/a
161.808640	2	cue_social	n/a	32	8	n/a	n/a	n/a
161.808640	2	cue_social_high	n/a	32	9	n/a	n/a	n/a
168.540270	2	cue_nonsocial	n/a	16	-7	n/a	n/a	n/a
168.540270	2	cue_nonsocial_low	n/a	16	-8	n/a	n/a	n/a
175.438080	2	cue_social	n/a	16	-8	n/a	n/a	n/a
175.438080	2	cue_social_low	n/a	16	-7	n/a	n/a	n/a
184.709610	2	cue_social	n/a	32	8	n/a	n/a	n/a
184.709610	2	cue_social_high	n/a	32	9	n/a	n/a	n/a
191.557620	2	cue_social	n/a	16	-8	n/a	n/a	n/a
191.557620	2	cue_social_low	n/a	16	-7	n/a	n/a	n/a
199.123260	2	cue_nonsocial	n/a	16	-7	n/a	n/a	n/a
199.123260	2	cue_nonsocial_low	n/a	16	-8	n/a	n/a	n/a
206.756130	2	cue_nonsocial	n/a	16	-7	n/a	n/a	n/a
206.756130	2	cue_nonsocial_low	n/a	16	-8	n/a	n/a	n/a
213.678710	2	cue_social	n/a	16	-8	n/a	n/a	n/a
213.678710	2	cue_social_low	n/a	16	-7	n/a	n/a	n/a
220.423630	2	cue_nonsocial	n/a	16	-7	n/a	n/a	n/a
220.423630	2	cue_nonsocial_low	n/a	16	-8	n/a	n/a	n/a
228.073170	2	cue_nonsocial	n/a	16	-7	n/a	n/a	n/a
228.073170	2	cue_nonsocial_low	n/a	16	-8	n/a	n/a	n/a
235.722630	2	cue_nonsocial	n/a	16	-7	n/a	n/a	n/a
235.722630	2	cue_nonsocial_low	n/a	16	-8	n/a	n/a	n/a
245.052190	2	cue_social	n/a	32	8	n/a	n/a	n/a
245.052190	2	cue_social_high	n/a	32	9	n/a	n/a	n/a
254.239910	2	cue_nonsocial	n/a	32	9	n/a	n/a	n/a
254.239910	2	cue_nonsocial_high	n/a	32	8	n/a	n/a	n/a
261.143920	2	cue_social	n/a	32	8	n/a	n/a	n/a
261.143920	2	cue_social_high	n/a	32	9	n/a	n/a	n/a
268.780150	2	cue_social	n/a	32	8	n/a	n/a	n/a
268.780150	2	cue_social_high	n/a	32	9	n/a	n/a	n/a
277.973080	2	cue_nonsocial	n/a	16	-7	n/a	n/a	n/a
277.973080	2	cue_nonsocial_low	n/a	16	-8	n/a	n/a	n/a
284.876770	2	cue_social	n/a	32	8	n/a	n/a	n/a
284.876770	2	cue_social_high	n/a	32	9	n/a	n/a	n/a
291.639650	2	cue_nonsocial	n/a	32	9	n/a	n/a	n/a
291.639650	2	cue_nonsocial_high	n/a	32	8	n/a	n/a	n/a
300.928900	2	cue_social	n/a	32	8	n/a	n/a	n/a
300.928900	2	cue_social_high	n/a	32	9	n/a	n/a	n/a
310.155640	2	cue_nonsocial	n/a	16	-7	n/a	n/a	n/a
310.155640	2	cue_nonsocial_low	n/a	16	-8	n/a	n/a	n/a
321.022370	2	cue_nonsocial	n/a	32	9	n/a	n/a	n/a
321.022370	2	cue_nonsocial_high	n/a	32	8	n/a	n/a	n/a
328.723940	2	cue_social	n/a	32	8	n/a	n/a	n/a
328.723940	2	cue_social_high	n/a	32	9	n/a	n/a	n/a
336.322240	2	cue_nonsocial	n/a	32	9	n/a	n/a	n/a
336.322240	2	cue_nonsocial_high	n/a	32	8	n/a	n/a	n/a
343.277000	2	cue_social	n/a	16	-8	n/a	n/a	n/a
343.277000	2	cue_social_low	n/a	16	-7	n/a	n/a	n/a
352.475520	2	cue_social	n/a	16	-8	n/a	n/a	n/a
352.475520	2	cue_social_low	n/a	16	-7	n/a	n/a	n/a
359.239400	2	cue_nonsocial	n/a	32	9	n/a	n/a	n/a
359.239400	2	cue_nonsocial_high	n/a	32	8	n/a	n/a	n/a
366.929900	2	cue_social	n/a	16	-8	n/a	n/a	n/a
366.929900	2	cue_social_low	n/a	16	-7	n/a	n/a	n/a
6.512852	0.182925	dec_nonsocial_choice	0.182925	16.000000	n/a	0	0	-2.317708e-01
6.512852	0.182925	dec_choice	0.182925	16.000000	n/a	0	0	-2.317708e-01
6.512852	0.182925	dec_nonsocial_reject	0.182925	16.000000	n/a	0	0	-5.387931e-02
6.512852	0.182925	dec_reject	0.182925	16.000000	n/a	0	0	-3.846154e-02
6.512852	0.182925	dec_nonsocial_low	0.182925	16.000000	n/a	0	-2.317708e-01	-2.317708e-01
6.512852	0.182925	dec_nonsocial_reject_low	0.182925	16.000000	n/a	1	-3.846154e-02	-1.009615e-01
14.162928	1.615219	dec_social_choice	1.615219	32.000000	n/a	0	0	-2.317708e-01
14.162928	1.615219	dec_choice	1.615219	32.000000	n/a	0	0	-2.317708e-01
14.162928	1.615219	dec_social_reject	1.615219	32.000000	n/a	0	0	-5.387931e-02
14.162928	1.615219	dec_reject	1.615219	32.000000	n/a	0	0	-6.640625e-02
14.162928	1.615219	dec_social_low	1.615219	32.000000	n/a	0	-2.317708e-01	-2.317708e-01
14.162928	1.615219	dec_social_reject_low	1.615219	32.000000	n/a	2	-1.692708e-01	-2.317708e-01
20.996784	1.399210	dec_nonsocial_choice	1.399210	32.000000	n/a	0	0	-2.317708e-01
20.996784	1.399210	dec_choice	1.399210	32.000000	n/a	0	0	-2.317708e-01
20.996784	1.399210	dec_nonsocial_reject	1.399210	32.000000	n/a	0	0	-5.387931e-02
20.996784	1.399210	dec_reject	1.399210	32.000000	n/a	0	0	-3.846154e-02
20.996784	1.399210	dec_nonsocial_low	1.399210	32.000000	n/a	0	-2.317708e-01	-2.317708e-01
20.996784	1.399210	dec_nonsocial_reject_low	1.399210	32.000000	n/a	2	-3.846154e-02	-1.009615e-01
27.828810	1.083607	dec_nonsocial_choice	1.083607	32.000000	n/a	0	0	-2.317708e-01
27.828810	1.083607	dec_choice	1.083607	32.000000	n/a	0	0	-2.317708e-01
27.828810	1.083607	dec_nonsocial_reject	1.083607	32.000000	n/a	0	0	-5.387931e-02
27.828810	1.083607	dec_reject	1.083607	32.000000	n/a	0	0	-3.846154e-02
27.828810	1.083607	dec_nonsocial_low	1.083607	32.000000	n/a	0	-2.317708e-01	-2.317708e-01
27.828810	1.083607	dec_nonsocial_reject_low	1.083607	32.000000	n/a	2	-3.846154e-02	-1.009615e-01
34.662360	1.615771	dec_nonsocial_choice	1.615771	32.000000	n/a	0	0	-2.317708e-01
34.662360	1.615771	dec_choice	1.615771	32.000000	n/a	0	0	-2.317708e-01
34.662360	1.615771	dec_nonsocial_reject	1.615771	32.000000	n/a	0	0	-2.262931e-02
34.662360	1.615771	dec_reject	1.615771	32.000000	n/a	0	0	-7.211538e-03
34.662360	1.615771	dec_nonsocial_low	1.615771	32.000000	n/a	0	-2.317708e-01	-2.317708e-01
34.662360	1.615771	dec_nonsocial_reject_low	1.615771	32.000000	n/a	3	-7.211538e-03	-1.009615e-01
41.495567	1.800672	dec_nonsocial_choice	1.800672	32.000000	n/a	8	1.822917e-02	1.822917e-02
41.495567	1.800672	dec_choice	1.800672	32.000000	n/a	8	1.822917e-02	1.822917e-02
41.495567	1.800672	dec_nonsocial_accept	1.800672	32.000000	n/a	8	-1.578947e-01	-1.578947e-01
41.495567	1.800672	dec_accept	1.800672	32.000000	n/a	8	-1.363636e-01	-1.363636e-01
41.495567	1.800672	dec_nonsocial_high	1.800672	32.000000	n/a	8	1.822917e-02	1.822917e-02
41.495567	1.800672	dec_nonsocial_accept_high	1.800672	32.000000	n/a	8	-1.363636e-01	-1.363636e-01
53.979565	2.299789	dec_nonsocial_choice	2.299789	32.000000	n/a	8	1.822917e-02	1.822917e-02
53.979565	2.299789	dec_choice	2.299789	32.000000	n/a	8	1.822917e-02	1.822917e-02
53.979565	2.299789	dec_nonsocial_accept	2.299789	32.000000	n/a	8	-1.578947e-01	-1.578947e-01
53.979565	2.299789	dec_accept	2.299789	32.000000	n/a	8	-1.363636e-01	-1.363636e-01
53.979565	2.299789	dec_nonsocial_accept_high	2.299789	32.000000	n/a	8	-1.875000e-01	-1.875000e-01
60.812553	1.466374	dec_social_choice	1.466374	16.000000	n/a	0	0	-2.317708e-01
60.812553	1.466374	dec_choice	1.466374	16.000000	n/a	0	0	-2.317708e-01
60.812553	1.466374	dec_social_reject	1.466374	16.000000	n/a	0	0	8.620690e-03
60.812553	1.466374	dec_reject	1.466374	16.000000	n/a	0	0	-3.906250e-03
60.812553	1.466374	dec_social_low	1.466374	16.000000	n/a	0	-2.317708e-01	-2.317708e-01
60.812553	1.466374	dec_social_reject_low	1.466374	16.000000	n/a	2	-1.067708e-01	-2.317708e-01
71.679760	1.165045	dec_nonsocial_choice	1.165045	16.000000	n/a	0	0	-2.317708e-01
71.679760	1.165045	dec_choice	1.165045	16.000000	n/a	0	0	-2.317708e-01
71.679760	1.165045	dec_nonsocial_reject	1.165045	16.000000	n/a	0	0	8.620690e-03
71.679760	1.165045	dec_reject	1.165045	16.000000	n/a	0	0	2.403846e-02
71.679760	1.165045	dec_nonsocial_reject_low	1.165045	16.000000	n/a	2	-3.906250e-03	-1.289062e-01
78.511925	1.300121	dec_nonsocial_choice	1.300121	16.000000	n/a	0	0	-2.317708e-01
78.511925	1.300121	dec_choice	1.300121	16.000000	n/a	0	0	-2.317708e-01
78.511925	1.300121	dec_nonsocial_reject	1.300121	16.000000	n/a	0	0	8.620690e-03
78.511925	1.300121	dec_reject	1.300121	16.000000	n/a	0	0	2.403846e-02
78.511925	1.300121	dec_nonsocial_low	1.300121	16.000000	n/a	0	-2.317708e-01	-2.317708e-01
78.511925	1.300121	dec_nonsocial_reject_low	1.300121	16.000000	n/a	2	2.403846e-02	-1.009615e-01
86.145850	1.299918	dec_social_choice	1.299918	16.000000	n/a	0	0	-2.317708e-01
86.145850	1.299918	dec_choice	1.299918	16.000000	n/a	0	0	-2.317708e-01
86.145850	1.299918	dec_social_reject	1.299918	16.000000	n/a	0	0	-5.387931e-02
86.145850	1.299918	dec_reject	1.299918	16.000000	n/a	0	0	-6.640625e-02
86.145850	1.299918	dec_social_low	1.299918	16.000000	n/a	0	-2.317708e-01	-2.317708e-01
86.145850	1.299918	dec_social_reject_low	1.299918	16.000000	n/a	1	-1.692708e-01	-2.317708e-01
92.978880	1.282416	dec_social_choice	1.282416	32.000000	n/a	8	1.822917e-02	1.822917e-02
92.978880	1.282416	dec_choice	1.282416	32.000000	n/a	8	1.822917e-02	1.822917e-02
92.978880	1.282416	dec_social_accept	1.282416	32.000000	n/a	8	-1.578947e-01	-1.578947e-01
92.978880	1.282416	dec_accept	1.282416	32.000000	n/a	8	-1.875000e-01	-1.875000e-01
92.978880	1.282416	dec_social_high	1.282416	32.000000	n/a	8	1.822917e-02	1.822917e-02
92.978880	1.282416	dec_social_accept_high	1.282416	32.000000	n/a	8	1.822917e-02	1.822917e-02
99.812620	0.849280	dec_nonsocial_choice	0.849280	32.000000	n/a	0	0	-2.317708e-01
99.812620	0.849280	dec_choice	0.849280	32.000000	n/a	0	0	-2.317708e-01
99.812620	0.849280	dec_nonsocial_reject	0.849280	32.000000	n/a	0	0	-5.387931e-02
99.812620	0.849280	dec_reject	0.849280	32.000000	n/a	0	0	-3.846154e-02
99.812620	0.849280	dec_nonsocial_reject_low	0.849280	32.000000	n/a	2	-6.640625e-02	-1.289062e-01
106.644490	1.167566	dec_social_choice	1.167566	32.000000	n/a	0	0	-2.317708e-01
106.644490	1.167566	dec_choice	1.167566	32.000000	n/a	0	0	-2.317708e-01
106.644490	1.167566	dec_social_reject	1.167566	32.000000	n/a	0	0	-2.262931e-02
106.644490	1.167566	dec_reject	1.167566	32.000000	n/a	0	0	-3.515625e-02
106.644490	1.167566	dec_social_reject_low	1.167566	32.000000	n/a	3	-1.380208e-01	-2.317708e-01
114.278730	1.815884	dec_nonsocial_choice	1.815884	16.000000	n/a	0	0	-2.317708e-01
114.278730	1.815884	dec_choice	1.815884	16.000000	n/a	0	0	-2.317708e-01
114.278730	1.815884	dec_nonsocial_reject	1.815884	16.000000	n/a	0	0	1.336207e-01
114.278730	1.815884	dec_reject	1.815884	16.000000	n/a	0	0	1.490385e-01
114.278730	1.815884	dec_nonsocial_reject_low	1.815884	16.000000	n/a	4	1.210938e-01	-1.289062e-01
121.112045	1.050129	dec_nonsocial_choice	1.050129	16.000000	n/a	0	0	-2.317708e-01
121.112045	1.050129	dec_choice	1.050129	16.000000	n/a	0	0	-2.317708e-01
121.112045	1.050129	dec_nonsocial_reject	1.050129	16.000000	n/a	0	0	8.620690e-03
121.112045	1.050129	dec_reject	1.050129	16.000000	n/a	0	0	2.403846e-02
121.112045	1.050129	dec_nonsocial_reject_low	1.050129	16.000000	n/a	2	-3.906250e-03	-1.289062e-01
127.945800	1.750173	dec_social_choice	1.750173	16.000000	n/a	0	0	-2.317708e-01
127.945800	1.750173	dec_choice	1.750173	16.000000	n/a	0	0	-2.317708e-01
127.945800	1.750173	dec_social_reject	1.750173	16.000000	n/a	0	0	1.336207e-01
127.945800	1.750173	dec_reject	1.750173	16.000000	n/a	0	0	1.210938e-01
127.945800	1.750173	dec_social_low	1.750173	16.000000	n/a	0	-2.317708e-01	-2.317708e-01
127.945800	1.750173	dec_social_reject_low	1.750173	16.000000	n/a	4	1.822917e-02	-2.317708e-01
134.778810	0.916254	dec_social_choice	0.916254	16.000000	n/a	0	0	-2.317708e-01
134.778810	0.916254	dec_choice	0.916254	16.000000	n/a	0	0	-2.317708e-01
134.778810	0.916254	dec_social_reject	0.916254	16.000000	n/a	0	0	1.336207e-01
134.778810	0.916254	dec_reject	0.916254	16.000000	n/a	0	0	1.210938e-01
134.778810	0.916254	dec_social_low	0.916254	16.000000	n/a	0	-2.317708e-01	-2.317708e-01
134.778810	0.916254	dec_social_reject_low	0.916254	16.000000	n/a	4	1.822917e-02	-2.317708e-01
141.611630	1.083818	dec_social_choice	1.083818	16.000000	n/a	0	0	-2.317708e-01
141.611630	1.083818	dec_choice	1.083818	16.000000	n/a	0	0	-2.317708e-01
141.611630	1.083818	dec_social_reject	1.083818	16.000000	n/a	0	0	8.620690e-03
141.611630	1.083818	dec_reject	1.083818	16.000000	n/a	0	0	-3.906250e-03
141.611630	1.083818	dec_social_reject_low	1.083818	16.000000	n/a	2	-1.067708e-01	-2.317708e-01
148.444340	0.867823	dec_social_choice	0.867823	16.000000	n/a	0	0	-2.317708e-01
148.444340	0.867823	dec_choice	0.867823	16.000000	n/a	0	0	-2.317708e-01
148.444340	0.867823	dec_social_reject	0.867823	16.000000	n/a	0	0	-5.387931e-02
148.444340	0.867823	dec_reject	0.867823	16.000000	n/a	0	0	-6.640625e-02
148.444340	0.867823	dec_social_reject_low	0.867823	16.000000	n/a	1	-1.692708e-01	-2.317708e-01
156.078640	1.566970	dec_social_choice	1.566970	32.000000	n/a	16	2.682292e-01	2.682292e-01
156.078640	1.566970	dec_choice	1.566970	32.000000	n/a	16	2.682292e-01	2.682292e-01
156.078640	1.566970	dec_social_accept	1.566970	32.000000	n/a	16	9.210526e-02	9.210526e-02
156.078640	1.566970	dec_accept	1.566970	32.000000	n/a	16	6.250000e-02	6.250000e-02
156.078640	1.566970	dec_social_accept_high	1.566970	32.000000	n/a	16	2.682292e-01	2.682292e-01
163.711690	1.733807	dec_social_choice	1.733807	32.000000	n/a	8	1.822917e-02	1.822917e-02
163.711690	1.733807	dec_choice	1.733807	32.000000	n/a	8	1.822917e-02	1.822917e-02
163.711690	1.733807	dec_social_accept	1.733807	32.000000	n/a	8	-1.578947e-01	-1.578947e-01
163.711690	1.733807	dec_accept	1.733807	32.000000	n/a	8	-1.875000e-01	-1.875000e-01
163.711690	1.733807	dec_social_high	1.733807	32.000000	n/a	8	1.822917e-02	1.822917e-02
163.711690	1.733807	dec_social_accept_high	1.733807	32.000000	n/a	8	1.822917e-02	1.822917e-02
170.545330	1.200085	dec_nonsocial_choice	1.200085	16.000000	n/a	8	2.682292e-01	2.682292e-01
170.545330	1.200085	dec_choice	1.200085	16.000000	n/a	8	2.682292e-01	2.682292e-01
170.545330	1.200085	dec_nonsocial_accept	1.200085	16.000000	n/a	8	9.210526e-02	9.210526e-02
170.545330	1.200085	dec_accept	1.200085	16.000000	n/a	8	1.136364e-01	1.136364e-01
170.545330	1.200085	dec_nonsocial_accept_high	1.200085	16.000000	n/a	8	6.250000e-02	6.250000e-02
177.379650	0.915180	dec_social_choice	0.915180	16.000000	n/a	0	0	-2.317708e-01
177.379650	0.915180	dec_choice	0.915180	16.000000	n/a	0	0	-2.317708e-01
177.379650	0.915180	dec_social_reject	0.915180	16.000000	n/a	0	0	8.620690e-03
177.379650	0.915180	dec_reject	0.915180	16.000000	n/a	0	0	-3.906250e-03
177.379650	0.915180	dec_social_low	0.915180	16.000000	n/a	0	-2.317708e-01	-2.317708e-01
177.379650	0.915180	dec_social_reject_low	0.915180	16.000000	n/a	2	-1.067708e-01	-2.317708e-01
186.645050	1.700206	dec_social_choice	1.700206	32.000000	n/a	0	0	-2.317708e-01
186.645050	1.700206	dec_choice	1.700206	32.000000	n/a	0	0	-2.317708e-01
186.645050	1.700206	dec_social_reject	1.700206	32.000000	n/a	0	0	-5.387931e-02
186.645050	1.700206	dec_reject	1.700206	32.000000	n/a	0	0	-6.640625e-02
186.645050	1.700206	dec_social_low	1.700206	32.000000	n/a	0	-2.317708e-01	-2.317708e-01
186.645050	1.700206	dec_social_reject_low	1.700206	32.000000	n/a	2	-1.692708e-01	-2.317708e-01
193.477660	1.384375	dec_social_choice	1.384375	16.000000	n/a	0	0	-2.317708e-01
193.477660	1.384375	dec_choice	1.384375	16.000000	n/a	0	0	-2.317708e-01
193.477660	1.384375	dec_social_reject	1.384375	16.000000	n/a	0	0	-5.387931e-02
193.477660	1.384375	dec_reject	1.384375	16.000000	n/a	0	0	-6.640625e-02
193.477660	1.384375	dec_social_reject_low	1.384375	16.000000	n/a	1	-1.692708e-01	-2.317708e-01
201.128570	1.200076	dec_nonsocial_choice	1.200076	16.000000	n/a	8	2.682292e-01	2.682292e-01
201.128570	1.200076	dec_choice	1.200076	16.000000	n/a	8	2.682292e-01	2.682292e-01
201.128570	1.200076	dec_nonsocial_accept	1.200076	16.000000	n/a	8	9.210526e-02	9.210526e-02
201.128570	1.200076	dec_accept	1.200076	16.000000	n/a	8	1.136364e-01	1.136364e-01
201.128570	1.200076	dec_nonsocial_accept_high	1.200076	16.000000	n/a	8	6.250000e-02	6.250000e-02
208.762480	1.149317	dec_nonsocial_choice	1.149317	16.000000	n/a	8	2.682292e-01	2.682292e-01
208.762480	1.149317	dec_choice	1.149317	16.000000	n/a	8	2.682292e-01	2.682292e-01
208.762480	1.149317	dec_nonsocial_accept	1.149317	16.000000	n/a	8	9.210526e-02	9.210526e-02
208.762480	1.149317	dec_accept	1.149317	16.000000	n/a	8	1.136364e-01	1.136364e-01
208.762480	1.149317	dec_nonsocial_accept_high	1.149317	16.000000	n/a	8	6.250000e-02	6.250000e-02
215.595670	1.265267	dec_social_choice	1.265267	16.000000	n/a	0	0	-2.317708e-01
215.595670	1.265267	dec_choice	1.265267	16.000000	n/a	0	0	-2.317708e-01
215.595670	1.265267	dec_social_reject	1.265267	16.000000	n/a	0	0	1.336207e-01
215.595670	1.265267	dec_reject	1.265267	16.000000	n/a	0	0	1.210938e-01
215.595670	1.265267	dec_social_low	1.265267	16.000000	n/a	0	-2.317708e-01	-2.317708e-01
215.595670	1.265267	dec_social_reject_low	1.265267	16.000000	n/a	4	1.822917e-02	-2.317708e-01
222.428800	1.299735	dec_nonsocial_choice	1.299735	16.000000	n/a	0	0	-2.317708e-01
222.428800	1.299735	dec_choice	1.299735	16.000000	n/a	0	0	-2.317708e-01
222.428800	1.299735	dec_nonsocial_reject	1.299735	16.000000	n/a	0	0	-5.387931e-02
222.428800	1.299735	dec_reject	1.299735	16.000000	n/a	0	0	-3.846154e-02
222.428800	1.299735	dec_nonsocial_low	1.299735	16.000000	n/a	0	-2.317708e-01	-2.317708e-01
222.428800	1.299735	dec_nonsocial_reject_low	1.299735	16.000000	n/a	1	-3.846154e-02	-1.009615e-01
230.079590	1.098795	dec_nonsocial_choice	1.098795	16.000000	n/a	0	0	-2.317708e-01
230.079590	1.098795	dec_choice	1.098795	16.000000	n/a	0	0	-2.317708e-01
230.079590	1.098795	dec_nonsocial_reject	1.098795	16.000000	n/a	0	0	-5.387931e-02
230.079590	1.098795	dec_reject	1.098795	16.000000	n/a	0	0	-3.846154e-02
230.079590	1.098795	dec_nonsocial_low	1.098795	16.000000	n/a	0	-2.317708e-01	-2.317708e-01
230.079590	1.098795	dec_nonsocial_reject_low	1.098795	16.000000	n/a	1	-3.846154e-02	-1.009615e-01
237.728320	1.233410	dec_nonsocial_choice	1.233410	16.000000	n/a	8	2.682292e-01	2.682292e-01
237.728320	1.233410	dec_choice	1.233410	16.000000	n/a	8	2.682292e-01	2.682292e-01
237.728320	1.233410	dec_nonsocial_accept	1.233410	16.000000	n/a	8	9.210526e-02	9.210526e-02
237.728320	1.233410	dec_accept	1.233410	16.000000	n/a	8	1.136364e-01	1.136364e-01
237.728320	1.233410	dec_nonsocial_high	1.233410	16.000000	n/a	8	2.682292e-01	2.682292e-01
237.728320	1.233410	dec_nonsocial_accept_high	1.233410	16.000000	n/a	8	1.136364e-01	1.136364e-01
246.995560	1.083040	dec_social_choice	1.083040	32.000000	n/a	16	2.682292e-01	2.682292e-01
246.995560	1.083040	dec_choice	1.083040	32.000000	n/a	16	2.682292e-01	2.682292e-01
246.995560	1.083040	dec_social_accept	1.083040	32.000000	n/a	16	9.210526e-02	9.210526e-02
246.995560	1.083040	dec_accept	1.083040	32.000000	n/a	16	6.250000e-02	6.250000e-02
246.995560	1.083040	dec_social_high	1.083040	32.000000	n/a	16	2.682292e-01	2.682292e-01
246.995560	1.083040	dec_social_accept_high	1.083040	32.000000	n/a	16	2.682292e-01	2.682292e-01
256.244960	1.250095	dec_nonsocial_choice	1.250095	32.000000	n/a	0	0	-2.317708e-01
256.244960	1.250095	dec_choice	1.250095	32.000000	n/a	0	0	-2.317708e-01
256.244960	1.250095	dec_nonsocial_reject	1.250095	32.000000	n/a	0	0	-2.262931e-02
256.244960	1.250095	dec_reject	1.250095	32.000000	n/a	0	0	-7.211538e-03
256.244960	1.250095	dec_nonsocial_low	1.250095	32.000000	n/a	0	-2.317708e-01	-2.317708e-01
256.244960	1.250095	dec_nonsocial_reject_low	1.250095	32.000000	n/a	3	-7.211538e-03	-1.009615e-01
263.077480	1.383333	dec_social_choice	1.383333	32.000000	n/a	16	2.682292e-01	2.682292e-01
263.077480	1.383333	dec_choice	1.383333	32.000000	n/a	16	2.682292e-01	2.682292e-01
263.077480	1.383333	dec_social_accept	1.383333	32.000000	n/a	16	9.210526e-02	9.210526e-02
263.077480	1.383333	dec_accept	1.383333	32.000000	n/a	16	6.250000e-02	6.250000e-02
263.077480	1.383333	dec_social_accept_high	1.383333	32.000000	n/a	16	2.682292e-01	2.682292e-01
270.718500	1.075627	dec_social_choice	1.075627	32.000000	n/a	0	0	-2.317708e-01
270.718500	1.075627	dec_choice	1.075627	32.000000	n/a	0	0	-2.317708e-01
270.718500	1.075627	dec_social_reject	1.075627	32.000000	n/a	0	0	-5.387931e-02
270.718500	1.075627	dec_reject	1.075627	32.000000	n/a	0	0	-6.640625e-02
270.718500	1.075627	dec_social_reject_low	1.075627	32.000000	n/a	2	-1.692708e-01	-2.317708e-01
279.978580	1.300051	dec_nonsocial_choice	1.300051	16.000000	n/a	0	0	-2.317708e-01
279.978580	1.300051	dec_choice	1.300051	16.000000	n/a	0	0	-2.317708e-01
279.978580	1.300051	dec_nonsocial_reject	1.300051	16.000000	n/a	0	0	8.620690e-03
279.978580	1.300051	dec_reject	1.300051	16.000000	n/a	0	0	2.403846e-02
279.978580	1.300051	dec_nonsocial_low	1.300051	16.000000	n/a	0	-2.317708e-01	-2.317708e-01
279.978580	1.300051	dec_nonsocial_reject_low	1.300051	16.000000	n/a	2	2.403846e-02	-1.009615e-01
286.810500	1.283623	dec_social_choice	1.283623	32.000000	n/a	16	2.682292e-01	2.682292e-01
286.810500	1.283623	dec_choice	1.283623	32.000000	n/a	16	2.682292e-01	2.682292e-01
286.810500	1.283623	dec_social_accept	1.283623	32.000000	n/a	16	9.210526e-02	9.210526e-02
286.810500	1.283623	dec_accept	1.283623	32.000000	n/a	16	6.250000e-02	6.250000e-02
286.810500	1.283623	dec_social_accept_high	1.283623	32.000000	n/a	16	2.682292e-01	2.682292e-01
293.645450	1.532852	dec_nonsocial_choice	1.532852	32.000000	n/a	8	1.822917e-02	1.822917e-02
293.645450	1.532852	dec_choice	1.532852	32.000000	n/a	8	1.822917e-02	1.822917e-02
293.645450	1.532852	dec_nonsocial_accept	1.532852	32.000000	n/a	8	-1.578947e-01	-1.578947e-01
293.645450	1.532852	dec_accept	1.532852	32.000000	n/a	8	-1.363636e-01	-1.363636e-01
293.645450	1.532852	dec_nonsocial_high	1.532852	32.000000	n/a	8	1.822917e-02	1.822917e-02
293.645450	1.532852	dec_nonsocial_accept_high	1.532852	32.000000	n/a	8	-1.363636e-01	-1.363636e-01
302.910580	1.051034	dec_social_choice	1.051034	32.000000	n/a	16	2.682292e-01	2.682292e-01
302.910580	1.051034	dec_choice	1.051034	32.000000	n/a	16	2.682292e-01	2.682292e-01
302.910580	1.051034	dec_social_accept	1.051034	32.000000	n/a	16	9.210526e-02	9.210526e-02
302.910580	1.051034	dec_accept	1.051034	32.000000	n/a	16	6.250000e-02	6.250000e-02
302.910580	1.051034	dec_social_high	1.051034	32.000000	n/a	16	2.682292e-01	2.682292e-01
302.910580	1.051034	dec_social_accept_high	1.051034	32.000000	n/a	16	2.682292e-01	2.682292e-01
312.162380	2.299093	dec_nonsocial_choice	2.299093	16.000000	n/a	8	2.682292e-01	2.682292e-01
312.162380	2.299093	dec_choice	2.299093	16.000000	n/a	8	2.682292e-01	2.682292e-01
312.162380	2.299093	dec_nonsocial_accept	2.299093	16.000000	n/a	8	9.210526e-02	9.210526e-02
312.162380	2.299093	dec_accept	2.299093	16.000000	n/a	8	1.136364e-01	1.136364e-01
312.162380	2.299093	dec_nonsocial_accept_high	2.299093	16.000000	n/a	8	6.250000e-02	6.250000e-02
323.028400	2.065542	dec_nonsocial_choice	2.065542	32.000000	n/a	8	1.822917e-02	1.822917e-02
323.028400	2.065542	dec_choice	2.065542	32.000000	n/a	8	1.822917e-02	1.822917e-02
323.028400	2.065542	dec_nonsocial_accept	2.065542	32.000000	n/a	8	-1.578947e-01	-1.578947e-01
323.028400	2.065542	dec_accept	2.065542	32.000000	n/a	8	-1.363636e-01	-1.363636e-01
323.028400	2.065542	dec_nonsocial_high	2.065542	32.000000	n/a	8	1.822917e-02	1.822917e-02
323.028400	2.065542	dec_nonsocial_accept_high	2.065542	32.000000	n/a	8	-1.363636e-01	-1.363636e-01
330.677900	1.200342	dec_social_choice	1.200342	32.000000	n/a	0	0	-2.317708e-01
330.677900	1.200342	dec_choice	1.200342	32.000000	n/a	0	0	-2.317708e-01
330.677900	1.200342	dec_social_reject	1.200342	32.000000	n/a	0	0	-2.262931e-02
330.677900	1.200342	dec_reject	1.200342	32.000000	n/a	0	0	-3.515625e-02
330.677900	1.200342	dec_social_low	1.200342	32.000000	n/a	0	-2.317708e-01	-2.317708e-01
330.677900	1.200342	dec_social_reject_low	1.200342	32.000000	n/a	3	-1.380208e-01	-2.317708e-01
338.328250	1.065484	dec_nonsocial_choice	1.065484	32.000000	n/a	16	2.682292e-01	2.682292e-01
338.328250	1.065484	dec_choice	1.065484	32.000000	n/a	16	2.682292e-01	2.682292e-01
338.328250	1.065484	dec_nonsocial_accept	1.065484	32.000000	n/a	16	9.210526e-02	9.210526e-02
338.328250	1.065484	dec_accept	1.065484	32.000000	n/a	16	1.136364e-01	1.136364e-01
338.328250	1.065484	dec_nonsocial_high	1.065484	32.000000	n/a	16	2.682292e-01	2.682292e-01
338.328250	1.065484	dec_nonsocial_accept_high	1.065484	32.000000	n/a	16	1.136364e-01	1.136364e-01
345.160340	1.217688	dec_social_choice	1.217688	16.000000	n/a	0	0	-2.317708e-01
345.160340	1.217688	dec_choice	1.217688	16.000000	n/a	0	0	-2.317708e-01
345.160340	1.217688	dec_social_reject	1.217688	16.000000	n/a	0	0	8.620690e-03
345.160340	1.217688	dec_reject	1.217688	16.000000	n/a	0	0	-3.906250e-03
345.160340	1.217688	dec_social_low	1.217688	16.000000	n/a	0	-2.317708e-01	-2.317708e-01
345.160340	1.217688	dec_social_reject_low	1.217688	16.000000	n/a	2	-1.067708e-01	-2.317708e-01
354.412350	1.499160	dec_social_choice	1.499160	16.000000	n/a	8	2.682292e-01	2.682292e-01
354.412350	1.499160	dec_choice	1.499160	16.000000	n/a	8	2.682292e-01	2.682292e-01
354.412350	1.499160	dec_social_accept	1.499160	16.000000	n/a	8	9.210526e-02	9.210526e-02
354.412350	1.499160	dec_accept	1.499160	16.000000	n/a	8	6.250000e-02	6.250000e-02
354.412350	1.499160	dec_social_accept_high	1.499160	16.000000	n/a	8	2.682292e-01	2.682292e-01
361.244450	1.066946	dec_nonsocial_choice	1.066946	32.000000	n/a	8	1.822917e-02	1.822917e-02
361.244450	1.066946	dec_choice	1.066946	32.000000	n/a	8	1.822917e-02	1.822917e-02
361.244450	1.066946	dec_nonsocial_accept	1.066946	32.000000	n/a	8	-1.578947e-01	-1.578947e-01
361.244450	1.066946	dec_accept	1.066946	32.000000	n/a	8	-1.363636e-01	-1.363636e-01
361.244450	1.066946	dec_nonsocial_high	1.066946	32.000000	n/a	8	1.822917e-02	1.822917e-02
361.244450	1.066946	dec_nonsocial_accept_high	1.066946	32.000000	n/a	8	-1.363636e-01	-1.363636e-01
368.878480	1.215662	dec_social_choice	1.215662	16.000000	n/a	0	0	-2.317708e-01
368.878480	1.215662	dec_choice	1.215662	16.000000	n/a	0	0	-2.317708e-01
368.878480	1.215662	dec_social_reject	1.215662	16.000000	n/a	0	0	1.336207e-01
368.878480	1.215662	dec_reject	1.215662	16.000000	n/a	0	0	1.210938e-01
368.878480	1.215662	dec_social_low	1.215662	16.000000	n/a	0	-2.317708e-01	-2.317708e-01
368.878480	1.215662	dec_social_reject_low	1.215662	16.000000	n/a	4	1.822917e-02	-2.317708e-01
