onset	duration	trial_type	response_time	Endowment	Endowment_pmod	Decision	Decision_pmod	Offer_pmod
4.586752	2	cue_social	n/a	32	7	n/a	n/a	n/a
4.586752	2	cue_social_high	n/a	32	9	n/a	n/a	n/a
12.225055	2	cue_social	n/a	32	7	n/a	n/a	n/a
12.225055	2	cue_social_high	n/a	32	9	n/a	n/a	n/a
19.066471	2	cue_social	n/a	32	7	n/a	n/a	n/a
19.066471	2	cue_social_high	n/a	32	9	n/a	n/a	n/a
28.240680	2	cue_nonsocial	n/a	16	-7	n/a	n/a	n/a
28.240680	2	cue_nonsocial_low	n/a	16	-9	n/a	n/a	n/a
35.890583	2	cue_nonsocial	n/a	32	9	n/a	n/a	n/a
35.890583	2	cue_nonsocial_high	n/a	32	7	n/a	n/a	n/a
42.724396	2	cue_nonsocial	n/a	32	9	n/a	n/a	n/a
42.724396	2	cue_nonsocial_high	n/a	32	7	n/a	n/a	n/a
49.643257	2	cue_social	n/a	32	7	n/a	n/a	n/a
49.643257	2	cue_social_high	n/a	32	9	n/a	n/a	n/a
58.884235	2	cue_social	n/a	16	-9	n/a	n/a	n/a
58.884235	2	cue_social_low	n/a	16	-7	n/a	n/a	n/a
66.441180	2	cue_nonsocial	n/a	16	-7	n/a	n/a	n/a
66.441180	2	cue_nonsocial_low	n/a	16	-9	n/a	n/a	n/a
77.392815	2	cue_social	n/a	32	7	n/a	n/a	n/a
77.392815	2	cue_social_high	n/a	32	9	n/a	n/a	n/a
84.957270	2	cue_nonsocial	n/a	32	9	n/a	n/a	n/a
84.957270	2	cue_nonsocial_high	n/a	32	7	n/a	n/a	n/a
91.854060	2	cue_social	n/a	16	-9	n/a	n/a	n/a
91.854060	2	cue_social_low	n/a	16	-7	n/a	n/a	n/a
99.440956	2	cue_nonsocial	n/a	16	-7	n/a	n/a	n/a
99.440956	2	cue_nonsocial_low	n/a	16	-9	n/a	n/a	n/a
107.133790	2	cue_social	n/a	16	-9	n/a	n/a	n/a
107.133790	2	cue_social_low	n/a	16	-7	n/a	n/a	n/a
114.011540	2	cue_social	n/a	32	7	n/a	n/a	n/a
114.011540	2	cue_social_high	n/a	32	9	n/a	n/a	n/a
120.757580	2	cue_nonsocial	n/a	16	-7	n/a	n/a	n/a
120.757580	2	cue_nonsocial_low	n/a	16	-9	n/a	n/a	n/a
127.590950	2	cue_nonsocial	n/a	32	9	n/a	n/a	n/a
127.590950	2	cue_nonsocial_high	n/a	32	7	n/a	n/a	n/a
138.457340	2	cue_nonsocial	n/a	16	-7	n/a	n/a	n/a
138.457340	2	cue_nonsocial_low	n/a	16	-9	n/a	n/a	n/a
145.291050	2	cue_nonsocial	n/a	16	-7	n/a	n/a	n/a
145.291050	2	cue_nonsocial_low	n/a	16	-9	n/a	n/a	n/a
152.123580	2	cue_nonsocial	n/a	32	9	n/a	n/a	n/a
152.123580	2	cue_nonsocial_high	n/a	32	7	n/a	n/a	n/a
161.470670	2	cue_social	n/a	16	-9	n/a	n/a	n/a
161.470670	2	cue_social_low	n/a	16	-7	n/a	n/a	n/a
168.299900	2	cue_social	n/a	32	7	n/a	n/a	n/a
168.299900	2	cue_social_high	n/a	32	9	n/a	n/a	n/a
177.556690	2	cue_social	n/a	16	-9	n/a	n/a	n/a
177.556690	2	cue_social_low	n/a	16	-7	n/a	n/a	n/a
184.374770	2	cue_social	n/a	32	7	n/a	n/a	n/a
184.374770	2	cue_social_high	n/a	32	9	n/a	n/a	n/a
192.044620	2	cue_social	n/a	16	-9	n/a	n/a	n/a
192.044620	2	cue_social_low	n/a	16	-7	n/a	n/a	n/a
201.229420	2	cue_nonsocial	n/a	32	9	n/a	n/a	n/a
201.229420	2	cue_nonsocial_high	n/a	32	7	n/a	n/a	n/a
210.564090	2	cue_social	n/a	16	-9	n/a	n/a	n/a
210.564090	2	cue_social_low	n/a	16	-7	n/a	n/a	n/a
218.140460	2	cue_nonsocial	n/a	16	-7	n/a	n/a	n/a
218.140460	2	cue_nonsocial_low	n/a	16	-9	n/a	n/a	n/a
225.790020	2	cue_nonsocial	n/a	32	9	n/a	n/a	n/a
225.790020	2	cue_nonsocial_high	n/a	32	7	n/a	n/a	n/a
232.695280	2	cue_social	n/a	16	-9	n/a	n/a	n/a
232.695280	2	cue_social_low	n/a	16	-7	n/a	n/a	n/a
240.264240	2	cue_social	n/a	32	7	n/a	n/a	n/a
240.264240	2	cue_social_high	n/a	32	9	n/a	n/a	n/a
252.756600	2	cue_nonsocial	n/a	16	-7	n/a	n/a	n/a
252.756600	2	cue_nonsocial_low	n/a	16	-9	n/a	n/a	n/a
259.674130	2	cue_social	n/a	32	7	n/a	n/a	n/a
259.674130	2	cue_social_high	n/a	32	9	n/a	n/a	n/a
267.299900	2	cue_social	n/a	16	-9	n/a	n/a	n/a
267.299900	2	cue_social_low	n/a	16	-7	n/a	n/a	n/a
274.892200	2	cue_nonsocial	n/a	16	-7	n/a	n/a	n/a
274.892200	2	cue_nonsocial_low	n/a	16	-9	n/a	n/a	n/a
281.815340	2	cue_social	n/a	32	7	n/a	n/a	n/a
281.815340	2	cue_social_high	n/a	32	9	n/a	n/a	n/a
288.556670	2	cue_nonsocial	n/a	32	9	n/a	n/a	n/a
288.556670	2	cue_nonsocial_high	n/a	32	7	n/a	n/a	n/a
295.481300	2	cue_social	n/a	16	-9	n/a	n/a	n/a
295.481300	2	cue_social_low	n/a	16	-7	n/a	n/a	n/a
302.223100	2	cue_nonsocial	n/a	16	-7	n/a	n/a	n/a
302.223100	2	cue_nonsocial_low	n/a	16	-9	n/a	n/a	n/a
309.057340	2	cue_nonsocial	n/a	16	-7	n/a	n/a	n/a
309.057340	2	cue_nonsocial_low	n/a	16	-9	n/a	n/a	n/a
315.984500	2	cue_social	n/a	32	7	n/a	n/a	n/a
315.984500	2	cue_social_high	n/a	32	9	n/a	n/a	n/a
322.723480	2	cue_nonsocial	n/a	16	-7	n/a	n/a	n/a
322.723480	2	cue_nonsocial_low	n/a	16	-9	n/a	n/a	n/a
329.556850	2	cue_nonsocial	n/a	32	9	n/a	n/a	n/a
329.556850	2	cue_nonsocial_high	n/a	32	7	n/a	n/a	n/a
336.391900	2	cue_nonsocial	n/a	16	-7	n/a	n/a	n/a
336.391900	2	cue_nonsocial_low	n/a	16	-9	n/a	n/a	n/a
344.039800	2	cue_nonsocial	n/a	16	-7	n/a	n/a	n/a
344.039800	2	cue_nonsocial_low	n/a	16	-9	n/a	n/a	n/a
350.955050	2	cue_social	n/a	32	7	n/a	n/a	n/a
350.955050	2	cue_social_high	n/a	32	9	n/a	n/a	n/a
357.706540	2	cue_nonsocial	n/a	32	9	n/a	n/a	n/a
357.706540	2	cue_nonsocial_high	n/a	32	7	n/a	n/a	n/a
368.657870	2	cue_social	n/a	16	-9	n/a	n/a	n/a
368.657870	2	cue_social_low	n/a	16	-7	n/a	n/a	n/a
6.512173	1.283567	dec_social_choice	1.283567	32.000000	n/a	0	0	-2.298177e-01
6.512173	1.283567	dec_choice	1.283567	32.000000	n/a	0	0	-2.304688e-01
6.512173	1.283567	dec_social_reject	1.283567	32.000000	n/a	0	0	-3.598485e-02
6.512173	1.283567	dec_reject	1.283567	32.000000	n/a	0	0	-4.044118e-02
6.512173	1.283567	dec_social_low	1.283567	32.000000	n/a	0	-2.304688e-01	-2.304688e-01
6.512173	1.283567	dec_social_reject_low	1.283567	32.000000	n/a	3	-1.367188e-01	-2.304688e-01
14.163307	1.583673	dec_social_choice	1.583673	32.000000	n/a	16	2.701823e-01	2.701823e-01
14.163307	1.583673	dec_choice	1.583673	32.000000	n/a	16	2.695312e-01	2.695312e-01
14.163307	1.583673	dec_social_accept	1.583673	32.000000	n/a	16	5.000000e-02	5.000000e-02
14.163307	1.583673	dec_accept	1.583673	32.000000	n/a	16	3.571429e-02	3.571429e-02
14.163307	1.583673	dec_social_accept_high	1.583673	32.000000	n/a	16	2.695312e-01	2.695312e-01
20.995980	2.250631	dec_social_choice	2.250631	32.000000	n/a	0	0	-2.298177e-01
20.995980	2.250631	dec_choice	2.250631	32.000000	n/a	0	0	-2.304688e-01
20.995980	2.250631	dec_social_reject	2.250631	32.000000	n/a	0	0	1.202652e-01
20.995980	2.250631	dec_reject	2.250631	32.000000	n/a	0	0	1.158088e-01
20.995980	2.250631	dec_social_low	2.250631	32.000000	n/a	0	-2.304688e-01	-2.304688e-01
20.995980	2.250631	dec_social_reject_low	2.250631	32.000000	n/a	8	1.953125e-02	-2.304688e-01
30.246595	0.849883	dec_nonsocial_choice	0.849883	16.000000	n/a	8	2.701823e-01	2.701823e-01
30.246595	0.849883	dec_choice	0.849883	16.000000	n/a	8	2.708333e-01	2.708333e-01
30.246595	0.849883	dec_nonsocial_accept	0.849883	16.000000	n/a	8	5.000000e-02	5.000000e-02
30.246595	0.849883	dec_accept	0.849883	16.000000	n/a	8	6.250000e-02	6.250000e-02
30.246595	0.849883	dec_nonsocial_high	0.849883	16.000000	n/a	8	2.708333e-01	2.708333e-01
30.246595	0.849883	dec_nonsocial_accept_high	0.849883	16.000000	n/a	8	6.250000e-02	6.250000e-02
37.896805	1.199599	dec_nonsocial_choice	1.199599	32.000000	n/a	0	0	-2.298177e-01
37.896805	1.199599	dec_choice	1.199599	32.000000	n/a	0	0	-2.291667e-01
37.896805	1.199599	dec_nonsocial_reject	1.199599	32.000000	n/a	0	0	-6.723485e-02
37.896805	1.199599	dec_reject	1.199599	32.000000	n/a	0	0	-6.250000e-02
37.896805	1.199599	dec_nonsocial_low	1.199599	32.000000	n/a	0	-2.291667e-01	-2.291667e-01
37.896805	1.199599	dec_nonsocial_reject_low	1.199599	32.000000	n/a	2	-6.250000e-02	-1.250000e-01
44.729874	1.100025	dec_nonsocial_choice	1.100025	32.000000	n/a	0	0	-2.298177e-01
44.729874	1.100025	dec_choice	1.100025	32.000000	n/a	0	0	-2.291667e-01
44.729874	1.100025	dec_nonsocial_reject	1.100025	32.000000	n/a	0	0	-3.598485e-02
44.729874	1.100025	dec_reject	1.100025	32.000000	n/a	0	0	-3.125000e-02
44.729874	1.100025	dec_nonsocial_reject_low	1.100025	32.000000	n/a	3	-4.044118e-02	-1.341912e-01
51.561947	1.283625	dec_social_choice	1.283625	32.000000	n/a	0	0	-2.298177e-01
51.561947	1.283625	dec_choice	1.283625	32.000000	n/a	0	0	-2.304688e-01
51.561947	1.283625	dec_social_reject	1.283625	32.000000	n/a	0	0	-6.723485e-02
51.561947	1.283625	dec_reject	1.283625	32.000000	n/a	0	0	-7.169118e-02
51.561947	1.283625	dec_social_low	1.283625	32.000000	n/a	0	-2.304688e-01	-2.304688e-01
51.561947	1.283625	dec_social_reject_low	1.283625	32.000000	n/a	2	-1.679688e-01	-2.304688e-01
60.812073	1.101269	dec_social_choice	1.101269	16.000000	n/a	0	0	-2.298177e-01
60.812073	1.101269	dec_choice	1.101269	16.000000	n/a	0	0	-2.304688e-01
60.812073	1.101269	dec_social_reject	1.101269	16.000000	n/a	0	0	-4.734848e-03
60.812073	1.101269	dec_reject	1.101269	16.000000	n/a	0	0	-9.191176e-03
60.812073	1.101269	dec_social_low	1.101269	16.000000	n/a	0	-2.304688e-01	-2.304688e-01
60.812073	1.101269	dec_social_reject_low	1.101269	16.000000	n/a	2	-1.054688e-01	-2.304688e-01
68.446850	1.065012	dec_nonsocial_choice	1.065012	16.000000	n/a	0	0	-2.298177e-01
68.446850	1.065012	dec_choice	1.065012	16.000000	n/a	0	0	-2.291667e-01
68.446850	1.065012	dec_nonsocial_reject	1.065012	16.000000	n/a	0	0	-4.734848e-03
68.446850	1.065012	dec_reject	1.065012	16.000000	n/a	0	0	0
68.446850	1.065012	dec_nonsocial_low	1.065012	16.000000	n/a	0	-2.291667e-01	-2.291667e-01
68.446850	1.065012	dec_nonsocial_reject_low	1.065012	16.000000	n/a	2	0	-1.250000e-01
79.329770	1.033190	dec_social_choice	1.033190	32.000000	n/a	0	0	-2.298177e-01
79.329770	1.033190	dec_choice	1.033190	32.000000	n/a	0	0	-2.304688e-01
79.329770	1.033190	dec_social_reject	1.033190	32.000000	n/a	0	0	-3.598485e-02
79.329770	1.033190	dec_reject	1.033190	32.000000	n/a	0	0	-4.044118e-02
79.329770	1.033190	dec_social_low	1.033190	32.000000	n/a	0	-2.304688e-01	-2.304688e-01
79.329770	1.033190	dec_social_reject_low	1.033190	32.000000	n/a	3	-1.367188e-01	-2.304688e-01
86.962890	1.515993	dec_nonsocial_choice	1.515993	32.000000	n/a	8	2.018229e-02	2.018229e-02
86.962890	1.515993	dec_choice	1.515993	32.000000	n/a	8	2.083333e-02	2.083333e-02
86.962890	1.515993	dec_nonsocial_accept	1.515993	32.000000	n/a	8	-2.000000e-01	-2.000000e-01
86.962890	1.515993	dec_accept	1.515993	32.000000	n/a	8	-1.875000e-01	-1.875000e-01
86.962890	1.515993	dec_nonsocial_high	1.515993	32.000000	n/a	8	2.083333e-02	2.083333e-02
86.962890	1.515993	dec_nonsocial_accept_high	1.515993	32.000000	n/a	8	-1.875000e-01	-1.875000e-01
93.795815	1.200437	dec_social_choice	1.200437	16.000000	n/a	0	0	-2.298177e-01
93.795815	1.200437	dec_choice	1.200437	16.000000	n/a	0	0	-2.304688e-01
93.795815	1.200437	dec_social_reject	1.200437	16.000000	n/a	0	0	-6.723485e-02
93.795815	1.200437	dec_reject	1.200437	16.000000	n/a	0	0	-7.169118e-02
93.795815	1.200437	dec_social_low	1.200437	16.000000	n/a	0	-2.304688e-01	-2.304688e-01
93.795815	1.200437	dec_social_reject_low	1.200437	16.000000	n/a	1	-1.679688e-01	-2.304688e-01
101.446120	0.915877	dec_nonsocial_choice	0.915877	16.000000	n/a	0	0	-2.298177e-01
101.446120	0.915877	dec_choice	0.915877	16.000000	n/a	0	0	-2.291667e-01
101.446120	0.915877	dec_nonsocial_reject	0.915877	16.000000	n/a	0	0	-6.723485e-02
101.446120	0.915877	dec_reject	0.915877	16.000000	n/a	0	0	-6.250000e-02
101.446120	0.915877	dec_nonsocial_low	0.915877	16.000000	n/a	0	-2.291667e-01	-2.291667e-01
101.446120	0.915877	dec_nonsocial_reject_low	0.915877	16.000000	n/a	1	-6.250000e-02	-1.250000e-01
109.095860	1.033705	dec_social_choice	1.033705	16.000000	n/a	0	0	-2.298177e-01
109.095860	1.033705	dec_choice	1.033705	16.000000	n/a	0	0	-2.304688e-01
109.095860	1.033705	dec_social_reject	1.033705	16.000000	n/a	0	0	-6.723485e-02
109.095860	1.033705	dec_reject	1.033705	16.000000	n/a	0	0	-7.169118e-02
109.095860	1.033705	dec_social_low	1.033705	16.000000	n/a	0	-2.304688e-01	-2.304688e-01
109.095860	1.033705	dec_social_reject_low	1.033705	16.000000	n/a	1	-1.679688e-01	-2.304688e-01
115.929600	0.983758	dec_social_choice	0.983758	32.000000	n/a	16	2.701823e-01	2.701823e-01
115.929600	0.983758	dec_choice	0.983758	32.000000	n/a	16	2.695312e-01	2.695312e-01
115.929600	0.983758	dec_social_accept	0.983758	32.000000	n/a	16	5.000000e-02	5.000000e-02
115.929600	0.983758	dec_accept	0.983758	32.000000	n/a	16	3.571429e-02	3.571429e-02
115.929600	0.983758	dec_social_high	0.983758	32.000000	n/a	16	2.695312e-01	2.695312e-01
115.929600	0.983758	dec_social_accept_high	0.983758	32.000000	n/a	16	2.695312e-01	2.695312e-01
122.763275	0.949700	dec_nonsocial_choice	0.949700	16.000000	n/a	0	0	-2.298177e-01
122.763275	0.949700	dec_choice	0.949700	16.000000	n/a	0	0	-2.291667e-01
122.763275	0.949700	dec_nonsocial_reject	0.949700	16.000000	n/a	0	0	1.202652e-01
122.763275	0.949700	dec_reject	0.949700	16.000000	n/a	0	0	1.250000e-01
122.763275	0.949700	dec_nonsocial_reject_low	0.949700	16.000000	n/a	4	1.158088e-01	-1.341912e-01
129.596120	0.899999	dec_nonsocial_choice	0.899999	32.000000	n/a	16	2.701823e-01	2.701823e-01
129.596120	0.899999	dec_choice	0.899999	32.000000	n/a	16	2.708333e-01	2.708333e-01
129.596120	0.899999	dec_nonsocial_accept	0.899999	32.000000	n/a	16	5.000000e-02	5.000000e-02
129.596120	0.899999	dec_accept	0.899999	32.000000	n/a	16	6.250000e-02	6.250000e-02
129.596120	0.899999	dec_nonsocial_high	0.899999	32.000000	n/a	16	2.708333e-01	2.708333e-01
129.596120	0.899999	dec_nonsocial_accept_high	0.899999	32.000000	n/a	16	6.250000e-02	6.250000e-02
140.463490	1.515230	dec_nonsocial_choice	1.515230	16.000000	n/a	0	0	-2.298177e-01
140.463490	1.515230	dec_choice	1.515230	16.000000	n/a	0	0	-2.291667e-01
140.463490	1.515230	dec_nonsocial_reject	1.515230	16.000000	n/a	0	0	1.202652e-01
140.463490	1.515230	dec_reject	1.515230	16.000000	n/a	0	0	1.250000e-01
140.463490	1.515230	dec_nonsocial_low	1.515230	16.000000	n/a	0	-2.291667e-01	-2.291667e-01
140.463490	1.515230	dec_nonsocial_reject_low	1.515230	16.000000	n/a	4	1.250000e-01	-1.250000e-01
147.295840	1.049972	dec_nonsocial_choice	1.049972	16.000000	n/a	8	2.701823e-01	2.701823e-01
147.295840	1.049972	dec_choice	1.049972	16.000000	n/a	8	2.708333e-01	2.708333e-01
147.295840	1.049972	dec_nonsocial_accept	1.049972	16.000000	n/a	8	5.000000e-02	5.000000e-02
147.295840	1.049972	dec_accept	1.049972	16.000000	n/a	8	6.250000e-02	6.250000e-02
147.295840	1.049972	dec_nonsocial_high	1.049972	16.000000	n/a	8	2.708333e-01	2.708333e-01
147.295840	1.049972	dec_nonsocial_accept_high	1.049972	16.000000	n/a	8	6.250000e-02	6.250000e-02
154.130330	1.132577	dec_nonsocial_choice	1.132577	32.000000	n/a	0	0	-2.298177e-01
154.130330	1.132577	dec_choice	1.132577	32.000000	n/a	0	0	-2.291667e-01
154.130330	1.132577	dec_nonsocial_reject	1.132577	32.000000	n/a	0	0	-6.723485e-02
154.130330	1.132577	dec_reject	1.132577	32.000000	n/a	0	0	-6.250000e-02
154.130330	1.132577	dec_nonsocial_reject_low	1.132577	32.000000	n/a	2	-7.169118e-02	-1.341912e-01
163.394990	1.317877	dec_social_choice	1.317877	16.000000	n/a	0	0	-2.298177e-01
163.394990	1.317877	dec_choice	1.317877	16.000000	n/a	0	0	-2.304688e-01
163.394990	1.317877	dec_social_reject	1.317877	16.000000	n/a	0	0	1.202652e-01
163.394990	1.317877	dec_reject	1.317877	16.000000	n/a	0	0	1.158088e-01
163.394990	1.317877	dec_social_low	1.317877	16.000000	n/a	0	-2.304688e-01	-2.304688e-01
163.394990	1.317877	dec_social_reject_low	1.317877	16.000000	n/a	4	1.953125e-02	-2.304688e-01
170.229130	1.032676	dec_social_choice	1.032676	32.000000	n/a	0	0	-2.298177e-01
170.229130	1.032676	dec_choice	1.032676	32.000000	n/a	0	0	-2.304688e-01
170.229130	1.032676	dec_social_reject	1.032676	32.000000	n/a	0	0	-6.723485e-02
170.229130	1.032676	dec_reject	1.032676	32.000000	n/a	0	0	-7.169118e-02
170.229130	1.032676	dec_social_reject_low	1.032676	32.000000	n/a	2	-1.679688e-01	-2.304688e-01
179.496600	1.766175	dec_social_choice	1.766175	16.000000	n/a	8	2.701823e-01	2.701823e-01
179.496600	1.766175	dec_choice	1.766175	16.000000	n/a	8	2.695312e-01	2.695312e-01
179.496600	1.766175	dec_social_accept	1.766175	16.000000	n/a	8	5.000000e-02	5.000000e-02
179.496600	1.766175	dec_accept	1.766175	16.000000	n/a	8	3.571429e-02	3.571429e-02
179.496600	1.766175	dec_social_accept_high	1.766175	16.000000	n/a	8	2.695312e-01	2.695312e-01
186.329440	2.049961	dec_social_choice	2.049961	32.000000	n/a	0	0	-2.298177e-01
186.329440	2.049961	dec_choice	2.049961	32.000000	n/a	0	0	-2.304688e-01
186.329440	2.049961	dec_social_reject	2.049961	32.000000	n/a	0	0	1.202652e-01
186.329440	2.049961	dec_reject	2.049961	32.000000	n/a	0	0	1.158088e-01
186.329440	2.049961	dec_social_reject_low	2.049961	32.000000	n/a	8	1.953125e-02	-2.304688e-01
193.979700	1.182055	dec_social_choice	1.182055	16.000000	n/a	0	0	-2.298177e-01
193.979700	1.182055	dec_choice	1.182055	16.000000	n/a	0	0	-2.304688e-01
193.979700	1.182055	dec_social_reject	1.182055	16.000000	n/a	0	0	1.202652e-01
193.979700	1.182055	dec_reject	1.182055	16.000000	n/a	0	0	1.158088e-01
193.979700	1.182055	dec_social_low	1.182055	16.000000	n/a	0	-2.304688e-01	-2.304688e-01
193.979700	1.182055	dec_social_reject_low	1.182055	16.000000	n/a	4	1.953125e-02	-2.304688e-01
203.245990	1.099884	dec_nonsocial_choice	1.099884	32.000000	n/a	16	2.701823e-01	2.701823e-01
203.245990	1.099884	dec_choice	1.099884	32.000000	n/a	16	2.708333e-01	2.708333e-01
203.245990	1.099884	dec_nonsocial_accept	1.099884	32.000000	n/a	16	5.000000e-02	5.000000e-02
203.245990	1.099884	dec_accept	1.099884	32.000000	n/a	16	6.250000e-02	6.250000e-02
203.245990	1.099884	dec_nonsocial_high	1.099884	32.000000	n/a	16	2.708333e-01	2.708333e-01
203.245990	1.099884	dec_nonsocial_accept_high	1.099884	32.000000	n/a	16	6.250000e-02	6.250000e-02
212.494770	0.983625	dec_social_choice	0.983625	16.000000	n/a	0	0	-2.298177e-01
212.494770	0.983625	dec_choice	0.983625	16.000000	n/a	0	0	-2.304688e-01
212.494770	0.983625	dec_social_reject	0.983625	16.000000	n/a	0	0	-6.723485e-02
212.494770	0.983625	dec_reject	0.983625	16.000000	n/a	0	0	-7.169118e-02
212.494770	0.983625	dec_social_reject_low	0.983625	16.000000	n/a	1	-1.679688e-01	-2.304688e-01
220.145950	1.166558	dec_nonsocial_choice	1.166558	16.000000	n/a	0	0	-2.298177e-01
220.145950	1.166558	dec_choice	1.166558	16.000000	n/a	0	0	-2.291667e-01
220.145950	1.166558	dec_nonsocial_reject	1.166558	16.000000	n/a	0	0	-6.723485e-02
220.145950	1.166558	dec_reject	1.166558	16.000000	n/a	0	0	-6.250000e-02
220.145950	1.166558	dec_nonsocial_low	1.166558	16.000000	n/a	0	-2.291667e-01	-2.291667e-01
220.145950	1.166558	dec_nonsocial_reject_low	1.166558	16.000000	n/a	1	-6.250000e-02	-1.250000e-01
227.795550	1.216075	dec_nonsocial_choice	1.216075	32.000000	n/a	0	0	-2.298177e-01
227.795550	1.216075	dec_choice	1.216075	32.000000	n/a	0	0	-2.291667e-01
227.795550	1.216075	dec_nonsocial_reject	1.216075	32.000000	n/a	0	0	-3.598485e-02
227.795550	1.216075	dec_reject	1.216075	32.000000	n/a	0	0	-3.125000e-02
227.795550	1.216075	dec_nonsocial_low	1.216075	32.000000	n/a	0	-2.291667e-01	-2.291667e-01
227.795550	1.216075	dec_nonsocial_reject_low	1.216075	32.000000	n/a	3	-3.125000e-02	-1.250000e-01
234.628480	1.300648	dec_social_choice	1.300648	16.000000	n/a	8	2.701823e-01	2.701823e-01
234.628480	1.300648	dec_choice	1.300648	16.000000	n/a	8	2.695312e-01	2.695312e-01
234.628480	1.300648	dec_social_accept	1.300648	16.000000	n/a	8	5.000000e-02	5.000000e-02
234.628480	1.300648	dec_accept	1.300648	16.000000	n/a	8	3.571429e-02	3.571429e-02
234.628480	1.300648	dec_social_accept_high	1.300648	16.000000	n/a	8	2.695312e-01	2.695312e-01
242.279700	1.632832	dec_social_choice	1.632832	32.000000	n/a	0	0	-2.298177e-01
242.279700	1.632832	dec_choice	1.632832	32.000000	n/a	0	0	-2.304688e-01
242.279700	1.632832	dec_social_reject	1.632832	32.000000	n/a	0	0	-3.598485e-02
242.279700	1.632832	dec_reject	1.632832	32.000000	n/a	0	0	-4.044118e-02
242.279700	1.632832	dec_social_reject_low	1.632832	32.000000	n/a	3	-1.367188e-01	-2.304688e-01
254.761840	1.316494	dec_nonsocial_choice	1.316494	16.000000	n/a	0	0	-2.298177e-01
254.761840	1.316494	dec_choice	1.316494	16.000000	n/a	0	0	-2.291667e-01
254.761840	1.316494	dec_nonsocial_reject	1.316494	16.000000	n/a	0	0	-6.723485e-02
254.761840	1.316494	dec_reject	1.316494	16.000000	n/a	0	0	-6.250000e-02
254.761840	1.316494	dec_nonsocial_reject_low	1.316494	16.000000	n/a	1	-7.169118e-02	-1.341912e-01
261.595370	2.783644	dec_social_choice	2.783644	32.000000	n/a	8	2.018229e-02	2.018229e-02
261.595370	2.783644	dec_choice	2.783644	32.000000	n/a	8	1.953125e-02	1.953125e-02
261.595370	2.783644	dec_social_accept	2.783644	32.000000	n/a	8	-2.000000e-01	-2.000000e-01
261.595370	2.783644	dec_accept	2.783644	32.000000	n/a	8	-2.142857e-01	-2.142857e-01
261.595370	2.783644	dec_social_accept_high	2.783644	32.000000	n/a	8	1.953125e-02	1.953125e-02
269.245760	1.033174	dec_social_choice	1.033174	16.000000	n/a	0	0	-2.298177e-01
269.245760	1.033174	dec_choice	1.033174	16.000000	n/a	0	0	-2.304688e-01
269.245760	1.033174	dec_social_reject	1.033174	16.000000	n/a	0	0	1.202652e-01
269.245760	1.033174	dec_reject	1.033174	16.000000	n/a	0	0	1.158088e-01
269.245760	1.033174	dec_social_low	1.033174	16.000000	n/a	0	-2.304688e-01	-2.304688e-01
269.245760	1.033174	dec_social_reject_low	1.033174	16.000000	n/a	4	1.953125e-02	-2.304688e-01
276.896030	1.166178	dec_nonsocial_choice	1.166178	16.000000	n/a	0	0	-2.298177e-01
276.896030	1.166178	dec_choice	1.166178	16.000000	n/a	0	0	-2.291667e-01
276.896030	1.166178	dec_nonsocial_reject	1.166178	16.000000	n/a	0	0	1.202652e-01
276.896030	1.166178	dec_reject	1.166178	16.000000	n/a	0	0	1.250000e-01
276.896030	1.166178	dec_nonsocial_reject_low	1.166178	16.000000	n/a	4	1.158088e-01	-1.341912e-01
283.729220	1.233119	dec_social_choice	1.233119	32.000000	n/a	0	0	-2.298177e-01
283.729220	1.233119	dec_choice	1.233119	32.000000	n/a	0	0	-2.304688e-01
283.729220	1.233119	dec_social_reject	1.233119	32.000000	n/a	0	0	-6.723485e-02
283.729220	1.233119	dec_reject	1.233119	32.000000	n/a	0	0	-7.169118e-02
283.729220	1.233119	dec_social_low	1.233119	32.000000	n/a	0	-2.304688e-01	-2.304688e-01
283.729220	1.233119	dec_social_reject_low	1.233119	32.000000	n/a	2	-1.679688e-01	-2.304688e-01
290.562320	1.415808	dec_nonsocial_choice	1.415808	32.000000	n/a	0	0	-2.298177e-01
290.562320	1.415808	dec_choice	1.415808	32.000000	n/a	0	0	-2.291667e-01
290.562320	1.415808	dec_nonsocial_reject	1.415808	32.000000	n/a	0	0	-3.598485e-02
290.562320	1.415808	dec_reject	1.415808	32.000000	n/a	0	0	-3.125000e-02
290.562320	1.415808	dec_nonsocial_low	1.415808	32.000000	n/a	0	-2.291667e-01	-2.291667e-01
290.562320	1.415808	dec_nonsocial_reject_low	1.415808	32.000000	n/a	3	-3.125000e-02	-1.250000e-01
297.395480	1.050281	dec_social_choice	1.050281	16.000000	n/a	0	0	-2.298177e-01
297.395480	1.050281	dec_choice	1.050281	16.000000	n/a	0	0	-2.304688e-01
297.395480	1.050281	dec_social_reject	1.050281	16.000000	n/a	0	0	-4.734848e-03
297.395480	1.050281	dec_reject	1.050281	16.000000	n/a	0	0	-9.191176e-03
297.395480	1.050281	dec_social_low	1.050281	16.000000	n/a	0	-2.304688e-01	-2.304688e-01
297.395480	1.050281	dec_social_reject_low	1.050281	16.000000	n/a	2	-1.054688e-01	-2.304688e-01
304.229130	1.083313	dec_nonsocial_choice	1.083313	16.000000	n/a	8	2.701823e-01	2.701823e-01
304.229130	1.083313	dec_choice	1.083313	16.000000	n/a	8	2.708333e-01	2.708333e-01
304.229130	1.083313	dec_nonsocial_accept	1.083313	16.000000	n/a	8	5.000000e-02	5.000000e-02
304.229130	1.083313	dec_accept	1.083313	16.000000	n/a	8	6.250000e-02	6.250000e-02
304.229130	1.083313	dec_nonsocial_high	1.083313	16.000000	n/a	8	2.708333e-01	2.708333e-01
304.229130	1.083313	dec_nonsocial_accept_high	1.083313	16.000000	n/a	8	6.250000e-02	6.250000e-02
311.062300	0.915663	dec_nonsocial_choice	0.915663	16.000000	n/a	0	0	-2.298177e-01
311.062300	0.915663	dec_choice	0.915663	16.000000	n/a	0	0	-2.291667e-01
311.062300	0.915663	dec_nonsocial_reject	0.915663	16.000000	n/a	0	0	-4.734848e-03
311.062300	0.915663	dec_reject	0.915663	16.000000	n/a	0	0	0
311.062300	0.915663	dec_nonsocial_reject_low	0.915663	16.000000	n/a	2	-9.191176e-03	-1.341912e-01
317.895540	1.015898	dec_social_choice	1.015898	32.000000	n/a	16	2.701823e-01	2.701823e-01
317.895540	1.015898	dec_choice	1.015898	32.000000	n/a	16	2.695312e-01	2.695312e-01
317.895540	1.015898	dec_social_accept	1.015898	32.000000	n/a	16	5.000000e-02	5.000000e-02
317.895540	1.015898	dec_accept	1.015898	32.000000	n/a	16	3.571429e-02	3.571429e-02
317.895540	1.015898	dec_social_high	1.015898	32.000000	n/a	16	2.695312e-01	2.695312e-01
317.895540	1.015898	dec_social_accept_high	1.015898	32.000000	n/a	16	2.695312e-01	2.695312e-01
324.728450	0.833611	dec_nonsocial_choice	0.833611	16.000000	n/a	0	0	-2.298177e-01
324.728450	0.833611	dec_choice	0.833611	16.000000	n/a	0	0	-2.291667e-01
324.728450	0.833611	dec_nonsocial_reject	0.833611	16.000000	n/a	0	0	1.202652e-01
324.728450	0.833611	dec_reject	0.833611	16.000000	n/a	0	0	1.250000e-01
324.728450	0.833611	dec_nonsocial_reject_low	0.833611	16.000000	n/a	4	1.158088e-01	-1.341912e-01
331.562230	1.049816	dec_nonsocial_choice	1.049816	32.000000	n/a	0	0	-2.298177e-01
331.562230	1.049816	dec_choice	1.049816	32.000000	n/a	0	0	-2.291667e-01
331.562230	1.049816	dec_nonsocial_reject	1.049816	32.000000	n/a	0	0	-3.598485e-02
331.562230	1.049816	dec_reject	1.049816	32.000000	n/a	0	0	-3.125000e-02
331.562230	1.049816	dec_nonsocial_low	1.049816	32.000000	n/a	0	-2.291667e-01	-2.291667e-01
331.562230	1.049816	dec_nonsocial_reject_low	1.049816	32.000000	n/a	3	-3.125000e-02	-1.250000e-01
338.396420	1.082208	dec_nonsocial_choice	1.082208	16.000000	n/a	8	2.701823e-01	2.701823e-01
338.396420	1.082208	dec_choice	1.082208	16.000000	n/a	8	2.708333e-01	2.708333e-01
338.396420	1.082208	dec_nonsocial_accept	1.082208	16.000000	n/a	8	5.000000e-02	5.000000e-02
338.396420	1.082208	dec_accept	1.082208	16.000000	n/a	8	6.250000e-02	6.250000e-02
338.396420	1.082208	dec_nonsocial_high	1.082208	16.000000	n/a	8	2.708333e-01	2.708333e-01
338.396420	1.082208	dec_nonsocial_accept_high	1.082208	16.000000	n/a	8	6.250000e-02	6.250000e-02
346.045500	1.333115	dec_nonsocial_choice	1.333115	16.000000	n/a	0	0	-2.298177e-01
346.045500	1.333115	dec_choice	1.333115	16.000000	n/a	0	0	-2.291667e-01
346.045500	1.333115	dec_nonsocial_reject	1.333115	16.000000	n/a	0	0	-6.723485e-02
346.045500	1.333115	dec_reject	1.333115	16.000000	n/a	0	0	-6.250000e-02
346.045500	1.333115	dec_nonsocial_low	1.333115	16.000000	n/a	0	-2.291667e-01	-2.291667e-01
346.045500	1.333115	dec_nonsocial_reject_low	1.333115	16.000000	n/a	1	-6.250000e-02	-1.250000e-01
352.878420	1.450257	dec_social_choice	1.450257	32.000000	n/a	16	2.701823e-01	2.701823e-01
352.878420	1.450257	dec_choice	1.450257	32.000000	n/a	16	2.695312e-01	2.695312e-01
352.878420	1.450257	dec_social_accept	1.450257	32.000000	n/a	16	5.000000e-02	5.000000e-02
352.878420	1.450257	dec_accept	1.450257	32.000000	n/a	16	3.571429e-02	3.571429e-02
352.878420	1.450257	dec_social_accept_high	1.450257	32.000000	n/a	16	2.695312e-01	2.695312e-01
359.712460	1.765308	dec_nonsocial_choice	1.765308	32.000000	n/a	8	2.018229e-02	2.018229e-02
359.712460	1.765308	dec_choice	1.765308	32.000000	n/a	8	2.083333e-02	2.083333e-02
359.712460	1.765308	dec_nonsocial_accept	1.765308	32.000000	n/a	8	-2.000000e-01	-2.000000e-01
359.712460	1.765308	dec_accept	1.765308	32.000000	n/a	8	-1.875000e-01	-1.875000e-01
359.712460	1.765308	dec_nonsocial_accept_high	1.765308	32.000000	n/a	8	-2.142857e-01	-2.142857e-01
370.595400	1.216627	dec_social_choice	1.216627	16.000000	n/a	0	0	-2.298177e-01
370.595400	1.216627	dec_choice	1.216627	16.000000	n/a	0	0	-2.304688e-01
370.595400	1.216627	dec_social_reject	1.216627	16.000000	n/a	0	0	-4.734848e-03
370.595400	1.216627	dec_reject	1.216627	16.000000	n/a	0	0	-9.191176e-03
370.595400	1.216627	dec_social_reject_low	1.216627	16.000000	n/a	2	-1.054688e-01	-2.304688e-01
