onset	duration	trial_type	rt	resp	gender	image_left	image_right
0.634620500000892	3.00102419999894	decision	2.53411750000669	left	F	FF017.jpg	FF018.jpg
4.18461170000955	1.01652829998056	loss	NaN	n/a	n/a	FF017.jpg	FF018.jpg
11.1678751000145	3.00154059997294	decision	1.78390199999558	right	F	FF035.jpg	FF036.jpg
14.7178233000159	1.00001029999112	win	NaN	n/a	n/a	FF035.jpg	FF036.jpg
21.6679117000022	3.00142749998486	decision	2.28384290001122	right	F	FF021.jpg	FF022.jpg
25.2179783000029	1.01661910000257	loss	NaN	n/a	n/a	FF021.jpg	FF022.jpg
32.1850365000137	3.00129190000007	decision	2.03371829999378	left	M	MF025.jpg	MF026.jpg
35.7345163999998	1.00000490000821	loss	NaN	n/a	n/a	MF025.jpg	MF026.jpg
38.4844095000008	3.00129919999745	decision	1.53447899999446	right	M	MF027.jpg	MF028.jpg
42.0347581999958	1.01681380000082	loss	NaN	n/a	n/a	MF027.jpg	MF028.jpg
44.8011218000029	3.00147600000491	decision	2.53469860000769	left	M	MF023.jpg	MF024.jpg
48.351101200009	1.01668790000258	win	NaN	n/a	n/a	MF023.jpg	MF024.jpg
51.1178079000092	3.00180050000199	decision	2.28365979998489	left	F	FF037.jpg	FF038.jpg
54.6676971999987	1.00012139999308	win	NaN	n/a	n/a	FF037.jpg	FF038.jpg
59.5177738000057	3.00166290000197	decision	1.78392359998543	left	M	MF011.jpg	MF012.jpg
63.0677508999943	1.01665730000241	loss	NaN	n/a	n/a	MF011.jpg	MF012.jpg
67.9348686000158	3.0013313999807	decision	2.03318459997536	left	F	FF009.jpg	FF010.jpg
71.4842929000151	1.01663109997753	win	NaN	n/a	n/a	FF009.jpg	FF010.jpg
74.2677881999989	3.00077529999544	decision	2.53344329999527	left	F	FF027.jpg	FF028.jpg
77.8176464000135	1.01675089998753	win	NaN	n/a	n/a	FF027.jpg	FF028.jpg
82.6847301000089	3.00247700000182	decision	2.03298709998489	left	F	FF015.jpg	FF016.jpg
86.2347145999956	1.01640210000915	loss	NaN	n/a	n/a	FF015.jpg	FF016.jpg
93.2010589000129	3.0015965999919	decision	2.03364660000079	right	M	MF029.jpg	MF030.jpg
96.7508998000121	1.00006599997869	loss	NaN	n/a	n/a	MF029.jpg	MF030.jpg
101.600983000011	3.00125909998314	decision	2.03362179998658	left	M	MF015.jpg	MF016.jpg
105.150886299991	1.01665160001721	win	NaN	n/a	n/a	MF015.jpg	MF016.jpg
112.117974299996	3.00147710001329	decision	1.78370770000038	left	M	MF007.jpg	MF008.jpg
115.667536599998	1.00000140001066	win	NaN	n/a	n/a	MF007.jpg	MF008.jpg
120.517581099994	3.00093340000603	decision	2.03308310001739	left	M	MF017.jpg	MF018.jpg
124.067967500014	1.01622259998112	win	NaN	n/a	n/a	MF017.jpg	MF018.jpg
126.834411299991	3.00059640000109	decision	2.5340933999978	left	F	FF033.jpg	FF034.jpg
130.384624500002	1.01624900000752	win	NaN	n/a	n/a	FF033.jpg	FF034.jpg
133.1508187	3.00167359999614	decision	2.53371240000706	right	F	FF007.jpg	FF008.jpg
136.700861199992	1.01667939999606	loss	NaN	n/a	n/a	FF007.jpg	FF008.jpg
139.467542400002	3.00066240000888	decision	1.78306499999599	left	F	FF023.jpg	FF024.jpg
143.017506400007	1.00019170000451	loss	NaN	n/a	n/a	FF023.jpg	FF024.jpg
156.267519699992	3.00104980001925	decision	2.53404690002208	right	M	MF009.jpg	MF010.jpg
159.817418299994	1.01667650000309	loss	NaN	n/a	n/a	MF009.jpg	MF010.jpg
164.684395199991	3.00150870002108	decision	2.03389500000048	left	F	FF001.jpg	FF002.jpg
168.234223600011	1.01652499998454	win	NaN	n/a	n/a	FF001.jpg	FF002.jpg
171.000720100012	3.00182869998389	decision	2.53387639997527	left	M	MF019.jpg	MF020.jpg
174.550700899999	1.01655659999233	loss	NaN	n/a	n/a	MF019.jpg	MF020.jpg
181.517503799987	3.0009309000161	decision	1.78334100000211	left	F	FF031.jpg	FF032.jpg
185.067255400005	1.00007660000119	loss	NaN	n/a	n/a	FF031.jpg	FF032.jpg
189.917577899992	3.00197250000201	decision	2.03395599999931	right	M	MF005.jpg	MF006.jpg
193.46727600001	1.01672089999192	win	NaN	n/a	n/a	MF005.jpg	MF006.jpg
196.234019700001	3.00143880001269	decision	2.5339316999889	left	F	FF019.jpg	FF020.jpg
199.784405699989	1.01645880000433	win	NaN	n/a	n/a	FF019.jpg	FF020.jpg
206.750555800012	3.00236409998615	decision	2.53394809999736	right	M	MF013.jpg	MF014.jpg
210.300520399993	1.00000379999983	loss	NaN	n/a	n/a	MF013.jpg	MF014.jpg
217.250541299989	3.00195299999905	decision	2.03398720000405	left	M	MF031.jpg	MF032.jpg
220.800442700012	1.0001127999858	loss	NaN	n/a	n/a	MF031.jpg	MF032.jpg
225.650490300002	3.00159870000789	decision	1.78399940000963	left	F	FF039.jpg	FF040.jpg
229.200417100015	1.00008959998377	loss	NaN	n/a	n/a	FF039.jpg	FF040.jpg
231.967232700001	3.00139879999915	decision	2.28317450001487	right	F	FF005.jpg	FF006.jpg
235.517236899992	1.00001650000922	loss	NaN	n/a	n/a	FF005.jpg	FF006.jpg
242.467241100007	3.00023079998209	decision	2.2842299999902	left	M	MF037.jpg	MF038.jpg
246.017138800002	1.01667469998938	loss	NaN	n/a	n/a	MF037.jpg	MF038.jpg
248.783870000014	3.0016904999793	decision	2.03359109998564	left	M	MF039.jpg	MF040.jpg
252.333761099988	1.00006610000855	win	NaN	n/a	n/a	MF039.jpg	MF040.jpg
255.100435100001	3.00116809998872	decision	1.7843101999897	left	M	MF033.jpg	MF034.jpg
258.650339499989	1.01674479999929	loss	NaN	n/a	n/a	MF033.jpg	MF034.jpg
261.417116800003	3.00131910000346	decision	1.78339960001176	right	F	FF013.jpg	FF014.jpg
264.967174499994	1.00033360000816	win	NaN	n/a	n/a	FF013.jpg	FF014.jpg
269.817553200002	3.00195090001216	decision	2.28483029999188	right	M	MF001.jpg	MF002.jpg
273.367207600008	1.01666900000419	win	NaN	n/a	n/a	MF001.jpg	MF002.jpg
276.150364800007	3.00122390000615	decision	2.03255050000735	right	F	FF003.jpg	FF004.jpg
279.700261199992	1.00039719999768	win	NaN	n/a	n/a	FF003.jpg	FF004.jpg
284.550502600003	3.00193979998585	decision	2.28451880000648	right	M	MF003.jpg	MF004.jpg
288.101072899997	1.01598389999708	win	NaN	n/a	n/a	MF003.jpg	MF004.jpg
295.083616199991	3.00090060001821	decision	2.03409220001777	right	F	FF025.jpg	FF026.jpg
298.633500099997	1.00020539999241	win	NaN	n/a	n/a	FF025.jpg	FF026.jpg
305.600269799994	3.00134360001539	decision	1.5342590000073	left	M	MF035.jpg	MF036.jpg
309.150340099994	1.01648330001626	win	NaN	n/a	n/a	MF035.jpg	MF036.jpg
311.916877000011	3.00167969998438	decision	2.03374990000157	right	F	FF011.jpg	FF012.jpg
315.466875699989	1.01661450002575	loss	NaN	n/a	n/a	FF011.jpg	FF012.jpg
318.233594399993	3.00079799999367	decision	1.53414240002166	left	M	MF021.jpg	MF022.jpg
321.783607799996	1.01659579999978	win	NaN	n/a	n/a	MF021.jpg	MF022.jpg
326.6502301	3.00094619998708	decision	1.78336979998858	left	F	FF029.jpg	FF030.jpg
330.200230399991	1.01672850002069	loss	NaN	n/a	n/a	FF029.jpg	FF030.jpg
