onset	duration	trial_type	response_time	Endowment	Endowment_pmod	Decision	Decision_pmod	Offer_pmod
4.580113	2	cue_social	n/a	16	-7	n/a	n/a	n/a
4.580113	2	cue_social_low	n/a	16	-10	n/a	n/a	n/a
11.342176	2	cue_nonsocial	n/a	16	-10	n/a	n/a	n/a
11.342176	2	cue_nonsocial_low	n/a	16	-7	n/a	n/a	n/a
23.825335	2	cue_nonsocial	n/a	32	6	n/a	n/a	n/a
23.825335	2	cue_nonsocial_high	n/a	32	9	n/a	n/a	n/a
30.660875	2	cue_nonsocial	n/a	16	-10	n/a	n/a	n/a
30.660875	2	cue_nonsocial_low	n/a	16	-7	n/a	n/a	n/a
39.991390	2	cue_social	n/a	32	9	n/a	n/a	n/a
39.991390	2	cue_social_high	n/a	32	6	n/a	n/a	n/a
46.834396	2	cue_social	n/a	16	-7	n/a	n/a	n/a
46.834396	2	cue_social_low	n/a	16	-10	n/a	n/a	n/a
53.688100	2	cue_social	n/a	16	-7	n/a	n/a	n/a
53.688100	2	cue_social_low	n/a	16	-10	n/a	n/a	n/a
60.408280	2	cue_nonsocial	n/a	32	6	n/a	n/a	n/a
60.408280	2	cue_nonsocial_high	n/a	32	9	n/a	n/a	n/a
68.058400	2	cue_nonsocial	n/a	16	-10	n/a	n/a	n/a
68.058400	2	cue_nonsocial_low	n/a	16	-7	n/a	n/a	n/a
74.891655	2	cue_nonsocial	n/a	32	6	n/a	n/a	n/a
74.891655	2	cue_nonsocial_high	n/a	32	9	n/a	n/a	n/a
85.758224	2	cue_nonsocial	n/a	32	6	n/a	n/a	n/a
85.758224	2	cue_nonsocial_high	n/a	32	9	n/a	n/a	n/a
93.408180	2	cue_nonsocial	n/a	32	6	n/a	n/a	n/a
93.408180	2	cue_nonsocial_high	n/a	32	9	n/a	n/a	n/a
101.066376	2	cue_social	n/a	32	9	n/a	n/a	n/a
101.066376	2	cue_social_high	n/a	32	6	n/a	n/a	n/a
107.891650	2	cue_nonsocial	n/a	16	-10	n/a	n/a	n/a
107.891650	2	cue_nonsocial_low	n/a	16	-7	n/a	n/a	n/a
114.724815	2	cue_nonsocial	n/a	32	6	n/a	n/a	n/a
114.724815	2	cue_nonsocial_high	n/a	32	9	n/a	n/a	n/a
121.558105	2	cue_nonsocial	n/a	16	-10	n/a	n/a	n/a
121.558105	2	cue_nonsocial_low	n/a	16	-7	n/a	n/a	n/a
129.191570	2	cue_nonsocial	n/a	32	6	n/a	n/a	n/a
129.191570	2	cue_nonsocial_high	n/a	32	9	n/a	n/a	n/a
136.855820	2	cue_nonsocial	n/a	32	6	n/a	n/a	n/a
136.855820	2	cue_nonsocial_high	n/a	32	9	n/a	n/a	n/a
144.544200	2	cue_social	n/a	32	9	n/a	n/a	n/a
144.544200	2	cue_social_high	n/a	32	6	n/a	n/a	n/a
151.423280	2	cue_social	n/a	32	9	n/a	n/a	n/a
151.423280	2	cue_social_high	n/a	32	6	n/a	n/a	n/a
158.158900	2	cue_nonsocial	n/a	16	-10	n/a	n/a	n/a
158.158900	2	cue_nonsocial_low	n/a	16	-7	n/a	n/a	n/a
165.087650	2	cue_social	n/a	16	-7	n/a	n/a	n/a
165.087650	2	cue_social_low	n/a	16	-10	n/a	n/a	n/a
174.241410	2	cue_nonsocial	n/a	32	6	n/a	n/a	n/a
174.241410	2	cue_nonsocial_high	n/a	32	9	n/a	n/a	n/a
183.491560	2	cue_nonsocial	n/a	16	-10	n/a	n/a	n/a
183.491560	2	cue_nonsocial_low	n/a	16	-7	n/a	n/a	n/a
191.141370	2	cue_nonsocial	n/a	16	-10	n/a	n/a	n/a
191.141370	2	cue_nonsocial_low	n/a	16	-7	n/a	n/a	n/a
197.977980	2	cue_social	n/a	32	9	n/a	n/a	n/a
197.977980	2	cue_social_high	n/a	32	6	n/a	n/a	n/a
207.241400	2	cue_nonsocial	n/a	32	6	n/a	n/a	n/a
207.241400	2	cue_nonsocial_high	n/a	32	9	n/a	n/a	n/a
214.075530	2	cue_nonsocial	n/a	16	-10	n/a	n/a	n/a
214.075530	2	cue_nonsocial_low	n/a	16	-7	n/a	n/a	n/a
220.908200	2	cue_nonsocial	n/a	32	6	n/a	n/a	n/a
220.908200	2	cue_nonsocial_high	n/a	32	9	n/a	n/a	n/a
230.157970	2	cue_nonsocial	n/a	32	6	n/a	n/a	n/a
230.157970	2	cue_nonsocial_high	n/a	32	9	n/a	n/a	n/a
237.093340	2	cue_social	n/a	16	-7	n/a	n/a	n/a
237.093340	2	cue_social_low	n/a	16	-10	n/a	n/a	n/a
243.937910	2	cue_social	n/a	32	9	n/a	n/a	n/a
243.937910	2	cue_social_high	n/a	32	6	n/a	n/a	n/a
251.551000	2	cue_social	n/a	16	-7	n/a	n/a	n/a
251.551000	2	cue_social_low	n/a	16	-10	n/a	n/a	n/a
259.201870	2	cue_social	n/a	32	9	n/a	n/a	n/a
259.201870	2	cue_social_high	n/a	32	6	n/a	n/a	n/a
266.873780	2	cue_social	n/a	32	9	n/a	n/a	n/a
266.873780	2	cue_social_high	n/a	32	6	n/a	n/a	n/a
273.609100	2	cue_nonsocial	n/a	32	6	n/a	n/a	n/a
273.609100	2	cue_nonsocial_high	n/a	32	9	n/a	n/a	n/a
280.443100	2	cue_social	n/a	16	-7	n/a	n/a	n/a
280.443100	2	cue_social_low	n/a	16	-10	n/a	n/a	n/a
287.275360	2	cue_social	n/a	16	-7	n/a	n/a	n/a
287.275360	2	cue_social_low	n/a	16	-10	n/a	n/a	n/a
294.227940	2	cue_social	n/a	16	-7	n/a	n/a	n/a
294.227940	2	cue_social_low	n/a	16	-10	n/a	n/a	n/a
301.782840	2	cue_social	n/a	16	-7	n/a	n/a	n/a
301.782840	2	cue_social_low	n/a	16	-10	n/a	n/a	n/a
311.007660	2	cue_nonsocial	n/a	32	6	n/a	n/a	n/a
311.007660	2	cue_nonsocial_high	n/a	32	9	n/a	n/a	n/a
317.844240	2	cue_social	n/a	16	-7	n/a	n/a	n/a
317.844240	2	cue_social_low	n/a	16	-10	n/a	n/a	n/a
324.764470	2	cue_social	n/a	16	-7	n/a	n/a	n/a
324.764470	2	cue_social_low	n/a	16	-10	n/a	n/a	n/a
334.011500	2	cue_social	n/a	32	9	n/a	n/a	n/a
334.011500	2	cue_social_high	n/a	32	6	n/a	n/a	n/a
344.808040	2	cue_nonsocial	n/a	32	6	n/a	n/a	n/a
344.808040	2	cue_nonsocial_high	n/a	32	9	n/a	n/a	n/a
352.524750	2	cue_social	n/a	16	-7	n/a	n/a	n/a
352.524750	2	cue_social_low	n/a	16	-10	n/a	n/a	n/a
363.416660	2	cue_social	n/a	32	9	n/a	n/a	n/a
363.416660	2	cue_social_high	n/a	32	6	n/a	n/a	n/a
370.983860	2	cue_social	n/a	32	9	n/a	n/a	n/a
370.983860	2	cue_social_high	n/a	32	6	n/a	n/a	n/a
6.514144	1.250002	dec_social_choice	1.250002	16.000000	n/a	0	0	-2.311198e-01
6.514144	1.250002	dec_choice	1.250002	16.000000	n/a	0	0	-2.330729e-01
6.514144	1.250002	dec_social_reject	1.250002	16.000000	n/a	0	0	3.776042e-02
6.514144	1.250002	dec_reject	1.250002	16.000000	n/a	0	0	3.385417e-02
6.514144	1.250002	dec_social_reject_low	1.250002	16.000000	n/a	2	-1.080729e-01	-2.330729e-01
13.347837	1.300251	dec_nonsocial_choice	1.300251	16.000000	n/a	8	2.688802e-01	2.688802e-01
13.347837	1.300251	dec_choice	1.300251	16.000000	n/a	8	2.708333e-01	2.708333e-01
13.347837	1.300251	dec_nonsocial_accept	1.300251	16.000000	n/a	8	1.250000e-01	1.250000e-01
13.347837	1.300251	dec_accept	1.300251	16.000000	n/a	8	1.250000e-01	1.250000e-01
13.347837	1.300251	dec_nonsocial_high	1.300251	16.000000	n/a	8	2.708333e-01	2.708333e-01
13.347837	1.300251	dec_nonsocial_accept_high	1.300251	16.000000	n/a	8	1.250000e-01	1.250000e-01
25.831472	1.349736	dec_nonsocial_choice	1.349736	32.000000	n/a	0	0	-2.311198e-01
25.831472	1.349736	dec_choice	1.349736	32.000000	n/a	0	0	-2.291667e-01
25.831472	1.349736	dec_nonsocial_reject	1.349736	32.000000	n/a	0	0	-2.473958e-02
25.831472	1.349736	dec_reject	1.349736	32.000000	n/a	0	0	-2.083333e-02
25.831472	1.349736	dec_nonsocial_low	1.349736	32.000000	n/a	0	-2.291667e-01	-2.291667e-01
25.831472	1.349736	dec_nonsocial_reject_low	1.349736	32.000000	n/a	2	-2.083333e-02	-8.333333e-02
32.664047	1.251004	dec_nonsocial_choice	1.251004	16.000000	n/a	0	0	-2.311198e-01
32.664047	1.251004	dec_choice	1.251004	16.000000	n/a	0	0	-2.291667e-01
32.664047	1.251004	dec_nonsocial_reject	1.251004	16.000000	n/a	0	0	3.776042e-02
32.664047	1.251004	dec_reject	1.251004	16.000000	n/a	0	0	4.166667e-02
32.664047	1.251004	dec_nonsocial_reject_low	1.251004	16.000000	n/a	2	3.385417e-02	-9.114583e-02
41.914032	0.983532	dec_social_choice	0.983532	32.000000	n/a	0	0	-2.311198e-01
41.914032	0.983532	dec_choice	0.983532	32.000000	n/a	0	0	-2.330729e-01
41.914032	0.983532	dec_social_reject	0.983532	32.000000	n/a	0	0	-2.473958e-02
41.914032	0.983532	dec_reject	0.983532	32.000000	n/a	0	0	-2.864583e-02
41.914032	0.983532	dec_social_reject_low	0.983532	32.000000	n/a	2	-1.705729e-01	-2.330729e-01
48.746960	1.766851	dec_social_choice	1.766851	16.000000	n/a	4	1.888021e-02	1.888021e-02
48.746960	1.766851	dec_choice	1.766851	16.000000	n/a	4	1.692708e-02	1.692708e-02
48.746960	1.766851	dec_social_accept	1.766851	16.000000	n/a	4	-1.250000e-01	-1.250000e-01
48.746960	1.766851	dec_accept	1.766851	16.000000	n/a	4	-1.250000e-01	-1.250000e-01
48.746960	1.766851	dec_social_accept_high	1.766851	16.000000	n/a	4	1.692708e-02	1.692708e-02
55.580963	1.483307	dec_social_choice	1.483307	16.000000	n/a	4	1.888021e-02	1.888021e-02
55.580963	1.483307	dec_choice	1.483307	16.000000	n/a	4	1.692708e-02	1.692708e-02
55.580963	1.483307	dec_social_accept	1.483307	16.000000	n/a	4	-1.250000e-01	-1.250000e-01
55.580963	1.483307	dec_accept	1.483307	16.000000	n/a	4	-1.250000e-01	-1.250000e-01
55.580963	1.483307	dec_social_high	1.483307	16.000000	n/a	4	1.692708e-02	1.692708e-02
55.580963	1.483307	dec_social_accept_high	1.483307	16.000000	n/a	4	1.692708e-02	1.692708e-02
62.414967	1.499391	dec_nonsocial_choice	1.499391	32.000000	n/a	0	0	-2.311198e-01
62.414967	1.499391	dec_choice	1.499391	32.000000	n/a	0	0	-2.291667e-01
62.414967	1.499391	dec_nonsocial_reject	1.499391	32.000000	n/a	0	0	6.510417e-03
62.414967	1.499391	dec_reject	1.499391	32.000000	n/a	0	0	1.041667e-02
62.414967	1.499391	dec_nonsocial_reject_low	1.499391	32.000000	n/a	3	2.604167e-03	-9.114583e-02
70.064760	1.633173	dec_nonsocial_choice	1.633173	16.000000	n/a	4	1.888021e-02	1.888021e-02
70.064760	1.633173	dec_choice	1.633173	16.000000	n/a	4	2.083333e-02	2.083333e-02
70.064760	1.633173	dec_nonsocial_accept	1.633173	16.000000	n/a	4	-1.250000e-01	-1.250000e-01
70.064760	1.633173	dec_accept	1.633173	16.000000	n/a	4	-1.250000e-01	-1.250000e-01
70.064760	1.633173	dec_nonsocial_high	1.633173	16.000000	n/a	4	2.083333e-02	2.083333e-02
70.064760	1.633173	dec_nonsocial_accept_high	1.633173	16.000000	n/a	4	-1.250000e-01	-1.250000e-01
76.898476	1.249440	dec_nonsocial_choice	1.249440	32.000000	n/a	8	1.888021e-02	1.888021e-02
76.898476	1.249440	dec_choice	1.249440	32.000000	n/a	8	2.083333e-02	2.083333e-02
76.898476	1.249440	dec_nonsocial_accept	1.249440	32.000000	n/a	8	-1.250000e-01	-1.250000e-01
76.898476	1.249440	dec_accept	1.249440	32.000000	n/a	8	-1.250000e-01	-1.250000e-01
76.898476	1.249440	dec_nonsocial_high	1.249440	32.000000	n/a	8	2.083333e-02	2.083333e-02
76.898476	1.249440	dec_nonsocial_accept_high	1.249440	32.000000	n/a	8	-1.250000e-01	-1.250000e-01
87.765000	2.449449	dec_nonsocial_choice	2.449449	32.000000	n/a	8	1.888021e-02	1.888021e-02
87.765000	2.449449	dec_choice	2.449449	32.000000	n/a	8	2.083333e-02	2.083333e-02
87.765000	2.449449	dec_nonsocial_accept	2.449449	32.000000	n/a	8	-1.250000e-01	-1.250000e-01
87.765000	2.449449	dec_accept	2.449449	32.000000	n/a	8	-1.250000e-01	-1.250000e-01
87.765000	2.449449	dec_nonsocial_accept_high	2.449449	32.000000	n/a	8	-1.250000e-01	-1.250000e-01
95.414920	1.199743	dec_nonsocial_choice	1.199743	32.000000	n/a	0	0	-2.311198e-01
95.414920	1.199743	dec_choice	1.199743	32.000000	n/a	0	0	-2.291667e-01
95.414920	1.199743	dec_nonsocial_reject	1.199743	32.000000	n/a	0	0	-2.473958e-02
95.414920	1.199743	dec_reject	1.199743	32.000000	n/a	0	0	-2.083333e-02
95.414920	1.199743	dec_nonsocial_reject_low	1.199743	32.000000	n/a	2	-2.864583e-02	-9.114583e-02
103.064830	1.899523	dec_social_choice	1.899523	32.000000	n/a	8	1.888021e-02	1.888021e-02
103.064830	1.899523	dec_choice	1.899523	32.000000	n/a	8	1.692708e-02	1.692708e-02
103.064830	1.899523	dec_social_accept	1.899523	32.000000	n/a	8	-1.250000e-01	-1.250000e-01
103.064830	1.899523	dec_accept	1.899523	32.000000	n/a	8	-1.250000e-01	-1.250000e-01
103.064830	1.899523	dec_social_accept_high	1.899523	32.000000	n/a	8	1.692708e-02	1.692708e-02
109.897420	1.783492	dec_nonsocial_choice	1.783492	16.000000	n/a	0	0	-2.311198e-01
109.897420	1.783492	dec_choice	1.783492	16.000000	n/a	0	0	-2.291667e-01
109.897420	1.783492	dec_nonsocial_reject	1.783492	16.000000	n/a	0	0	3.776042e-02
109.897420	1.783492	dec_reject	1.783492	16.000000	n/a	0	0	4.166667e-02
109.897420	1.783492	dec_nonsocial_reject_low	1.783492	16.000000	n/a	2	3.385417e-02	-9.114583e-02
116.730980	1.433565	dec_nonsocial_choice	1.433565	32.000000	n/a	8	1.888021e-02	1.888021e-02
116.730980	1.433565	dec_choice	1.433565	32.000000	n/a	8	2.083333e-02	2.083333e-02
116.730980	1.433565	dec_nonsocial_accept	1.433565	32.000000	n/a	8	-1.250000e-01	-1.250000e-01
116.730980	1.433565	dec_accept	1.433565	32.000000	n/a	8	-1.250000e-01	-1.250000e-01
116.730980	1.433565	dec_nonsocial_high	1.433565	32.000000	n/a	8	2.083333e-02	2.083333e-02
116.730980	1.433565	dec_nonsocial_accept_high	1.433565	32.000000	n/a	8	-1.250000e-01	-1.250000e-01
123.563850	1.083622	dec_nonsocial_choice	1.083622	16.000000	n/a	4	1.888021e-02	1.888021e-02
123.563850	1.083622	dec_choice	1.083622	16.000000	n/a	4	2.083333e-02	2.083333e-02
123.563850	1.083622	dec_nonsocial_accept	1.083622	16.000000	n/a	4	-1.250000e-01	-1.250000e-01
123.563850	1.083622	dec_accept	1.083622	16.000000	n/a	4	-1.250000e-01	-1.250000e-01
123.563850	1.083622	dec_nonsocial_high	1.083622	16.000000	n/a	4	2.083333e-02	2.083333e-02
123.563850	1.083622	dec_nonsocial_accept_high	1.083622	16.000000	n/a	4	-1.250000e-01	-1.250000e-01
131.196930	1.566851	dec_nonsocial_choice	1.566851	32.000000	n/a	0	0	-2.311198e-01
131.196930	1.566851	dec_choice	1.566851	32.000000	n/a	0	0	-2.291667e-01
131.196930	1.566851	dec_nonsocial_reject	1.566851	32.000000	n/a	0	0	-2.473958e-02
131.196930	1.566851	dec_reject	1.566851	32.000000	n/a	0	0	-2.083333e-02
131.196930	1.566851	dec_nonsocial_low	1.566851	32.000000	n/a	0	-2.291667e-01	-2.291667e-01
131.196930	1.566851	dec_nonsocial_reject_low	1.566851	32.000000	n/a	2	-2.083333e-02	-8.333333e-02
138.847200	1.116528	dec_nonsocial_choice	1.116528	32.000000	n/a	0	0	-2.311198e-01
138.847200	1.116528	dec_choice	1.116528	32.000000	n/a	0	0	-2.291667e-01
138.847200	1.116528	dec_nonsocial_reject	1.116528	32.000000	n/a	0	0	6.510417e-03
138.847200	1.116528	dec_reject	1.116528	32.000000	n/a	0	0	1.041667e-02
138.847200	1.116528	dec_nonsocial_reject_low	1.116528	32.000000	n/a	3	2.604167e-03	-9.114583e-02
146.498550	1.182499	dec_social_choice	1.182499	32.000000	n/a	0	0	-2.311198e-01
146.498550	1.182499	dec_choice	1.182499	32.000000	n/a	0	0	-2.330729e-01
146.498550	1.182499	dec_social_reject	1.182499	32.000000	n/a	0	0	-2.473958e-02
146.498550	1.182499	dec_reject	1.182499	32.000000	n/a	0	0	-2.864583e-02
146.498550	1.182499	dec_social_reject_low	1.182499	32.000000	n/a	2	-1.705729e-01	-2.330729e-01
153.331910	1.049178	dec_social_choice	1.049178	32.000000	n/a	0	0	-2.311198e-01
153.331910	1.049178	dec_choice	1.049178	32.000000	n/a	0	0	-2.330729e-01
153.331910	1.049178	dec_social_reject	1.049178	32.000000	n/a	0	0	-2.473958e-02
153.331910	1.049178	dec_reject	1.049178	32.000000	n/a	0	0	-2.864583e-02
153.331910	1.049178	dec_social_reject_low	1.049178	32.000000	n/a	2	-1.705729e-01	-2.330729e-01
160.165070	1.732275	dec_nonsocial_choice	1.732275	16.000000	n/a	8	2.688802e-01	2.688802e-01
160.165070	1.732275	dec_choice	1.732275	16.000000	n/a	8	2.708333e-01	2.708333e-01
160.165070	1.732275	dec_nonsocial_accept	1.732275	16.000000	n/a	8	1.250000e-01	1.250000e-01
160.165070	1.732275	dec_accept	1.732275	16.000000	n/a	8	1.250000e-01	1.250000e-01
160.165070	1.732275	dec_nonsocial_high	1.732275	16.000000	n/a	8	2.708333e-01	2.708333e-01
160.165070	1.732275	dec_nonsocial_accept_high	1.732275	16.000000	n/a	8	1.250000e-01	1.250000e-01
166.997970	1.199422	dec_social_choice	1.199422	16.000000	n/a	8	2.688802e-01	2.688802e-01
166.997970	1.199422	dec_choice	1.199422	16.000000	n/a	8	2.669271e-01	2.669271e-01
166.997970	1.199422	dec_social_accept	1.199422	16.000000	n/a	8	1.250000e-01	1.250000e-01
166.997970	1.199422	dec_accept	1.199422	16.000000	n/a	8	1.250000e-01	1.250000e-01
166.997970	1.199422	dec_social_high	1.199422	16.000000	n/a	8	2.669271e-01	2.669271e-01
166.997970	1.199422	dec_social_accept_high	1.199422	16.000000	n/a	8	2.669271e-01	2.669271e-01
176.247330	1.416467	dec_nonsocial_choice	1.416467	32.000000	n/a	16	2.688802e-01	2.688802e-01
176.247330	1.416467	dec_choice	1.416467	32.000000	n/a	16	2.708333e-01	2.708333e-01
176.247330	1.416467	dec_nonsocial_accept	1.416467	32.000000	n/a	16	1.250000e-01	1.250000e-01
176.247330	1.416467	dec_accept	1.416467	32.000000	n/a	16	1.250000e-01	1.250000e-01
176.247330	1.416467	dec_nonsocial_high	1.416467	32.000000	n/a	16	2.708333e-01	2.708333e-01
176.247330	1.416467	dec_nonsocial_accept_high	1.416467	32.000000	n/a	16	1.250000e-01	1.250000e-01
185.497740	1.282957	dec_nonsocial_choice	1.282957	16.000000	n/a	8	2.688802e-01	2.688802e-01
185.497740	1.282957	dec_choice	1.282957	16.000000	n/a	8	2.708333e-01	2.708333e-01
185.497740	1.282957	dec_nonsocial_accept	1.282957	16.000000	n/a	8	1.250000e-01	1.250000e-01
185.497740	1.282957	dec_accept	1.282957	16.000000	n/a	8	1.250000e-01	1.250000e-01
185.497740	1.282957	dec_nonsocial_high	1.282957	16.000000	n/a	8	2.708333e-01	2.708333e-01
185.497740	1.282957	dec_nonsocial_accept_high	1.282957	16.000000	n/a	8	1.250000e-01	1.250000e-01
193.147960	1.365400	dec_nonsocial_choice	1.365400	16.000000	n/a	0	0	-2.311198e-01
193.147960	1.365400	dec_choice	1.365400	16.000000	n/a	0	0	-2.291667e-01
193.147960	1.365400	dec_nonsocial_reject	1.365400	16.000000	n/a	0	0	-2.473958e-02
193.147960	1.365400	dec_reject	1.365400	16.000000	n/a	0	0	-2.083333e-02
193.147960	1.365400	dec_nonsocial_low	1.365400	16.000000	n/a	0	-2.291667e-01	-2.291667e-01
193.147960	1.365400	dec_nonsocial_reject_low	1.365400	16.000000	n/a	1	-2.083333e-02	-8.333333e-02
199.981540	1.265924	dec_social_choice	1.265924	32.000000	n/a	16	2.688802e-01	2.688802e-01
199.981540	1.265924	dec_choice	1.265924	32.000000	n/a	16	2.669271e-01	2.669271e-01
199.981540	1.265924	dec_social_accept	1.265924	32.000000	n/a	16	1.250000e-01	1.250000e-01
199.981540	1.265924	dec_accept	1.265924	32.000000	n/a	16	1.250000e-01	1.250000e-01
199.981540	1.265924	dec_social_high	1.265924	32.000000	n/a	16	2.669271e-01	2.669271e-01
199.981540	1.265924	dec_social_accept_high	1.265924	32.000000	n/a	16	2.669271e-01	2.669271e-01
209.247620	1.965923	dec_nonsocial_choice	1.965923	32.000000	n/a	0	0	-2.311198e-01
209.247620	1.965923	dec_choice	1.965923	32.000000	n/a	0	0	-2.291667e-01
209.247620	1.965923	dec_nonsocial_reject	1.965923	32.000000	n/a	0	0	6.510417e-03
209.247620	1.965923	dec_reject	1.965923	32.000000	n/a	0	0	1.041667e-02
209.247620	1.965923	dec_nonsocial_low	1.965923	32.000000	n/a	0	-2.291667e-01	-2.291667e-01
209.247620	1.965923	dec_nonsocial_reject_low	1.965923	32.000000	n/a	3	1.041667e-02	-8.333333e-02
216.079820	1.617384	dec_nonsocial_choice	1.617384	16.000000	n/a	0	0	-2.311198e-01
216.079820	1.617384	dec_choice	1.617384	16.000000	n/a	0	0	-2.291667e-01
216.079820	1.617384	dec_nonsocial_reject	1.617384	16.000000	n/a	0	0	-2.473958e-02
216.079820	1.617384	dec_reject	1.617384	16.000000	n/a	0	0	-2.083333e-02
216.079820	1.617384	dec_nonsocial_reject_low	1.617384	16.000000	n/a	1	-2.864583e-02	-9.114583e-02
222.913910	1.983493	dec_nonsocial_choice	1.983493	32.000000	n/a	8	1.888021e-02	1.888021e-02
222.913910	1.983493	dec_choice	1.983493	32.000000	n/a	8	2.083333e-02	2.083333e-02
222.913910	1.983493	dec_nonsocial_accept	1.983493	32.000000	n/a	8	-1.250000e-01	-1.250000e-01
222.913910	1.983493	dec_accept	1.983493	32.000000	n/a	8	-1.250000e-01	-1.250000e-01
222.913910	1.983493	dec_nonsocial_high	1.983493	32.000000	n/a	8	2.083333e-02	2.083333e-02
222.913910	1.983493	dec_nonsocial_accept_high	1.983493	32.000000	n/a	8	-1.250000e-01	-1.250000e-01
232.163930	1.066228	dec_nonsocial_choice	1.066228	32.000000	n/a	0	0	-2.311198e-01
232.163930	1.066228	dec_choice	1.066228	32.000000	n/a	0	0	-2.291667e-01
232.163930	1.066228	dec_nonsocial_reject	1.066228	32.000000	n/a	0	0	-2.473958e-02
232.163930	1.066228	dec_reject	1.066228	32.000000	n/a	0	0	-2.083333e-02
232.163930	1.066228	dec_nonsocial_low	1.066228	32.000000	n/a	0	-2.291667e-01	-2.291667e-01
232.163930	1.066228	dec_nonsocial_reject_low	1.066228	32.000000	n/a	2	-2.083333e-02	-8.333333e-02
238.996830	1.333610	dec_social_choice	1.333610	16.000000	n/a	0	0	-2.311198e-01
238.996830	1.333610	dec_choice	1.333610	16.000000	n/a	0	0	-2.330729e-01
238.996830	1.333610	dec_social_reject	1.333610	16.000000	n/a	0	0	3.776042e-02
238.996830	1.333610	dec_reject	1.333610	16.000000	n/a	0	0	3.385417e-02
238.996830	1.333610	dec_social_low	1.333610	16.000000	n/a	0	-2.330729e-01	-2.330729e-01
238.996830	1.333610	dec_social_reject_low	1.333610	16.000000	n/a	2	-1.080729e-01	-2.330729e-01
245.831450	2.998752	dec_social_choice	2.998752	32.000000	n/a	8	1.888021e-02	1.888021e-02
245.831450	2.998752	dec_choice	2.998752	32.000000	n/a	8	1.692708e-02	1.692708e-02
245.831450	2.998752	dec_social_accept	2.998752	32.000000	n/a	8	-1.250000e-01	-1.250000e-01
245.831450	2.998752	dec_accept	2.998752	32.000000	n/a	8	-1.250000e-01	-1.250000e-01
245.831450	2.998752	dec_social_high	2.998752	32.000000	n/a	8	1.692708e-02	1.692708e-02
245.831450	2.998752	dec_social_accept_high	2.998752	32.000000	n/a	8	1.692708e-02	1.692708e-02
253.479900	1.201025	dec_social_choice	1.201025	16.000000	n/a	8	2.688802e-01	2.688802e-01
253.479900	1.201025	dec_choice	1.201025	16.000000	n/a	8	2.669271e-01	2.669271e-01
253.479900	1.201025	dec_social_accept	1.201025	16.000000	n/a	8	1.250000e-01	1.250000e-01
253.479900	1.201025	dec_accept	1.201025	16.000000	n/a	8	1.250000e-01	1.250000e-01
253.479900	1.201025	dec_social_high	1.201025	16.000000	n/a	8	2.669271e-01	2.669271e-01
253.479900	1.201025	dec_social_accept_high	1.201025	16.000000	n/a	8	2.669271e-01	2.669271e-01
261.130250	2.083346	dec_social_choice	2.083346	32.000000	n/a	8	1.888021e-02	1.888021e-02
261.130250	2.083346	dec_choice	2.083346	32.000000	n/a	8	1.692708e-02	1.692708e-02
261.130250	2.083346	dec_social_accept	2.083346	32.000000	n/a	8	-1.250000e-01	-1.250000e-01
261.130250	2.083346	dec_accept	2.083346	32.000000	n/a	8	-1.250000e-01	-1.250000e-01
261.130250	2.083346	dec_social_accept_high	2.083346	32.000000	n/a	8	1.692708e-02	1.692708e-02
268.779750	1.084115	dec_social_choice	1.084115	32.000000	n/a	16	2.688802e-01	2.688802e-01
268.779750	1.084115	dec_choice	1.084115	32.000000	n/a	16	2.669271e-01	2.669271e-01
268.779750	1.084115	dec_social_accept	1.084115	32.000000	n/a	16	1.250000e-01	1.250000e-01
268.779750	1.084115	dec_accept	1.084115	32.000000	n/a	16	1.250000e-01	1.250000e-01
268.779750	1.084115	dec_social_accept_high	1.084115	32.000000	n/a	16	2.669271e-01	2.669271e-01
275.614720	1.515612	dec_nonsocial_choice	1.515612	32.000000	n/a	16	2.688802e-01	2.688802e-01
275.614720	1.515612	dec_choice	1.515612	32.000000	n/a	16	2.708333e-01	2.708333e-01
275.614720	1.515612	dec_nonsocial_accept	1.515612	32.000000	n/a	16	1.250000e-01	1.250000e-01
275.614720	1.515612	dec_accept	1.515612	32.000000	n/a	16	1.250000e-01	1.250000e-01
275.614720	1.515612	dec_nonsocial_high	1.515612	32.000000	n/a	16	2.708333e-01	2.708333e-01
275.614720	1.515612	dec_nonsocial_accept_high	1.515612	32.000000	n/a	16	1.250000e-01	1.250000e-01
282.447900	1.465439	dec_social_choice	1.465439	16.000000	n/a	0	0	-2.311198e-01
282.447900	1.465439	dec_choice	1.465439	16.000000	n/a	0	0	-2.330729e-01
282.447900	1.465439	dec_social_reject	1.465439	16.000000	n/a	0	0	3.776042e-02
282.447900	1.465439	dec_reject	1.465439	16.000000	n/a	0	0	3.385417e-02
282.447900	1.465439	dec_social_reject_low	1.465439	16.000000	n/a	2	-1.080729e-01	-2.330729e-01
289.280800	1.183167	dec_social_choice	1.183167	16.000000	n/a	0	0	-2.311198e-01
289.280800	1.183167	dec_choice	1.183167	16.000000	n/a	0	0	-2.330729e-01
289.280800	1.183167	dec_social_reject	1.183167	16.000000	n/a	0	0	3.776042e-02
289.280800	1.183167	dec_reject	1.183167	16.000000	n/a	0	0	3.385417e-02
289.280800	1.183167	dec_social_reject_low	1.183167	16.000000	n/a	2	-1.080729e-01	-2.330729e-01
296.114900	1.415319	dec_social_choice	1.415319	16.000000	n/a	0	0	-2.311198e-01
296.114900	1.415319	dec_choice	1.415319	16.000000	n/a	0	0	-2.330729e-01
296.114900	1.415319	dec_social_reject	1.415319	16.000000	n/a	0	0	-2.473958e-02
296.114900	1.415319	dec_reject	1.415319	16.000000	n/a	0	0	-2.864583e-02
296.114900	1.415319	dec_social_low	1.415319	16.000000	n/a	0	-2.330729e-01	-2.330729e-01
296.114900	1.415319	dec_social_reject_low	1.415319	16.000000	n/a	1	-1.705729e-01	-2.330729e-01
303.762900	1.117282	dec_social_choice	1.117282	16.000000	n/a	0	0	-2.311198e-01
303.762900	1.117282	dec_choice	1.117282	16.000000	n/a	0	0	-2.330729e-01
303.762900	1.117282	dec_social_reject	1.117282	16.000000	n/a	0	0	-2.473958e-02
303.762900	1.117282	dec_reject	1.117282	16.000000	n/a	0	0	-2.864583e-02
303.762900	1.117282	dec_social_reject_low	1.117282	16.000000	n/a	1	-1.705729e-01	-2.330729e-01
313.013850	1.115968	dec_nonsocial_choice	1.115968	32.000000	n/a	0	0	-2.311198e-01
313.013850	1.115968	dec_choice	1.115968	32.000000	n/a	0	0	-2.291667e-01
313.013850	1.115968	dec_nonsocial_reject	1.115968	32.000000	n/a	0	0	6.510417e-03
313.013850	1.115968	dec_reject	1.115968	32.000000	n/a	0	0	1.041667e-02
313.013850	1.115968	dec_nonsocial_low	1.115968	32.000000	n/a	0	-2.291667e-01	-2.291667e-01
313.013850	1.115968	dec_nonsocial_reject_low	1.115968	32.000000	n/a	3	1.041667e-02	-8.333333e-02
319.847080	0.950012	dec_social_choice	0.950012	16.000000	n/a	0	0	-2.311198e-01
319.847080	0.950012	dec_choice	0.950012	16.000000	n/a	0	0	-2.330729e-01
319.847080	0.950012	dec_social_reject	0.950012	16.000000	n/a	0	0	-2.473958e-02
319.847080	0.950012	dec_reject	0.950012	16.000000	n/a	0	0	-2.864583e-02
319.847080	0.950012	dec_social_reject_low	0.950012	16.000000	n/a	1	-1.705729e-01	-2.330729e-01
326.681270	1.398953	dec_social_choice	1.398953	16.000000	n/a	8	2.688802e-01	2.688802e-01
326.681270	1.398953	dec_choice	1.398953	16.000000	n/a	8	2.669271e-01	2.669271e-01
326.681270	1.398953	dec_social_accept	1.398953	16.000000	n/a	8	1.250000e-01	1.250000e-01
326.681270	1.398953	dec_accept	1.398953	16.000000	n/a	8	1.250000e-01	1.250000e-01
326.681270	1.398953	dec_social_accept_high	1.398953	16.000000	n/a	8	2.669271e-01	2.669271e-01
335.947000	2.350240	dec_social_choice	2.350240	32.000000	n/a	8	1.888021e-02	1.888021e-02
335.947000	2.350240	dec_choice	2.350240	32.000000	n/a	8	1.692708e-02	1.692708e-02
335.947000	2.350240	dec_social_accept	2.350240	32.000000	n/a	8	-1.250000e-01	-1.250000e-01
335.947000	2.350240	dec_accept	2.350240	32.000000	n/a	8	-1.250000e-01	-1.250000e-01
335.947000	2.350240	dec_social_accept_high	2.350240	32.000000	n/a	8	1.692708e-02	1.692708e-02
346.813570	1.366684	dec_nonsocial_choice	1.366684	32.000000	n/a	16	2.688802e-01	2.688802e-01
346.813570	1.366684	dec_choice	1.366684	32.000000	n/a	16	2.708333e-01	2.708333e-01
346.813570	1.366684	dec_nonsocial_accept	1.366684	32.000000	n/a	16	1.250000e-01	1.250000e-01
346.813570	1.366684	dec_accept	1.366684	32.000000	n/a	16	1.250000e-01	1.250000e-01
346.813570	1.366684	dec_nonsocial_accept_high	1.366684	32.000000	n/a	16	1.250000e-01	1.250000e-01
354.463200	1.266663	dec_social_choice	1.266663	16.000000	n/a	0	0	-2.311198e-01
354.463200	1.266663	dec_choice	1.266663	16.000000	n/a	0	0	-2.330729e-01
354.463200	1.266663	dec_social_reject	1.266663	16.000000	n/a	0	0	3.776042e-02
354.463200	1.266663	dec_reject	1.266663	16.000000	n/a	0	0	3.385417e-02
354.463200	1.266663	dec_social_low	1.266663	16.000000	n/a	0	-2.330729e-01	-2.330729e-01
354.463200	1.266663	dec_social_reject_low	1.266663	16.000000	n/a	2	-1.080729e-01	-2.330729e-01
365.329770	1.200783	dec_social_choice	1.200783	32.000000	n/a	0	0	-2.311198e-01
365.329770	1.200783	dec_choice	1.200783	32.000000	n/a	0	0	-2.330729e-01
365.329770	1.200783	dec_social_reject	1.200783	32.000000	n/a	0	0	6.510417e-03
365.329770	1.200783	dec_reject	1.200783	32.000000	n/a	0	0	2.604167e-03
365.329770	1.200783	dec_social_reject_low	1.200783	32.000000	n/a	3	-1.393229e-01	-2.330729e-01
372.980620	1.399944	dec_social_choice	1.399944	32.000000	n/a	16	2.688802e-01	2.688802e-01
372.980620	1.399944	dec_choice	1.399944	32.000000	n/a	16	2.669271e-01	2.669271e-01
372.980620	1.399944	dec_social_accept	1.399944	32.000000	n/a	16	1.250000e-01	1.250000e-01
372.980620	1.399944	dec_accept	1.399944	32.000000	n/a	16	1.250000e-01	1.250000e-01
372.980620	1.399944	dec_social_high	1.399944	32.000000	n/a	16	2.669271e-01	2.669271e-01
372.980620	1.399944	dec_social_accept_high	1.399944	32.000000	n/a	16	2.669271e-01	2.669271e-01
