onset	duration	trial_type	rt	resp	gender	image_left	image_right
0.613886900013313	3.00204509997275	decision	2.28288439998869	left	D	DD017.jpg	DD018.jpg
4.16357640002389	1.0166735999519	loss	NaN	n/a	n/a	DD017.jpg	DD018.jpg
11.13006580004	3.00178950000554	decision	1.78277339995839	right	D	DD035.jpg	DD036.jpg
14.679947800003	1.00006690004375	win	NaN	n/a	n/a	DD035.jpg	DD036.jpg
21.6134206000715	3.00143389997538	decision	2.03392929991242	left	D	DD021.jpg	DD022.jpg
25.1634953999892	1.01644380006474	loss	NaN	n/a	n/a	DD021.jpg	DD022.jpg
32.0969299999997	3.00184639997315	decision	2.28263460006565	right	S	SD025.jpg	SD026.jpg
35.6466513000196	1.01708100002725	loss	NaN	n/a	n/a	SD025.jpg	SD026.jpg
38.3969733000267	3.00098839995917	decision	2.53337109996937	right	S	SD027.jpg	SD028.jpg
41.9464894999983	1.00007030006964	loss	NaN	n/a	n/a	SD027.jpg	SD028.jpg
44.6633259999799	3.00127120001707	decision	2.53377300000284	right	S	SD023.jpg	SD024.jpg
48.2131347999675	1.00006360001862	win	NaN	n/a	n/a	SD023.jpg	SD024.jpg
50.9471529000439	3.00139779993333	decision	2.03272929997183	right	D	DD037.jpg	DD038.jpg
54.4969625000376	1.01636639994103	win	NaN	n/a	n/a	DD037.jpg	DD038.jpg
59.3468938000733	3.00077909999527	decision	2.78506389993709	right	S	SD011.jpg	SD012.jpg
62.8965180000523	1.00012589991093	loss	NaN	n/a	n/a	SD011.jpg	SD012.jpg
67.7140496000648	3.00085929990746	decision	2.03222059994005	left	D	DD009.jpg	DD010.jpg
71.2633151999908	1.01649730000645	win	NaN	n/a	n/a	DD009.jpg	DD010.jpg
73.99657139997	3.00109280005563	decision	1.78335760009941	left	D	DD027.jpg	DD028.jpg
77.5468449000036	1.01696809998248	win	NaN	n/a	n/a	DD027.jpg	DD028.jpg
82.4136363000143	3.00087330001406	decision	2.03226330003235	right	D	DD015.jpg	DD016.jpg
85.9633857000154	1.00024510000367	loss	NaN	n/a	n/a	DD015.jpg	DD016.jpg
92.8966649000067	3.04989460005891	decision	3.04936689999886	left	S	SD029.jpg	SD030.jpg
96.4968686000211	1.01632559997961	loss	NaN	n/a	n/a	SD029.jpg	SD030.jpg
101.330323699978	3.00144180003554	decision	2.54926870006602	left	S	SD015.jpg	SD016.jpg
104.879868500051	1.0166290999623	win	NaN	n/a	n/a	SD015.jpg	SD016.jpg
111.813324499992	3.00102239998523	decision	2.28240250004455	right	S	SD007.jpg	SD008.jpg
115.363267100067	1.00033899990376	win	NaN	n/a	n/a	SD007.jpg	SD008.jpg
120.196825499996	3.00157750002109	decision	2.28286310005933	right	S	SD017.jpg	SD018.jpg
123.746827500057	1.0165612999117	win	NaN	n/a	n/a	SD017.jpg	SD018.jpg
126.496564200032	3.00118549994659	decision	2.53323920001276	left	D	DD033.jpg	DD034.jpg
130.046797599993	1.01624680007808	win	NaN	n/a	n/a	DD033.jpg	DD034.jpg
132.796918799984	3.00136180000845	decision	2.79887930001132	right	D	DD007.jpg	DD008.jpg
136.346505500027	1.00027209997643	loss	NaN	n/a	n/a	DD007.jpg	DD008.jpg
139.063228899962	3.00122000009287	decision	1.78257460007444	left	D	DD023.jpg	DD024.jpg
142.61320110003	1.01666019996628	loss	NaN	n/a	n/a	DD023.jpg	DD024.jpg
155.863200700027	3.00142530002631	decision	2.28387589997146	left	S	SD009.jpg	SD010.jpg
159.41300499998	1.00008750008419	loss	NaN	n/a	n/a	SD009.jpg	SD010.jpg
164.229936599964	3.00140810001176	decision	2.033751900075	right	D	DD001.jpg	DD002.jpg
167.780055299983	1.0170224000467	win	NaN	n/a	n/a	DD001.jpg	DD002.jpg
170.546425800072	3.00138799997512	decision	2.53529409994371	right	S	SD019.jpg	SD020.jpg
174.096698399982	1.01652439997997	loss	NaN	n/a	n/a	SD019.jpg	SD020.jpg
181.046713200049	3.04940969997551	decision	3.04887559998315	left	D	DD031.jpg	DD032.jpg
184.646691099973	1.01635080005508	loss	NaN	n/a	n/a	DD031.jpg	DD032.jpg
189.479770999984	3.00104420003481	decision	2.53247990005184	left	S	SD005.jpg	SD006.jpg
193.029818200041	1.01652710000053	win	NaN	n/a	n/a	SD005.jpg	SD006.jpg
195.796743300045	3.00073540001176	decision	1.78215669991914	right	D	DD019.jpg	DD020.jpg
199.346630400047	1.01661459996831	win	NaN	n/a	n/a	DD019.jpg	DD020.jpg
206.279841199983	3.00053830002435	decision	1.78300140006468	right	S	SD013.jpg	SD014.jpg
209.829656400019	1.0167264000047	loss	NaN	n/a	n/a	SD013.jpg	SD014.jpg
216.763069099979	3.05039059999399	decision	3.04986760008615	right	S	SD031.jpg	SD032.jpg
220.36293599999	1.01653700007591	loss	NaN	n/a	n/a	SD031.jpg	SD032.jpg
225.196694600047	3.00065589998849	decision	2.53404019994196	left	D	DD039.jpg	DD040.jpg
228.746715000016	1.01774289994501	loss	NaN	n/a	n/a	DD039.jpg	DD040.jpg
231.496221299982	3.0499170999974	decision	3.0493954999838	left	D	DD005.jpg	DD006.jpg
235.096584800049	1.0000299999956	loss	NaN	n/a	n/a	DD005.jpg	DD006.jpg
242.029668700066	3.05071909993421	decision	3.05019679991528	right	S	SD037.jpg	SD038.jpg
245.629796799971	1.01673880009912	loss	NaN	n/a	n/a	SD037.jpg	SD038.jpg
248.363177099964	3.00061149999965	decision	2.53312260005623	left	S	SD039.jpg	SD040.jpg
251.91302159999	1.01698920002673	win	NaN	n/a	n/a	SD039.jpg	SD040.jpg
254.646258900058	3.00154859991744	decision	2.53248679998796	right	S	SD033.jpg	SD034.jpg
258.196520900005	1.01642360002734	loss	NaN	n/a	n/a	SD033.jpg	SD034.jpg
260.946301099961	3.00147940008901	decision	2.28370460006408	right	D	DD013.jpg	DD014.jpg
264.496450999985	1.01634580001701	win	NaN	n/a	n/a	DD013.jpg	DD014.jpg
269.330225300044	3.04914060002193	decision	3.04860039998312	right	S	SD001.jpg	SD002.jpg
272.929369200021	1.00010249996558	win	NaN	n/a	n/a	SD001.jpg	SD002.jpg
275.662849999964	3.00082300009672	decision	2.78504400001839	right	D	DD003.jpg	DD004.jpg
279.21275810001	1.01669459999539	win	NaN	n/a	n/a	DD003.jpg	DD004.jpg
284.046241600066	3.0502668999834	decision	3.04973529989365	left	S	SD003.jpg	SD004.jpg
287.646081999992	1.00033319997601	win	NaN	n/a	n/a	SD003.jpg	SD004.jpg
294.562924399972	3.001496000099	decision	2.79894110001624	left	D	DD025.jpg	DD026.jpg
298.113001300022	1.01681489998009	win	NaN	n/a	n/a	DD025.jpg	DD026.jpg
305.063042900059	3.0017067999579	decision	2.28366769989952	right	S	SD035.jpg	SD036.jpg
308.612770500011	1.0171964999754	win	NaN	n/a	n/a	SD035.jpg	SD036.jpg
311.362533400068	3.0013300999999	decision	2.28283869998995	right	D	DD011.jpg	DD012.jpg
314.912663500058	1.01700489991345	loss	NaN	n/a	n/a	DD011.jpg	DD012.jpg
317.662869499996	3.00147360004485	decision	2.53282560000662	left	S	SD021.jpg	SD022.jpg
321.21256730007	1.01674449990969	win	NaN	n/a	n/a	SD021.jpg	SD022.jpg
326.062870400026	3.00132909999229	decision	2.53384679998271	left	D	DD029.jpg	DD030.jpg
329.612689699978	1.01675790001173	loss	NaN	n/a	n/a	DD029.jpg	DD030.jpg
