onset	duration	trial_type	response_time	Endowment	Endowment_pmod	Decision	Decision_pmod	Offer_pmod
4.625794	2	cue_social	n/a	32	9	n/a	n/a	n/a
4.625794	2	cue_social_high	n/a	32	6	n/a	n/a	n/a
11.343557	2	cue_social	n/a	16	-7	n/a	n/a	n/a
11.343557	2	cue_social_low	n/a	16	-10	n/a	n/a	n/a
20.730316	2	cue_social	n/a	16	-7	n/a	n/a	n/a
20.730316	2	cue_social_low	n/a	16	-10	n/a	n/a	n/a
29.858540	2	cue_nonsocial	n/a	16	-10	n/a	n/a	n/a
29.858540	2	cue_nonsocial_low	n/a	16	-7	n/a	n/a	n/a
37.502380	2	cue_nonsocial	n/a	16	-10	n/a	n/a	n/a
37.502380	2	cue_nonsocial_low	n/a	16	-7	n/a	n/a	n/a
44.423010	2	cue_social	n/a	16	-7	n/a	n/a	n/a
44.423010	2	cue_social_low	n/a	16	-10	n/a	n/a	n/a
53.610348	2	cue_social	n/a	32	9	n/a	n/a	n/a
53.610348	2	cue_social_high	n/a	32	6	n/a	n/a	n/a
60.529137	2	cue_social	n/a	16	-7	n/a	n/a	n/a
60.529137	2	cue_social_low	n/a	16	-10	n/a	n/a	n/a
67.257910	2	cue_nonsocial	n/a	32	6	n/a	n/a	n/a
67.257910	2	cue_nonsocial_high	n/a	32	9	n/a	n/a	n/a
74.091440	2	cue_nonsocial	n/a	16	-10	n/a	n/a	n/a
74.091440	2	cue_nonsocial_low	n/a	16	-7	n/a	n/a	n/a
80.924620	2	cue_nonsocial	n/a	16	-10	n/a	n/a	n/a
80.924620	2	cue_nonsocial_low	n/a	16	-7	n/a	n/a	n/a
91.791565	2	cue_nonsocial	n/a	16	-10	n/a	n/a	n/a
91.791565	2	cue_nonsocial_low	n/a	16	-7	n/a	n/a	n/a
98.710980	2	cue_social	n/a	32	9	n/a	n/a	n/a
98.710980	2	cue_social_high	n/a	32	6	n/a	n/a	n/a
105.458000	2	cue_nonsocial	n/a	16	-10	n/a	n/a	n/a
105.458000	2	cue_nonsocial_low	n/a	16	-7	n/a	n/a	n/a
114.807050	2	cue_social	n/a	16	-7	n/a	n/a	n/a
114.807050	2	cue_social_low	n/a	16	-10	n/a	n/a	n/a
121.557860	2	cue_nonsocial	n/a	16	-10	n/a	n/a	n/a
121.557860	2	cue_nonsocial_low	n/a	16	-7	n/a	n/a	n/a
128.391110	2	cue_nonsocial	n/a	32	6	n/a	n/a	n/a
128.391110	2	cue_nonsocial_high	n/a	32	9	n/a	n/a	n/a
136.041340	2	cue_nonsocial	n/a	32	6	n/a	n/a	n/a
136.041340	2	cue_nonsocial_high	n/a	32	9	n/a	n/a	n/a
142.978330	2	cue_social	n/a	16	-7	n/a	n/a	n/a
142.978330	2	cue_social_low	n/a	16	-10	n/a	n/a	n/a
155.359000	2	cue_nonsocial	n/a	32	6	n/a	n/a	n/a
155.359000	2	cue_nonsocial_high	n/a	32	9	n/a	n/a	n/a
163.007770	2	cue_nonsocial	n/a	32	6	n/a	n/a	n/a
163.007770	2	cue_nonsocial_high	n/a	32	9	n/a	n/a	n/a
170.686540	2	cue_social	n/a	16	-7	n/a	n/a	n/a
170.686540	2	cue_social_low	n/a	16	-10	n/a	n/a	n/a
177.563050	2	cue_social	n/a	16	-7	n/a	n/a	n/a
177.563050	2	cue_social_low	n/a	16	-10	n/a	n/a	n/a
185.228700	2	cue_social	n/a	32	9	n/a	n/a	n/a
185.228700	2	cue_social_high	n/a	32	6	n/a	n/a	n/a
192.045150	2	cue_social	n/a	32	9	n/a	n/a	n/a
192.045150	2	cue_social_high	n/a	32	6	n/a	n/a	n/a
198.807630	2	cue_nonsocial	n/a	32	6	n/a	n/a	n/a
198.807630	2	cue_nonsocial_high	n/a	32	9	n/a	n/a	n/a
205.641190	2	cue_nonsocial	n/a	32	6	n/a	n/a	n/a
205.641190	2	cue_nonsocial_high	n/a	32	9	n/a	n/a	n/a
216.587540	2	cue_social	n/a	16	-7	n/a	n/a	n/a
216.587540	2	cue_social_low	n/a	16	-10	n/a	n/a	n/a
223.341350	2	cue_nonsocial	n/a	16	-10	n/a	n/a	n/a
223.341350	2	cue_nonsocial_low	n/a	16	-7	n/a	n/a	n/a
230.990770	2	cue_nonsocial	n/a	16	-10	n/a	n/a	n/a
230.990770	2	cue_nonsocial_low	n/a	16	-7	n/a	n/a	n/a
238.716310	2	cue_social	n/a	32	9	n/a	n/a	n/a
238.716310	2	cue_social_high	n/a	32	6	n/a	n/a	n/a
245.584210	2	cue_social	n/a	16	-7	n/a	n/a	n/a
245.584210	2	cue_social_low	n/a	16	-10	n/a	n/a	n/a
254.741100	2	cue_nonsocial	n/a	32	6	n/a	n/a	n/a
254.741100	2	cue_nonsocial_high	n/a	32	9	n/a	n/a	n/a
261.652620	2	cue_social	n/a	32	9	n/a	n/a	n/a
261.652620	2	cue_social_high	n/a	32	6	n/a	n/a	n/a
269.311130	2	cue_social	n/a	16	-7	n/a	n/a	n/a
269.311130	2	cue_social_low	n/a	16	-10	n/a	n/a	n/a
276.057770	2	cue_nonsocial	n/a	32	6	n/a	n/a	n/a
276.057770	2	cue_nonsocial_high	n/a	32	9	n/a	n/a	n/a
285.308100	2	cue_nonsocial	n/a	32	6	n/a	n/a	n/a
285.308100	2	cue_nonsocial_high	n/a	32	9	n/a	n/a	n/a
296.174200	2	cue_nonsocial	n/a	32	6	n/a	n/a	n/a
296.174200	2	cue_nonsocial_high	n/a	32	9	n/a	n/a	n/a
303.007420	2	cue_nonsocial	n/a	32	6	n/a	n/a	n/a
303.007420	2	cue_nonsocial_high	n/a	32	9	n/a	n/a	n/a
310.657350	2	cue_nonsocial	n/a	32	6	n/a	n/a	n/a
310.657350	2	cue_nonsocial_high	n/a	32	9	n/a	n/a	n/a
318.401430	2	cue_social	n/a	32	9	n/a	n/a	n/a
318.401430	2	cue_social_high	n/a	32	6	n/a	n/a	n/a
325.141140	2	cue_nonsocial	n/a	32	6	n/a	n/a	n/a
325.141140	2	cue_nonsocial_high	n/a	32	9	n/a	n/a	n/a
334.487460	2	cue_social	n/a	16	-7	n/a	n/a	n/a
334.487460	2	cue_social_low	n/a	16	-10	n/a	n/a	n/a
341.318630	2	cue_social	n/a	16	-7	n/a	n/a	n/a
341.318630	2	cue_social_low	n/a	16	-10	n/a	n/a	n/a
348.873930	2	cue_nonsocial	n/a	32	6	n/a	n/a	n/a
348.873930	2	cue_nonsocial_high	n/a	32	9	n/a	n/a	n/a
355.806370	2	cue_social	n/a	32	9	n/a	n/a	n/a
355.806370	2	cue_social_high	n/a	32	6	n/a	n/a	n/a
362.636230	2	cue_social	n/a	32	9	n/a	n/a	n/a
362.636230	2	cue_social_high	n/a	32	6	n/a	n/a	n/a
370.253750	2	cue_social	n/a	32	9	n/a	n/a	n/a
370.253750	2	cue_social_high	n/a	32	6	n/a	n/a	n/a
6.513070	2.150982	dec_social_choice	2.150982	32.000000	n/a	0	0	-2.298177e-01
6.513070	2.150982	dec_choice	2.150982	32.000000	n/a	0	0	-2.317708e-01
6.513070	2.150982	dec_social_reject	2.150982	32.000000	n/a	0	0	2.500000e-03
6.513070	2.150982	dec_reject	2.150982	32.000000	n/a	0	0	-7.211538e-03
6.513070	2.150982	dec_social_reject_low	2.150982	32.000000	n/a	3	-1.380208e-01	-2.317708e-01
13.347023	1.583473	dec_social_choice	1.583473	16.000000	n/a	8	2.701823e-01	2.701823e-01
13.347023	1.583473	dec_choice	1.583473	16.000000	n/a	8	2.682292e-01	2.682292e-01
13.347023	1.583473	dec_social_accept	1.583473	16.000000	n/a	8	1.195652e-01	1.195652e-01
13.347023	1.583473	dec_accept	1.583473	16.000000	n/a	8	1.136364e-01	1.136364e-01
13.347023	1.583473	dec_social_accept_high	1.583473	16.000000	n/a	8	2.682292e-01	2.682292e-01
22.597994	1.949689	dec_social_choice	1.949689	16.000000	n/a	0	0	-2.298177e-01
22.597994	1.949689	dec_choice	1.949689	16.000000	n/a	0	0	-2.317708e-01
22.597994	1.949689	dec_social_reject	1.949689	16.000000	n/a	0	0	3.375000e-02
22.597994	1.949689	dec_reject	1.949689	16.000000	n/a	0	0	2.403846e-02
22.597994	1.949689	dec_social_low	1.949689	16.000000	n/a	0	-2.317708e-01	-2.317708e-01
22.597994	1.949689	dec_social_reject_low	1.949689	16.000000	n/a	2	-1.067708e-01	-2.317708e-01
31.863806	1.700149	dec_nonsocial_choice	1.700149	16.000000	n/a	8	2.701823e-01	2.701823e-01
31.863806	1.700149	dec_choice	1.700149	16.000000	n/a	8	2.721354e-01	2.721354e-01
31.863806	1.700149	dec_nonsocial_accept	1.700149	16.000000	n/a	8	1.195652e-01	1.195652e-01
31.863806	1.700149	dec_accept	1.700149	16.000000	n/a	8	1.250000e-01	1.250000e-01
31.863806	1.700149	dec_nonsocial_high	1.700149	16.000000	n/a	8	2.721354e-01	2.721354e-01
31.863806	1.700149	dec_nonsocial_accept_high	1.700149	16.000000	n/a	8	1.250000e-01	1.250000e-01
39.497875	1.915801	dec_nonsocial_choice	1.915801	16.000000	n/a	8	2.701823e-01	2.701823e-01
39.497875	1.915801	dec_choice	1.915801	16.000000	n/a	8	2.721354e-01	2.721354e-01
39.497875	1.915801	dec_nonsocial_accept	1.915801	16.000000	n/a	8	1.195652e-01	1.195652e-01
39.497875	1.915801	dec_accept	1.915801	16.000000	n/a	8	1.250000e-01	1.250000e-01
39.497875	1.915801	dec_nonsocial_accept_high	1.915801	16.000000	n/a	8	1.136364e-01	1.136364e-01
46.331104	1.366072	dec_social_choice	1.366072	16.000000	n/a	0	0	-2.298177e-01
46.331104	1.366072	dec_choice	1.366072	16.000000	n/a	0	0	-2.317708e-01
46.331104	1.366072	dec_social_reject	1.366072	16.000000	n/a	0	0	-2.875000e-02
46.331104	1.366072	dec_reject	1.366072	16.000000	n/a	0	0	-3.846154e-02
46.331104	1.366072	dec_social_reject_low	1.366072	16.000000	n/a	1	-1.692708e-01	-2.317708e-01
55.598106	1.399174	dec_social_choice	1.399174	32.000000	n/a	0	0	-2.298177e-01
55.598106	1.399174	dec_choice	1.399174	32.000000	n/a	0	0	-2.317708e-01
55.598106	1.399174	dec_social_reject	1.399174	32.000000	n/a	0	0	2.500000e-03
55.598106	1.399174	dec_reject	1.399174	32.000000	n/a	0	0	-7.211538e-03
55.598106	1.399174	dec_social_reject_low	1.399174	32.000000	n/a	3	-1.380208e-01	-2.317708e-01
62.431164	1.082985	dec_social_choice	1.082985	16.000000	n/a	0	0	-2.298177e-01
62.431164	1.082985	dec_choice	1.082985	16.000000	n/a	0	0	-2.317708e-01
62.431164	1.082985	dec_social_reject	1.082985	16.000000	n/a	0	0	3.375000e-02
62.431164	1.082985	dec_reject	1.082985	16.000000	n/a	0	0	2.403846e-02
62.431164	1.082985	dec_social_reject_low	1.082985	16.000000	n/a	2	-1.067708e-01	-2.317708e-01
69.264080	1.716123	dec_nonsocial_choice	1.716123	32.000000	n/a	0	0	-2.298177e-01
69.264080	1.716123	dec_choice	1.716123	32.000000	n/a	0	0	-2.278646e-01
69.264080	1.716123	dec_nonsocial_reject	1.716123	32.000000	n/a	0	0	-2.875000e-02
69.264080	1.716123	dec_reject	1.716123	32.000000	n/a	0	0	-1.822917e-02
69.264080	1.716123	dec_nonsocial_reject_low	1.716123	32.000000	n/a	2	-3.846154e-02	-1.009615e-01
76.096850	1.383680	dec_nonsocial_choice	1.383680	16.000000	n/a	0	0	-2.298177e-01
76.096850	1.383680	dec_choice	1.383680	16.000000	n/a	0	0	-2.278646e-01
76.096850	1.383680	dec_nonsocial_reject	1.383680	16.000000	n/a	0	0	-2.875000e-02
76.096850	1.383680	dec_reject	1.383680	16.000000	n/a	0	0	-1.822917e-02
76.096850	1.383680	dec_nonsocial_low	1.383680	16.000000	n/a	0	-2.278646e-01	-2.278646e-01
76.096850	1.383680	dec_nonsocial_reject_low	1.383680	16.000000	n/a	1	-1.822917e-02	-8.072917e-02
82.931010	1.949669	dec_nonsocial_choice	1.949669	16.000000	n/a	4	2.018229e-02	2.018229e-02
82.931010	1.949669	dec_choice	1.949669	16.000000	n/a	4	2.213542e-02	2.213542e-02
82.931010	1.949669	dec_nonsocial_accept	1.949669	16.000000	n/a	4	-1.304348e-01	-1.304348e-01
82.931010	1.949669	dec_accept	1.949669	16.000000	n/a	4	-1.250000e-01	-1.250000e-01
82.931010	1.949669	dec_nonsocial_high	1.949669	16.000000	n/a	4	2.213542e-02	2.213542e-02
82.931010	1.949669	dec_nonsocial_accept_high	1.949669	16.000000	n/a	4	-1.250000e-01	-1.250000e-01
93.796950	1.383337	dec_nonsocial_choice	1.383337	16.000000	n/a	4	2.018229e-02	2.018229e-02
93.796950	1.383337	dec_choice	1.383337	16.000000	n/a	4	2.213542e-02	2.213542e-02
93.796950	1.383337	dec_nonsocial_accept	1.383337	16.000000	n/a	4	-1.304348e-01	-1.304348e-01
93.796950	1.383337	dec_accept	1.383337	16.000000	n/a	4	-1.250000e-01	-1.250000e-01
93.796950	1.383337	dec_nonsocial_accept_high	1.383337	16.000000	n/a	4	-1.363636e-01	-1.363636e-01
100.629890	1.733919	dec_social_choice	1.733919	32.000000	n/a	8	2.018229e-02	2.018229e-02
100.629890	1.733919	dec_choice	1.733919	32.000000	n/a	8	1.822917e-02	1.822917e-02
100.629890	1.733919	dec_social_accept	1.733919	32.000000	n/a	8	-1.304348e-01	-1.304348e-01
100.629890	1.733919	dec_accept	1.733919	32.000000	n/a	8	-1.363636e-01	-1.363636e-01
100.629890	1.733919	dec_social_high	1.733919	32.000000	n/a	8	1.822917e-02	1.822917e-02
100.629890	1.733919	dec_social_accept_high	1.733919	32.000000	n/a	8	1.822917e-02	1.822917e-02
107.465040	1.615301	dec_nonsocial_choice	1.615301	16.000000	n/a	0	0	-2.298177e-01
107.465040	1.615301	dec_choice	1.615301	16.000000	n/a	0	0	-2.278646e-01
107.465040	1.615301	dec_nonsocial_reject	1.615301	16.000000	n/a	0	0	-2.875000e-02
107.465040	1.615301	dec_reject	1.615301	16.000000	n/a	0	0	-1.822917e-02
107.465040	1.615301	dec_nonsocial_low	1.615301	16.000000	n/a	0	-2.278646e-01	-2.278646e-01
107.465040	1.615301	dec_nonsocial_reject_low	1.615301	16.000000	n/a	1	-1.822917e-02	-8.072917e-02
116.730880	1.849241	dec_social_choice	1.849241	16.000000	n/a	4	2.018229e-02	2.018229e-02
116.730880	1.849241	dec_choice	1.849241	16.000000	n/a	4	1.822917e-02	1.822917e-02
116.730880	1.849241	dec_social_accept	1.849241	16.000000	n/a	4	-1.304348e-01	-1.304348e-01
116.730880	1.849241	dec_accept	1.849241	16.000000	n/a	4	-1.363636e-01	-1.363636e-01
116.730880	1.849241	dec_social_high	1.849241	16.000000	n/a	4	1.822917e-02	1.822917e-02
116.730880	1.849241	dec_social_accept_high	1.849241	16.000000	n/a	4	1.822917e-02	1.822917e-02
123.564080	1.950114	dec_nonsocial_choice	1.950114	16.000000	n/a	8	2.701823e-01	2.701823e-01
123.564080	1.950114	dec_choice	1.950114	16.000000	n/a	8	2.721354e-01	2.721354e-01
123.564080	1.950114	dec_nonsocial_accept	1.950114	16.000000	n/a	8	1.195652e-01	1.195652e-01
123.564080	1.950114	dec_accept	1.950114	16.000000	n/a	8	1.250000e-01	1.250000e-01
123.564080	1.950114	dec_nonsocial_high	1.950114	16.000000	n/a	8	2.721354e-01	2.721354e-01
123.564080	1.950114	dec_nonsocial_accept_high	1.950114	16.000000	n/a	8	1.250000e-01	1.250000e-01
130.397750	1.365919	dec_nonsocial_choice	1.365919	32.000000	n/a	0	0	-2.298177e-01
130.397750	1.365919	dec_choice	1.365919	32.000000	n/a	0	0	-2.278646e-01
130.397750	1.365919	dec_nonsocial_reject	1.365919	32.000000	n/a	0	0	2.500000e-03
130.397750	1.365919	dec_reject	1.365919	32.000000	n/a	0	0	1.302083e-02
130.397750	1.365919	dec_nonsocial_low	1.365919	32.000000	n/a	0	-2.278646e-01	-2.278646e-01
130.397750	1.365919	dec_nonsocial_reject_low	1.365919	32.000000	n/a	3	1.302083e-02	-8.072917e-02
138.047580	1.282909	dec_nonsocial_choice	1.282909	32.000000	n/a	0	0	-2.298177e-01
138.047580	1.282909	dec_choice	1.282909	32.000000	n/a	0	0	-2.278646e-01
138.047580	1.282909	dec_nonsocial_reject	1.282909	32.000000	n/a	0	0	2.500000e-03
138.047580	1.282909	dec_reject	1.282909	32.000000	n/a	0	0	1.302083e-02
138.047580	1.282909	dec_nonsocial_reject_low	1.282909	32.000000	n/a	3	-7.211538e-03	-1.009615e-01
144.880840	1.499898	dec_social_choice	1.499898	16.000000	n/a	0	0	-2.298177e-01
144.880840	1.499898	dec_choice	1.499898	16.000000	n/a	0	0	-2.317708e-01
144.880840	1.499898	dec_social_reject	1.499898	16.000000	n/a	0	0	3.375000e-02
144.880840	1.499898	dec_reject	1.499898	16.000000	n/a	0	0	2.403846e-02
144.880840	1.499898	dec_social_reject_low	1.499898	16.000000	n/a	2	-1.067708e-01	-2.317708e-01
157.364060	1.765969	dec_nonsocial_choice	1.765969	32.000000	n/a	0	0	-2.298177e-01
157.364060	1.765969	dec_choice	1.765969	32.000000	n/a	0	0	-2.278646e-01
157.364060	1.765969	dec_nonsocial_reject	1.765969	32.000000	n/a	0	0	-2.875000e-02
157.364060	1.765969	dec_reject	1.765969	32.000000	n/a	0	0	-1.822917e-02
157.364060	1.765969	dec_nonsocial_reject_low	1.765969	32.000000	n/a	2	-3.846154e-02	-1.009615e-01
165.014070	1.416151	dec_nonsocial_choice	1.416151	32.000000	n/a	0	0	-2.298177e-01
165.014070	1.416151	dec_choice	1.416151	32.000000	n/a	0	0	-2.278646e-01
165.014070	1.416151	dec_nonsocial_reject	1.416151	32.000000	n/a	0	0	2.500000e-03
165.014070	1.416151	dec_reject	1.416151	32.000000	n/a	0	0	1.302083e-02
165.014070	1.416151	dec_nonsocial_reject_low	1.416151	32.000000	n/a	3	-7.211538e-03	-1.009615e-01
172.662750	1.367581	dec_social_choice	1.367581	16.000000	n/a	8	2.701823e-01	2.701823e-01
172.662750	1.367581	dec_choice	1.367581	16.000000	n/a	8	2.682292e-01	2.682292e-01
172.662750	1.367581	dec_social_accept	1.367581	16.000000	n/a	8	1.195652e-01	1.195652e-01
172.662750	1.367581	dec_accept	1.367581	16.000000	n/a	8	1.136364e-01	1.136364e-01
172.662750	1.367581	dec_social_high	1.367581	16.000000	n/a	8	2.682292e-01	2.682292e-01
172.662750	1.367581	dec_social_accept_high	1.367581	16.000000	n/a	8	2.682292e-01	2.682292e-01
179.495990	1.184261	dec_social_choice	1.184261	16.000000	n/a	0	0	-2.298177e-01
179.495990	1.184261	dec_choice	1.184261	16.000000	n/a	0	0	-2.317708e-01
179.495990	1.184261	dec_social_reject	1.184261	16.000000	n/a	0	0	-2.875000e-02
179.495990	1.184261	dec_reject	1.184261	16.000000	n/a	0	0	-3.846154e-02
179.495990	1.184261	dec_social_low	1.184261	16.000000	n/a	0	-2.317708e-01	-2.317708e-01
179.495990	1.184261	dec_social_reject_low	1.184261	16.000000	n/a	1	-1.692708e-01	-2.317708e-01
187.147310	1.699433	dec_social_choice	1.699433	32.000000	n/a	16	2.701823e-01	2.701823e-01
187.147310	1.699433	dec_choice	1.699433	32.000000	n/a	16	2.682292e-01	2.682292e-01
187.147310	1.699433	dec_social_accept	1.699433	32.000000	n/a	16	1.195652e-01	1.195652e-01
187.147310	1.699433	dec_accept	1.699433	32.000000	n/a	16	1.136364e-01	1.136364e-01
187.147310	1.699433	dec_social_high	1.699433	32.000000	n/a	16	2.682292e-01	2.682292e-01
187.147310	1.699433	dec_social_accept_high	1.699433	32.000000	n/a	16	2.682292e-01	2.682292e-01
193.979480	1.184087	dec_social_choice	1.184087	32.000000	n/a	0	0	-2.298177e-01
193.979480	1.184087	dec_choice	1.184087	32.000000	n/a	0	0	-2.317708e-01
193.979480	1.184087	dec_social_reject	1.184087	32.000000	n/a	0	0	-2.875000e-02
193.979480	1.184087	dec_reject	1.184087	32.000000	n/a	0	0	-3.846154e-02
193.979480	1.184087	dec_social_low	1.184087	32.000000	n/a	0	-2.317708e-01	-2.317708e-01
193.979480	1.184087	dec_social_reject_low	1.184087	32.000000	n/a	2	-1.692708e-01	-2.317708e-01
200.814820	1.182093	dec_nonsocial_choice	1.182093	32.000000	n/a	0	0	-2.298177e-01
200.814820	1.182093	dec_choice	1.182093	32.000000	n/a	0	0	-2.278646e-01
200.814820	1.182093	dec_nonsocial_reject	1.182093	32.000000	n/a	0	0	2.500000e-03
200.814820	1.182093	dec_reject	1.182093	32.000000	n/a	0	0	1.302083e-02
200.814820	1.182093	dec_nonsocial_low	1.182093	32.000000	n/a	0	-2.278646e-01	-2.278646e-01
200.814820	1.182093	dec_nonsocial_reject_low	1.182093	32.000000	n/a	3	1.302083e-02	-8.072917e-02
207.646400	1.700724	dec_nonsocial_choice	1.700724	32.000000	n/a	16	2.701823e-01	2.701823e-01
207.646400	1.700724	dec_choice	1.700724	32.000000	n/a	16	2.721354e-01	2.721354e-01
207.646400	1.700724	dec_nonsocial_accept	1.700724	32.000000	n/a	16	1.195652e-01	1.195652e-01
207.646400	1.700724	dec_accept	1.700724	32.000000	n/a	16	1.250000e-01	1.250000e-01
207.646400	1.700724	dec_nonsocial_high	1.700724	32.000000	n/a	16	2.721354e-01	2.721354e-01
207.646400	1.700724	dec_nonsocial_accept_high	1.700724	32.000000	n/a	16	1.250000e-01	1.250000e-01
218.513280	1.366712	dec_social_choice	1.366712	16.000000	n/a	0	0	-2.298177e-01
218.513280	1.366712	dec_choice	1.366712	16.000000	n/a	0	0	-2.317708e-01
218.513280	1.366712	dec_social_reject	1.366712	16.000000	n/a	0	0	3.375000e-02
218.513280	1.366712	dec_reject	1.366712	16.000000	n/a	0	0	2.403846e-02
218.513280	1.366712	dec_social_reject_low	1.366712	16.000000	n/a	2	-1.067708e-01	-2.317708e-01
225.347960	1.399150	dec_nonsocial_choice	1.399150	16.000000	n/a	0	0	-2.298177e-01
225.347960	1.399150	dec_choice	1.399150	16.000000	n/a	0	0	-2.278646e-01
225.347960	1.399150	dec_nonsocial_reject	1.399150	16.000000	n/a	0	0	3.375000e-02
225.347960	1.399150	dec_reject	1.399150	16.000000	n/a	0	0	4.427083e-02
225.347960	1.399150	dec_nonsocial_reject_low	1.399150	16.000000	n/a	2	2.403846e-02	-1.009615e-01
232.997040	1.783281	dec_nonsocial_choice	1.783281	16.000000	n/a	4	2.018229e-02	2.018229e-02
232.997040	1.783281	dec_choice	1.783281	16.000000	n/a	4	2.213542e-02	2.213542e-02
232.997040	1.783281	dec_nonsocial_accept	1.783281	16.000000	n/a	4	-1.304348e-01	-1.304348e-01
232.997040	1.783281	dec_accept	1.783281	16.000000	n/a	4	-1.250000e-01	-1.250000e-01
232.997040	1.783281	dec_nonsocial_high	1.783281	16.000000	n/a	4	2.213542e-02	2.213542e-02
232.997040	1.783281	dec_nonsocial_accept_high	1.783281	16.000000	n/a	4	-1.250000e-01	-1.250000e-01
240.646040	1.533790	dec_social_choice	1.533790	32.000000	n/a	8	2.018229e-02	2.018229e-02
240.646040	1.533790	dec_choice	1.533790	32.000000	n/a	8	1.822917e-02	1.822917e-02
240.646040	1.533790	dec_social_accept	1.533790	32.000000	n/a	8	-1.304348e-01	-1.304348e-01
240.646040	1.533790	dec_accept	1.533790	32.000000	n/a	8	-1.363636e-01	-1.363636e-01
240.646040	1.533790	dec_social_high	1.533790	32.000000	n/a	8	1.822917e-02	1.822917e-02
240.646040	1.533790	dec_social_accept_high	1.533790	32.000000	n/a	8	1.822917e-02	1.822917e-02
247.480730	1.366298	dec_social_choice	1.366298	16.000000	n/a	0	0	-2.298177e-01
247.480730	1.366298	dec_choice	1.366298	16.000000	n/a	0	0	-2.317708e-01
247.480730	1.366298	dec_social_reject	1.366298	16.000000	n/a	0	0	-2.875000e-02
247.480730	1.366298	dec_reject	1.366298	16.000000	n/a	0	0	-3.846154e-02
247.480730	1.366298	dec_social_low	1.366298	16.000000	n/a	0	-2.317708e-01	-2.317708e-01
247.480730	1.366298	dec_social_reject_low	1.366298	16.000000	n/a	1	-1.692708e-01	-2.317708e-01
256.747300	1.282605	dec_nonsocial_choice	1.282605	32.000000	n/a	0	0	-2.298177e-01
256.747300	1.282605	dec_choice	1.282605	32.000000	n/a	0	0	-2.278646e-01
256.747300	1.282605	dec_nonsocial_reject	1.282605	32.000000	n/a	0	0	-2.875000e-02
256.747300	1.282605	dec_reject	1.282605	32.000000	n/a	0	0	-1.822917e-02
256.747300	1.282605	dec_nonsocial_low	1.282605	32.000000	n/a	0	-2.278646e-01	-2.278646e-01
256.747300	1.282605	dec_nonsocial_reject_low	1.282605	32.000000	n/a	2	-1.822917e-02	-8.072917e-02
263.579860	1.250459	dec_social_choice	1.250459	32.000000	n/a	0	0	-2.298177e-01
263.579860	1.250459	dec_choice	1.250459	32.000000	n/a	0	0	-2.317708e-01
263.579860	1.250459	dec_social_reject	1.250459	32.000000	n/a	0	0	-2.875000e-02
263.579860	1.250459	dec_reject	1.250459	32.000000	n/a	0	0	-3.846154e-02
263.579860	1.250459	dec_social_low	1.250459	32.000000	n/a	0	-2.317708e-01	-2.317708e-01
263.579860	1.250459	dec_social_reject_low	1.250459	32.000000	n/a	2	-1.692708e-01	-2.317708e-01
271.229980	1.083298	dec_social_choice	1.083298	16.000000	n/a	0	0	-2.298177e-01
271.229980	1.083298	dec_choice	1.083298	16.000000	n/a	0	0	-2.317708e-01
271.229980	1.083298	dec_social_reject	1.083298	16.000000	n/a	0	0	-2.875000e-02
271.229980	1.083298	dec_reject	1.083298	16.000000	n/a	0	0	-3.846154e-02
271.229980	1.083298	dec_social_low	1.083298	16.000000	n/a	0	-2.317708e-01	-2.317708e-01
271.229980	1.083298	dec_social_reject_low	1.083298	16.000000	n/a	1	-1.692708e-01	-2.317708e-01
278.064180	2.149061	dec_nonsocial_choice	2.149061	32.000000	n/a	8	2.018229e-02	2.018229e-02
278.064180	2.149061	dec_choice	2.149061	32.000000	n/a	8	2.213542e-02	2.213542e-02
278.064180	2.149061	dec_nonsocial_accept	2.149061	32.000000	n/a	8	-1.304348e-01	-1.304348e-01
278.064180	2.149061	dec_accept	2.149061	32.000000	n/a	8	-1.250000e-01	-1.250000e-01
278.064180	2.149061	dec_nonsocial_accept_high	2.149061	32.000000	n/a	8	-1.363636e-01	-1.363636e-01
287.312960	1.716955	dec_nonsocial_choice	1.716955	32.000000	n/a	16	2.701823e-01	2.701823e-01
287.312960	1.716955	dec_choice	1.716955	32.000000	n/a	16	2.721354e-01	2.721354e-01
287.312960	1.716955	dec_nonsocial_accept	1.716955	32.000000	n/a	16	1.195652e-01	1.195652e-01
287.312960	1.716955	dec_accept	1.716955	32.000000	n/a	16	1.250000e-01	1.250000e-01
287.312960	1.716955	dec_nonsocial_accept_high	1.716955	32.000000	n/a	16	1.136364e-01	1.136364e-01
298.180000	1.500025	dec_nonsocial_choice	1.500025	32.000000	n/a	8	2.018229e-02	2.018229e-02
298.180000	1.500025	dec_choice	1.500025	32.000000	n/a	8	2.213542e-02	2.213542e-02
298.180000	1.500025	dec_nonsocial_accept	1.500025	32.000000	n/a	8	-1.304348e-01	-1.304348e-01
298.180000	1.500025	dec_accept	1.500025	32.000000	n/a	8	-1.250000e-01	-1.250000e-01
298.180000	1.500025	dec_nonsocial_high	1.500025	32.000000	n/a	8	2.213542e-02	2.213542e-02
298.180000	1.500025	dec_nonsocial_accept_high	1.500025	32.000000	n/a	8	-1.250000e-01	-1.250000e-01
305.013850	1.299828	dec_nonsocial_choice	1.299828	32.000000	n/a	0	0	-2.298177e-01
305.013850	1.299828	dec_choice	1.299828	32.000000	n/a	0	0	-2.278646e-01
305.013850	1.299828	dec_nonsocial_reject	1.299828	32.000000	n/a	0	0	2.500000e-03
305.013850	1.299828	dec_reject	1.299828	32.000000	n/a	0	0	1.302083e-02
305.013850	1.299828	dec_nonsocial_low	1.299828	32.000000	n/a	0	-2.278646e-01	-2.278646e-01
305.013850	1.299828	dec_nonsocial_reject_low	1.299828	32.000000	n/a	3	1.302083e-02	-8.072917e-02
312.663640	1.399754	dec_nonsocial_choice	1.399754	32.000000	n/a	16	2.701823e-01	2.701823e-01
312.663640	1.399754	dec_choice	1.399754	32.000000	n/a	16	2.721354e-01	2.721354e-01
312.663640	1.399754	dec_nonsocial_accept	1.399754	32.000000	n/a	16	1.195652e-01	1.195652e-01
312.663640	1.399754	dec_accept	1.399754	32.000000	n/a	16	1.250000e-01	1.250000e-01
312.663640	1.399754	dec_nonsocial_high	1.399754	32.000000	n/a	16	2.721354e-01	2.721354e-01
312.663640	1.399754	dec_nonsocial_accept_high	1.399754	32.000000	n/a	16	1.250000e-01	1.250000e-01
320.313260	2.266652	dec_social_choice	2.266652	32.000000	n/a	8	2.018229e-02	2.018229e-02
320.313260	2.266652	dec_choice	2.266652	32.000000	n/a	8	1.822917e-02	1.822917e-02
320.313260	2.266652	dec_social_accept	2.266652	32.000000	n/a	8	-1.304348e-01	-1.304348e-01
320.313260	2.266652	dec_accept	2.266652	32.000000	n/a	8	-1.363636e-01	-1.363636e-01
320.313260	2.266652	dec_social_high	2.266652	32.000000	n/a	8	1.822917e-02	1.822917e-02
320.313260	2.266652	dec_social_accept_high	2.266652	32.000000	n/a	8	1.822917e-02	1.822917e-02
327.147000	1.916200	dec_nonsocial_choice	1.916200	32.000000	n/a	8	2.018229e-02	2.018229e-02
327.147000	1.916200	dec_choice	1.916200	32.000000	n/a	8	2.213542e-02	2.213542e-02
327.147000	1.916200	dec_nonsocial_accept	1.916200	32.000000	n/a	8	-1.304348e-01	-1.304348e-01
327.147000	1.916200	dec_accept	1.916200	32.000000	n/a	8	-1.250000e-01	-1.250000e-01
327.147000	1.916200	dec_nonsocial_accept_high	1.916200	32.000000	n/a	8	-1.363636e-01	-1.363636e-01
336.397800	1.083265	dec_social_choice	1.083265	16.000000	n/a	0	0	-2.298177e-01
336.397800	1.083265	dec_choice	1.083265	16.000000	n/a	0	0	-2.317708e-01
336.397800	1.083265	dec_social_reject	1.083265	16.000000	n/a	0	0	1.587500e-01
336.397800	1.083265	dec_reject	1.083265	16.000000	n/a	0	0	1.490385e-01
336.397800	1.083265	dec_social_low	1.083265	16.000000	n/a	0	-2.317708e-01	-2.317708e-01
336.397800	1.083265	dec_social_reject_low	1.083265	16.000000	n/a	4	1.822917e-02	-2.317708e-01
343.230600	1.533112	dec_social_choice	1.533112	16.000000	n/a	8	2.701823e-01	2.701823e-01
343.230600	1.533112	dec_choice	1.533112	16.000000	n/a	8	2.682292e-01	2.682292e-01
343.230600	1.533112	dec_social_accept	1.533112	16.000000	n/a	8	1.195652e-01	1.195652e-01
343.230600	1.533112	dec_accept	1.533112	16.000000	n/a	8	1.136364e-01	1.136364e-01
343.230600	1.533112	dec_social_accept_high	1.533112	16.000000	n/a	8	2.682292e-01	2.682292e-01
350.880130	1.349905	dec_nonsocial_choice	1.349905	32.000000	n/a	0	0	-2.298177e-01
350.880130	1.349905	dec_choice	1.349905	32.000000	n/a	0	0	-2.278646e-01
350.880130	1.349905	dec_nonsocial_reject	1.349905	32.000000	n/a	0	0	-2.875000e-02
350.880130	1.349905	dec_reject	1.349905	32.000000	n/a	0	0	-1.822917e-02
350.880130	1.349905	dec_nonsocial_low	1.349905	32.000000	n/a	0	-2.278646e-01	-2.278646e-01
350.880130	1.349905	dec_nonsocial_reject_low	1.349905	32.000000	n/a	2	-1.822917e-02	-8.072917e-02
357.713100	1.466319	dec_social_choice	1.466319	32.000000	n/a	16	2.701823e-01	2.701823e-01
357.713100	1.466319	dec_choice	1.466319	32.000000	n/a	16	2.682292e-01	2.682292e-01
357.713100	1.466319	dec_social_accept	1.466319	32.000000	n/a	16	1.195652e-01	1.195652e-01
357.713100	1.466319	dec_accept	1.466319	32.000000	n/a	16	1.136364e-01	1.136364e-01
357.713100	1.466319	dec_social_high	1.466319	32.000000	n/a	16	2.682292e-01	2.682292e-01
357.713100	1.466319	dec_social_accept_high	1.466319	32.000000	n/a	16	2.682292e-01	2.682292e-01
364.546970	2.099401	dec_social_choice	2.099401	32.000000	n/a	8	2.018229e-02	2.018229e-02
364.546970	2.099401	dec_choice	2.099401	32.000000	n/a	8	1.822917e-02	1.822917e-02
364.546970	2.099401	dec_social_accept	2.099401	32.000000	n/a	8	-1.304348e-01	-1.304348e-01
364.546970	2.099401	dec_accept	2.099401	32.000000	n/a	8	-1.363636e-01	-1.363636e-01
364.546970	2.099401	dec_social_accept_high	2.099401	32.000000	n/a	8	1.822917e-02	1.822917e-02
372.196870	1.333202	dec_social_choice	1.333202	32.000000	n/a	16	2.701823e-01	2.701823e-01
372.196870	1.333202	dec_choice	1.333202	32.000000	n/a	16	2.682292e-01	2.682292e-01
372.196870	1.333202	dec_social_accept	1.333202	32.000000	n/a	16	1.195652e-01	1.195652e-01
372.196870	1.333202	dec_accept	1.333202	32.000000	n/a	16	1.136364e-01	1.136364e-01
372.196870	1.333202	dec_social_accept_high	1.333202	32.000000	n/a	16	2.682292e-01	2.682292e-01
