onset	duration	trial_type	rt	resp	gender	image_left	image_right
0.639576600049622	3.00102800002787	decision	2.0322665000567213	right	F	FF017.jpg	FF018.jpg
4.18947170011234	1.00032489991281	loss	n/a	n/a	n/a	FF017.jpg	FF018.jpg
11.1398275000975	3.04974019993097	decision	3.049200400011614	left	F	FF035.jpg	FF036.jpg
14.7397914000321	1.01631109998561	win	n/a	n/a	n/a	FF035.jpg	FF036.jpg
21.7060808000388	3.0013419999741	decision	2.5328069999814034	left	F	FF021.jpg	FF022.jpg
25.2560032000765	1.01681910001207	loss	n/a	n/a	n/a	FF021.jpg	FF022.jpg
32.2229136000387	3.0019112000009	decision	2.2829514000331983	right	M	MF025.jpg	MF026.jpg
35.7726434000069	1.00000620004721	loss	n/a	n/a	n/a	MF025.jpg	MF026.jpg
38.5230758000398	3.0017979000695	decision	2.7838748999638483	right	M	MF027.jpg	MF028.jpg
42.0726531000109	1.01658140006475	loss	n/a	n/a	n/a	MF027.jpg	MF028.jpg
44.8397712000879	3.00094239995815	decision	2.5333609000081196	right	M	MF023.jpg	MF024.jpg
48.3894354000222	1.00026460003573	win	n/a	n/a	n/a	MF023.jpg	MF024.jpg
51.139440500061	3.00149139994755	decision	2.533606700017117	left	F	FF037.jpg	FF038.jpg
54.6896619000472	1.00002399994992	win	n/a	n/a	n/a	FF037.jpg	FF038.jpg
59.539327000035	3.00074210006278	decision	2.7992251999676228	right	M	MF011.jpg	MF012.jpg
63.089715900016	1.01658870000392	loss	n/a	n/a	n/a	MF011.jpg	MF012.jpg
67.9562587999972	3.00047130009625	decision	2.799008800066076	left	F	FF009.jpg	FF010.jpg
71.5066430000588	1.01591439999174	win	n/a	n/a	n/a	FF009.jpg	FF010.jpg
74.2728591000196	3.00200500001665	decision	2.5328186000697315	left	F	FF027.jpg	FF028.jpg
77.8225794000318	1.00007680000272	win	n/a	n/a	n/a	FF027.jpg	FF028.jpg
82.672925000079	3.00085990002844	decision	2.534385100007057	right	F	FF015.jpg	FF016.jpg
86.2225525000831	1.01659979997203	loss	n/a	n/a	n/a	FF015.jpg	FF016.jpg
93.1892555000959	3.00094820000231	decision	2.5330799999646842	right	M	MF029.jpg	MF030.jpg
96.73961160006	1.01661499997135	loss	n/a	n/a	n/a	MF029.jpg	MF030.jpg
101.605727900052	3.30054199998267	decision	3.3000213999766856	right	M	MF015.jpg	MF016.jpg
105.455941800028	1.01664330007043	win	n/a	n/a	n/a	MF015.jpg	MF016.jpg
112.422889900045	3.05019800004084	decision	3.0495933999773115	left	M	MF007.jpg	MF008.jpg
116.022876400035	1.01677139999811	win	n/a	n/a	n/a	MF007.jpg	MF008.jpg
120.889768499997	3.00207120005507	decision	2.2819832001114264	left	M	MF017.jpg	MF018.jpg
124.439442400006	1.01673150004353	win	n/a	n/a	n/a	MF017.jpg	MF018.jpg
127.20629100001	3.00149689998943	decision	2.0332475000759587	right	F	FF033.jpg	FF034.jpg
130.756018100074	1.01677969994489	win	n/a	n/a	n/a	FF033.jpg	FF034.jpg
133.522538000019	3.00192519999109	decision	2.5347615000791848	right	F	FF007.jpg	FF008.jpg
137.072812900064	1.0164832000155	loss	n/a	n/a	n/a	FF007.jpg	FF008.jpg
139.839284200105	3.04959869990125	decision	3.0490574999712408	left	F	FF023.jpg	FF024.jpg
143.43921760004	1.01660009997431	loss	n/a	n/a	n/a	FF023.jpg	FF024.jpg
156.705976500059	3.00239100004546	decision	2.5338649000041187	left	M	MF009.jpg	MF010.jpg
160.255909600062	1.00087540003005	loss	n/a	n/a	n/a	MF009.jpg	MF010.jpg
165.122673400096	3.00062059995253	decision	2.534057499957271	left	F	FF001.jpg	FF002.jpg
168.672638400109	1.0165206999518	win	n/a	n/a	n/a	FF001.jpg	FF002.jpg
171.439123900025	3.00111870002002	decision	2.799503399990499	left	M	MF019.jpg	MF020.jpg
174.989174200105	1.00004569999874	loss	n/a	n/a	n/a	MF019.jpg	MF020.jpg
181.939062800026	3.00186900002882	decision	2.533447000081651	right	F	FF031.jpg	FF032.jpg
185.489396400051	1.00000730005559	loss	n/a	n/a	n/a	FF031.jpg	FF032.jpg
190.33939930005	3.00123509997502	decision	2.783732600044459	right	M	MF005.jpg	MF006.jpg
193.888992100023	1.0003594000591	win	n/a	n/a	n/a	MF005.jpg	MF006.jpg
196.639306800091	3.00077089993283	decision	2.5333440999966115	right	F	FF019.jpg	FF020.jpg
200.188969100011	1.00009810004849	win	n/a	n/a	n/a	FF019.jpg	FF020.jpg
207.13943510002	3.00211190001573	decision	2.7998013000469655	right	M	MF013.jpg	MF014.jpg
210.689029400004	1.00033180008177	loss	n/a	n/a	n/a	MF013.jpg	MF014.jpg
217.639405000024	3.04990550002549	decision	3.0492776000173762	right	M	MF031.jpg	MF032.jpg
221.239148500026	1.01622990006581	loss	n/a	n/a	n/a	MF031.jpg	MF032.jpg
226.106089800014	3.00123080005869	decision	2.7987732000183314	left	F	FF039.jpg	FF040.jpg
229.655563800014	1.00031660008244	loss	n/a	n/a	n/a	FF039.jpg	FF040.jpg
232.405868800008	3.05017000006046	decision	3.0496372000779957	left	F	FF005.jpg	FF006.jpg
236.005815800047	1.01681030006148	loss	n/a	n/a	n/a	FF005.jpg	FF006.jpg
242.972158400109	3.00133319990709	decision	2.534627699991688	left	M	MF037.jpg	MF038.jpg
246.522264000028	1.00031220004894	loss	n/a	n/a	n/a	MF037.jpg	MF038.jpg
249.272324300022	3.03592000005301	decision-missed	n/a	n/a	M	MF039.jpg	MF040.jpg
252.855834100046	1.01647160004359	win	n/a	n/a	n/a	MF039.jpg	MF040.jpg
255.622657200089	3.00142119999509	decision	1.782106400001794	left	M	MF033.jpg	MF034.jpg
259.172308100038	1.00078540004324	loss	n/a	n/a	n/a	MF033.jpg	MF034.jpg
261.922843900044	3.00143289996777	decision	1.7829444999806583	left	F	FF013.jpg	FF014.jpg
265.472230400075	1.01670649996959	win	n/a	n/a	n/a	FF013.jpg	FF014.jpg
270.338905900018	3.00078290002421	decision	2.283309700083919	left	M	MF001.jpg	MF002.jpg
273.888959000004	1.01649230008479	win	n/a	n/a	n/a	MF001.jpg	MF002.jpg
276.655569700059	3.00117890001275	decision	2.0331721999682486	right	F	FF003.jpg	FF004.jpg
280.205452900031	1.01662840007339	win	n/a	n/a	n/a	FF003.jpg	FF004.jpg
285.072586600087	3.00164919998497	decision	2.0329898999771103	left	M	MF003.jpg	MF004.jpg
288.622166100075	1.01655299996492	win	n/a	n/a	n/a	MF003.jpg	MF004.jpg
295.588880900061	3.00078190001659	decision	1.7832835000008345	right	F	FF025.jpg	FF026.jpg
299.138761500013	1.0004471000284	win	n/a	n/a	n/a	FF025.jpg	FF026.jpg
306.089184600045	3.00152890000027	decision	1.7822515000589192	left	M	MF035.jpg	MF036.jpg
309.638743999996	1.00016220007092	win	n/a	n/a	n/a	MF035.jpg	MF036.jpg
312.389006300014	3.00131560000591	decision	2.79964890005067	right	F	FF011.jpg	FF012.jpg
315.938816700014	1.00005710008554	loss	n/a	n/a	n/a	FF011.jpg	FF012.jpg
318.688942100038	3.00152240006719	decision	2.0325918999733403	right	M	MF021.jpg	MF022.jpg
322.239069400006	1.0010194000788	win	n/a	n/a	n/a	MF021.jpg	MF022.jpg
327.08893930004	3.00182919995859	decision	2.282929499982856	left	F	FF029.jpg	FF030.jpg
330.638821700006	1.01688140002079	loss	n/a	n/a	n/a	FF029.jpg	FF030.jpg
