instrText,stimDoor,stimDoorLure,stimFace,stimFaceLure,Instructions.thisRepN,Instructions.thisTrialN,Instructions.thisN,Instructions.thisIndex,Trials.thisRepN,Trials.thisTrialN,Trials.thisN,Trials.thisIndex,Func,Keys,Text,RespTime,Onset,Offset,SystemTime_Start,SystemTime_Stop,Stim,Lure,Participant*,Age,date,expName,psychopyVersion,frameRate,
"In the earlier Feedback Games, you chose which doors contained a prize, and which peers liked you. 

You then saw positive or negative feedback (green check mark or red X) from the door or peer you selected.

You will now see a series of doors and peers, some of which you saw during the earlier Feedback Games, and some that you have never seen before.

Please press the spacebar to continue.",,,,,0,0,0,0,,,,,instrFunc,space,"In the earlier Feedback Games, you chose which doors contained a prize, and which peers liked you. 

You then saw positive or negative feedback (green check mark or red X) from the door or peer you selected.

You will now see a series of doors and peers, some of which you saw during the earlier Feedback Games, and some that you have never seen before.

Please press the spacebar to continue.",96.27294970001094,1221.6623593999539,1318.0121969792526,2023-10-18 12:36:01.198179,2023-10-18 12:37:37.534594,,,10770,40-69,2023-10-18_12h35.57.554,Recall,2021.2.3,60.01817350157759,
"For doors/peers that you remember selecting and getting feedback from, your job is to RECALL what feedback you received. 

Press '1' if you recall positive feedback. 

Press '2' if you recall negative feedback

Press the spacebar to continue.",,,,,0,1,1,1,,,,,instrFunc,space,"For doors/peers that you remember selecting and getting feedback from, your job is to RECALL what feedback you received. 

Press '1' if you recall positive feedback. 

Press '2' if you recall negative feedback

Press the spacebar to continue.",14.738684799987823,1317.980718200095,1332.7719329202082,2023-10-18 12:37:37.535594,2023-10-18 12:37:52.311573,,,10770,40-69,2023-10-18_12h35.57.554,Recall,2021.2.3,60.01817350157759,
"For doors/peers that you don't remember getting feedback from, your job is to PREDICT what feedback you WOULD HAVE received.

Press '9' if you predict positive feedback.

Press '0' if you predict negative feedback. 

Please press the spacebar to continue.",,,,,0,2,2,2,,,,,instrFunc,space,"For doors/peers that you don't remember getting feedback from, your job is to PREDICT what feedback you WOULD HAVE received.

Press '9' if you predict positive feedback.

Press '0' if you predict negative feedback. 

Please press the spacebar to continue.",14.90470499987714,1332.758597200038,1347.7171157200355,2023-10-18 12:37:52.312574,2023-10-18 12:38:07.255815,,,10770,40-69,2023-10-18_12h35.57.554,Recall,2021.2.3,60.01817350157759,
"This task is self-paced, and the prompts will always stay on the screen so that you know which buttons to press.

On the next screen we will show you what those prompts look like, so that you know exactly what to expect. 

You will start with either doors or peers, and then switch halfway through. 

Please press the spacebar to continue.",,,,,0,3,3,3,,,,,instrFunc,space,"This task is self-paced, and the prompts will always stay on the screen so that you know which buttons to press.

On the next screen we will show you what those prompts look like, so that you know exactly what to expect. 

You will start with either doors or peers, and then switch halfway through. 

Please press the spacebar to continue.",1.4852789998985827,1347.698059400078,1349.2306626201607,2023-10-18 12:38:07.256816,2023-10-18 12:38:08.773853,,,10770,40-69,2023-10-18_12h35.57.554,Recall,2021.2.3,60.01817350157759,
,,,,,,,,,,,,,imgtextFunc,space,"Here is what the screen will look like while you make your ratings.
The green circles remind you to press 1 or 9 for positive feedback.
The red circles remind you to press 2 or 0 for negative feedback.









Please let the experimenter know if you have any questions.

Whenever you're ready, press the spacebar to start the task.",13.645793099887669,1349.361544799991,1363.1850585201755,2023-10-18 12:38:08.783772,2023-10-18 12:38:22.601506,,,10770,40-69,2023-10-18_12h35.57.554,Recall,2021.2.3,60.01817350157759,
,SD009.jpg,0,MF009.jpg,0,,,,,0,0,0,58,imgFunc,1,NA,12.139167299959809,1363.1641241000034,1375.4229593600612,2023-10-18 12:38:22.642920,2023-10-18 12:38:34.893032,SD009.jpg,0,10770,40-69,2023-10-18_12h35.57.554,Recall,2021.2.3,60.01817350157759,
,SD038.jpg,0,MF038.jpg,0,,,,,0,1,1,87,imgFunc,9,NA,5.328974800184369,1375.4142974999268,1380.848765420029,2023-10-18 12:38:34.902666,2023-10-18 12:38:40.330865,SD038.jpg,0,10770,40-69,2023-10-18_12h35.57.554,Recall,2021.2.3,60.01817350157759,
,SD007.jpg,0,MF007.jpg,0,,,,,0,2,2,56,imgFunc,1,NA,2.3200725000351667,1380.8313730999362,1383.2478160201572,2023-10-18 12:38:40.339843,2023-10-18 12:38:42.749019,SD007.jpg,0,10770,40-69,2023-10-18_12h35.57.554,Recall,2021.2.3,60.01817350157759,
,DD025.jpg,0,FF025.jpg,0,,,,,0,3,3,24,imgFunc,9,NA,3.3012704998254776,1383.249786700122,1386.6440686201677,2023-10-18 12:38:42.761016,2023-10-18 12:38:46.150408,DD025.jpg,0,10770,40-69,2023-10-18_12h35.57.554,Recall,2021.2.3,60.01817350157759,
,L_SD506.jpg,1,L_MF506.jpg,1,,,,,0,4,4,95,imgFunc,1,NA,2.1571820999961346,1386.6502378000878,1388.9037763201632,2023-10-18 12:38:46.158385,2023-10-18 12:38:48.403190,L_SD506.jpg,1,10770,40-69,2023-10-18_12h35.57.554,Recall,2021.2.3,60.01817350157759,
,DD040.jpg,0,FF040.jpg,0,,,,,0,5,5,39,imgFunc,1,NA,1.142811399884522,1388.8964520001318,1390.1320691201836,2023-10-18 12:38:48.410173,2023-10-18 12:38:49.637432,DD040.jpg,0,10770,40-69,2023-10-18_12h35.57.554,Recall,2021.2.3,60.01817350157759,
,SD035.jpg,0,MF035.jpg,0,,,,,0,6,6,84,imgFunc,9,NA,3.362348800059408,1390.1330333999358,1393.5869698198512,2023-10-18 12:38:49.644415,2023-10-18 12:38:53.089907,SD035.jpg,0,10770,40-69,2023-10-18_12h35.57.554,Recall,2021.2.3,60.01817350157759,
,DD033.jpg,0,FF033.jpg,0,,,,,0,7,7,32,imgFunc,1,NA,2.079246300039813,1393.6002023001201,1395.7754716202617,2023-10-18 12:38:53.102874,2023-10-18 12:38:55.274756,DD033.jpg,0,10770,40-69,2023-10-18_12h35.57.554,Recall,2021.2.3,60.01817350157759,
,SD032.jpg,0,MF032.jpg,0,,,,,0,8,8,81,imgFunc,1,NA,2.615674000000581,1395.7755543999374,1398.4758344201837,2023-10-18 12:38:55.283740,2023-10-18 12:38:57.976806,SD032.jpg,0,10770,40-69,2023-10-18_12h35.57.554,Recall,2021.2.3,60.01817350157759,
,DD013.jpg,0,FF013.jpg,0,,,,,0,9,9,12,imgFunc,1,NA,0.9010287001729012,1398.4743240999524,1399.4589893203229,2023-10-18 12:38:57.984787,2023-10-18 12:38:58.961089,DD013.jpg,0,10770,40-69,2023-10-18_12h35.57.554,Recall,2021.2.3,60.01817350157759,
,SD006.jpg,0,MF006.jpg,0,,,,,0,10,10,55,imgFunc,1,NA,1.2808574000373483,1399.4545603001025,1400.8233155203052,2023-10-18 12:38:58.968072,2023-10-18 12:39:00.328561,SD006.jpg,0,10770,40-69,2023-10-18_12h35.57.554,Recall,2021.2.3,60.01817350157759,
,L_SD507.jpg,1,L_MF507.jpg,1,,,,,0,11,11,96,imgFunc,9,NA,1.870539200026542,1400.8247090999503,1402.7938698199578,2023-10-18 12:39:00.335544,2023-10-18 12:39:02.296642,L_SD507.jpg,1,10770,40-69,2023-10-18_12h35.57.554,Recall,2021.2.3,60.01817350157759,
,SD023.jpg,0,MF023.jpg,0,,,,,0,12,12,72,imgFunc,1,NA,0.9318417999893427,1402.8035977000836,1403.825476020109,2023-10-18 12:39:02.310607,2023-10-18 12:39:03.330670,SD023.jpg,0,10770,40-69,2023-10-18_12h35.57.554,Recall,2021.2.3,60.01817350157759,
,DD002.jpg,0,FF002.jpg,0,,,,,0,13,13,1,imgFunc,1,NA,1.4674460999667645,1403.827724599978,1405.3808640199713,2023-10-18 12:39:03.337653,2023-10-18 12:39:04.881917,DD002.jpg,0,10770,40-69,2023-10-18_12h35.57.554,Recall,2021.2.3,60.01817350157759,
,DD016.jpg,0,FF016.jpg,0,,,,,0,14,14,15,imgFunc,1,NA,1.362308899872005,1405.388951299945,1406.8583506196737,2023-10-18 12:39:04.888900,2023-10-18 12:39:06.349792,DD016.jpg,0,10770,40-69,2023-10-18_12h35.57.554,Recall,2021.2.3,60.01817350157759,
,L_DD501.jpg,1,L_FF501.jpg,1,,,,,0,15,15,40,imgFunc,9,NA,1.3347970000468194,1406.8405744000338,1408.2600407199934,2023-10-18 12:39:06.356775,2023-10-18 12:39:07.767176,L_DD501.jpg,1,10770,40-69,2023-10-18_12h35.57.554,Recall,2021.2.3,60.01817350157759,
,SD019.jpg,0,MF019.jpg,0,,,,,0,16,16,68,imgFunc,0,NA,3.3530849998351187,1408.2621025999542,1411.6994873201475,2023-10-18 12:39:07.774181,2023-10-18 12:39:11.203284,SD019.jpg,0,10770,40-69,2023-10-18_12h35.57.554,Recall,2021.2.3,60.01817350157759,
,SD028.jpg,0,MF028.jpg,0,,,,,0,17,17,77,imgFunc,1,NA,1.742213899968192,1411.7132183001377,1413.5516507201828,2023-10-18 12:39:11.217249,2023-10-18 12:39:13.054363,SD028.jpg,0,10770,40-69,2023-10-18_12h35.57.554,Recall,2021.2.3,60.01817350157759,
,SD029.jpg,0,MF029.jpg,0,,,,,0,18,18,78,imgFunc,2,NA,5.920510600088164,1413.550763499923,1419.5570730199106,2023-10-18 12:39:13.061346,2023-10-18 12:39:19.059157,SD029.jpg,0,10770,40-69,2023-10-18_12h35.57.554,Recall,2021.2.3,60.01817350157759,
,SD040.jpg,0,MF040.jpg,0,,,,,0,19,19,89,imgFunc,9,NA,2.484894499881193,1419.5543476000894,1422.120741119841,2023-10-18 12:39:19.068135,2023-10-18 12:39:21.627631,SD040.jpg,0,10770,40-69,2023-10-18_12h35.57.554,Recall,2021.2.3,60.01817350157759,
,DD008.jpg,0,FF008.jpg,0,,,,,0,20,20,7,imgFunc,1,NA,0.9893240001983941,1422.122023300035,1423.2077528203372,2023-10-18 12:39:21.634614,2023-10-18 12:39:22.711808,DD008.jpg,0,10770,40-69,2023-10-18_12h35.57.554,Recall,2021.2.3,60.01817350157759,
,SD037.jpg,0,MF037.jpg,0,,,,,0,21,21,86,imgFunc,2,NA,3.5807566000148654,1423.2263633999974,1426.9140241199639,2023-10-18 12:39:22.718791,2023-10-18 12:39:26.397742,SD037.jpg,0,10770,40-69,2023-10-18_12h35.57.554,Recall,2021.2.3,60.01817350157759,
,DD019.jpg,0,FF019.jpg,0,,,,,0,22,22,18,imgFunc,0,NA,2.3230695999227464,1426.9003634001128,1429.320291020209,2023-10-18 12:39:26.404725,2023-10-18 12:39:28.816020,DD019.jpg,0,10770,40-69,2023-10-18_12h35.57.554,Recall,2021.2.3,60.01817350157759,
,SD011.jpg,0,MF011.jpg,0,,,,,0,23,23,60,imgFunc,0,NA,1.5169322001747787,1429.3143293000758,1430.9170523204375,2023-10-18 12:39:28.823004,2023-10-18 12:39:30.417395,SD011.jpg,0,10770,40-69,2023-10-18_12h35.57.554,Recall,2021.2.3,60.01817350157759,
,DD015.jpg,0,FF015.jpg,0,,,,,0,24,24,14,imgFunc,1,NA,3.2854150999337435,1430.9139559001196,1434.2849401200656,2023-10-18 12:39:30.424378,2023-10-18 12:39:33.786592,DD015.jpg,0,10770,40-69,2023-10-18_12h35.57.554,Recall,2021.2.3,60.01817350157759,
,SD025.jpg,0,MF025.jpg,0,,,,,0,25,25,74,imgFunc,2,NA,1.9284625998698175,1434.294998000143,1436.3281522202305,2023-10-18 12:39:33.795570,2023-10-18 12:39:35.821055,SD025.jpg,0,10770,40-69,2023-10-18_12h35.57.554,Recall,2021.2.3,60.01817350157759,
,DD022.jpg,0,FF022.jpg,0,,,,,0,26,26,21,imgFunc,9,NA,2.5025126999244094,1436.3208318001125,1438.9124649201985,2023-10-18 12:39:35.834055,2023-10-18 12:39:38.423076,DD022.jpg,0,10770,40-69,2023-10-18_12h35.57.554,Recall,2021.2.3,60.01817350157759,
,DD030.jpg,0,FF030.jpg,0,,,,,0,27,27,29,imgFunc,1,NA,1.7661946001462638,1438.9211379000917,1440.773795420071,2023-10-18 12:39:38.430060,2023-10-18 12:39:40.274626,DD030.jpg,0,10770,40-69,2023-10-18_12h35.57.554,Recall,2021.2.3,60.01817350157759,
,SD012.jpg,0,MF012.jpg,0,,,,,0,28,28,61,imgFunc,0,NA,2.3054038998670876,1440.78193009994,1443.1849650198128,2023-10-18 12:39:40.281610,2023-10-18 12:39:42.676402,SD012.jpg,0,10770,40-69,2023-10-18_12h35.57.554,Recall,2021.2.3,60.01817350157759,
,SD020.jpg,0,MF020.jpg,0,,,,,0,29,29,69,imgFunc,9,NA,2.0095633999444544,1443.1818023000378,1445.2848367199767,2023-10-18 12:39:42.683385,2023-10-18 12:39:44.777802,SD020.jpg,0,10770,40-69,2023-10-18_12h35.57.554,Recall,2021.2.3,60.01817350157759,
,SD008.jpg,0,MF008.jpg,0,,,,,0,30,30,57,imgFunc,0,NA,2.01160249998793,1445.2838286999613,1447.4034405199345,2023-10-18 12:39:44.784784,2023-10-18 12:39:46.895834,SD008.jpg,0,10770,40-69,2023-10-18_12h35.57.554,Recall,2021.2.3,60.01817350157759,
,DD035.jpg,0,FF035.jpg,0,,,,,0,31,31,34,imgFunc,1,NA,1.774736300110817,1447.4005160001107,1449.256679520011,2023-10-18 12:39:46.909798,2023-10-18 12:39:48.764236,DD035.jpg,0,10770,40-69,2023-10-18_12h35.57.554,Recall,2021.2.3,60.01817350157759,
,L_SD502.jpg,1,L_MF502.jpg,1,,,,,0,32,32,91,imgFunc,2,NA,1.5481813999358565,1449.2591462000273,1450.8953134198673,2023-10-18 12:39:48.771219,2023-10-18 12:39:50.398573,L_SD502.jpg,1,10770,40-69,2023-10-18_12h35.57.554,Recall,2021.2.3,60.01817350157759,
,SD003.jpg,0,MF003.jpg,0,,,,,0,33,33,52,imgFunc,9,NA,1.3413251999299973,1450.8979652000125,1452.3336799200624,2023-10-18 12:39:50.405578,2023-10-18 12:39:51.832391,SD003.jpg,0,10770,40-69,2023-10-18_12h35.57.554,Recall,2021.2.3,60.01817350157759,
,DD023.jpg,0,FF023.jpg,0,,,,,0,34,34,22,imgFunc,9,NA,2.37469289987348,1452.328614300117,1454.7987758200616,2023-10-18 12:39:51.840373,2023-10-18 12:39:54.301364,DD023.jpg,0,10770,40-69,2023-10-18_12h35.57.554,Recall,2021.2.3,60.01817350157759,
,DD012.jpg,0,FF012.jpg,0,,,,,0,35,35,11,imgFunc,1,NA,1.2352613001130521,1454.8042131999973,1456.1404437199235,2023-10-18 12:39:54.308347,2023-10-18 12:39:55.635674,DD012.jpg,0,10770,40-69,2023-10-18_12h35.57.554,Recall,2021.2.3,60.01817350157759,
,DD031.jpg,0,FF031.jpg,0,,,,,0,36,36,30,imgFunc,9,NA,2.7279960000887513,1456.143446699949,1458.9665666201618,2023-10-18 12:39:55.649639,2023-10-18 12:39:58.471260,DD031.jpg,0,10770,40-69,2023-10-18_12h35.57.554,Recall,2021.2.3,60.01817350157759,
,L_DD505.jpg,1,L_FF505.jpg,1,,,,,0,37,37,44,imgFunc,9,NA,1.1490917999763042,1458.970047699986,1460.2209348198958,2023-10-18 12:39:58.479240,2023-10-18 12:39:59.722077,L_DD505.jpg,1,10770,40-69,2023-10-18_12h35.57.554,Recall,2021.2.3,60.01817350157759,
,SD021.jpg,0,MF021.jpg,0,,,,,0,38,38,70,imgFunc,1,NA,0.8893860999960452,1460.2219078999478,1461.2078604197595,2023-10-18 12:39:59.729059,2023-10-18 12:40:00.706173,SD021.jpg,0,10770,40-69,2023-10-18_12h35.57.554,Recall,2021.2.3,60.01817350157759,
,SD017.jpg,0,MF017.jpg,0,,,,,0,39,39,66,imgFunc,2,NA,2.9315206999890506,1461.2037965001073,1464.2244333203416,2023-10-18 12:40:00.713156,2023-10-18 12:40:03.724945,SD017.jpg,0,10770,40-69,2023-10-18_12h35.57.554,Recall,2021.2.3,60.01817350157759,
,L_DD502.jpg,1,L_FF502.jpg,1,,,,,0,40,40,41,imgFunc,9,NA,2.190750800073147,1464.2324270999525,1466.5192960200366,2023-10-18 12:40:03.731928,2023-10-18 12:40:06.009972,L_DD502.jpg,1,10770,40-69,2023-10-18_12h35.57.554,Recall,2021.2.3,60.01817350157759,
,L_SD510.jpg,1,L_MF510.jpg,1,,,,,0,41,41,99,imgFunc,0,NA,2.465650700032711,1466.5096726000775,1469.0636039201636,2023-10-18 12:40:06.016955,2023-10-18 12:40:08.561541,L_SD510.jpg,1,10770,40-69,2023-10-18_12h35.57.554,Recall,2021.2.3,60.01817350157759,
,L_DD510.jpg,1,L_FF510.jpg,1,,,,,0,42,42,49,imgFunc,0,NA,1.3146623999346048,1469.0527757999953,1470.4551190200727,2023-10-18 12:40:08.569544,2023-10-18 12:40:09.962938,L_DD510.jpg,1,10770,40-69,2023-10-18_12h35.57.554,Recall,2021.2.3,60.01817350157759,
,SD030.jpg,0,MF030.jpg,0,,,,,0,43,43,79,imgFunc,1,NA,1.276087800040841,1470.459388700081,1471.8288936200552,2023-10-18 12:40:09.969921,2023-10-18 12:40:11.330718,SD030.jpg,0,10770,40-69,2023-10-18_12h35.57.554,Recall,2021.2.3,60.01817350157759,
,SD010.jpg,0,MF010.jpg,0,,,,,0,44,44,59,imgFunc,9,NA,1.4482748999726027,1471.8391895000823,1473.3919216201175,2023-10-18 12:40:11.337701,2023-10-18 12:40:12.881582,SD010.jpg,0,10770,40-69,2023-10-18_12h35.57.554,Recall,2021.2.3,60.01817350157759,
,SD004.jpg,0,MF004.jpg,0,,,,,0,45,45,53,imgFunc,1,NA,2.5690426998771727,1473.3902660999447,1476.0489979202393,2023-10-18 12:40:12.894406,2023-10-18 12:40:15.550450,SD004.jpg,0,10770,40-69,2023-10-18_12h35.57.554,Recall,2021.2.3,60.01817350157759,
,L_SD509.jpg,1,L_MF509.jpg,1,,,,,0,46,46,98,imgFunc,9,NA,2.6365354999434203,1476.0508451000787,1478.786670820089,2023-10-18 12:40:15.558430,2023-10-18 12:40:18.285594,L_SD509.jpg,1,10770,40-69,2023-10-18_12h35.57.554,Recall,2021.2.3,60.01817350157759,
,DD029.jpg,0,FF029.jpg,0,,,,,0,47,47,28,imgFunc,9,NA,0.8384608998894691,1478.7767988000996,1479.6958604201209,2023-10-18 12:40:18.292577,2023-10-18 12:40:19.202883,DD029.jpg,0,10770,40-69,2023-10-18_12h35.57.554,Recall,2021.2.3,60.01817350157759,
,SD036.jpg,0,MF036.jpg,0,,,,,0,48,48,85,imgFunc,2,NA,1.744880799902603,1479.7027106999885,1481.5363523198757,2023-10-18 12:40:19.211862,2023-10-18 12:40:21.037887,SD036.jpg,0,10770,40-69,2023-10-18_12h35.57.554,Recall,2021.2.3,60.01817350157759,
,L_DD509.jpg,1,L_FF509.jpg,1,,,,,0,49,49,48,imgFunc,9,NA,1.2920814999379218,1481.5391136999242,1482.9251623200253,2023-10-18 12:40:21.044870,2023-10-18 12:40:22.421705,L_DD509.jpg,1,10770,40-69,2023-10-18_12h35.57.554,Recall,2021.2.3,60.01817350157759,
,L_SD505.jpg,1,L_MF505.jpg,1,,,,,0,50,50,94,imgFunc,1,NA,1.4690351001918316,1482.938315999927,1484.5095420200378,2023-10-18 12:40:22.436689,2023-10-18 12:40:24.006564,L_SD505.jpg,1,10770,40-69,2023-10-18_12h35.57.554,Recall,2021.2.3,60.01817350157759,
,SD022.jpg,0,MF022.jpg,0,,,,,0,51,51,71,imgFunc,1,NA,0.9898467001039535,1484.5055796001107,1485.5903555201367,2023-10-18 12:40:24.014545,2023-10-18 12:40:25.090687,SD022.jpg,0,10770,40-69,2023-10-18_12h35.57.554,Recall,2021.2.3,60.01817350157759,
,L_SD501.jpg,1,L_MF501.jpg,1,,,,,0,52,52,90,imgFunc,9,NA,1.6862163001205772,1485.5851710001007,1487.3550978202838,2023-10-18 12:40:25.097670,2023-10-18 12:40:26.858852,L_SD501.jpg,1,10770,40-69,2023-10-18_12h35.57.554,Recall,2021.2.3,60.01817350157759,
,DD036.jpg,0,FF036.jpg,0,,,,,0,53,53,35,imgFunc,1,NA,0.9217753999400884,1487.357657100074,1488.3765374200884,2023-10-18 12:40:26.865835,2023-10-18 12:40:27.875932,DD036.jpg,0,10770,40-69,2023-10-18_12h35.57.554,Recall,2021.2.3,60.01817350157759,
,DD006.jpg,0,FF006.jpg,0,,,,,0,54,54,5,imgFunc,2,NA,2.9162990001495928,1488.371288600145,1491.3753072202671,2023-10-18 12:40:27.882915,2023-10-18 12:40:30.878260,DD006.jpg,0,10770,40-69,2023-10-18_12h35.57.554,Recall,2021.2.3,60.01817350157759,
,DD003.jpg,0,FF003.jpg,0,,,,,0,55,55,2,imgFunc,9,NA,1.8447696999646723,1491.3867424000055,1493.322333020158,2023-10-18 12:40:30.894220,2023-10-18 12:40:32.829772,DD003.jpg,0,10770,40-69,2023-10-18_12h35.57.554,Recall,2021.2.3,60.01817350157759,
,DD004.jpg,0,FF004.jpg,0,,,,,0,56,56,3,imgFunc,9,NA,1.0745547998230904,1493.3249467001297,1494.4939248200972,2023-10-18 12:40:32.836755,2023-10-18 12:40:33.997218,DD004.jpg,0,10770,40-69,2023-10-18_12h35.57.554,Recall,2021.2.3,60.01817350157759,
,SD001.jpg,0,MF001.jpg,0,,,,,0,57,57,50,imgFunc,1,NA,1.9532371000386775,1494.4861519001424,1496.522351120133,2023-10-18 12:40:34.004201,2023-10-18 12:40:36.031782,SD001.jpg,0,10770,40-69,2023-10-18_12h35.57.554,Recall,2021.2.3,60.01817350157759,
,DD020.jpg,0,FF020.jpg,0,,,,,0,58,58,19,imgFunc,1,NA,2.5435465001501143,1496.5277750999667,1499.1646609201562,2023-10-18 12:40:36.038765,2023-10-18 12:40:38.667404,DD020.jpg,0,10770,40-69,2023-10-18_12h35.57.554,Recall,2021.2.3,60.01817350157759,
,DD039.jpg,0,FF039.jpg,0,,,,,0,59,59,38,imgFunc,0,NA,1.1582655999809504,1499.1692540000658,1500.4218988204375,2023-10-18 12:40:38.674387,2023-10-18 12:40:39.918314,DD039.jpg,0,10770,40-69,2023-10-18_12h35.57.554,Recall,2021.2.3,60.01817350157759,
,DD032.jpg,0,FF032.jpg,0,,,,,0,60,60,31,imgFunc,9,NA,2.6716515000443906,1500.4157501999289,1503.1859477199614,2023-10-18 12:40:39.925298,2023-10-18 12:40:42.686823,DD032.jpg,0,10770,40-69,2023-10-18_12h35.57.554,Recall,2021.2.3,60.01817350157759,
,DD038.jpg,0,FF038.jpg,0,,,,,0,61,61,37,imgFunc,2,NA,1.401107600191608,1503.1902131000534,1504.6931741200387,2023-10-18 12:40:42.693807,2023-10-18 12:40:44.188043,DD038.jpg,0,10770,40-69,2023-10-18_12h35.57.554,Recall,2021.2.3,60.01817350157759,
,SD002.jpg,0,MF002.jpg,0,,,,,0,62,62,51,imgFunc,9,NA,1.5978820999152958,1504.6974637999665,1506.4000585200265,2023-10-18 12:40:44.195026,2023-10-18 12:40:45.888984,SD002.jpg,0,10770,40-69,2023-10-18_12h35.57.554,Recall,2021.2.3,60.01817350157759,
,DD009.jpg,0,FF009.jpg,0,,,,,0,63,63,8,imgFunc,9,NA,1.0591955001000315,1506.3962896999437,1507.565596719971,2023-10-18 12:40:45.895967,2023-10-18 12:40:47.056705,DD009.jpg,0,10770,40-69,2023-10-18_12h35.57.554,Recall,2021.2.3,60.01817350157759,
,L_SD503.jpg,1,L_MF503.jpg,1,,,,,0,64,64,92,imgFunc,9,NA,0.9927223999984562,1507.5585187000688,1508.632562319981,2023-10-18 12:40:47.069706,2023-10-18 12:40:48.141085,L_SD503.jpg,1,10770,40-69,2023-10-18_12h35.57.554,Recall,2021.2.3,60.01817350157759,
,SD031.jpg,0,MF031.jpg,0,,,,,0,65,65,80,imgFunc,1,NA,0.9601389998570085,1508.6389142000116,1509.6910896198824,2023-10-18 12:40:48.148068,2023-10-18 12:40:49.191714,SD031.jpg,0,10770,40-69,2023-10-18_12h35.57.554,Recall,2021.2.3,60.01817350157759,
,DD021.jpg,0,FF021.jpg,0,,,,,0,66,66,20,imgFunc,1,NA,1.7964230000507087,1509.6829758000094,1511.5694003200624,2023-10-18 12:40:49.198697,2023-10-18 12:40:51.076241,DD021.jpg,0,10770,40-69,2023-10-18_12h35.57.554,Recall,2021.2.3,60.01817350157759,
,DD001.jpg,0,FF001.jpg,0,,,,,0,67,67,0,imgFunc,9,NA,1.7618068000301719,1511.565678999992,1513.4188166200183,2023-10-18 12:40:51.083224,2023-10-18 12:40:52.927724,DD001.jpg,0,10770,40-69,2023-10-18_12h35.57.554,Recall,2021.2.3,60.01817350157759,
,DD011.jpg,0,FF011.jpg,0,,,,,0,68,68,10,imgFunc,0,NA,0.9518753001466393,1513.4233466000296,1514.4761634198949,2023-10-18 12:40:52.934708,2023-10-18 12:40:53.978612,DD011.jpg,0,10770,40-69,2023-10-18_12h35.57.554,Recall,2021.2.3,60.01817350157759,
,SD018.jpg,0,MF018.jpg,0,,,,,0,69,69,67,imgFunc,2,NA,1.7490489999763668,1514.490329500055,1516.328599720262,2023-10-18 12:40:53.993574,2023-10-18 12:40:55.829982,SD018.jpg,0,10770,40-69,2023-10-18_12h35.57.554,Recall,2021.2.3,60.01817350157759,
,L_DD504.jpg,1,L_FF504.jpg,1,,,,,0,70,70,43,imgFunc,9,NA,1.4056079001165926,1516.3377483999357,1517.8395574199967,2023-10-18 12:40:55.837963,2023-10-18 12:40:57.330612,L_DD504.jpg,1,10770,40-69,2023-10-18_12h35.57.554,Recall,2021.2.3,60.01817350157759,
,L_DD508.jpg,1,L_FF508.jpg,1,,,,,0,71,71,47,imgFunc,1,NA,1.2491985999513417,1517.8302140999585,1519.1821368199307,2023-10-18 12:40:57.338594,2023-10-18 12:40:58.681859,L_DD508.jpg,1,10770,40-69,2023-10-18_12h35.57.554,Recall,2021.2.3,60.01817350157759,
,L_DD506.jpg,1,L_FF506.jpg,1,,,,,0,72,72,45,imgFunc,1,NA,0.875863199820742,1519.179473400116,1520.148520320421,2023-10-18 12:40:58.688842,2023-10-18 12:40:59.649216,L_DD506.jpg,1,10770,40-69,2023-10-18_12h35.57.554,Recall,2021.2.3,60.01817350157759,
,SD005.jpg,0,MF005.jpg,0,,,,,0,73,73,54,imgFunc,9,NA,1.6388757000677288,1520.1444850000553,1521.879334920086,2023-10-18 12:40:59.657073,2023-10-18 12:41:01.383667,SD005.jpg,0,10770,40-69,2023-10-18_12h35.57.554,Recall,2021.2.3,60.01817350157759,
,SD013.jpg,0,MF013.jpg,0,,,,,0,74,74,62,imgFunc,0,NA,2.2049834998324513,1521.882521300111,1524.171927920077,2023-10-18 12:41:01.397632,2023-10-18 12:41:03.685642,SD013.jpg,0,10770,40-69,2023-10-18_12h35.57.554,Recall,2021.2.3,60.01817350157759,
,SD024.jpg,0,MF024.jpg,0,,,,,0,75,75,73,imgFunc,0,NA,0.6598591001238674,1524.179584500147,1524.9317918203305,2023-10-18 12:41:03.692625,2023-10-18 12:41:04.436039,SD024.jpg,0,10770,40-69,2023-10-18_12h35.57.554,Recall,2021.2.3,60.01817350157759,
,SD027.jpg,0,MF027.jpg,0,,,,,0,76,76,76,imgFunc,2,NA,1.6856422000564635,1524.9377558999695,1526.7237634200137,2023-10-18 12:41:04.443022,2023-10-18 12:41:06.220737,SD027.jpg,0,10770,40-69,2023-10-18_12h35.57.554,Recall,2021.2.3,60.01817350157759,
,DD005.jpg,0,FF005.jpg,0,,,,,0,77,77,4,imgFunc,9,NA,1.119981599971652,1526.7195467001293,1527.9388630203903,2023-10-18 12:41:06.227720,2023-10-18 12:41:07.438235,DD005.jpg,0,10770,40-69,2023-10-18_12h35.57.554,Recall,2021.2.3,60.01817350157759,
,SD033.jpg,0,MF033.jpg,0,,,,,0,78,78,82,imgFunc,1,NA,2.019245699979365,1527.9402081000153,1530.0597107198555,2023-10-18 12:41:07.445218,2023-10-18 12:41:09.556486,SD033.jpg,0,10770,40-69,2023-10-18_12h35.57.554,Recall,2021.2.3,60.01817350157759,
,SD014.jpg,0,MF014.jpg,0,,,,,0,79,79,63,imgFunc,1,NA,1.090723400004208,1530.0527435000986,1531.2385918202344,2023-10-18 12:41:09.563469,2023-10-18 12:41:10.740646,SD014.jpg,0,10770,40-69,2023-10-18_12h35.57.554,Recall,2021.2.3,60.01817350157759,
,SD015.jpg,0,MF015.jpg,0,,,,,0,80,80,64,imgFunc,9,NA,0.8987747000064701,1531.2287107000593,1532.2145363199525,2023-10-18 12:41:10.747629,2023-10-18 12:41:11.724670,SD015.jpg,0,10770,40-69,2023-10-18_12h35.57.554,Recall,2021.2.3,60.01817350157759,
,DD034.jpg,0,FF034.jpg,0,,,,,0,81,81,33,imgFunc,9,NA,0.9661485000979155,1532.2172183000948,1533.269507320132,2023-10-18 12:41:11.731676,2023-10-18 12:41:12.775703,DD034.jpg,0,10770,40-69,2023-10-18_12h35.57.554,Recall,2021.2.3,60.01817350157759,
,DD007.jpg,0,FF007.jpg,0,,,,,0,82,82,6,imgFunc,2,NA,2.739716300042346,1533.2756559001282,1536.112465720158,2023-10-18 12:41:12.782686,2023-10-18 12:41:15.611067,DD007.jpg,0,10770,40-69,2023-10-18_12h35.57.554,Recall,2021.2.3,60.01817350157759,
,L_SD508.jpg,1,L_MF508.jpg,1,,,,,0,83,83,97,imgFunc,9,NA,1.869593899929896,1536.1216605999507,1538.0954275201075,2023-10-18 12:41:15.624034,2023-10-18 12:41:17.595312,L_SD508.jpg,1,10770,40-69,2023-10-18_12h35.57.554,Recall,2021.2.3,60.01817350157759,
,DD026.jpg,0,FF026.jpg,0,,,,,0,84,84,25,imgFunc,9,NA,0.5754343001171947,1538.0880776999984,1538.74999251985,2023-10-18 12:41:17.606284,2023-10-18 12:41:18.262779,DD026.jpg,0,10770,40-69,2023-10-18_12h35.57.554,Recall,2021.2.3,60.01817350157759,
,DD028.jpg,0,FF028.jpg,0,,,,,0,85,85,27,imgFunc,0,NA,2.232683799928054,1538.7506757001393,1541.0706961201504,2023-10-18 12:41:18.269763,2023-10-18 12:41:20.581218,DD028.jpg,0,10770,40-69,2023-10-18_12h35.57.554,Recall,2021.2.3,60.01817350157759,
,L_DD503.jpg,1,L_FF503.jpg,1,,,,,0,86,86,42,imgFunc,0,NA,1.1753501000348479,1541.0801331999246,1542.349443320185,2023-10-18 12:41:20.588201,2023-10-18 12:41:21.848675,L_DD503.jpg,1,10770,40-69,2023-10-18_12h35.57.554,Recall,2021.2.3,60.01817350157759,
,DD014.jpg,0,FF014.jpg,0,,,,,0,87,87,13,imgFunc,1,NA,1.844505500048399,1542.3546351999976,1544.3067145200912,2023-10-18 12:41:21.856655,2023-10-18 12:41:23.800161,DD014.jpg,0,10770,40-69,2023-10-18_12h35.57.554,Recall,2021.2.3,60.01817350157759,
,DD017.jpg,0,FF017.jpg,0,,,,,0,88,88,16,imgFunc,9,NA,2.279901900095865,1544.3116685000714,1546.6835662201047,2023-10-18 12:41:23.814148,2023-10-18 12:41:26.185066,DD017.jpg,0,10770,40-69,2023-10-18_12h35.57.554,Recall,2021.2.3,60.01817350157759,
,SD039.jpg,0,MF039.jpg,0,,,,,0,89,89,88,imgFunc,9,NA,1.15373450005427,1546.6854644000996,1547.9366424202453,2023-10-18 12:41:26.193046,2023-10-18 12:41:27.436053,SD039.jpg,0,10770,40-69,2023-10-18_12h35.57.554,Recall,2021.2.3,60.01817350157759,
,L_DD507.jpg,1,L_FF507.jpg,1,,,,,0,90,90,46,imgFunc,1,NA,1.7789039998315275,1547.9321345000062,1549.7993238202762,2023-10-18 12:41:27.444032,2023-10-18 12:41:29.304095,L_DD507.jpg,1,10770,40-69,2023-10-18_12h35.57.554,Recall,2021.2.3,60.01817350157759,
,L_SD504.jpg,1,L_MF504.jpg,1,,,,,0,91,91,93,imgFunc,2,NA,1.642227000091225,1549.7972759001423,1551.533554420108,2023-10-18 12:41:29.311078,2023-10-18 12:41:31.038777,L_SD504.jpg,1,10770,40-69,2023-10-18_12h35.57.554,Recall,2021.2.3,60.01817350157759,
,DD037.jpg,0,FF037.jpg,0,,,,,0,92,92,36,imgFunc,9,NA,1.4315889000426978,1551.5357723000925,1553.0554004202131,2023-10-18 12:41:31.045761,2023-10-18 12:41:32.556547,DD037.jpg,0,10770,40-69,2023-10-18_12h35.57.554,Recall,2021.2.3,60.01817350157759,
,SD026.jpg,0,MF026.jpg,0,,,,,0,93,93,75,imgFunc,9,NA,1.5451309999916703,1553.0624029999599,1554.7007392200176,2023-10-18 12:41:32.570511,2023-10-18 12:41:34.207549,SD026.jpg,0,10770,40-69,2023-10-18_12h35.57.554,Recall,2021.2.3,60.01817350157759,
,SD034.jpg,0,MF034.jpg,0,,,,,0,94,94,83,imgFunc,1,NA,2.890203299932182,1554.7092740000226,1557.6962714199908,2023-10-18 12:41:34.214554,2023-10-18 12:41:37.193019,SD034.jpg,0,10770,40-69,2023-10-18_12h35.57.554,Recall,2021.2.3,60.01817350157759,
,DD010.jpg,0,FF010.jpg,0,,,,,0,95,95,9,imgFunc,1,NA,1.1253045999910682,1557.6820509999525,1558.9013194199651,2023-10-18 12:41:37.200002,2023-10-18 12:41:38.410573,DD010.jpg,0,10770,40-69,2023-10-18_12h35.57.554,Recall,2021.2.3,60.01817350157759,
,DD018.jpg,0,FF018.jpg,0,,,,,0,96,96,17,imgFunc,9,NA,0.8112238999456167,1558.9002597001381,1559.8026762201916,2023-10-18 12:41:38.417556,2023-10-18 12:41:39.311220,DD018.jpg,0,10770,40-69,2023-10-18_12h35.57.554,Recall,2021.2.3,60.01817350157759,
,DD027.jpg,0,FF027.jpg,0,,,,,0,97,97,26,imgFunc,9,NA,0.8208184000104666,1559.8106408000458,1560.7298899199814,2023-10-18 12:41:39.318203,2023-10-18 12:41:40.228655,DD027.jpg,0,10770,40-69,2023-10-18_12h35.57.554,Recall,2021.2.3,60.01817350157759,
,SD016.jpg,0,MF016.jpg,0,,,,,0,98,98,65,imgFunc,1,NA,1.2843361000996083,1560.7230732999742,1562.0929883201607,2023-10-18 12:41:40.235638,2023-10-18 12:41:41.596376,SD016.jpg,0,10770,40-69,2023-10-18_12h35.57.554,Recall,2021.2.3,60.01817350157759,
,DD024.jpg,0,FF024.jpg,0,,,,,0,99,99,23,imgFunc,2,NA,1.6717731999233365,1562.0955177000724,1563.864871720085,2023-10-18 12:41:41.603266,2023-10-18 12:41:43.364090,DD024.jpg,0,10770,40-69,2023-10-18_12h35.57.554,Recall,2021.2.3,60.01817350157759,
,,,,,,,,,,,,,instrFunc,space,"Great work! 

 Now you will switch to the other image type.

 Press the spacebar whenever you are ready to start.",2.469958500005305,1563.7932702000253,1566.308688819874,2023-10-18 12:41:43.365115,2023-10-18 12:41:45.864734,,,10770,40-69,2023-10-18_12h35.57.554,Recall,2021.2.3,60.01817350157759,
,SD016.jpg,0,MF016.jpg,0,,,,,0,0,0,65,imgFunc,1,NA,9.3329117000103,1566.3943247999996,1575.8258860402275,2023-10-18 12:41:45.894678,2023-10-18 12:41:55.322932,MF016.jpg,0,10770,40-69,2023-10-18_12h35.57.554,Recall,2021.2.3,60.01817350157759,
,SD017.jpg,0,MF017.jpg,0,,,,,0,1,1,66,imgFunc,2,NA,1.7275525000877678,1575.8238534000702,1577.639678020263,2023-10-18 12:41:55.331909,2023-10-18 12:41:57.140930,MF017.jpg,0,10770,40-69,2023-10-18_12h35.57.554,Recall,2021.2.3,60.01817350157759,
,DD022.jpg,0,FF022.jpg,0,,,,,0,2,2,21,imgFunc,2,NA,2.9667945001274347,1577.6407242999412,1580.7105597199406,2023-10-18 12:41:57.147935,2023-10-18 12:42:00.209519,FF022.jpg,0,10770,40-69,2023-10-18_12h35.57.554,Recall,2021.2.3,60.01817350157759,
,DD021.jpg,0,FF021.jpg,0,,,,,0,3,3,20,imgFunc,1,NA,2.1059075000230223,1580.717429799959,1582.92769692,2023-10-18 12:42:00.221512,2023-10-18 12:42:02.427928,FF021.jpg,0,10770,40-69,2023-10-18_12h35.57.554,Recall,2021.2.3,60.01817350157759,
,DD016.jpg,0,FF016.jpg,0,,,,,0,4,4,15,imgFunc,1,NA,2.6592324001248926,1582.940220199991,1585.7104390200693,2023-10-18 12:42:02.434911,2023-10-18 12:42:05.196527,FF016.jpg,0,10770,40-69,2023-10-18_12h35.57.554,Recall,2021.2.3,60.01817350157759,
,L_DD503.jpg,1,L_FF503.jpg,1,,,,,0,5,5,42,imgFunc,2,NA,3.1932200000155717,1585.7181953000836,1589.039014420472,2023-10-18 12:42:05.203510,2023-10-18 12:42:08.515675,L_FF503.jpg,1,10770,40-69,2023-10-18_12h35.57.554,Recall,2021.2.3,60.01817350157759,
,DD003.jpg,0,FF003.jpg,0,,,,,0,6,6,2,imgFunc,9,NA,1.7531715999357402,1589.0142479999922,1590.8672045201529,2023-10-18 12:42:08.522658,2023-10-18 12:42:10.366975,FF003.jpg,0,10770,40-69,2023-10-18_12h35.57.554,Recall,2021.2.3,60.01817350157759,
,SD026.jpg,0,MF026.jpg,0,,,,,0,7,7,75,imgFunc,1,NA,1.430069699883461,1590.8734687999822,1592.4097252201755,2023-10-18 12:42:10.373959,2023-10-18 12:42:11.901495,MF026.jpg,0,10770,40-69,2023-10-18_12h35.57.554,Recall,2021.2.3,60.01817350157759,
,SD028.jpg,0,MF028.jpg,0,,,,,0,8,8,77,imgFunc,2,NA,2.419801800046116,1592.4036855001468,1594.9241557202768,2023-10-18 12:42:11.908478,2023-10-18 12:42:14.420031,MF028.jpg,0,10770,40-69,2023-10-18_12h35.57.554,Recall,2021.2.3,60.01817350157759,
,DD010.jpg,0,FF010.jpg,0,,,,,0,9,9,9,imgFunc,1,NA,1.671301000053063,1594.927838300122,1596.7136669200845,2023-10-18 12:42:14.427014,2023-10-18 12:42:16.203569,FF010.jpg,0,10770,40-69,2023-10-18_12h35.57.554,Recall,2021.2.3,60.01817350157759,
,DD009.jpg,0,FF009.jpg,0,,,,,0,10,10,8,imgFunc,2,NA,3.0118686999194324,1596.6996406000108,1599.8033773202915,2023-10-18 12:42:16.211546,2023-10-18 12:42:19.306630,FF009.jpg,0,10770,40-69,2023-10-18_12h35.57.554,Recall,2021.2.3,60.01817350157759,
,DD038.jpg,0,FF038.jpg,0,,,,,0,11,11,37,imgFunc,2,NA,1.676994200097397,1599.8025500001386,1601.5718187200837,2023-10-18 12:42:19.313613,2023-10-18 12:42:21.074702,FF038.jpg,0,10770,40-69,2023-10-18_12h35.57.554,Recall,2021.2.3,60.01817350157759,
,L_SD502.jpg,1,L_MF502.jpg,1,,,,,0,12,12,91,imgFunc,1,NA,1.3793818999547511,1601.5801427001134,1603.0542268201243,2023-10-18 12:42:21.087669,2023-10-18 12:42:22.559113,L_MF502.jpg,1,10770,40-69,2023-10-18_12h35.57.554,Recall,2021.2.3,60.01817350157759,
,SD035.jpg,0,MF035.jpg,0,,,,,0,13,13,84,imgFunc,1,NA,1.4887800000142306,1603.0546558001079,1604.6410236200318,2023-10-18 12:42:22.566096,2023-10-18 12:42:24.143529,MF035.jpg,0,10770,40-69,2023-10-18_12h35.57.554,Recall,2021.2.3,60.01817350157759,
,SD011.jpg,0,MF011.jpg,0,,,,,0,14,14,60,imgFunc,2,NA,1.5183292999863625,1604.641116200015,1606.260741720209,2023-10-18 12:42:24.150512,2023-10-18 12:42:25.761352,MF011.jpg,0,10770,40-69,2023-10-18_12h35.57.554,Recall,2021.2.3,60.01817350157759,
,DD017.jpg,0,FF017.jpg,0,,,,,0,15,15,16,imgFunc,1,NA,0.919331300072372,1606.2719395000022,1607.307885520393,2023-10-18 12:42:25.768335,2023-10-18 12:42:26.795493,FF017.jpg,0,10770,40-69,2023-10-18_12h35.57.554,Recall,2021.2.3,60.01817350157759,
,L_DD504.jpg,1,L_FF504.jpg,1,,,,,0,16,16,43,imgFunc,2,NA,3.3551560000050813,1607.3003641001415,1610.754995620111,2023-10-18 12:42:26.802476,2023-10-18 12:42:30.248190,L_FF504.jpg,1,10770,40-69,2023-10-18_12h35.57.554,Recall,2021.2.3,60.01817350157759,
,SD015.jpg,0,MF015.jpg,0,,,,,0,17,17,64,imgFunc,2,NA,1.4046264998614788,1610.7547512000892,1612.2427323202137,2023-10-18 12:42:30.263152,2023-10-18 12:42:31.749140,MF015.jpg,0,10770,40-69,2023-10-18_12h35.57.554,Recall,2021.2.3,60.01817350157759,
,L_SD508.jpg,1,L_MF508.jpg,1,,,,,0,18,18,97,imgFunc,9,NA,1.7440880998037755,1612.2475187999662,1614.0841981200501,2023-10-18 12:42:31.756124,2023-10-18 12:42:33.583898,L_MF508.jpg,1,10770,40-69,2023-10-18_12h35.57.554,Recall,2021.2.3,60.01817350157759,
,SD039.jpg,0,MF039.jpg,0,,,,,0,19,19,88,imgFunc,0,NA,2.632185800001025,1614.087214600062,1616.82392412005,2023-10-18 12:42:33.590881,2023-10-18 12:42:36.318800,MF039.jpg,0,10770,40-69,2023-10-18_12h35.57.554,Recall,2021.2.3,60.01817350157759,
,SD037.jpg,0,MF037.jpg,0,,,,,0,20,20,86,imgFunc,1,NA,1.7235991000197828,1616.819767799927,1618.639386219671,2023-10-18 12:42:36.325806,2023-10-18 12:42:38.137142,MF037.jpg,0,10770,40-69,2023-10-18_12h35.57.554,Recall,2021.2.3,60.01817350157759,
,DD029.jpg,0,FF029.jpg,0,,,,,0,21,21,28,imgFunc,1,NA,1.5529567999765277,1618.6464809000026,1620.299187820172,2023-10-18 12:42:38.144125,2023-10-18 12:42:39.788171,FF029.jpg,0,10770,40-69,2023-10-18_12h35.57.554,Recall,2021.2.3,60.01817350157759,
,L_DD505.jpg,1,L_FF505.jpg,1,,,,,0,22,22,44,imgFunc,2,NA,2.730852499837056,1620.284653800074,1623.1050742201041,2023-10-18 12:42:39.795175,2023-10-18 12:42:42.607087,L_FF505.jpg,1,10770,40-69,2023-10-18_12h35.57.554,Recall,2021.2.3,60.01817350157759,
,DD020.jpg,0,FF020.jpg,0,,,,,0,23,23,19,imgFunc,1,NA,4.1683523000683635,1623.1030348001514,1627.3741058201995,2023-10-18 12:42:42.614069,2023-10-18 12:42:46.876545,FF020.jpg,0,10770,40-69,2023-10-18_12h35.57.554,Recall,2021.2.3,60.01817350157759,
,L_DD508.jpg,1,L_FF508.jpg,1,,,,,0,24,24,47,imgFunc,1,NA,1.2648443998768926,1627.3743837000802,1628.7433172201272,2023-10-18 12:42:46.883529,2023-10-18 12:42:48.244398,L_FF508.jpg,1,10770,40-69,2023-10-18_12h35.57.554,Recall,2021.2.3,60.01817350157759,
,SD007.jpg,0,MF007.jpg,0,,,,,0,25,25,56,imgFunc,2,NA,1.665450399974361,1628.7418498001061,1630.5113480200525,2023-10-18 12:42:48.251381,2023-10-18 12:42:50.012224,MF007.jpg,0,10770,40-69,2023-10-18_12h35.57.554,Recall,2021.2.3,60.01817350157759,
,SD003.jpg,0,MF003.jpg,0,,,,,0,26,26,52,imgFunc,2,NA,1.4501753998920321,1630.5251522001345,1632.082845420111,2023-10-18 12:42:50.025190,2023-10-18 12:42:51.579933,MF003.jpg,0,10770,40-69,2023-10-18_12h35.57.554,Recall,2021.2.3,60.01817350157759,
,L_DD507.jpg,1,L_FF507.jpg,1,,,,,0,27,27,46,imgFunc,0,NA,1.187352200038731,1632.0841195001267,1633.3703764202073,2023-10-18 12:42:51.586916,2023-10-18 12:42:52.864345,L_FF507.jpg,1,10770,40-69,2023-10-18_12h35.57.554,Recall,2021.2.3,60.01817350157759,
,SD005.jpg,0,MF005.jpg,0,,,,,0,28,28,54,imgFunc,0,NA,1.189670299878344,1633.3697377999779,1634.6558972198982,2023-10-18 12:42:52.871328,2023-10-18 12:42:54.148662,MF005.jpg,0,10770,40-69,2023-10-18_12h35.57.554,Recall,2021.2.3,60.01817350157759,
,SD027.jpg,0,MF027.jpg,0,,,,,0,29,29,76,imgFunc,1,NA,1.965721899876371,1634.657664499944,1636.7277571200393,2023-10-18 12:42:54.155645,2023-10-18 12:42:56.216644,MF027.jpg,0,10770,40-69,2023-10-18_12h35.57.554,Recall,2021.2.3,60.01817350157759,
,SD031.jpg,0,MF031.jpg,0,,,,,0,30,30,80,imgFunc,2,NA,4.6057557999156415,1636.71364969993,1641.4186793197878,2023-10-18 12:42:56.223629,2023-10-18 12:43:00.919972,MF031.jpg,0,10770,40-69,2023-10-18_12h35.57.554,Recall,2021.2.3,60.01817350157759,
,L_DD506.jpg,1,L_FF506.jpg,1,,,,,0,31,31,45,imgFunc,0,NA,1.311954699922353,1641.447459799936,1642.881140440004,2023-10-18 12:43:00.936928,2023-10-18 12:43:02.354206,L_FF506.jpg,1,10770,40-69,2023-10-18_12h35.57.554,Recall,2021.2.3,60.01817350157759,
,DD040.jpg,0,FF040.jpg,0,,,,,0,32,32,39,imgFunc,9,NA,1.2981509999372065,1642.8612486999482,1644.2636635196395,2023-10-18 12:43:02.361189,2023-10-18 12:43:03.755299,FF040.jpg,0,10770,40-69,2023-10-18_12h35.57.554,Recall,2021.2.3,60.01817350157759,
,DD006.jpg,0,FF006.jpg,0,,,,,0,33,33,5,imgFunc,1,NA,1.71386309992522,1644.2615549999755,1646.081118619768,2023-10-18 12:43:03.762305,2023-10-18 12:43:05.573449,FF006.jpg,0,10770,40-69,2023-10-18_12h35.57.554,Recall,2021.2.3,60.01817350157759,
,SD023.jpg,0,MF023.jpg,0,,,,,0,34,34,72,imgFunc,0,NA,1.5029076000209898,1646.0725199000444,1647.6755231199786,2023-10-18 12:43:05.580432,2023-10-18 12:43:07.174345,MF023.jpg,0,10770,40-69,2023-10-18_12h35.57.554,Recall,2021.2.3,60.01817350157759,
,SD025.jpg,0,MF025.jpg,0,,,,,0,35,35,74,imgFunc,1,NA,1.847001199843362,1647.6723277999554,1649.6089716199785,2023-10-18 12:43:07.181351,2023-10-18 12:43:09.109549,MF025.jpg,0,10770,40-69,2023-10-18_12h35.57.554,Recall,2021.2.3,60.01817350157759,
,SD038.jpg,0,MF038.jpg,0,,,,,0,36,36,87,imgFunc,9,NA,2.8026640999596566,1649.6287581000943,1652.5342732202262,2023-10-18 12:43:09.124511,2023-10-18 12:43:12.028020,MF038.jpg,0,10770,40-69,2023-10-18_12h35.57.554,Recall,2021.2.3,60.01817350157759,
,SD019.jpg,0,MF019.jpg,0,,,,,0,37,37,68,imgFunc,9,NA,2.138308900175616,1652.533153800061,1654.7697190202307,2023-10-18 12:43:12.035466,2023-10-18 12:43:14.262924,MF019.jpg,0,10770,40-69,2023-10-18_12h35.57.554,Recall,2021.2.3,60.01817350157759,
,DD008.jpg,0,FF008.jpg,0,,,,,0,38,38,7,imgFunc,2,NA,3.094660900067538,1654.7687484000344,1657.972204520367,2023-10-18 12:43:14.269933,2023-10-18 12:43:17.465083,FF008.jpg,0,10770,40-69,2023-10-18_12h35.57.554,Recall,2021.2.3,60.01817350157759,
,SD010.jpg,0,MF010.jpg,0,,,,,0,39,39,59,imgFunc,2,NA,1.2854957999661565,1657.9620940999594,1659.348146319855,2023-10-18 12:43:17.472067,2023-10-18 12:43:18.849658,MF010.jpg,0,10770,40-69,2023-10-18_12h35.57.554,Recall,2021.2.3,60.01817350157759,
,SD013.jpg,0,MF013.jpg,0,,,,,0,40,40,62,imgFunc,9,NA,2.2295885998755693,1659.3539744999725,1661.6906129200943,2023-10-18 12:43:18.856641,2023-10-18 12:43:21.184456,MF013.jpg,0,10770,40-69,2023-10-18_12h35.57.554,Recall,2021.2.3,60.01817350157759,
,DD018.jpg,0,FF018.jpg,0,,,,,0,41,41,17,imgFunc,1,NA,1.3691193000413477,1661.686321000103,1663.1553252201993,2023-10-18 12:43:21.191461,2023-10-18 12:43:22.652076,FF018.jpg,0,10770,40-69,2023-10-18_12h35.57.554,Recall,2021.2.3,60.01817350157759,
,DD004.jpg,0,FF004.jpg,0,,,,,0,42,42,3,imgFunc,2,NA,1.5887954998761415,1663.154636299936,1664.8415242200717,2023-10-18 12:43:22.659060,2023-10-18 12:43:24.337016,FF004.jpg,0,10770,40-69,2023-10-18_12h35.57.554,Recall,2021.2.3,60.01817350157759,
,DD013.jpg,0,FF013.jpg,0,,,,,0,43,43,12,imgFunc,0,NA,1.6133212000131607,1664.8340002000332,1666.5356244200375,2023-10-18 12:43:24.344996,2023-10-18 12:43:26.037426,FF013.jpg,0,10770,40-69,2023-10-18_12h35.57.554,Recall,2021.2.3,60.01817350157759,
,SD032.jpg,0,MF032.jpg,0,,,,,0,44,44,81,imgFunc,9,NA,2.00007879990153,1666.5354206999764,1668.638236619765,2023-10-18 12:43:26.045398,2023-10-18 12:43:28.139531,MF032.jpg,0,10770,40-69,2023-10-18_12h35.57.554,Recall,2021.2.3,60.01817350157759,
,SD034.jpg,0,MF034.jpg,0,,,,,0,45,45,83,imgFunc,1,NA,0.9817085000686347,1668.6498042000458,1669.7214414197952,2023-10-18 12:43:28.153495,2023-10-18 12:43:29.223924,MF034.jpg,0,10770,40-69,2023-10-18_12h35.57.554,Recall,2021.2.3,60.01817350157759,
,L_SD505.jpg,1,L_MF505.jpg,1,,,,,0,46,46,94,imgFunc,9,NA,1.5862685998436064,1669.7331924999598,1671.435861720005,2023-10-18 12:43:29.230908,2023-10-18 12:43:30.924705,L_MF505.jpg,1,10770,40-69,2023-10-18_12h35.57.554,Recall,2021.2.3,60.01817350157759,
,DD027.jpg,0,FF027.jpg,0,,,,,0,47,47,26,imgFunc,0,NA,2.0116661000065506,1671.4278667001054,1673.5481585199013,2023-10-18 12:43:30.931688,2023-10-18 12:43:33.042997,FF027.jpg,0,10770,40-69,2023-10-18_12h35.57.554,Recall,2021.2.3,60.01817350157759,
,L_DD501.jpg,1,L_FF501.jpg,1,,,,,0,48,48,40,imgFunc,0,NA,1.179883300093934,1673.5394596999977,1674.8084500199184,2023-10-18 12:43:33.049980,2023-10-18 12:43:34.310723,L_FF501.jpg,1,10770,40-69,2023-10-18_12h35.57.554,Recall,2021.2.3,60.01817350157759,
,DD028.jpg,0,FF028.jpg,0,,,,,0,49,49,27,imgFunc,9,NA,2.1671217000111938,1674.8084412000608,1677.0784403199796,2023-10-18 12:43:34.317727,2023-10-18 12:43:36.579177,FF028.jpg,0,10770,40-69,2023-10-18_12h35.57.554,Recall,2021.2.3,60.01817350157759,
,DD019.jpg,0,FF019.jpg,0,,,,,0,50,50,18,imgFunc,9,NA,1.6788159999996424,1677.0886153001338,1678.8603337199893,2023-10-18 12:43:36.593141,2023-10-18 12:43:38.363493,FF019.jpg,0,10770,40-69,2023-10-18_12h35.57.554,Recall,2021.2.3,60.01817350157759,
,DD030.jpg,0,FF030.jpg,0,,,,,0,51,51,29,imgFunc,1,NA,1.2159229000099003,1678.863659300143,1680.1828666203655,2023-10-18 12:43:38.370498,2023-10-18 12:43:39.681282,FF030.jpg,0,10770,40-69,2023-10-18_12h35.57.554,Recall,2021.2.3,60.01817350157759,
,SD020.jpg,0,MF020.jpg,0,,,,,0,52,52,69,imgFunc,0,NA,1.448474199976772,1680.1826913999394,1681.7350533199497,2023-10-18 12:43:39.688265,2023-10-18 12:43:41.231744,MF020.jpg,0,10770,40-69,2023-10-18_12h35.57.554,Recall,2021.2.3,60.01817350157759,
,SD024.jpg,0,MF024.jpg,0,,,,,0,53,53,73,imgFunc,2,NA,3.581764099886641,1681.737691400107,1685.4241124202963,2023-10-18 12:43:41.239724,2023-10-18 12:43:44.918352,MF024.jpg,0,10770,40-69,2023-10-18_12h35.57.554,Recall,2021.2.3,60.01817350157759,
,SD040.jpg,0,MF040.jpg,0,,,,,0,54,54,89,imgFunc,2,NA,1.8979581999592483,1685.4216541000642,1687.4248204200994,2023-10-18 12:43:44.925335,2023-10-18 12:43:46.919790,MF040.jpg,0,10770,40-69,2023-10-18_12h35.57.554,Recall,2021.2.3,60.01817350157759,
,DD015.jpg,0,FF015.jpg,0,,,,,0,55,55,14,imgFunc,9,NA,1.0090536000207067,1687.4145271999296,1688.5172002201434,2023-10-18 12:43:46.926773,2023-10-18 12:43:48.020626,FF015.jpg,0,10770,40-69,2023-10-18_12h35.57.554,Recall,2021.2.3,60.01817350157759,
,DD032.jpg,0,FF032.jpg,0,,,,,0,56,56,31,imgFunc,0,NA,1.4754794999025762,1688.516117400024,1690.085412220331,2023-10-18 12:43:48.027631,2023-10-18 12:43:49.588310,FF032.jpg,0,10770,40-69,2023-10-18_12h35.57.554,Recall,2021.2.3,60.01817350157759,
,SD033.jpg,0,MF033.jpg,0,,,,,0,57,57,82,imgFunc,1,NA,1.3234349000267684,1690.0919107999653,1691.5114100202918,2023-10-18 12:43:49.595293,2023-10-18 12:43:51.006080,MF033.jpg,0,10770,40-69,2023-10-18_12h35.57.554,Recall,2021.2.3,60.01817350157759,
,L_SD510.jpg,1,L_MF510.jpg,1,,,,,0,58,58,99,imgFunc,0,NA,1.1020268998108804,1691.5134723000228,1692.7159901200794,2023-10-18 12:43:51.013547,2023-10-18 12:43:52.207189,L_MF510.jpg,1,10770,40-69,2023-10-18_12h35.57.554,Recall,2021.2.3,60.01817350157759,
,L_DD502.jpg,1,L_FF502.jpg,1,,,,,0,59,59,41,imgFunc,0,NA,0.7877019001170993,1692.72387480014,1693.613688920159,2023-10-18 12:43:52.220156,2023-10-18 12:43:53.107531,L_FF502.jpg,1,10770,40-69,2023-10-18_12h35.57.554,Recall,2021.2.3,60.01817350157759,
,DD035.jpg,0,FF035.jpg,0,,,,,0,60,60,34,imgFunc,1,NA,3.255944399861619,1693.6076482001226,1696.9620733200572,2023-10-18 12:43:53.114513,2023-10-18 12:43:56.460113,FF035.jpg,0,10770,40-69,2023-10-18_12h35.57.554,Recall,2021.2.3,60.01817350157759,
,DD033.jpg,0,FF033.jpg,0,,,,,0,61,61,32,imgFunc,9,NA,2.4193108999170363,1696.956299399957,1699.4762309198268,2023-10-18 12:43:56.467096,2023-10-18 12:43:58.978469,FF033.jpg,0,10770,40-69,2023-10-18_12h35.57.554,Recall,2021.2.3,60.01817350157759,
,L_DD510.jpg,1,L_FF510.jpg,1,,,,,0,62,62,49,imgFunc,9,NA,1.141948599833995,1699.473657200113,1700.709665320348,2023-10-18 12:43:58.985451,2023-10-18 12:44:00.212664,L_FF510.jpg,1,10770,40-69,2023-10-18_12h35.57.554,Recall,2021.2.3,60.01817350157759,
,DD036.jpg,0,FF036.jpg,0,,,,,0,63,63,35,imgFunc,1,NA,1.4826468999963254,1700.7167646000162,1702.3022166201845,2023-10-18 12:44:00.220644,2023-10-18 12:44:01.797115,FF036.jpg,0,10770,40-69,2023-10-18_12h35.57.554,Recall,2021.2.3,60.01817350157759,
,SD014.jpg,0,MF014.jpg,0,,,,,0,64,64,63,imgFunc,1,NA,1.0234134998172522,1702.3120989999734,1703.4332802197896,2023-10-18 12:44:01.812077,2023-10-18 12:44:02.931227,MF014.jpg,0,10770,40-69,2023-10-18_12h35.57.554,Recall,2021.2.3,60.01817350157759,
,L_SD507.jpg,1,L_MF507.jpg,1,,,,,0,65,65,96,imgFunc,0,NA,1.1816500001586974,1703.4339771999512,1704.7201093200129,2023-10-18 12:44:02.938210,2023-10-18 12:44:04.215495,L_MF507.jpg,1,10770,40-69,2023-10-18_12h35.57.554,Recall,2021.2.3,60.01817350157759,
,L_SD501.jpg,1,L_MF501.jpg,1,,,,,0,66,66,90,imgFunc,2,NA,2.314788999967277,1704.7163750000764,1707.1369784199633,2023-10-18 12:44:04.222478,2023-10-18 12:44:06.634148,L_MF501.jpg,1,10770,40-69,2023-10-18_12h35.57.554,Recall,2021.2.3,60.01817350157759,
,L_SD506.jpg,1,L_MF506.jpg,1,,,,,0,67,67,95,imgFunc,0,NA,1.0374353998340666,1707.1301374000032,1708.2660694199149,2023-10-18 12:44:06.641130,2023-10-18 12:44:07.768101,L_MF506.jpg,1,10770,40-69,2023-10-18_12h35.57.554,Recall,2021.2.3,60.01817350157759,
,SD001.jpg,0,MF001.jpg,0,,,,,0,68,68,50,imgFunc,9,NA,1.554178699851036,1708.277337500127,1709.9469827204011,2023-10-18 12:44:07.775084,2023-10-18 12:44:09.436013,MF001.jpg,0,10770,40-69,2023-10-18_12h35.57.554,Recall,2021.2.3,60.01817350157759,
,SD036.jpg,0,MF036.jpg,0,,,,,0,69,69,85,imgFunc,9,NA,1.8144519999623299,1709.9531410001218,1711.8737551202066,2023-10-18 12:44:09.451001,2023-10-18 12:44:11.370674,MF036.jpg,0,10770,40-69,2023-10-18_12h35.57.554,Recall,2021.2.3,60.01817350157759,
,SD002.jpg,0,MF002.jpg,0,,,,,0,70,70,51,imgFunc,9,NA,2.5655151999089867,1711.874102000147,1714.5443034202326,2023-10-18 12:44:11.377657,2023-10-18 12:44:14.039306,MF002.jpg,0,10770,40-69,2023-10-18_12h35.57.554,Recall,2021.2.3,60.01817350157759,
,DD002.jpg,0,FF002.jpg,0,,,,,0,71,71,1,imgFunc,1,NA,1.1960972000379115,1714.539433900034,1715.842353319982,2023-10-18 12:44:14.046289,2023-10-18 12:44:15.340376,FF002.jpg,0,10770,40-69,2023-10-18_12h35.57.554,Recall,2021.2.3,60.01817350157759,
,L_SD509.jpg,1,L_MF509.jpg,1,,,,,0,72,72,98,imgFunc,0,NA,1.2283597001805902,1715.8428716999479,1717.1782125202008,2023-10-18 12:44:15.347306,2023-10-18 12:44:16.674391,L_MF509.jpg,1,10770,40-69,2023-10-18_12h35.57.554,Recall,2021.2.3,60.01817350157759,
,DD037.jpg,0,FF037.jpg,0,,,,,0,73,73,36,imgFunc,1,NA,1.7143016001209617,1717.1812879999634,1719.000727420207,2023-10-18 12:44:16.681373,2023-10-18 12:44:18.492363,FF037.jpg,0,10770,40-69,2023-10-18_12h35.57.554,Recall,2021.2.3,60.01817350157759,
,DD005.jpg,0,FF005.jpg,0,,,,,0,74,74,4,imgFunc,9,NA,3.2668844000436366,1718.9967525000684,1722.368056020001,2023-10-18 12:44:18.499347,2023-10-18 12:44:21.861663,FF005.jpg,0,10770,40-69,2023-10-18_12h35.57.554,Recall,2021.2.3,60.01817350157759,
,DD012.jpg,0,FF012.jpg,0,,,,,0,75,75,11,imgFunc,9,NA,3.1533437001053244,1722.3582959000487,1725.6122844200581,2023-10-18 12:44:21.868646,2023-10-18 12:44:25.113879,FF012.jpg,0,10770,40-69,2023-10-18_12h35.57.554,Recall,2021.2.3,60.01817350157759,
,SD018.jpg,0,MF018.jpg,0,,,,,0,76,76,67,imgFunc,1,NA,1.422006000066176,1725.6254608000163,1727.1607556201052,2023-10-18 12:44:25.121861,2023-10-18 12:44:26.648107,MF018.jpg,0,10770,40-69,2023-10-18_12h35.57.554,Recall,2021.2.3,60.01817350157759,
,L_SD503.jpg,1,L_MF503.jpg,1,,,,,0,77,77,92,imgFunc,9,NA,1.75960039999336,1727.1600486999378,1729.0285358198453,2023-10-18 12:44:26.656089,2023-10-18 12:44:28.516278,L_MF503.jpg,1,10770,40-69,2023-10-18_12h35.57.554,Recall,2021.2.3,60.01817350157759,
,SD008.jpg,0,MF008.jpg,0,,,,,0,78,78,57,imgFunc,0,NA,2.084630399942398,1729.0267267001327,1731.198407820193,2023-10-18 12:44:28.531241,2023-10-18 12:44:30.701516,MF008.jpg,0,10770,40-69,2023-10-18_12h35.57.554,Recall,2021.2.3,60.01817350157759,
,L_DD509.jpg,1,L_FF509.jpg,1,,,,,0,79,79,48,imgFunc,1,NA,1.4600098000373691,1731.2031620999333,1732.7729227200616,2023-10-18 12:44:30.708499,2023-10-18 12:44:32.269054,L_FF509.jpg,1,10770,40-69,2023-10-18_12h35.57.554,Recall,2021.2.3,60.01817350157759,
,L_SD504.jpg,1,L_MF504.jpg,1,,,,,0,80,80,93,imgFunc,0,NA,2.1776780001819134,1732.7739661999512,1735.0612554198597,2023-10-18 12:44:32.276037,2023-10-18 12:44:34.554293,L_MF504.jpg,1,10770,40-69,2023-10-18_12h35.57.554,Recall,2021.2.3,60.01817350157759,
,DD031.jpg,0,FF031.jpg,0,,,,,0,81,81,30,imgFunc,2,NA,3.406261899974197,1735.0573434999678,1738.5617090198211,2023-10-18 12:44:34.561276,2023-10-18 12:44:38.056831,FF031.jpg,0,10770,40-69,2023-10-18_12h35.57.554,Recall,2021.2.3,60.01817350157759,
,DD007.jpg,0,FF007.jpg,0,,,,,0,82,82,6,imgFunc,9,NA,2.2790199001319706,1738.568369799992,1740.955276420107,2023-10-18 12:44:38.063814,2023-10-18 12:44:40.441812,FF007.jpg,0,10770,40-69,2023-10-18_12h35.57.554,Recall,2021.2.3,60.01817350157759,
,DD001.jpg,0,FF001.jpg,0,,,,,0,83,83,0,imgFunc,9,NA,1.7571370999794453,1740.9543759000953,1742.8088501202874,2023-10-18 12:44:40.456774,2023-10-18 12:44:42.309540,FF001.jpg,0,10770,40-69,2023-10-18_12h35.57.554,Recall,2021.2.3,60.01817350157759,
,DD023.jpg,0,FF023.jpg,0,,,,,0,84,84,22,imgFunc,9,NA,3.2087004999630153,1742.8146792999469,1746.135232519824,2023-10-18 12:44:42.316523,2023-10-18 12:44:45.628802,FF023.jpg,0,10770,40-69,2023-10-18_12h35.57.554,Recall,2021.2.3,60.01817350157759,
,DD025.jpg,0,FF025.jpg,0,,,,,0,85,85,24,imgFunc,0,NA,1.9415601999498904,1746.1298096999526,1748.1663139197044,2023-10-18 12:44:45.635785,2023-10-18 12:44:47.663742,FF025.jpg,0,10770,40-69,2023-10-18_12h35.57.554,Recall,2021.2.3,60.01817350157759,
,SD009.jpg,0,MF009.jpg,0,,,,,0,86,86,58,imgFunc,2,NA,2.3760758000425994,1748.1595712001435,1750.629445620114,2023-10-18 12:44:47.670725,2023-10-18 12:44:50.132167,MF009.jpg,0,10770,40-69,2023-10-18_12h35.57.554,Recall,2021.2.3,60.01817350157759,
,SD030.jpg,0,MF030.jpg,0,,,,,0,87,87,79,imgFunc,1,NA,1.1113358000293374,1750.6402712999843,1751.8591898200102,2023-10-18 12:44:50.139150,2023-10-18 12:44:51.349549,MF030.jpg,0,10770,40-69,2023-10-18_12h35.57.554,Recall,2021.2.3,60.01817350157759,
,SD029.jpg,0,MF029.jpg,0,,,,,0,88,88,78,imgFunc,1,NA,1.117286799941212,1751.850356800016,1753.069376520114,2023-10-18 12:44:51.356532,2023-10-18 12:44:52.566980,MF029.jpg,0,10770,40-69,2023-10-18_12h35.57.554,Recall,2021.2.3,60.01817350157759,
,SD021.jpg,0,MF021.jpg,0,,,,,0,89,89,70,imgFunc,9,NA,1.4887993999291211,1753.0707269001286,1754.6569675202481,2023-10-18 12:44:52.573963,2023-10-18 12:44:54.151706,MF021.jpg,0,10770,40-69,2023-10-18_12h35.57.554,Recall,2021.2.3,60.01817350157759,
,SD004.jpg,0,MF004.jpg,0,,,,,0,90,90,53,imgFunc,9,NA,3.619526599999517,1754.6599369000178,1758.3802858202253,2023-10-18 12:44:54.158697,2023-10-18 12:44:57.870998,MF004.jpg,0,10770,40-69,2023-10-18_12h35.57.554,Recall,2021.2.3,60.01817350157759,
,DD014.jpg,0,FF014.jpg,0,,,,,0,91,91,13,imgFunc,1,NA,5.227480599889532,1758.3801291999407,1763.7181225200184,2023-10-18 12:44:57.877981,2023-10-18 12:45:03.207949,FF014.jpg,0,10770,40-69,2023-10-18_12h35.57.554,Recall,2021.2.3,60.01817350157759,
,DD024.jpg,0,FF024.jpg,0,,,,,0,92,92,23,imgFunc,1,NA,2.8547253001015633,1763.736884900136,1766.7062286203727,2023-10-18 12:45:03.223921,2023-10-18 12:45:06.193544,FF024.jpg,0,10770,40-69,2023-10-18_12h35.57.554,Recall,2021.2.3,60.01817350157759,
,SD012.jpg,0,MF012.jpg,0,,,,,0,93,93,61,imgFunc,9,NA,2.069466499844566,1766.6980447000824,1768.8678832200821,2023-10-18 12:45:06.200527,2023-10-18 12:45:08.361959,MF012.jpg,0,10770,40-69,2023-10-18_12h35.57.554,Recall,2021.2.3,60.01817350157759,
,SD006.jpg,0,MF006.jpg,0,,,,,0,94,94,55,imgFunc,9,NA,1.3868052999023348,1768.8608230000827,1770.3464127199259,2023-10-18 12:45:08.368942,2023-10-18 12:45:09.846082,MF006.jpg,0,10770,40-69,2023-10-18_12h35.57.554,Recall,2021.2.3,60.01817350157759,
,DD011.jpg,0,FF011.jpg,0,,,,,0,95,95,10,imgFunc,1,NA,2.5676331999711692,1770.3519013000187,1773.0219295201823,2023-10-18 12:45:09.853065,2023-10-18 12:45:12.514805,FF011.jpg,0,10770,40-69,2023-10-18_12h35.57.554,Recall,2021.2.3,60.01817350157759,
,DD039.jpg,0,FF039.jpg,0,,,,,0,96,96,38,imgFunc,9,NA,2.5137565000914037,1773.0296744001098,1775.6645472201053,2023-10-18 12:45:12.522786,2023-10-18 12:45:15.149987,FF039.jpg,0,10770,40-69,2023-10-18_12h35.57.554,Recall,2021.2.3,60.01817350157759,
,SD022.jpg,0,MF022.jpg,0,,,,,0,97,97,71,imgFunc,1,NA,1.3662632999476045,1775.6730957999825,1777.1549708400853,2023-10-18 12:45:15.167188,2023-10-18 12:45:16.633459,MF022.jpg,0,10770,40-69,2023-10-18_12h35.57.554,Recall,2021.2.3,60.01817350157759,
,DD026.jpg,0,FF026.jpg,0,,,,,0,98,98,25,imgFunc,0,NA,1.54068490001373,1777.1309901999775,1778.7668152200058,2023-10-18 12:45:16.641409,2023-10-18 12:45:18.268894,FF026.jpg,0,10770,40-69,2023-10-18_12h35.57.554,Recall,2021.2.3,60.01817350157759,
,DD034.jpg,0,FF034.jpg,0,,,,,0,99,99,33,imgFunc,0,NA,1.0607659998349845,1778.7707628000062,1779.9397732198704,2023-10-18 12:45:18.275877,2023-10-18 12:45:19.436403,FF034.jpg,0,10770,40-69,2023-10-18_12h35.57.554,Recall,2021.2.3,60.01817350157759,
