onset	duration	trial_type	rt	resp	gender	image_left	image_right
0.6362890000455081	3.0007097999332473	decision	1.7830134999239817	left	M	MF001.jpg	MF002.jpg
4.186175700044259	1.0000327999005094	win	n/a	n/a	n/a	MF001.jpg	MF002.jpg
11.152913599973544	3.001018700073473	decision	2.0334894000552595	right	M	MF003.jpg	MF004.jpg
14.702911100001074	1.0164626999758184	loss	n/a	n/a	n/a	MF003.jpg	MF004.jpg
17.469637400005013	3.0010930999414995	decision	2.2822022000327706	left	M	MF005.jpg	MF006.jpg
21.01939679996576	1.0000157000031322	win	n/a	n/a	n/a	MF005.jpg	MF006.jpg
23.769449200015515	3.0010474999435246	decision	2.533468300011009	right	F	FF001.jpg	FF002.jpg
27.319412100012414	1.0000846999464557	win	n/a	n/a	n/a	FF001.jpg	FF002.jpg
32.169462400022894	3.0013237999519333	decision	2.0323081000242382	left	F	FF003.jpg	FF004.jpg
35.71950679994188	1.017029600101523	loss	n/a	n/a	n/a	FF003.jpg	FF004.jpg
42.68640699994285	3.0016046999953687	decision	2.0325943001080304	right	M	MF007.jpg	MF008.jpg
46.2362143000355	1.000014299992472	loss	n/a	n/a	n/a	MF007.jpg	MF008.jpg
51.086171800037846	3.0018333999905735	decision	2.283605400007218	left	M	MF009.jpg	MF010.jpg
54.636043500038795	1.0001017999602482	win	n/a	n/a	n/a	MF009.jpg	MF010.jpg
59.486069899983704	3.0004736999981105	decision	2.8001694000558928	left	F	FF005.jpg	FF006.jpg
63.03618729999289	1.0164765999652445	loss	n/a	n/a	n/a	FF005.jpg	FF006.jpg
65.80274199997075	3.001373099978082	decision	2.282738200039603	right	F	FF007.jpg	FF008.jpg
69.35271709994413	1.0168605000944808	win	n/a	n/a	n/a	FF007.jpg	FF008.jpg
72.11952589999419	3.001322300056927	decision	1.5333869999740273	right	F	FF009.jpg	FF010.jpg
75.66959599999245	1.0165608000243083	win	n/a	n/a	n/a	FF009.jpg	FF010.jpg
78.43622619996313	3.0017596000107005	decision	1.7829149999888614	left	F	FF011.jpg	FF012.jpg
81.98610390000977	1.0000448999926448	loss	n/a	n/a	n/a	FF011.jpg	FF012.jpg
86.8361872000387	3.001719699939713	decision	2.0326019999338314	right	M	MF011.jpg	MF012.jpg
90.38644959998783	1.0162024999735877	loss	n/a	n/a	n/a	MF011.jpg	MF012.jpg
93.15296009997837	3.0009760999819264	decision	2.0325202000094578	right	M	MF013.jpg	MF014.jpg
96.70274840004276	1.0000045999186113	win	n/a	n/a	n/a	MF013.jpg	MF014.jpg
103.65269579994492	3.0021403999999166	decision	2.2827175999991596	right	M	MF015.jpg	MF016.jpg
107.20275900000706	1.0169040999608114	win	n/a	n/a	n/a	MF015.jpg	MF016.jpg
109.9695698999567	3.0011632000096142	decision	2.7823403000365943	right	F	FF013.jpg	FF014.jpg
113.51933479995932	1.0001116000348702	win	n/a	n/a	n/a	FF013.jpg	FF014.jpg
120.46943309996277	3.300061900052242	decision	3.29961089999415	left	M	MF017.jpg	MF018.jpg
124.31926320004277	1.0003645999822766	win	n/a	n/a	n/a	MF017.jpg	MF018.jpg
129.1693958999822	3.0012191999703646	decision	2.5335934000322595	right	F	FF015.jpg	FF016.jpg
132.71942460001446	1.0166339999996126	win	n/a	n/a	n/a	FF015.jpg	FF016.jpg
137.58608589996584	3.001175899989903	decision	2.28331430000253	left	M	MF019.jpg	MF020.jpg
141.13588780001737	1.016476699966006	win	n/a	n/a	n/a	MF019.jpg	MF020.jpg
146.00261249998584	3.0020404000533745	decision	2.7837395999813452	right	F	FF017.jpg	FF018.jpg
149.55295100004878	1.0164318999741226	win	n/a	n/a	n/a	FF017.jpg	FF018.jpg
162.819437499973	3.0008533999789506	decision	2.5330621000612155	right	M	MF021.jpg	MF022.jpg
166.36928919993807	1.0	loss	n/a	n/a	n/a	MF021.jpg	MF022.jpg
173.31943120004144	3.0017665999475867	decision	2.2829905999824405	right	M	MF023.jpg	MF024.jpg
176.86929159995634	1.0166107000550255	win	n/a	n/a	n/a	MF023.jpg	MF024.jpg
183.83589500002563	3.0020816000178456	decision	2.532758399960585	left	M	MF025.jpg	MF026.jpg
187.3861293999944	1.016477799974382	loss	n/a	n/a	n/a	MF025.jpg	MF026.jpg
192.25260270002764	3.0012713000178337	decision	1.7827629999956116	left	M	MF027.jpg	MF028.jpg
195.8024899000302	1.0167153999209404	loss	n/a	n/a	n/a	MF027.jpg	MF028.jpg
198.56943369994406	3.001015800051391	decision	2.532137000001967	right	F	FF019.jpg	FF020.jpg
202.1192881000461	1.0000128999818116	loss	n/a	n/a	n/a	FF019.jpg	FF020.jpg
204.8693532999605	3.0016775000840425	decision	2.5338731000665575	left	F	FF021.jpg	FF022.jpg
208.4191192999715	1.0000702000688761	win	n/a	n/a	n/a	FF021.jpg	FF022.jpg
215.36936629994307	3.0013866000808775	decision	2.032790800090879	right	M	MF029.jpg	MF030.jpg
218.91921830002684	1.0166775999823585	loss	n/a	n/a	n/a	MF029.jpg	MF030.jpg
225.88599179999437	3.0018291999585927	decision	2.53297639999073	left	M	MF031.jpg	MF032.jpg
229.43584609997924	1.0167026000563055	win	n/a	n/a	n/a	MF031.jpg	MF032.jpg
234.30259269999806	3.001238700002432	decision	2.032630500034429	left	F	FF023.jpg	FF024.jpg
237.8525154000381	1.0002227999502793	loss	n/a	n/a	n/a	FF023.jpg	FF024.jpg
240.60287169995718	3.0013915000017732	decision	2.5330156000563875	right	F	FF025.jpg	FF026.jpg
244.152415700024	1.0000825999304652	win	n/a	n/a	n/a	FF025.jpg	FF026.jpg
249.00262990000192	3.000358899938874	decision	2.2830012999475002	left	F	FF027.jpg	FF028.jpg
252.55255549994763	1.0166586000705138	loss	n/a	n/a	n/a	FF027.jpg	FF028.jpg
255.3192237999756	3.0017661000601947	decision	2.534610699978657	right	M	MF033.jpg	MF034.jpg
258.8691289999988	1.0000566999660805	loss	n/a	n/a	n/a	MF033.jpg	MF034.jpg
261.61932699999306	3.001160699990578	decision	2.0325487999944016	left	M	MF035.jpg	MF036.jpg
265.16911170003004	1.0000731999753043	loss	n/a	n/a	n/a	MF035.jpg	MF036.jpg
267.91924519999884	3.001701300032437	decision	2.532593199983239	left	M	MF037.jpg	MF038.jpg
271.46918450004887	1.0165071999654174	win	n/a	n/a	n/a	MF037.jpg	MF038.jpg
278.4357146000257	3.00125620001927	decision	2.0333717999747023	left	F	FF029.jpg	FF030.jpg
281.9856370999478	1.0000137001043186	loss	n/a	n/a	n/a	FF029.jpg	FF030.jpg
284.7357653999934	3.0011964000295848	decision	2.033790500019677	left	F	FF031.jpg	FF032.jpg
288.2857338000322	0.9999997999984771	loss	n/a	n/a	n/a	FF031.jpg	FF032.jpg
293.1357411999488	3.001766200060956	decision	2.033583000069484	right	F	FF033.jpg	FF034.jpg
296.68570689996704	1.01694200001657	win	n/a	n/a	n/a	FF033.jpg	FF034.jpg
303.652469499968	3.0011301999911666	decision	2.2834813999943435	right	M	MF039.jpg	MF040.jpg
307.2022718000226	1.000105999992229	loss	n/a	n/a	n/a	MF039.jpg	MF040.jpg
314.1524793000426	3.001247299951501	decision	2.032613799907267	right	F	FF035.jpg	FF036.jpg
317.7024244000204	1.0000362999271601	win	n/a	n/a	n/a	FF035.jpg	FF036.jpg
320.4525089999661	3.0014023000840098	decision	1.783727900008671	left	F	FF037.jpg	FF038.jpg
324.0029587999452	1.000396899995394	loss	n/a	n/a	n/a	FF037.jpg	FF038.jpg
326.75249039998744	3.0006570999976248	decision	2.0332687000045553	left	F	FF039.jpg	FF040.jpg
330.3023393000476	1.0000227999407798	loss	n/a	n/a	n/a	FF039.jpg	FF040.jpg
