onset	duration	trial_type	response_time	Endowment	Endowment_pmod	Decision	Decision_pmod	Offer_pmod
4.616075	2	cue_social	n/a	32	9	n/a	n/a	n/a
4.616075	2	cue_social_high	n/a	32	9	n/a	n/a	n/a
11.345604	2	cue_nonsocial	n/a	32	9	n/a	n/a	n/a
11.345604	2	cue_nonsocial_high	n/a	32	9	n/a	n/a	n/a
18.179478	2	cue_nonsocial	n/a	16	-7	n/a	n/a	n/a
18.179478	2	cue_nonsocial_low	n/a	16	-7	n/a	n/a	n/a
25.095766	2	cue_social	n/a	16	-7	n/a	n/a	n/a
25.095766	2	cue_social_low	n/a	16	-7	n/a	n/a	n/a
31.846132	2	cue_nonsocial	n/a	16	-7	n/a	n/a	n/a
31.846132	2	cue_nonsocial_low	n/a	16	-7	n/a	n/a	n/a
42.792030	2	cue_social	n/a	16	-7	n/a	n/a	n/a
42.792030	2	cue_social_low	n/a	16	-7	n/a	n/a	n/a
51.979480	2	cue_nonsocial	n/a	32	9	n/a	n/a	n/a
51.979480	2	cue_nonsocial_high	n/a	32	9	n/a	n/a	n/a
58.921623	2	cue_social	n/a	16	-7	n/a	n/a	n/a
58.921623	2	cue_social_low	n/a	16	-7	n/a	n/a	n/a
66.462700	2	cue_nonsocial	n/a	32	9	n/a	n/a	n/a
66.462700	2	cue_nonsocial_high	n/a	32	9	n/a	n/a	n/a
75.794580	2	cue_social	n/a	32	9	n/a	n/a	n/a
75.794580	2	cue_social_high	n/a	32	9	n/a	n/a	n/a
82.620700	2	cue_social	n/a	16	-7	n/a	n/a	n/a
82.620700	2	cue_social_low	n/a	16	-7	n/a	n/a	n/a
90.196120	2	cue_nonsocial	n/a	32	9	n/a	n/a	n/a
90.196120	2	cue_nonsocial_high	n/a	32	9	n/a	n/a	n/a
97.117140	2	cue_social	n/a	16	-7	n/a	n/a	n/a
97.117140	2	cue_social_low	n/a	16	-7	n/a	n/a	n/a
103.862520	2	cue_nonsocial	n/a	32	9	n/a	n/a	n/a
103.862520	2	cue_nonsocial_high	n/a	32	9	n/a	n/a	n/a
111.540360	2	cue_social	n/a	32	9	n/a	n/a	n/a
111.540360	2	cue_social_high	n/a	32	9	n/a	n/a	n/a
118.345665	2	cue_nonsocial	n/a	16	-7	n/a	n/a	n/a
118.345665	2	cue_nonsocial_low	n/a	16	-7	n/a	n/a	n/a
125.179180	2	cue_nonsocial	n/a	16	-7	n/a	n/a	n/a
125.179180	2	cue_nonsocial_low	n/a	16	-7	n/a	n/a	n/a
132.890520	2	cue_social	n/a	32	9	n/a	n/a	n/a
132.890520	2	cue_social_high	n/a	32	9	n/a	n/a	n/a
143.695740	2	cue_nonsocial	n/a	16	-7	n/a	n/a	n/a
143.695740	2	cue_nonsocial_low	n/a	16	-7	n/a	n/a	n/a
150.529050	2	cue_nonsocial	n/a	32	9	n/a	n/a	n/a
150.529050	2	cue_nonsocial_high	n/a	32	9	n/a	n/a	n/a
159.859160	2	cue_social	n/a	16	-7	n/a	n/a	n/a
159.859160	2	cue_social_low	n/a	16	-7	n/a	n/a	n/a
166.612300	2	cue_nonsocial	n/a	16	-7	n/a	n/a	n/a
166.612300	2	cue_nonsocial_low	n/a	16	-7	n/a	n/a	n/a
173.509310	2	cue_social	n/a	32	9	n/a	n/a	n/a
173.509310	2	cue_social_high	n/a	32	9	n/a	n/a	n/a
180.392780	2	cue_social	n/a	16	-7	n/a	n/a	n/a
180.392780	2	cue_social_low	n/a	16	-7	n/a	n/a	n/a
187.929000	2	cue_nonsocial	n/a	32	9	n/a	n/a	n/a
187.929000	2	cue_nonsocial_high	n/a	32	9	n/a	n/a	n/a
198.795720	2	cue_nonsocial	n/a	16	-7	n/a	n/a	n/a
198.795720	2	cue_nonsocial_low	n/a	16	-7	n/a	n/a	n/a
205.628900	2	cue_nonsocial	n/a	32	9	n/a	n/a	n/a
205.628900	2	cue_nonsocial_high	n/a	32	9	n/a	n/a	n/a
214.931090	2	cue_social	n/a	32	9	n/a	n/a	n/a
214.931090	2	cue_social_high	n/a	32	9	n/a	n/a	n/a
221.712430	2	cue_nonsocial	n/a	16	-7	n/a	n/a	n/a
221.712430	2	cue_nonsocial_low	n/a	16	-7	n/a	n/a	n/a
229.362170	2	cue_nonsocial	n/a	32	9	n/a	n/a	n/a
229.362170	2	cue_nonsocial_high	n/a	32	9	n/a	n/a	n/a
238.628750	2	cue_nonsocial	n/a	32	9	n/a	n/a	n/a
238.628750	2	cue_nonsocial_high	n/a	32	9	n/a	n/a	n/a
245.514140	2	cue_social	n/a	32	9	n/a	n/a	n/a
245.514140	2	cue_social_high	n/a	32	9	n/a	n/a	n/a
252.346330	2	cue_social	n/a	32	9	n/a	n/a	n/a
252.346330	2	cue_social_high	n/a	32	9	n/a	n/a	n/a
259.945430	2	cue_nonsocial	n/a	32	9	n/a	n/a	n/a
259.945430	2	cue_nonsocial_high	n/a	32	9	n/a	n/a	n/a
269.263340	2	cue_social	n/a	16	-7	n/a	n/a	n/a
269.263340	2	cue_social_low	n/a	16	-7	n/a	n/a	n/a
278.462000	2	cue_nonsocial	n/a	16	-7	n/a	n/a	n/a
278.462000	2	cue_nonsocial_low	n/a	16	-7	n/a	n/a	n/a
285.349100	2	cue_social	n/a	16	-7	n/a	n/a	n/a
285.349100	2	cue_social_low	n/a	16	-7	n/a	n/a	n/a
293.009280	2	cue_social	n/a	16	-7	n/a	n/a	n/a
293.009280	2	cue_social_low	n/a	16	-7	n/a	n/a	n/a
299.778660	2	cue_nonsocial	n/a	16	-7	n/a	n/a	n/a
299.778660	2	cue_nonsocial_low	n/a	16	-7	n/a	n/a	n/a
306.663900	2	cue_social	n/a	32	9	n/a	n/a	n/a
306.663900	2	cue_social_high	n/a	32	9	n/a	n/a	n/a
319.095300	2	cue_nonsocial	n/a	16	-7	n/a	n/a	n/a
319.095300	2	cue_nonsocial_low	n/a	16	-7	n/a	n/a	n/a
325.984070	2	cue_social	n/a	16	-7	n/a	n/a	n/a
325.984070	2	cue_social_low	n/a	16	-7	n/a	n/a	n/a
333.616060	2	cue_social	n/a	16	-7	n/a	n/a	n/a
333.616060	2	cue_social_low	n/a	16	-7	n/a	n/a	n/a
341.269170	2	cue_social	n/a	16	-7	n/a	n/a	n/a
341.269170	2	cue_social_low	n/a	16	-7	n/a	n/a	n/a
348.061800	2	cue_nonsocial	n/a	16	-7	n/a	n/a	n/a
348.061800	2	cue_nonsocial_low	n/a	16	-7	n/a	n/a	n/a
355.805000	2	cue_social	n/a	32	9	n/a	n/a	n/a
355.805000	2	cue_social_high	n/a	32	9	n/a	n/a	n/a
362.544740	2	cue_nonsocial	n/a	16	-7	n/a	n/a	n/a
362.544740	2	cue_nonsocial_low	n/a	16	-7	n/a	n/a	n/a
370.243040	2	cue_social	n/a	32	9	n/a	n/a	n/a
370.243040	2	cue_social_high	n/a	32	9	n/a	n/a	n/a
6.519775	1.632887	dec_social_choice	1.632887	32.000000	n/a	0	0	-2.317708e-01
6.519775	1.632887	dec_choice	1.632887	32.000000	n/a	0	0	-2.330729e-01
6.519775	1.632887	dec_social_reject	1.632887	32.000000	n/a	0	0	-6.250000e-02
6.519775	1.632887	dec_reject	1.632887	32.000000	n/a	0	0	-6.835938e-02
6.519775	1.632887	dec_social_low	1.632887	32.000000	n/a	0	-2.330729e-01	-2.330729e-01
6.519775	1.632887	dec_social_reject_low	1.632887	32.000000	n/a	2	-1.705729e-01	-2.330729e-01
13.352746	1.149922	dec_nonsocial_choice	1.149922	32.000000	n/a	8	1.822917e-02	1.822917e-02
13.352746	1.149922	dec_choice	1.149922	32.000000	n/a	8	1.953125e-02	1.953125e-02
13.352746	1.149922	dec_nonsocial_accept	1.149922	32.000000	n/a	8	-1.764706e-01	-1.764706e-01
13.352746	1.149922	dec_accept	1.149922	32.000000	n/a	8	-1.666667e-01	-1.666667e-01
13.352746	1.149922	dec_nonsocial_accept_high	1.149922	32.000000	n/a	8	-1.875000e-01	-1.875000e-01
20.185886	1.316747	dec_nonsocial_choice	1.316747	16.000000	n/a	8	2.682292e-01	2.682292e-01
20.185886	1.316747	dec_choice	1.316747	16.000000	n/a	8	2.695312e-01	2.695312e-01
20.185886	1.316747	dec_nonsocial_accept	1.316747	16.000000	n/a	8	7.352941e-02	7.352941e-02
20.185886	1.316747	dec_accept	1.316747	16.000000	n/a	8	8.333333e-02	8.333333e-02
20.185886	1.316747	dec_nonsocial_high	1.316747	16.000000	n/a	8	2.695312e-01	2.695312e-01
20.185886	1.316747	dec_nonsocial_accept_high	1.316747	16.000000	n/a	8	8.333333e-02	8.333333e-02
27.018991	1.200401	dec_social_choice	1.200401	16.000000	n/a	0	0	-2.317708e-01
27.018991	1.200401	dec_choice	1.200401	16.000000	n/a	0	0	-2.330729e-01
27.018991	1.200401	dec_social_reject	1.200401	16.000000	n/a	0	0	0
27.018991	1.200401	dec_reject	1.200401	16.000000	n/a	0	0	-5.859375e-03
27.018991	1.200401	dec_social_reject_low	1.200401	16.000000	n/a	2	-1.080729e-01	-2.330729e-01
33.853638	1.149661	dec_nonsocial_choice	1.149661	16.000000	n/a	0	0	-2.317708e-01
33.853638	1.149661	dec_choice	1.149661	16.000000	n/a	0	0	-2.304688e-01
33.853638	1.149661	dec_nonsocial_reject	1.149661	16.000000	n/a	0	0	-6.250000e-02
33.853638	1.149661	dec_reject	1.149661	16.000000	n/a	0	0	-5.625000e-02
33.853638	1.149661	dec_nonsocial_low	1.149661	16.000000	n/a	0	-2.304688e-01	-2.304688e-01
33.853638	1.149661	dec_nonsocial_reject_low	1.149661	16.000000	n/a	1	-5.625000e-02	-1.187500e-01
44.719112	1.082971	dec_social_choice	1.082971	16.000000	n/a	8	2.682292e-01	2.682292e-01
44.719112	1.082971	dec_choice	1.082971	16.000000	n/a	8	2.669271e-01	2.669271e-01
44.719112	1.082971	dec_social_accept	1.082971	16.000000	n/a	8	7.352941e-02	7.352941e-02
44.719112	1.082971	dec_accept	1.082971	16.000000	n/a	8	6.250000e-02	6.250000e-02
44.719112	1.082971	dec_social_high	1.082971	16.000000	n/a	8	2.669271e-01	2.669271e-01
44.719112	1.082971	dec_social_accept_high	1.082971	16.000000	n/a	8	2.669271e-01	2.669271e-01
53.986004	0.950043	dec_nonsocial_choice	0.950043	32.000000	n/a	8	1.822917e-02	1.822917e-02
53.986004	0.950043	dec_choice	0.950043	32.000000	n/a	8	1.953125e-02	1.953125e-02
53.986004	0.950043	dec_nonsocial_accept	0.950043	32.000000	n/a	8	-1.764706e-01	-1.764706e-01
53.986004	0.950043	dec_accept	0.950043	32.000000	n/a	8	-1.666667e-01	-1.666667e-01
53.986004	0.950043	dec_nonsocial_high	0.950043	32.000000	n/a	8	1.953125e-02	1.953125e-02
53.986004	0.950043	dec_nonsocial_accept_high	0.950043	32.000000	n/a	8	-1.666667e-01	-1.666667e-01
60.820145	0.915063	dec_social_choice	0.915063	16.000000	n/a	8	2.682292e-01	2.682292e-01
60.820145	0.915063	dec_choice	0.915063	16.000000	n/a	8	2.669271e-01	2.669271e-01
60.820145	0.915063	dec_social_accept	0.915063	16.000000	n/a	8	7.352941e-02	7.352941e-02
60.820145	0.915063	dec_accept	0.915063	16.000000	n/a	8	6.250000e-02	6.250000e-02
60.820145	0.915063	dec_social_high	0.915063	16.000000	n/a	8	2.669271e-01	2.669271e-01
60.820145	0.915063	dec_social_accept_high	0.915063	16.000000	n/a	8	2.669271e-01	2.669271e-01
68.469740	0.832840	dec_nonsocial_choice	0.832840	32.000000	n/a	0	0	-2.317708e-01
68.469740	0.832840	dec_choice	0.832840	32.000000	n/a	0	0	-2.304688e-01
68.469740	0.832840	dec_nonsocial_reject	0.832840	32.000000	n/a	0	0	1.250000e-01
68.469740	0.832840	dec_reject	0.832840	32.000000	n/a	0	0	1.312500e-01
68.469740	0.832840	dec_nonsocial_low	0.832840	32.000000	n/a	0	-2.304688e-01	-2.304688e-01
68.469740	0.832840	dec_nonsocial_reject_low	0.832840	32.000000	n/a	8	1.312500e-01	-1.187500e-01
77.717970	1.217553	dec_social_choice	1.217553	32.000000	n/a	8	1.822917e-02	1.822917e-02
77.717970	1.217553	dec_choice	1.217553	32.000000	n/a	8	1.692708e-02	1.692708e-02
77.717970	1.217553	dec_social_accept	1.217553	32.000000	n/a	8	-1.764706e-01	-1.764706e-01
77.717970	1.217553	dec_accept	1.217553	32.000000	n/a	8	-1.875000e-01	-1.875000e-01
77.717970	1.217553	dec_social_accept_high	1.217553	32.000000	n/a	8	1.692708e-02	1.692708e-02
84.552800	1.399769	dec_social_choice	1.399769	16.000000	n/a	4	1.822917e-02	1.822917e-02
84.552800	1.399769	dec_choice	1.399769	16.000000	n/a	4	1.692708e-02	1.692708e-02
84.552800	1.399769	dec_social_accept	1.399769	16.000000	n/a	4	-1.764706e-01	-1.764706e-01
84.552800	1.399769	dec_accept	1.399769	16.000000	n/a	4	-1.875000e-01	-1.875000e-01
84.552800	1.399769	dec_social_high	1.399769	16.000000	n/a	4	1.692708e-02	1.692708e-02
84.552800	1.399769	dec_social_accept_high	1.399769	16.000000	n/a	4	1.692708e-02	1.692708e-02
92.202870	1.115518	dec_nonsocial_choice	1.115518	32.000000	n/a	0	0	-2.317708e-01
92.202870	1.115518	dec_choice	1.115518	32.000000	n/a	0	0	-2.304688e-01
92.202870	1.115518	dec_nonsocial_reject	1.115518	32.000000	n/a	0	0	-6.250000e-02
92.202870	1.115518	dec_reject	1.115518	32.000000	n/a	0	0	-5.625000e-02
92.202870	1.115518	dec_nonsocial_low	1.115518	32.000000	n/a	0	-2.304688e-01	-2.304688e-01
92.202870	1.115518	dec_nonsocial_reject_low	1.115518	32.000000	n/a	2	-5.625000e-02	-1.187500e-01
99.036705	0.999094	dec_social_choice	0.999094	16.000000	n/a	8	2.682292e-01	2.682292e-01
99.036705	0.999094	dec_choice	0.999094	16.000000	n/a	8	2.669271e-01	2.669271e-01
99.036705	0.999094	dec_social_accept	0.999094	16.000000	n/a	8	7.352941e-02	7.352941e-02
99.036705	0.999094	dec_accept	0.999094	16.000000	n/a	8	6.250000e-02	6.250000e-02
99.036705	0.999094	dec_social_high	0.999094	16.000000	n/a	8	2.669271e-01	2.669271e-01
99.036705	0.999094	dec_social_accept_high	0.999094	16.000000	n/a	8	2.669271e-01	2.669271e-01
105.869800	0.799093	dec_nonsocial_choice	0.799093	32.000000	n/a	16	2.682292e-01	2.682292e-01
105.869800	0.799093	dec_choice	0.799093	32.000000	n/a	16	2.695312e-01	2.695312e-01
105.869800	0.799093	dec_nonsocial_accept	0.799093	32.000000	n/a	16	7.352941e-02	7.352941e-02
105.869800	0.799093	dec_accept	0.799093	32.000000	n/a	16	8.333333e-02	8.333333e-02
105.869800	0.799093	dec_nonsocial_high	0.799093	32.000000	n/a	16	2.695312e-01	2.695312e-01
105.869800	0.799093	dec_nonsocial_accept_high	0.799093	32.000000	n/a	16	8.333333e-02	8.333333e-02
113.518860	1.033247	dec_social_choice	1.033247	32.000000	n/a	0	0	-2.317708e-01
113.518860	1.033247	dec_choice	1.033247	32.000000	n/a	0	0	-2.330729e-01
113.518860	1.033247	dec_social_reject	1.033247	32.000000	n/a	0	0	-6.250000e-02
113.518860	1.033247	dec_reject	1.033247	32.000000	n/a	0	0	-6.835938e-02
113.518860	1.033247	dec_social_low	1.033247	32.000000	n/a	0	-2.330729e-01	-2.330729e-01
113.518860	1.033247	dec_social_reject_low	1.033247	32.000000	n/a	2	-1.705729e-01	-2.330729e-01
120.352370	0.950345	dec_nonsocial_choice	0.950345	16.000000	n/a	8	2.682292e-01	2.682292e-01
120.352370	0.950345	dec_choice	0.950345	16.000000	n/a	8	2.695312e-01	2.695312e-01
120.352370	0.950345	dec_nonsocial_accept	0.950345	16.000000	n/a	8	7.352941e-02	7.352941e-02
120.352370	0.950345	dec_accept	0.950345	16.000000	n/a	8	8.333333e-02	8.333333e-02
120.352370	0.950345	dec_nonsocial_accept_high	0.950345	16.000000	n/a	8	6.250000e-02	6.250000e-02
127.185630	0.916397	dec_nonsocial_choice	0.916397	16.000000	n/a	0	0	-2.317708e-01
127.185630	0.916397	dec_choice	0.916397	16.000000	n/a	0	0	-2.304688e-01
127.185630	0.916397	dec_nonsocial_reject	0.916397	16.000000	n/a	0	0	1.250000e-01
127.185630	0.916397	dec_reject	0.916397	16.000000	n/a	0	0	1.312500e-01
127.185630	0.916397	dec_nonsocial_reject_low	0.916397	16.000000	n/a	4	1.191406e-01	-1.308594e-01
134.836120	0.932950	dec_social_choice	0.932950	32.000000	n/a	0	0	-2.317708e-01
134.836120	0.932950	dec_choice	0.932950	32.000000	n/a	0	0	-2.330729e-01
134.836120	0.932950	dec_social_reject	0.932950	32.000000	n/a	0	0	-3.125000e-02
134.836120	0.932950	dec_reject	0.932950	32.000000	n/a	0	0	-3.710938e-02
134.836120	0.932950	dec_social_reject_low	0.932950	32.000000	n/a	3	-1.393229e-01	-2.330729e-01
145.701840	0.916744	dec_nonsocial_choice	0.916744	16.000000	n/a	0	0	-2.317708e-01
145.701840	0.916744	dec_choice	0.916744	16.000000	n/a	0	0	-2.304688e-01
145.701840	0.916744	dec_nonsocial_reject	0.916744	16.000000	n/a	0	0	-6.250000e-02
145.701840	0.916744	dec_reject	0.916744	16.000000	n/a	0	0	-5.625000e-02
145.701840	0.916744	dec_nonsocial_low	0.916744	16.000000	n/a	0	-2.304688e-01	-2.304688e-01
145.701840	0.916744	dec_nonsocial_reject_low	0.916744	16.000000	n/a	1	-5.625000e-02	-1.187500e-01
152.535200	0.833662	dec_nonsocial_choice	0.833662	32.000000	n/a	16	2.682292e-01	2.682292e-01
152.535200	0.833662	dec_choice	0.833662	32.000000	n/a	16	2.695312e-01	2.695312e-01
152.535200	0.833662	dec_nonsocial_accept	0.833662	32.000000	n/a	16	7.352941e-02	7.352941e-02
152.535200	0.833662	dec_accept	0.833662	32.000000	n/a	16	8.333333e-02	8.333333e-02
152.535200	0.833662	dec_nonsocial_high	0.833662	32.000000	n/a	16	2.695312e-01	2.695312e-01
152.535200	0.833662	dec_nonsocial_accept_high	0.833662	32.000000	n/a	16	8.333333e-02	8.333333e-02
161.784730	0.933820	dec_social_choice	0.933820	16.000000	n/a	0	0	-2.317708e-01
161.784730	0.933820	dec_choice	0.933820	16.000000	n/a	0	0	-2.330729e-01
161.784730	0.933820	dec_social_reject	0.933820	16.000000	n/a	0	0	1.250000e-01
161.784730	0.933820	dec_reject	0.933820	16.000000	n/a	0	0	1.191406e-01
161.784730	0.933820	dec_social_low	0.933820	16.000000	n/a	0	-2.330729e-01	-2.330729e-01
161.784730	0.933820	dec_social_reject_low	0.933820	16.000000	n/a	4	1.692708e-02	-2.330729e-01
168.618680	0.850044	dec_nonsocial_choice	0.850044	16.000000	n/a	0	0	-2.317708e-01
168.618680	0.850044	dec_choice	0.850044	16.000000	n/a	0	0	-2.304688e-01
168.618680	0.850044	dec_nonsocial_reject	0.850044	16.000000	n/a	0	0	-6.250000e-02
168.618680	0.850044	dec_reject	0.850044	16.000000	n/a	0	0	-5.625000e-02
168.618680	0.850044	dec_nonsocial_reject_low	0.850044	16.000000	n/a	1	-6.835938e-02	-1.308594e-01
175.451900	0.716508	dec_social_choice	0.716508	32.000000	n/a	0	0	-2.317708e-01
175.451900	0.716508	dec_choice	0.716508	32.000000	n/a	0	0	-2.330729e-01
175.451900	0.716508	dec_social_reject	0.716508	32.000000	n/a	0	0	-6.250000e-02
175.451900	0.716508	dec_reject	0.716508	32.000000	n/a	0	0	-6.835938e-02
175.451900	0.716508	dec_social_reject_low	0.716508	32.000000	n/a	2	-1.705729e-01	-2.330729e-01
182.285950	0.982712	dec_social_choice	0.982712	16.000000	n/a	0	0	-2.317708e-01
182.285950	0.982712	dec_choice	0.982712	16.000000	n/a	0	0	-2.330729e-01
182.285950	0.982712	dec_social_reject	0.982712	16.000000	n/a	0	0	0
182.285950	0.982712	dec_reject	0.982712	16.000000	n/a	0	0	-5.859375e-03
182.285950	0.982712	dec_social_low	0.982712	16.000000	n/a	0	-2.330729e-01	-2.330729e-01
182.285950	0.982712	dec_social_reject_low	0.982712	16.000000	n/a	2	-1.080729e-01	-2.330729e-01
189.935760	0.833212	dec_nonsocial_choice	0.833212	32.000000	n/a	0	0	-2.317708e-01
189.935760	0.833212	dec_choice	0.833212	32.000000	n/a	0	0	-2.304688e-01
189.935760	0.833212	dec_nonsocial_reject	0.833212	32.000000	n/a	0	0	-3.125000e-02
189.935760	0.833212	dec_reject	0.833212	32.000000	n/a	0	0	-2.500000e-02
189.935760	0.833212	dec_nonsocial_low	0.833212	32.000000	n/a	0	-2.304688e-01	-2.304688e-01
189.935760	0.833212	dec_nonsocial_reject_low	0.833212	32.000000	n/a	3	-2.500000e-02	-1.187500e-01
200.802660	0.765956	dec_nonsocial_choice	0.765956	16.000000	n/a	8	2.682292e-01	2.682292e-01
200.802660	0.765956	dec_choice	0.765956	16.000000	n/a	8	2.695312e-01	2.695312e-01
200.802660	0.765956	dec_nonsocial_accept	0.765956	16.000000	n/a	8	7.352941e-02	7.352941e-02
200.802660	0.765956	dec_accept	0.765956	16.000000	n/a	8	8.333333e-02	8.333333e-02
200.802660	0.765956	dec_nonsocial_accept_high	0.765956	16.000000	n/a	8	6.250000e-02	6.250000e-02
207.634780	1.117032	dec_nonsocial_choice	1.117032	32.000000	n/a	8	1.822917e-02	1.822917e-02
207.634780	1.117032	dec_choice	1.117032	32.000000	n/a	8	1.953125e-02	1.953125e-02
207.634780	1.117032	dec_nonsocial_accept	1.117032	32.000000	n/a	8	-1.764706e-01	-1.764706e-01
207.634780	1.117032	dec_accept	1.117032	32.000000	n/a	8	-1.666667e-01	-1.666667e-01
207.634780	1.117032	dec_nonsocial_accept_high	1.117032	32.000000	n/a	8	-1.875000e-01	-1.875000e-01
216.885760	1.383061	dec_social_choice	1.383061	32.000000	n/a	0	0	-2.317708e-01
216.885760	1.383061	dec_choice	1.383061	32.000000	n/a	0	0	-2.330729e-01
216.885760	1.383061	dec_social_reject	1.383061	32.000000	n/a	0	0	1.250000e-01
216.885760	1.383061	dec_reject	1.383061	32.000000	n/a	0	0	1.191406e-01
216.885760	1.383061	dec_social_reject_low	1.383061	32.000000	n/a	8	1.692708e-02	-2.330729e-01
223.718630	1.016111	dec_nonsocial_choice	1.016111	16.000000	n/a	0	0	-2.317708e-01
223.718630	1.016111	dec_choice	1.016111	16.000000	n/a	0	0	-2.304688e-01
223.718630	1.016111	dec_nonsocial_reject	1.016111	16.000000	n/a	0	0	0
223.718630	1.016111	dec_reject	1.016111	16.000000	n/a	0	0	6.250000e-03
223.718630	1.016111	dec_nonsocial_low	1.016111	16.000000	n/a	0	-2.304688e-01	-2.304688e-01
223.718630	1.016111	dec_nonsocial_reject_low	1.016111	16.000000	n/a	2	6.250000e-03	-1.187500e-01
231.369600	1.015359	dec_nonsocial_choice	1.015359	32.000000	n/a	0	0	-2.317708e-01
231.369600	1.015359	dec_choice	1.015359	32.000000	n/a	0	0	-2.304688e-01
231.369600	1.015359	dec_nonsocial_reject	1.015359	32.000000	n/a	0	0	-6.250000e-02
231.369600	1.015359	dec_reject	1.015359	32.000000	n/a	0	0	-5.625000e-02
231.369600	1.015359	dec_nonsocial_low	1.015359	32.000000	n/a	0	-2.304688e-01	-2.304688e-01
231.369600	1.015359	dec_nonsocial_reject_low	1.015359	32.000000	n/a	2	-5.625000e-02	-1.187500e-01
240.635350	0.883170	dec_nonsocial_choice	0.883170	32.000000	n/a	0	0	-2.317708e-01
240.635350	0.883170	dec_choice	0.883170	32.000000	n/a	0	0	-2.304688e-01
240.635350	0.883170	dec_nonsocial_reject	0.883170	32.000000	n/a	0	0	-3.125000e-02
240.635350	0.883170	dec_reject	0.883170	32.000000	n/a	0	0	-2.500000e-02
240.635350	0.883170	dec_nonsocial_low	0.883170	32.000000	n/a	0	-2.304688e-01	-2.304688e-01
240.635350	0.883170	dec_nonsocial_reject_low	0.883170	32.000000	n/a	3	-2.500000e-02	-1.187500e-01
247.468720	0.799814	dec_social_choice	0.799814	32.000000	n/a	0	0	-2.317708e-01
247.468720	0.799814	dec_choice	0.799814	32.000000	n/a	0	0	-2.330729e-01
247.468720	0.799814	dec_social_reject	0.799814	32.000000	n/a	0	0	-6.250000e-02
247.468720	0.799814	dec_reject	0.799814	32.000000	n/a	0	0	-6.835938e-02
247.468720	0.799814	dec_social_low	0.799814	32.000000	n/a	0	-2.330729e-01	-2.330729e-01
247.468720	0.799814	dec_social_reject_low	0.799814	32.000000	n/a	2	-1.705729e-01	-2.330729e-01
254.301590	1.433611	dec_social_choice	1.433611	32.000000	n/a	0	0	-2.317708e-01
254.301590	1.433611	dec_choice	1.433611	32.000000	n/a	0	0	-2.330729e-01
254.301590	1.433611	dec_social_reject	1.433611	32.000000	n/a	0	0	1.250000e-01
254.301590	1.433611	dec_reject	1.433611	32.000000	n/a	0	0	1.191406e-01
254.301590	1.433611	dec_social_reject_low	1.433611	32.000000	n/a	8	1.692708e-02	-2.330729e-01
261.952760	0.849222	dec_nonsocial_choice	0.849222	32.000000	n/a	0	0	-2.317708e-01
261.952760	0.849222	dec_choice	0.849222	32.000000	n/a	0	0	-2.304688e-01
261.952760	0.849222	dec_nonsocial_reject	0.849222	32.000000	n/a	0	0	-3.125000e-02
261.952760	0.849222	dec_reject	0.849222	32.000000	n/a	0	0	-2.500000e-02
261.952760	0.849222	dec_nonsocial_low	0.849222	32.000000	n/a	0	-2.304688e-01	-2.304688e-01
261.952760	0.849222	dec_nonsocial_reject_low	0.849222	32.000000	n/a	3	-2.500000e-02	-1.187500e-01
271.202730	1.082371	dec_social_choice	1.082371	16.000000	n/a	0	0	-2.317708e-01
271.202730	1.082371	dec_choice	1.082371	16.000000	n/a	0	0	-2.330729e-01
271.202730	1.082371	dec_social_reject	1.082371	16.000000	n/a	0	0	0
271.202730	1.082371	dec_reject	1.082371	16.000000	n/a	0	0	-5.859375e-03
271.202730	1.082371	dec_social_reject_low	1.082371	16.000000	n/a	2	-1.080729e-01	-2.330729e-01
280.468570	1.050262	dec_nonsocial_choice	1.050262	16.000000	n/a	8	2.682292e-01	2.682292e-01
280.468570	1.050262	dec_choice	1.050262	16.000000	n/a	8	2.695312e-01	2.695312e-01
280.468570	1.050262	dec_nonsocial_accept	1.050262	16.000000	n/a	8	7.352941e-02	7.352941e-02
280.468570	1.050262	dec_accept	1.050262	16.000000	n/a	8	8.333333e-02	8.333333e-02
280.468570	1.050262	dec_nonsocial_accept_high	1.050262	16.000000	n/a	8	6.250000e-02	6.250000e-02
287.301900	0.866494	dec_social_choice	0.866494	16.000000	n/a	8	2.682292e-01	2.682292e-01
287.301900	0.866494	dec_choice	0.866494	16.000000	n/a	8	2.669271e-01	2.669271e-01
287.301900	0.866494	dec_social_accept	0.866494	16.000000	n/a	8	7.352941e-02	7.352941e-02
287.301900	0.866494	dec_accept	0.866494	16.000000	n/a	8	6.250000e-02	6.250000e-02
287.301900	0.866494	dec_social_high	0.866494	16.000000	n/a	8	2.669271e-01	2.669271e-01
287.301900	0.866494	dec_social_accept_high	0.866494	16.000000	n/a	8	2.669271e-01	2.669271e-01
294.951320	0.783795	dec_social_choice	0.783795	16.000000	n/a	0	0	-2.317708e-01
294.951320	0.783795	dec_choice	0.783795	16.000000	n/a	0	0	-2.330729e-01
294.951320	0.783795	dec_social_reject	0.783795	16.000000	n/a	0	0	0
294.951320	0.783795	dec_reject	0.783795	16.000000	n/a	0	0	-5.859375e-03
294.951320	0.783795	dec_social_reject_low	0.783795	16.000000	n/a	2	-1.080729e-01	-2.330729e-01
301.785130	0.716308	dec_nonsocial_choice	0.716308	16.000000	n/a	0	0	-2.317708e-01
301.785130	0.716308	dec_choice	0.716308	16.000000	n/a	0	0	-2.304688e-01
301.785130	0.716308	dec_nonsocial_reject	0.716308	16.000000	n/a	0	0	0
301.785130	0.716308	dec_reject	0.716308	16.000000	n/a	0	0	6.250000e-03
301.785130	0.716308	dec_nonsocial_reject_low	0.716308	16.000000	n/a	2	-5.859375e-03	-1.308594e-01
308.618560	1.365780	dec_social_choice	1.365780	32.000000	n/a	0	0	-2.317708e-01
308.618560	1.365780	dec_choice	1.365780	32.000000	n/a	0	0	-2.330729e-01
308.618560	1.365780	dec_social_reject	1.365780	32.000000	n/a	0	0	1.250000e-01
308.618560	1.365780	dec_reject	1.365780	32.000000	n/a	0	0	1.191406e-01
308.618560	1.365780	dec_social_reject_low	1.365780	32.000000	n/a	8	1.692708e-02	-2.330729e-01
321.101930	1.065908	dec_nonsocial_choice	1.065908	16.000000	n/a	0	0	-2.317708e-01
321.101930	1.065908	dec_choice	1.065908	16.000000	n/a	0	0	-2.304688e-01
321.101930	1.065908	dec_nonsocial_reject	1.065908	16.000000	n/a	0	0	0
321.101930	1.065908	dec_reject	1.065908	16.000000	n/a	0	0	6.250000e-03
321.101930	1.065908	dec_nonsocial_low	1.065908	16.000000	n/a	0	-2.304688e-01	-2.304688e-01
321.101930	1.065908	dec_nonsocial_reject_low	1.065908	16.000000	n/a	2	6.250000e-03	-1.187500e-01
327.934720	0.866631	dec_social_choice	0.866631	16.000000	n/a	8	2.682292e-01	2.682292e-01
327.934720	0.866631	dec_choice	0.866631	16.000000	n/a	8	2.669271e-01	2.669271e-01
327.934720	0.866631	dec_social_accept	0.866631	16.000000	n/a	8	7.352941e-02	7.352941e-02
327.934720	0.866631	dec_accept	0.866631	16.000000	n/a	8	6.250000e-02	6.250000e-02
327.934720	0.866631	dec_social_high	0.866631	16.000000	n/a	8	2.669271e-01	2.669271e-01
327.934720	0.866631	dec_social_accept_high	0.866631	16.000000	n/a	8	2.669271e-01	2.669271e-01
335.585400	0.749587	dec_social_choice	0.749587	16.000000	n/a	8	2.682292e-01	2.682292e-01
335.585400	0.749587	dec_choice	0.749587	16.000000	n/a	8	2.669271e-01	2.669271e-01
335.585400	0.749587	dec_social_accept	0.749587	16.000000	n/a	8	7.352941e-02	7.352941e-02
335.585400	0.749587	dec_accept	0.749587	16.000000	n/a	8	6.250000e-02	6.250000e-02
335.585400	0.749587	dec_social_accept_high	0.749587	16.000000	n/a	8	2.669271e-01	2.669271e-01
343.235300	0.865744	dec_social_choice	0.865744	16.000000	n/a	0	0	-2.317708e-01
343.235300	0.865744	dec_choice	0.865744	16.000000	n/a	0	0	-2.330729e-01
343.235300	0.865744	dec_social_reject	0.865744	16.000000	n/a	0	0	0
343.235300	0.865744	dec_reject	0.865744	16.000000	n/a	0	0	-5.859375e-03
343.235300	0.865744	dec_social_low	0.865744	16.000000	n/a	0	-2.330729e-01	-2.330729e-01
343.235300	0.865744	dec_social_reject_low	0.865744	16.000000	n/a	2	-1.080729e-01	-2.330729e-01
350.067930	1.116981	dec_nonsocial_choice	1.116981	16.000000	n/a	0	0	-2.317708e-01
350.067930	1.116981	dec_choice	1.116981	16.000000	n/a	0	0	-2.304688e-01
350.067930	1.116981	dec_nonsocial_reject	1.116981	16.000000	n/a	0	0	-6.250000e-02
350.067930	1.116981	dec_reject	1.116981	16.000000	n/a	0	0	-5.625000e-02
350.067930	1.116981	dec_nonsocial_reject_low	1.116981	16.000000	n/a	1	-6.835938e-02	-1.308594e-01
357.718630	0.832879	dec_social_choice	0.832879	32.000000	n/a	0	0	-2.317708e-01
357.718630	0.832879	dec_choice	0.832879	32.000000	n/a	0	0	-2.330729e-01
357.718630	0.832879	dec_social_reject	0.832879	32.000000	n/a	0	0	-6.250000e-02
357.718630	0.832879	dec_reject	0.832879	32.000000	n/a	0	0	-6.835938e-02
357.718630	0.832879	dec_social_reject_low	0.832879	32.000000	n/a	2	-1.705729e-01	-2.330729e-01
364.551570	1.250106	dec_nonsocial_choice	1.250106	16.000000	n/a	0	0	-2.317708e-01
364.551570	1.250106	dec_choice	1.250106	16.000000	n/a	0	0	-2.304688e-01
364.551570	1.250106	dec_nonsocial_reject	1.250106	16.000000	n/a	0	0	1.250000e-01
364.551570	1.250106	dec_reject	1.250106	16.000000	n/a	0	0	1.312500e-01
364.551570	1.250106	dec_nonsocial_reject_low	1.250106	16.000000	n/a	4	1.191406e-01	-1.308594e-01
372.185330	0.865414	dec_social_choice	0.865414	32.000000	n/a	0	0	-2.317708e-01
372.185330	0.865414	dec_choice	0.865414	32.000000	n/a	0	0	-2.330729e-01
372.185330	0.865414	dec_social_reject	0.865414	32.000000	n/a	0	0	-6.250000e-02
372.185330	0.865414	dec_reject	0.865414	32.000000	n/a	0	0	-6.835938e-02
372.185330	0.865414	dec_social_low	0.865414	32.000000	n/a	0	-2.330729e-01	-2.330729e-01
372.185330	0.865414	dec_social_reject_low	0.865414	32.000000	n/a	2	-1.705729e-01	-2.330729e-01
