onset	duration	trial_type	response_time	Endowment	Endowment_pmod	Decision	Decision_pmod	Offer_pmod
4.572529	2	cue_social	n/a	16	-7	n/a	n/a	n/a
4.572529	2	cue_social_low	n/a	16	-7	n/a	n/a	n/a
15.448656	2	cue_social	n/a	32	9	n/a	n/a	n/a
15.448656	2	cue_social_high	n/a	32	9	n/a	n/a	n/a
23.031908	2	cue_nonsocial	n/a	32	9	n/a	n/a	n/a
23.031908	2	cue_nonsocial_high	n/a	32	9	n/a	n/a	n/a
29.864794	2	cue_nonsocial	n/a	16	-7	n/a	n/a	n/a
29.864794	2	cue_nonsocial_low	n/a	16	-7	n/a	n/a	n/a
39.114998	2	cue_nonsocial	n/a	32	9	n/a	n/a	n/a
39.114998	2	cue_nonsocial_high	n/a	32	9	n/a	n/a	n/a
46.022720	2	cue_social	n/a	32	9	n/a	n/a	n/a
46.022720	2	cue_social_high	n/a	32	9	n/a	n/a	n/a
58.431705	2	cue_nonsocial	n/a	32	9	n/a	n/a	n/a
58.431705	2	cue_nonsocial_high	n/a	32	9	n/a	n/a	n/a
65.332500	2	cue_social	n/a	32	9	n/a	n/a	n/a
65.332500	2	cue_social_high	n/a	32	9	n/a	n/a	n/a
72.968710	2	cue_social	n/a	16	-7	n/a	n/a	n/a
72.968710	2	cue_social_low	n/a	16	-7	n/a	n/a	n/a
79.794290	2	cue_social	n/a	16	-7	n/a	n/a	n/a
79.794290	2	cue_social_low	n/a	16	-7	n/a	n/a	n/a
86.612290	2	cue_social	n/a	16	-7	n/a	n/a	n/a
86.612290	2	cue_social_low	n/a	16	-7	n/a	n/a	n/a
93.449650	2	cue_social	n/a	16	-7	n/a	n/a	n/a
93.449650	2	cue_social_low	n/a	16	-7	n/a	n/a	n/a
100.289406	2	cue_social	n/a	32	9	n/a	n/a	n/a
100.289406	2	cue_social_high	n/a	32	9	n/a	n/a	n/a
107.064896	2	cue_nonsocial	n/a	16	-7	n/a	n/a	n/a
107.064896	2	cue_nonsocial_low	n/a	16	-7	n/a	n/a	n/a
113.957680	2	cue_social	n/a	32	9	n/a	n/a	n/a
113.957680	2	cue_social_high	n/a	32	9	n/a	n/a	n/a
124.764710	2	cue_nonsocial	n/a	32	9	n/a	n/a	n/a
124.764710	2	cue_nonsocial_high	n/a	32	9	n/a	n/a	n/a
132.483170	2	cue_social	n/a	16	-7	n/a	n/a	n/a
132.483170	2	cue_social_low	n/a	16	-7	n/a	n/a	n/a
140.053440	2	cue_social	n/a	16	-7	n/a	n/a	n/a
140.053440	2	cue_social_low	n/a	16	-7	n/a	n/a	n/a
147.714680	2	cue_nonsocial	n/a	16	-7	n/a	n/a	n/a
147.714680	2	cue_nonsocial_low	n/a	16	-7	n/a	n/a	n/a
154.616840	2	cue_social	n/a	32	9	n/a	n/a	n/a
154.616840	2	cue_social_high	n/a	32	9	n/a	n/a	n/a
161.479800	2	cue_social	n/a	16	-7	n/a	n/a	n/a
161.479800	2	cue_social_low	n/a	16	-7	n/a	n/a	n/a
170.647720	2	cue_nonsocial	n/a	32	9	n/a	n/a	n/a
170.647720	2	cue_nonsocial_high	n/a	32	9	n/a	n/a	n/a
177.481300	2	cue_nonsocial	n/a	16	-7	n/a	n/a	n/a
177.481300	2	cue_nonsocial_low	n/a	16	-7	n/a	n/a	n/a
185.181060	2	cue_social	n/a	16	-7	n/a	n/a	n/a
185.181060	2	cue_social_low	n/a	16	-7	n/a	n/a	n/a
191.964480	2	cue_nonsocial	n/a	16	-7	n/a	n/a	n/a
191.964480	2	cue_nonsocial_low	n/a	16	-7	n/a	n/a	n/a
198.797880	2	cue_nonsocial	n/a	16	-7	n/a	n/a	n/a
198.797880	2	cue_nonsocial_low	n/a	16	-7	n/a	n/a	n/a
206.500340	2	cue_social	n/a	16	-7	n/a	n/a	n/a
206.500340	2	cue_social_low	n/a	16	-7	n/a	n/a	n/a
217.314360	2	cue_nonsocial	n/a	32	9	n/a	n/a	n/a
217.314360	2	cue_nonsocial_high	n/a	32	9	n/a	n/a	n/a
226.580920	2	cue_nonsocial	n/a	16	-7	n/a	n/a	n/a
226.580920	2	cue_nonsocial_low	n/a	16	-7	n/a	n/a	n/a
233.475430	2	cue_social	n/a	32	9	n/a	n/a	n/a
233.475430	2	cue_social_high	n/a	32	9	n/a	n/a	n/a
240.247600	2	cue_nonsocial	n/a	32	9	n/a	n/a	n/a
240.247600	2	cue_nonsocial_high	n/a	32	9	n/a	n/a	n/a
247.140880	2	cue_social	n/a	16	-7	n/a	n/a	n/a
247.140880	2	cue_social_low	n/a	16	-7	n/a	n/a	n/a
254.731000	2	cue_nonsocial	n/a	16	-7	n/a	n/a	n/a
254.731000	2	cue_nonsocial_low	n/a	16	-7	n/a	n/a	n/a
262.380600	2	cue_nonsocial	n/a	16	-7	n/a	n/a	n/a
262.380600	2	cue_nonsocial_low	n/a	16	-7	n/a	n/a	n/a
269.315770	2	cue_social	n/a	32	9	n/a	n/a	n/a
269.315770	2	cue_social_high	n/a	32	9	n/a	n/a	n/a
276.864380	2	cue_nonsocial	n/a	32	9	n/a	n/a	n/a
276.864380	2	cue_nonsocial_high	n/a	32	9	n/a	n/a	n/a
283.697570	2	cue_nonsocial	n/a	32	9	n/a	n/a	n/a
283.697570	2	cue_nonsocial_high	n/a	32	9	n/a	n/a	n/a
290.597600	2	cue_social	n/a	32	9	n/a	n/a	n/a
290.597600	2	cue_social_high	n/a	32	9	n/a	n/a	n/a
297.364380	2	cue_nonsocial	n/a	16	-7	n/a	n/a	n/a
297.364380	2	cue_nonsocial_low	n/a	16	-7	n/a	n/a	n/a
305.063720	2	cue_social	n/a	32	9	n/a	n/a	n/a
305.063720	2	cue_social_high	n/a	32	9	n/a	n/a	n/a
312.664060	2	cue_nonsocial	n/a	16	-7	n/a	n/a	n/a
312.664060	2	cue_nonsocial_low	n/a	16	-7	n/a	n/a	n/a
320.314100	2	cue_nonsocial	n/a	16	-7	n/a	n/a	n/a
320.314100	2	cue_nonsocial_low	n/a	16	-7	n/a	n/a	n/a
327.147580	2	cue_nonsocial	n/a	32	9	n/a	n/a	n/a
327.147580	2	cue_nonsocial_high	n/a	32	9	n/a	n/a	n/a
336.413700	2	cue_nonsocial	n/a	16	-7	n/a	n/a	n/a
336.413700	2	cue_nonsocial_low	n/a	16	-7	n/a	n/a	n/a
343.247160	2	cue_nonsocial	n/a	32	9	n/a	n/a	n/a
343.247160	2	cue_nonsocial_high	n/a	32	9	n/a	n/a	n/a
350.149320	2	cue_social	n/a	16	-7	n/a	n/a	n/a
350.149320	2	cue_social_low	n/a	16	-7	n/a	n/a	n/a
359.384370	2	cue_social	n/a	16	-7	n/a	n/a	n/a
359.384370	2	cue_social_low	n/a	16	-7	n/a	n/a	n/a
368.612200	2	cue_social	n/a	32	9	n/a	n/a	n/a
368.612200	2	cue_social_high	n/a	32	9	n/a	n/a	n/a
6.522576	0.932307	dec_social_choice	0.932307	16.000000	n/a	0	0	-2.324219e-01
6.522576	0.932307	dec_choice	0.932307	16.000000	n/a	0	0	-2.317708e-01
6.522576	0.932307	dec_social_reject	0.932307	16.000000	n/a	0	0	-1.325758e-02
6.522576	0.932307	dec_reject	0.932307	16.000000	n/a	0	0	-3.906250e-03
6.522576	0.932307	dec_social_reject_low	0.932307	16.000000	n/a	2	-1.067708e-01	-2.317708e-01
17.388515	0.966202	dec_social_choice	0.966202	32.000000	n/a	8	1.757812e-02	1.757812e-02
17.388515	0.966202	dec_choice	0.966202	32.000000	n/a	8	1.822917e-02	1.822917e-02
17.388515	0.966202	dec_social_accept	0.966202	32.000000	n/a	8	-1.895833e-01	-1.895833e-01
17.388515	0.966202	dec_accept	0.966202	32.000000	n/a	8	-1.875000e-01	-1.875000e-01
17.388515	0.966202	dec_social_accept_high	0.966202	32.000000	n/a	8	1.822917e-02	1.822917e-02
25.038970	1.032842	dec_nonsocial_choice	1.032842	32.000000	n/a	0	0	-2.324219e-01
25.038970	1.032842	dec_choice	1.032842	32.000000	n/a	0	0	-2.330729e-01
25.038970	1.032842	dec_nonsocial_reject	1.032842	32.000000	n/a	0	0	-7.575758e-02
25.038970	1.032842	dec_reject	1.032842	32.000000	n/a	0	0	-8.455882e-02
25.038970	1.032842	dec_nonsocial_low	1.032842	32.000000	n/a	0	-2.330729e-01	-2.330729e-01
25.038970	1.032842	dec_nonsocial_reject_low	1.032842	32.000000	n/a	2	-8.455882e-02	-1.470588e-01
31.871817	1.233479	dec_nonsocial_choice	1.233479	16.000000	n/a	0	0	-2.324219e-01
31.871817	1.233479	dec_choice	1.233479	16.000000	n/a	0	0	-2.330729e-01
31.871817	1.233479	dec_nonsocial_reject	1.233479	16.000000	n/a	0	0	1.117424e-01
31.871817	1.233479	dec_reject	1.233479	16.000000	n/a	0	0	1.029412e-01
31.871817	1.233479	dec_nonsocial_low	1.233479	16.000000	n/a	0	-2.330729e-01	-2.330729e-01
31.871817	1.233479	dec_nonsocial_reject_low	1.233479	16.000000	n/a	4	1.029412e-01	-1.470588e-01
41.122135	1.115786	dec_nonsocial_choice	1.115786	32.000000	n/a	0	0	-2.324219e-01
41.122135	1.115786	dec_choice	1.115786	32.000000	n/a	0	0	-2.330729e-01
41.122135	1.115786	dec_nonsocial_reject	1.115786	32.000000	n/a	0	0	1.117424e-01
41.122135	1.115786	dec_reject	1.115786	32.000000	n/a	0	0	1.029412e-01
41.122135	1.115786	dec_nonsocial_low	1.115786	32.000000	n/a	0	-2.330729e-01	-2.330729e-01
41.122135	1.115786	dec_nonsocial_reject_low	1.115786	32.000000	n/a	8	1.029412e-01	-1.470588e-01
47.954740	1.233076	dec_social_choice	1.233076	32.000000	n/a	0	0	-2.324219e-01
47.954740	1.233076	dec_choice	1.233076	32.000000	n/a	0	0	-2.317708e-01
47.954740	1.233076	dec_social_reject	1.233076	32.000000	n/a	0	0	1.117424e-01
47.954740	1.233076	dec_reject	1.233076	32.000000	n/a	0	0	1.210938e-01
47.954740	1.233076	dec_social_reject_low	1.233076	32.000000	n/a	8	1.822917e-02	-2.317708e-01
60.437970	0.983572	dec_nonsocial_choice	0.983572	32.000000	n/a	0	0	-2.324219e-01
60.437970	0.983572	dec_choice	0.983572	32.000000	n/a	0	0	-2.330729e-01
60.437970	0.983572	dec_nonsocial_reject	0.983572	32.000000	n/a	0	0	-7.575758e-02
60.437970	0.983572	dec_reject	0.983572	32.000000	n/a	0	0	-8.455882e-02
60.437970	0.983572	dec_nonsocial_low	0.983572	32.000000	n/a	0	-2.330729e-01	-2.330729e-01
60.437970	0.983572	dec_nonsocial_reject_low	0.983572	32.000000	n/a	2	-8.455882e-02	-1.470588e-01
67.271720	0.900017	dec_social_choice	0.900017	32.000000	n/a	16	2.675781e-01	2.675781e-01
67.271720	0.900017	dec_choice	0.900017	32.000000	n/a	16	2.682292e-01	2.682292e-01
67.271720	0.900017	dec_social_accept	0.900017	32.000000	n/a	16	6.041667e-02	6.041667e-02
67.271720	0.900017	dec_accept	0.900017	32.000000	n/a	16	6.250000e-02	6.250000e-02
67.271720	0.900017	dec_social_high	0.900017	32.000000	n/a	16	2.682292e-01	2.682292e-01
67.271720	0.900017	dec_social_accept_high	0.900017	32.000000	n/a	16	2.682292e-01	2.682292e-01
74.905790	0.949226	dec_social_choice	0.949226	16.000000	n/a	0	0	-2.324219e-01
74.905790	0.949226	dec_choice	0.949226	16.000000	n/a	0	0	-2.317708e-01
74.905790	0.949226	dec_social_reject	0.949226	16.000000	n/a	0	0	-7.575758e-02
74.905790	0.949226	dec_reject	0.949226	16.000000	n/a	0	0	-6.640625e-02
74.905790	0.949226	dec_social_low	0.949226	16.000000	n/a	0	-2.317708e-01	-2.317708e-01
74.905790	0.949226	dec_social_reject_low	0.949226	16.000000	n/a	1	-1.692708e-01	-2.317708e-01
81.738680	0.932613	dec_social_choice	0.932613	16.000000	n/a	0	0	-2.324219e-01
81.738680	0.932613	dec_choice	0.932613	16.000000	n/a	0	0	-2.317708e-01
81.738680	0.932613	dec_social_reject	0.932613	16.000000	n/a	0	0	-1.325758e-02
81.738680	0.932613	dec_reject	0.932613	16.000000	n/a	0	0	-3.906250e-03
81.738680	0.932613	dec_social_low	0.932613	16.000000	n/a	0	-2.317708e-01	-2.317708e-01
81.738680	0.932613	dec_social_reject_low	0.932613	16.000000	n/a	2	-1.067708e-01	-2.317708e-01
88.571010	0.950287	dec_social_choice	0.950287	16.000000	n/a	8	2.675781e-01	2.675781e-01
88.571010	0.950287	dec_choice	0.950287	16.000000	n/a	8	2.682292e-01	2.682292e-01
88.571010	0.950287	dec_social_accept	0.950287	16.000000	n/a	8	6.041667e-02	6.041667e-02
88.571010	0.950287	dec_accept	0.950287	16.000000	n/a	8	6.250000e-02	6.250000e-02
88.571010	0.950287	dec_social_accept_high	0.950287	16.000000	n/a	8	2.682292e-01	2.682292e-01
95.404750	0.783196	dec_social_choice	0.783196	16.000000	n/a	8	2.675781e-01	2.675781e-01
95.404750	0.783196	dec_choice	0.783196	16.000000	n/a	8	2.682292e-01	2.682292e-01
95.404750	0.783196	dec_social_accept	0.783196	16.000000	n/a	8	6.041667e-02	6.041667e-02
95.404750	0.783196	dec_accept	0.783196	16.000000	n/a	8	6.250000e-02	6.250000e-02
95.404750	0.783196	dec_social_accept_high	0.783196	16.000000	n/a	8	2.682292e-01	2.682292e-01
102.238270	1.133069	dec_social_choice	1.133069	32.000000	n/a	8	1.757812e-02	1.757812e-02
102.238270	1.133069	dec_choice	1.133069	32.000000	n/a	8	1.822917e-02	1.822917e-02
102.238270	1.133069	dec_social_accept	1.133069	32.000000	n/a	8	-1.895833e-01	-1.895833e-01
102.238270	1.133069	dec_accept	1.133069	32.000000	n/a	8	-1.875000e-01	-1.875000e-01
102.238270	1.133069	dec_social_high	1.133069	32.000000	n/a	8	1.822917e-02	1.822917e-02
102.238270	1.133069	dec_social_accept_high	1.133069	32.000000	n/a	8	1.822917e-02	1.822917e-02
109.070990	0.783976	dec_nonsocial_choice	0.783976	16.000000	n/a	8	2.675781e-01	2.675781e-01
109.070990	0.783976	dec_choice	0.783976	16.000000	n/a	8	2.669271e-01	2.669271e-01
109.070990	0.783976	dec_nonsocial_accept	0.783976	16.000000	n/a	8	6.041667e-02	6.041667e-02
109.070990	0.783976	dec_accept	0.783976	16.000000	n/a	8	5.803571e-02	5.803571e-02
109.070990	0.783976	dec_nonsocial_accept_high	0.783976	16.000000	n/a	8	6.250000e-02	6.250000e-02
115.904910	1.450243	dec_social_choice	1.450243	32.000000	n/a	0	0	-2.324219e-01
115.904910	1.450243	dec_choice	1.450243	32.000000	n/a	0	0	-2.317708e-01
115.904910	1.450243	dec_social_reject	1.450243	32.000000	n/a	0	0	-4.450758e-02
115.904910	1.450243	dec_reject	1.450243	32.000000	n/a	0	0	-3.515625e-02
115.904910	1.450243	dec_social_reject_low	1.450243	32.000000	n/a	3	-1.380208e-01	-2.317708e-01
126.771904	1.033045	dec_nonsocial_choice	1.033045	32.000000	n/a	0	0	-2.324219e-01
126.771904	1.033045	dec_choice	1.033045	32.000000	n/a	0	0	-2.330729e-01
126.771904	1.033045	dec_nonsocial_reject	1.033045	32.000000	n/a	0	0	-7.575758e-02
126.771904	1.033045	dec_reject	1.033045	32.000000	n/a	0	0	-8.455882e-02
126.771904	1.033045	dec_nonsocial_low	1.033045	32.000000	n/a	0	-2.330729e-01	-2.330729e-01
126.771904	1.033045	dec_nonsocial_reject_low	1.033045	32.000000	n/a	2	-8.455882e-02	-1.470588e-01
134.420880	0.933951	dec_social_choice	0.933951	16.000000	n/a	0	0	-2.324219e-01
134.420880	0.933951	dec_choice	0.933951	16.000000	n/a	0	0	-2.317708e-01
134.420880	0.933951	dec_social_reject	0.933951	16.000000	n/a	0	0	-7.575758e-02
134.420880	0.933951	dec_reject	0.933951	16.000000	n/a	0	0	-6.640625e-02
134.420880	0.933951	dec_social_low	0.933951	16.000000	n/a	0	-2.317708e-01	-2.317708e-01
134.420880	0.933951	dec_social_reject_low	0.933951	16.000000	n/a	1	-1.692708e-01	-2.317708e-01
142.070820	1.134102	dec_social_choice	1.134102	16.000000	n/a	0	0	-2.324219e-01
142.070820	1.134102	dec_choice	1.134102	16.000000	n/a	0	0	-2.317708e-01
142.070820	1.134102	dec_social_reject	1.134102	16.000000	n/a	0	0	1.117424e-01
142.070820	1.134102	dec_reject	1.134102	16.000000	n/a	0	0	1.210938e-01
142.070820	1.134102	dec_social_reject_low	1.134102	16.000000	n/a	4	1.822917e-02	-2.317708e-01
149.720830	0.800308	dec_nonsocial_choice	0.800308	16.000000	n/a	0	0	-2.324219e-01
149.720830	0.800308	dec_choice	0.800308	16.000000	n/a	0	0	-2.330729e-01
149.720830	0.800308	dec_nonsocial_reject	0.800308	16.000000	n/a	0	0	1.117424e-01
149.720830	0.800308	dec_reject	0.800308	16.000000	n/a	0	0	1.029412e-01
149.720830	0.800308	dec_nonsocial_reject_low	0.800308	16.000000	n/a	4	1.210938e-01	-1.289062e-01
156.554670	0.750145	dec_social_choice	0.750145	32.000000	n/a	16	2.675781e-01	2.675781e-01
156.554670	0.750145	dec_choice	0.750145	32.000000	n/a	16	2.682292e-01	2.682292e-01
156.554670	0.750145	dec_social_accept	0.750145	32.000000	n/a	16	6.041667e-02	6.041667e-02
156.554670	0.750145	dec_accept	0.750145	32.000000	n/a	16	6.250000e-02	6.250000e-02
156.554670	0.750145	dec_social_high	0.750145	32.000000	n/a	16	2.682292e-01	2.682292e-01
156.554670	0.750145	dec_social_accept_high	0.750145	32.000000	n/a	16	2.682292e-01	2.682292e-01
163.388750	0.982784	dec_social_choice	0.982784	16.000000	n/a	0	0	-2.324219e-01
163.388750	0.982784	dec_choice	0.982784	16.000000	n/a	0	0	-2.317708e-01
163.388750	0.982784	dec_social_reject	0.982784	16.000000	n/a	0	0	-1.325758e-02
163.388750	0.982784	dec_reject	0.982784	16.000000	n/a	0	0	-3.906250e-03
163.388750	0.982784	dec_social_low	0.982784	16.000000	n/a	0	-2.317708e-01	-2.317708e-01
163.388750	0.982784	dec_social_reject_low	0.982784	16.000000	n/a	2	-1.067708e-01	-2.317708e-01
172.654480	0.850313	dec_nonsocial_choice	0.850313	32.000000	n/a	3	-1.386719e-01	-1.386719e-01
172.654480	0.850313	dec_choice	0.850313	32.000000	n/a	3	-1.393229e-01	-1.393229e-01
172.654480	0.850313	dec_nonsocial_accept	0.850313	32.000000	n/a	3	-3.458333e-01	-3.458333e-01
172.654480	0.850313	dec_accept	0.850313	32.000000	n/a	3	-3.482143e-01	-3.482143e-01
172.654480	0.850313	dec_nonsocial_low	0.850313	32.000000	n/a	3	-1.393229e-01	-1.393229e-01
172.654480	0.850313	dec_nonsocial_accept_low	0.850313	32.000000	n/a	3	-3.482143e-01	-3.482143e-01
179.487700	1.000173	dec_nonsocial_choice	1.000173	16.000000	n/a	0	0	-2.324219e-01
179.487700	1.000173	dec_choice	1.000173	16.000000	n/a	0	0	-2.330729e-01
179.487700	1.000173	dec_nonsocial_reject	1.000173	16.000000	n/a	0	0	-7.575758e-02
179.487700	1.000173	dec_reject	1.000173	16.000000	n/a	0	0	-8.455882e-02
179.487700	1.000173	dec_nonsocial_reject_low	1.000173	16.000000	n/a	1	-6.640625e-02	-1.289062e-01
187.136920	0.950810	dec_social_choice	0.950810	16.000000	n/a	0	0	-2.324219e-01
187.136920	0.950810	dec_choice	0.950810	16.000000	n/a	0	0	-2.317708e-01
187.136920	0.950810	dec_social_reject	0.950810	16.000000	n/a	0	0	-7.575758e-02
187.136920	0.950810	dec_reject	0.950810	16.000000	n/a	0	0	-6.640625e-02
187.136920	0.950810	dec_social_low	0.950810	16.000000	n/a	0	-2.317708e-01	-2.317708e-01
187.136920	0.950810	dec_social_reject_low	0.950810	16.000000	n/a	1	-1.692708e-01	-2.317708e-01
193.971530	0.849724	dec_nonsocial_choice	0.849724	16.000000	n/a	0	0	-2.324219e-01
193.971530	0.849724	dec_choice	0.849724	16.000000	n/a	0	0	-2.330729e-01
193.971530	0.849724	dec_nonsocial_reject	0.849724	16.000000	n/a	0	0	-1.325758e-02
193.971530	0.849724	dec_reject	0.849724	16.000000	n/a	0	0	-2.205882e-02
193.971530	0.849724	dec_nonsocial_low	0.849724	16.000000	n/a	0	-2.330729e-01	-2.330729e-01
193.971530	0.849724	dec_nonsocial_reject_low	0.849724	16.000000	n/a	2	-2.205882e-02	-1.470588e-01
200.805480	0.982298	dec_nonsocial_choice	0.982298	16.000000	n/a	0	0	-2.324219e-01
200.805480	0.982298	dec_choice	0.982298	16.000000	n/a	0	0	-2.330729e-01
200.805480	0.982298	dec_nonsocial_reject	0.982298	16.000000	n/a	0	0	-1.325758e-02
200.805480	0.982298	dec_reject	0.982298	16.000000	n/a	0	0	-2.205882e-02
200.805480	0.982298	dec_nonsocial_reject_low	0.982298	16.000000	n/a	2	-3.906250e-03	-1.289062e-01
208.454730	0.865677	dec_social_choice	0.865677	16.000000	n/a	0	0	-2.324219e-01
208.454730	0.865677	dec_choice	0.865677	16.000000	n/a	0	0	-2.317708e-01
208.454730	0.865677	dec_social_reject	0.865677	16.000000	n/a	0	0	-7.575758e-02
208.454730	0.865677	dec_reject	0.865677	16.000000	n/a	0	0	-6.640625e-02
208.454730	0.865677	dec_social_reject_low	0.865677	16.000000	n/a	1	-1.692708e-01	-2.317708e-01
219.321670	0.882346	dec_nonsocial_choice	0.882346	32.000000	n/a	0	0	-2.324219e-01
219.321670	0.882346	dec_choice	0.882346	32.000000	n/a	0	0	-2.330729e-01
219.321670	0.882346	dec_nonsocial_reject	0.882346	32.000000	n/a	0	0	-7.575758e-02
219.321670	0.882346	dec_reject	0.882346	32.000000	n/a	0	0	-8.455882e-02
219.321670	0.882346	dec_nonsocial_low	0.882346	32.000000	n/a	0	-2.330729e-01	-2.330729e-01
219.321670	0.882346	dec_nonsocial_reject_low	0.882346	32.000000	n/a	2	-8.455882e-02	-1.470588e-01
228.586610	0.900833	dec_nonsocial_choice	0.900833	16.000000	n/a	0	0	-2.324219e-01
228.586610	0.900833	dec_choice	0.900833	16.000000	n/a	0	0	-2.330729e-01
228.586610	0.900833	dec_nonsocial_reject	0.900833	16.000000	n/a	0	0	-1.325758e-02
228.586610	0.900833	dec_reject	0.900833	16.000000	n/a	0	0	-2.205882e-02
228.586610	0.900833	dec_nonsocial_reject_low	0.900833	16.000000	n/a	2	-3.906250e-03	-1.289062e-01
235.420680	0.833685	dec_social_choice	0.833685	32.000000	n/a	16	2.675781e-01	2.675781e-01
235.420680	0.833685	dec_choice	0.833685	32.000000	n/a	16	2.682292e-01	2.682292e-01
235.420680	0.833685	dec_social_accept	0.833685	32.000000	n/a	16	6.041667e-02	6.041667e-02
235.420680	0.833685	dec_accept	0.833685	32.000000	n/a	16	6.250000e-02	6.250000e-02
235.420680	0.833685	dec_social_high	0.833685	32.000000	n/a	16	2.682292e-01	2.682292e-01
235.420680	0.833685	dec_social_accept_high	0.833685	32.000000	n/a	16	2.682292e-01	2.682292e-01
242.254360	0.783483	dec_nonsocial_choice	0.783483	32.000000	n/a	16	2.675781e-01	2.675781e-01
242.254360	0.783483	dec_choice	0.783483	32.000000	n/a	16	2.669271e-01	2.669271e-01
242.254360	0.783483	dec_nonsocial_accept	0.783483	32.000000	n/a	16	6.041667e-02	6.041667e-02
242.254360	0.783483	dec_accept	0.783483	32.000000	n/a	16	5.803571e-02	5.803571e-02
242.254360	0.783483	dec_nonsocial_high	0.783483	32.000000	n/a	16	2.669271e-01	2.669271e-01
242.254360	0.783483	dec_nonsocial_accept_high	0.783483	32.000000	n/a	16	5.803571e-02	5.803571e-02
249.087630	0.949763	dec_social_choice	0.949763	16.000000	n/a	0	0	-2.324219e-01
249.087630	0.949763	dec_choice	0.949763	16.000000	n/a	0	0	-2.317708e-01
249.087630	0.949763	dec_social_reject	0.949763	16.000000	n/a	0	0	-1.325758e-02
249.087630	0.949763	dec_reject	0.949763	16.000000	n/a	0	0	-3.906250e-03
249.087630	0.949763	dec_social_low	0.949763	16.000000	n/a	0	-2.317708e-01	-2.317708e-01
249.087630	0.949763	dec_social_reject_low	0.949763	16.000000	n/a	2	-1.067708e-01	-2.317708e-01
256.737460	1.333165	dec_nonsocial_choice	1.333165	16.000000	n/a	0	0	-2.324219e-01
256.737460	1.333165	dec_choice	1.333165	16.000000	n/a	0	0	-2.330729e-01
256.737460	1.333165	dec_nonsocial_reject	1.333165	16.000000	n/a	0	0	1.117424e-01
256.737460	1.333165	dec_reject	1.333165	16.000000	n/a	0	0	1.029412e-01
256.737460	1.333165	dec_nonsocial_low	1.333165	16.000000	n/a	0	-2.330729e-01	-2.330729e-01
256.737460	1.333165	dec_nonsocial_reject_low	1.333165	16.000000	n/a	4	1.029412e-01	-1.470588e-01
264.388060	0.865980	dec_nonsocial_choice	0.865980	16.000000	n/a	0	0	-2.324219e-01
264.388060	0.865980	dec_choice	0.865980	16.000000	n/a	0	0	-2.330729e-01
264.388060	0.865980	dec_nonsocial_reject	0.865980	16.000000	n/a	0	0	1.117424e-01
264.388060	0.865980	dec_reject	0.865980	16.000000	n/a	0	0	1.029412e-01
264.388060	0.865980	dec_nonsocial_low	0.865980	16.000000	n/a	0	-2.330729e-01	-2.330729e-01
264.388060	0.865980	dec_nonsocial_reject_low	0.865980	16.000000	n/a	4	1.029412e-01	-1.470588e-01
271.221280	0.916095	dec_social_choice	0.916095	32.000000	n/a	16	2.675781e-01	2.675781e-01
271.221280	0.916095	dec_choice	0.916095	32.000000	n/a	16	2.682292e-01	2.682292e-01
271.221280	0.916095	dec_social_accept	0.916095	32.000000	n/a	16	6.041667e-02	6.041667e-02
271.221280	0.916095	dec_accept	0.916095	32.000000	n/a	16	6.250000e-02	6.250000e-02
271.221280	0.916095	dec_social_high	0.916095	32.000000	n/a	16	2.682292e-01	2.682292e-01
271.221280	0.916095	dec_social_accept_high	0.916095	32.000000	n/a	16	2.682292e-01	2.682292e-01
278.870730	1.166625	dec_nonsocial_choice	1.166625	32.000000	n/a	0	0	-2.324219e-01
278.870730	1.166625	dec_choice	1.166625	32.000000	n/a	0	0	-2.330729e-01
278.870730	1.166625	dec_nonsocial_reject	1.166625	32.000000	n/a	0	0	1.117424e-01
278.870730	1.166625	dec_reject	1.166625	32.000000	n/a	0	0	1.029412e-01
278.870730	1.166625	dec_nonsocial_low	1.166625	32.000000	n/a	0	-2.330729e-01	-2.330729e-01
278.870730	1.166625	dec_nonsocial_reject_low	1.166625	32.000000	n/a	8	1.029412e-01	-1.470588e-01
285.704560	0.849176	dec_nonsocial_choice	0.849176	32.000000	n/a	0	0	-2.324219e-01
285.704560	0.849176	dec_choice	0.849176	32.000000	n/a	0	0	-2.330729e-01
285.704560	0.849176	dec_nonsocial_reject	0.849176	32.000000	n/a	0	0	-7.575758e-02
285.704560	0.849176	dec_reject	0.849176	32.000000	n/a	0	0	-8.455882e-02
285.704560	0.849176	dec_nonsocial_low	0.849176	32.000000	n/a	0	-2.330729e-01	-2.330729e-01
285.704560	0.849176	dec_nonsocial_reject_low	0.849176	32.000000	n/a	2	-8.455882e-02	-1.470588e-01
292.537600	1.083145	dec_social_choice	1.083145	32.000000	n/a	0	0	-2.324219e-01
292.537600	1.083145	dec_choice	1.083145	32.000000	n/a	0	0	-2.317708e-01
292.537600	1.083145	dec_social_reject	1.083145	32.000000	n/a	0	0	-4.450758e-02
292.537600	1.083145	dec_reject	1.083145	32.000000	n/a	0	0	-3.515625e-02
292.537600	1.083145	dec_social_low	1.083145	32.000000	n/a	0	-2.317708e-01	-2.317708e-01
292.537600	1.083145	dec_social_reject_low	1.083145	32.000000	n/a	3	-1.380208e-01	-2.317708e-01
299.370570	0.950241	dec_nonsocial_choice	0.950241	16.000000	n/a	8	2.675781e-01	2.675781e-01
299.370570	0.950241	dec_choice	0.950241	16.000000	n/a	8	2.669271e-01	2.669271e-01
299.370570	0.950241	dec_nonsocial_accept	0.950241	16.000000	n/a	8	6.041667e-02	6.041667e-02
299.370570	0.950241	dec_accept	0.950241	16.000000	n/a	8	5.803571e-02	5.803571e-02
299.370570	0.950241	dec_nonsocial_high	0.950241	16.000000	n/a	8	2.669271e-01	2.669271e-01
299.370570	0.950241	dec_nonsocial_accept_high	0.950241	16.000000	n/a	8	5.803571e-02	5.803571e-02
307.020970	0.815845	dec_social_choice	0.815845	32.000000	n/a	0	0	-2.324219e-01
307.020970	0.815845	dec_choice	0.815845	32.000000	n/a	0	0	-2.317708e-01
307.020970	0.815845	dec_social_reject	0.815845	32.000000	n/a	0	0	-7.575758e-02
307.020970	0.815845	dec_reject	0.815845	32.000000	n/a	0	0	-6.640625e-02
307.020970	0.815845	dec_social_low	0.815845	32.000000	n/a	0	-2.317708e-01	-2.317708e-01
307.020970	0.815845	dec_social_reject_low	0.815845	32.000000	n/a	2	-1.692708e-01	-2.317708e-01
314.669800	0.900836	dec_nonsocial_choice	0.900836	16.000000	n/a	0	0	-2.324219e-01
314.669800	0.900836	dec_choice	0.900836	16.000000	n/a	0	0	-2.330729e-01
314.669800	0.900836	dec_nonsocial_reject	0.900836	16.000000	n/a	0	0	-1.325758e-02
314.669800	0.900836	dec_reject	0.900836	16.000000	n/a	0	0	-2.205882e-02
314.669800	0.900836	dec_nonsocial_reject_low	0.900836	16.000000	n/a	2	-3.906250e-03	-1.289062e-01
322.321350	0.765815	dec_nonsocial_choice	0.765815	16.000000	n/a	0	0	-2.324219e-01
322.321350	0.765815	dec_choice	0.765815	16.000000	n/a	0	0	-2.330729e-01
322.321350	0.765815	dec_nonsocial_reject	0.765815	16.000000	n/a	0	0	-1.325758e-02
322.321350	0.765815	dec_reject	0.765815	16.000000	n/a	0	0	-2.205882e-02
322.321350	0.765815	dec_nonsocial_reject_low	0.765815	16.000000	n/a	2	-3.906250e-03	-1.289062e-01
329.154720	0.732804	dec_nonsocial_choice	0.732804	32.000000	n/a	16	2.675781e-01	2.675781e-01
329.154720	0.732804	dec_choice	0.732804	32.000000	n/a	16	2.669271e-01	2.669271e-01
329.154720	0.732804	dec_nonsocial_accept	0.732804	32.000000	n/a	16	6.041667e-02	6.041667e-02
329.154720	0.732804	dec_accept	0.732804	32.000000	n/a	16	5.803571e-02	5.803571e-02
329.154720	0.732804	dec_nonsocial_high	0.732804	32.000000	n/a	16	2.669271e-01	2.669271e-01
329.154720	0.732804	dec_nonsocial_accept_high	0.732804	32.000000	n/a	16	5.803571e-02	5.803571e-02
338.420040	1.033831	dec_nonsocial_choice	1.033831	16.000000	n/a	8	2.675781e-01	2.675781e-01
338.420040	1.033831	dec_choice	1.033831	16.000000	n/a	8	2.669271e-01	2.669271e-01
338.420040	1.033831	dec_nonsocial_accept	1.033831	16.000000	n/a	8	6.041667e-02	6.041667e-02
338.420040	1.033831	dec_accept	1.033831	16.000000	n/a	8	5.803571e-02	5.803571e-02
338.420040	1.033831	dec_nonsocial_high	1.033831	16.000000	n/a	8	2.669271e-01	2.669271e-01
338.420040	1.033831	dec_nonsocial_accept_high	1.033831	16.000000	n/a	8	5.803571e-02	5.803571e-02
345.254430	1.065870	dec_nonsocial_choice	1.065870	32.000000	n/a	16	2.675781e-01	2.675781e-01
345.254430	1.065870	dec_choice	1.065870	32.000000	n/a	16	2.669271e-01	2.669271e-01
345.254430	1.065870	dec_nonsocial_accept	1.065870	32.000000	n/a	16	6.041667e-02	6.041667e-02
345.254430	1.065870	dec_accept	1.065870	32.000000	n/a	16	5.803571e-02	5.803571e-02
345.254430	1.065870	dec_nonsocial_high	1.065870	32.000000	n/a	16	2.669271e-01	2.669271e-01
345.254430	1.065870	dec_nonsocial_accept_high	1.065870	32.000000	n/a	16	5.803571e-02	5.803571e-02
352.087800	0.882723	dec_social_choice	0.882723	16.000000	n/a	0	0	-2.324219e-01
352.087800	0.882723	dec_choice	0.882723	16.000000	n/a	0	0	-2.317708e-01
352.087800	0.882723	dec_social_reject	0.882723	16.000000	n/a	0	0	1.117424e-01
352.087800	0.882723	dec_reject	0.882723	16.000000	n/a	0	0	1.210938e-01
352.087800	0.882723	dec_social_low	0.882723	16.000000	n/a	0	-2.317708e-01	-2.317708e-01
352.087800	0.882723	dec_social_reject_low	0.882723	16.000000	n/a	4	1.822917e-02	-2.317708e-01
361.336580	0.783931	dec_social_choice	0.783931	16.000000	n/a	0	0	-2.324219e-01
361.336580	0.783931	dec_choice	0.783931	16.000000	n/a	0	0	-2.317708e-01
361.336580	0.783931	dec_social_reject	0.783931	16.000000	n/a	0	0	1.117424e-01
361.336580	0.783931	dec_reject	0.783931	16.000000	n/a	0	0	1.210938e-01
361.336580	0.783931	dec_social_low	0.783931	16.000000	n/a	0	-2.317708e-01	-2.317708e-01
361.336580	0.783931	dec_social_reject_low	0.783931	16.000000	n/a	4	1.822917e-02	-2.317708e-01
370.586120	1.000854	dec_social_choice	1.000854	32.000000	n/a	0	0	-2.324219e-01
370.586120	1.000854	dec_choice	1.000854	32.000000	n/a	0	0	-2.317708e-01
370.586120	1.000854	dec_social_reject	1.000854	32.000000	n/a	0	0	-7.575758e-02
370.586120	1.000854	dec_reject	1.000854	32.000000	n/a	0	0	-6.640625e-02
370.586120	1.000854	dec_social_reject_low	1.000854	32.000000	n/a	2	-1.692708e-01	-2.317708e-01
