onset	duration	trial_type	response_time	Endowment	Decision	Offer
4.509468	2	cue_nonsocial	n/a	32	n/a	n/a
4.509468	2	cue_nonsocial_high	n/a	32	n/a	n/a
6.515727	2.466474	dec_nonsocial_high	2.466474	32	n/a	16
6.515727	2.466474	dec_nonsocial_high_accept	2.466474	32	accept	16
11.342662	2	cue_nonsocial	n/a	32	n/a	n/a
11.342662	2	cue_nonsocial_high	n/a	32	n/a	n/a
13.349825	1.315579	dec_nonsocial_high	1.315579	32	n/a	8
13.349825	1.315579	dec_nonsocial_high_accept	1.315579	32	accept	8
18.992752	2	cue_nonsocial	n/a	16	n/a	n/a
18.992752	2	cue_nonsocial_low	n/a	16	n/a	n/a
21.000378	1.148644	dec_nonsocial_low	1.148644	16	n/a	2
21.000378	1.148644	dec_nonsocial_low_reject	1.148644	16	reject	2
25.906801	2	cue_social	n/a	16	n/a	n/a
25.906801	2	cue_social_low	n/a	16	n/a	n/a
27.832514	1.150384	dec_social_low	1.150384	16	n/a	8
27.832514	1.150384	dec_social_low_accept	1.150384	16	accept	8
32.727478	2	cue_social	n/a	16	n/a	n/a
32.727478	2	cue_social_low	n/a	16	n/a	n/a
34.666267	1.749339	dec_social_low	1.749339	16	n/a	8
34.666267	1.749339	dec_social_low_accept	1.749339	16	accept	8
41.909270	2	cue_nonsocial	n/a	32	n/a	n/a
41.909270	2	cue_nonsocial_high	n/a	32	n/a	n/a
43.916860	1.132443	dec_nonsocial_high	1.132443	32	n/a	8
43.916860	1.132443	dec_nonsocial_high_accept	1.132443	32	accept	8
49.559513	2	cue_nonsocial	n/a	32	n/a	n/a
49.559513	2	cue_nonsocial_high	n/a	32	n/a	n/a
51.566055	1.215924	dec_nonsocial_high	1.215924	32	n/a	16
51.566055	1.215924	dec_nonsocial_high_reject	1.215924	32	reject	16
56.399930	2	cue_nonsocial	n/a	16	n/a	n/a
56.399930	2	cue_nonsocial_low	n/a	16	n/a	n/a
58.399315	1.133247	dec_nonsocial_low	1.133247	16	n/a	2
58.399315	1.133247	dec_nonsocial_low_accept	1.133247	16	accept	2
65.699190	2	cue_social	n/a	16	n/a	n/a
65.699190	2	cue_social_low	n/a	16	n/a	n/a
67.649950	1.799070	dec_social_low	1.799070	16	n/a	2
67.649950	1.799070	dec_social_low_accept	1.799070	16	accept	2
73.355150	2	cue_social	n/a	32	n/a	n/a
73.355150	2	cue_social_high	n/a	32	n/a	n/a
75.299780	1.182638	dec_social_high	1.182638	32	n/a	8
75.299780	1.182638	dec_social_high_accept	1.182638	32	accept	8
82.608320	2	cue_social	n/a	16	n/a	n/a
82.608320	2	cue_social_low	n/a	16	n/a	n/a
84.549150	1.315959	dec_social_low	1.315959	16	n/a	2
84.549150	1.315959	dec_social_low_accept	1.315959	16	accept	2
89.375920	2	cue_nonsocial	n/a	32	n/a	n/a
89.375920	2	cue_nonsocial_high	n/a	32	n/a	n/a
91.381996	1.117085	dec_nonsocial_high	1.117085	32	n/a	8
91.381996	1.117085	dec_nonsocial_high_accept	1.117085	32	accept	8
96.209120	2	cue_nonsocial	n/a	32	n/a	n/a
96.209120	2	cue_nonsocial_high	n/a	32	n/a	n/a
98.215970	1.449833	dec_nonsocial_high	1.449833	32	n/a	3
98.215970	1.449833	dec_nonsocial_high_reject	1.449833	32	reject	3
105.475830	2	cue_nonsocial	n/a	32	n/a	n/a
105.475830	2	cue_nonsocial_high	n/a	32	n/a	n/a
107.482550	1.183150	dec_nonsocial_high	1.183150	32	n/a	8
107.482550	1.183150	dec_nonsocial_high_accept	1.183150	32	accept	8
112.309300	2	cue_nonsocial	n/a	32	n/a	n/a
112.309300	2	cue_nonsocial_high	n/a	32	n/a	n/a
114.316070	1.382914	dec_nonsocial_high	1.382914	32	n/a	2
114.316070	1.382914	dec_nonsocial_high_reject	1.382914	32	reject	2
121.624600	2	cue_social	n/a	16	n/a	n/a
121.624600	2	cue_social_low	n/a	16	n/a	n/a
123.565920	1.365956	dec_social_low	1.365956	16	n/a	8
123.565920	1.365956	dec_social_low_accept	1.365956	16	accept	8
128.392580	2	cue_nonsocial	n/a	16	n/a	n/a
128.392580	2	cue_nonsocial_low	n/a	16	n/a	n/a
130.399030	0.899835	dec_nonsocial_low	0.899835	16	n/a	8
130.399030	0.899835	dec_nonsocial_low_accept	0.899835	16	accept	8
139.341810	2	cue_social	n/a	16	n/a	n/a
139.341810	2	cue_social_low	n/a	16	n/a	n/a
141.265170	1.600509	dec_social_low	1.600509	16	n/a	2
141.265170	1.600509	dec_social_low_accept	1.600509	16	accept	2
146.151030	2	cue_social	n/a	32	n/a	n/a
146.151030	2	cue_social_high	n/a	32	n/a	n/a
148.099200	1.166066	dec_social_high	1.166066	32	n/a	8
148.099200	1.166066	dec_social_high_accept	1.166066	32	accept	8
152.925690	2	cue_nonsocial	n/a	32	n/a	n/a
152.925690	2	cue_nonsocial_high	n/a	32	n/a	n/a
154.932050	1.933611	dec_nonsocial_high	1.933611	32	n/a	8
154.932050	1.933611	dec_nonsocial_high_accept	1.933611	32	accept	8
160.628710	2	cue_social	n/a	16	n/a	n/a
160.628710	2	cue_social_low	n/a	16	n/a	n/a
162.581470	2.134079	dec_social_low	2.134079	16	n/a	1
162.581470	2.134079	dec_social_low_accept	2.134079	16	accept	1
168.225710	2	cue_nonsocial	n/a	16	n/a	n/a
168.225710	2	cue_nonsocial_low	n/a	16	n/a	n/a
170.232730	2.365711	dec_nonsocial_low	2.365711	16	n/a	2
170.232730	2.365711	dec_nonsocial_low_reject	2.365711	16	reject	2
175.132190	2	cue_social	n/a	32	n/a	n/a
175.132190	2	cue_social_high	n/a	32	n/a	n/a
177.065100	1.650791	dec_social_high	1.650791	32	n/a	2
177.065100	1.650791	dec_social_high_reject	1.650791	32	reject	2
181.950210	2	cue_social	n/a	32	n/a	n/a
181.950210	2	cue_social_high	n/a	32	n/a	n/a
183.898040	1.434119	dec_social_high	1.434119	32	n/a	2
183.898040	1.434119	dec_social_high_reject	1.434119	32	reject	2
188.778240	2	cue_social	n/a	32	n/a	n/a
188.778240	2	cue_social_high	n/a	32	n/a	n/a
190.732590	1.732995	dec_social_high	1.732995	32	n/a	16
190.732590	1.732995	dec_social_high_accept	1.732995	32	accept	16
199.592680	2	cue_nonsocial	n/a	32	n/a	n/a
199.592680	2	cue_nonsocial_high	n/a	32	n/a	n/a
201.598850	2.116263	dec_nonsocial_high	2.116263	32	n/a	16
201.598850	2.116263	dec_nonsocial_high_accept	2.116263	32	accept	16
207.312420	2	cue_social	n/a	32	n/a	n/a
207.312420	2	cue_social_high	n/a	32	n/a	n/a
209.247820	1.950732	dec_social_high	1.950732	32	n/a	3
209.247820	1.950732	dec_social_high_reject	1.950732	32	reject	3
214.892490	2	cue_nonsocial	n/a	32	n/a	n/a
214.892490	2	cue_nonsocial_high	n/a	32	n/a	n/a
216.899830	1.399117	dec_nonsocial_high	1.399117	32	n/a	2
216.899830	1.399117	dec_nonsocial_high_reject	1.399117	32	reject	2
221.788200	2	cue_social	n/a	16	n/a	n/a
221.788200	2	cue_social_low	n/a	16	n/a	n/a
223.733050	1.698914	dec_social_low	1.698914	16	n/a	2
223.733050	1.698914	dec_social_low_reject	1.698914	16	reject	2
228.613040	2	cue_social	n/a	16	n/a	n/a
228.613040	2	cue_social_low	n/a	16	n/a	n/a
230.565810	2.099604	dec_social_low	2.099604	16	n/a	8
230.565810	2.099604	dec_social_low_reject	2.099604	16	reject	8
235.392140	2	cue_nonsocial	n/a	16	n/a	n/a
235.392140	2	cue_nonsocial_low	n/a	16	n/a	n/a
237.397930	1.100774	dec_nonsocial_low	1.100774	16	n/a	4
237.397930	1.100774	dec_nonsocial_low_accept	1.100774	16	accept	4
242.280580	2	cue_social	n/a	32	n/a	n/a
242.280580	2	cue_social_high	n/a	32	n/a	n/a
244.231950	1.083551	dec_social_high	1.083551	32	n/a	8
244.231950	1.083551	dec_social_high_accept	1.083551	32	accept	8
249.924030	2	cue_social	n/a	32	n/a	n/a
249.924030	2	cue_social_high	n/a	32	n/a	n/a
251.882950	2.165153	dec_social_high	2.165153	32	n/a	2
251.882950	2.165153	dec_social_high_accept	2.165153	32	accept	2
256.769700	2	cue_social	n/a	32	n/a	n/a
256.769700	2	cue_social_high	n/a	32	n/a	n/a
258.716460	1.715042	dec_social_high	1.715042	32	n/a	8
258.716460	1.715042	dec_social_high_accept	1.715042	32	accept	8
263.542200	2	cue_nonsocial	n/a	32	n/a	n/a
263.542200	2	cue_nonsocial_high	n/a	32	n/a	n/a
265.547970	1.983754	dec_nonsocial_high	1.983754	32	n/a	2
265.547970	1.983754	dec_nonsocial_high_accept	1.983754	32	accept	2
272.828100	2	cue_social	n/a	16	n/a	n/a
272.828100	2	cue_social_low	n/a	16	n/a	n/a
274.798920	1.249682	dec_social_low	1.249682	16	n/a	4
274.798920	1.249682	dec_social_low_accept	1.249682	16	accept	4
279.625640	2	cue_nonsocial	n/a	16	n/a	n/a
279.625640	2	cue_nonsocial_low	n/a	16	n/a	n/a
281.631930	1.934011	dec_nonsocial_low	1.934011	16	n/a	8
281.631930	1.934011	dec_nonsocial_low_accept	1.934011	16	accept	8
286.510900	2	cue_social	n/a	32	n/a	n/a
286.510900	2	cue_social_high	n/a	32	n/a	n/a
288.465000	1.383650	dec_social_high	1.383650	32	n/a	2
288.465000	1.383650	dec_social_high_reject	1.383650	32	reject	2
294.123540	2	cue_social	n/a	32	n/a	n/a
294.123540	2	cue_social_high	n/a	32	n/a	n/a
296.115660	1.315740	dec_social_high	1.315740	32	n/a	3
296.115660	1.315740	dec_social_high_reject	1.315740	32	reject	3
306.591950	2	cue_nonsocial	n/a	16	n/a	n/a
306.591950	2	cue_nonsocial_low	n/a	16	n/a	n/a
308.599300	1.532457	dec_nonsocial_low	1.532457	16	n/a	8
308.599300	1.532457	dec_nonsocial_low_accept	1.532457	16	accept	8
313.424930	2	cue_nonsocial	n/a	16	n/a	n/a
313.424930	2	cue_nonsocial_low	n/a	16	n/a	n/a
315.432000	1.066081	dec_nonsocial_low	1.066081	16	n/a	2
315.432000	1.066081	dec_nonsocial_low_reject	1.066081	16	reject	2
320.315460	2	cue_social	n/a	16	n/a	n/a
320.315460	2	cue_social_low	n/a	16	n/a	n/a
322.264830	1.200378	dec_social_low	1.200378	16	n/a	8
322.264830	1.200378	dec_social_low_accept	1.200378	16	accept	8
327.892060	2	cue_nonsocial	n/a	16	n/a	n/a
327.892060	2	cue_nonsocial_low	n/a	16	n/a	n/a
329.898160	1.216505	dec_nonsocial_low	1.216505	16	n/a	1
329.898160	1.216505	dec_nonsocial_low_reject	1.216505	16	reject	1
334.725200	2	cue_nonsocial	n/a	32	n/a	n/a
334.725200	2	cue_nonsocial_high	n/a	32	n/a	n/a
336.731230	1.333871	dec_nonsocial_high	1.333871	32	n/a	2
336.731230	1.333871	dec_nonsocial_high_reject	1.333871	32	reject	2
343.975460	2	cue_nonsocial	n/a	32	n/a	n/a
343.975460	2	cue_nonsocial_high	n/a	32	n/a	n/a
345.981780	1.099773	dec_nonsocial_high	1.099773	32	n/a	3
345.981780	1.099773	dec_nonsocial_high_reject	1.099773	32	reject	3
354.841700	2	cue_nonsocial	n/a	32	n/a	n/a
354.841700	2	cue_nonsocial_high	n/a	32	n/a	n/a
356.848970	1.215725	dec_nonsocial_high	1.215725	32	n/a	2
356.848970	1.215725	dec_nonsocial_high_reject	1.215725	32	reject	2
362.546570	2	cue_social	n/a	16	n/a	n/a
362.546570	2	cue_social_low	n/a	16	n/a	n/a
364.498350	1.233399	dec_social_low	1.233399	16	n/a	4
364.498350	1.233399	dec_social_low_accept	1.233399	16	accept	4
370.176360	2	cue_social	n/a	16	n/a	n/a
370.176360	2	cue_social_low	n/a	16	n/a	n/a
372.148800	1.499792	dec_social_low	1.499792	16	n/a	1
372.148800	1.499792	dec_social_low_reject	1.499792	16	reject	1
