onset	duration	trial_type	response_time	Endowment	Endowment_pmod	Decision	Decision_pmod	Offer_pmod
4.509468	2	cue_nonsocial	n/a	32	6	n/a	n/a	n/a
4.509468	2	cue_nonsocial_high	n/a	32	9	n/a	n/a	n/a
11.342662	2	cue_nonsocial	n/a	32	6	n/a	n/a	n/a
11.342662	2	cue_nonsocial_high	n/a	32	9	n/a	n/a	n/a
18.992752	2	cue_nonsocial	n/a	16	-10	n/a	n/a	n/a
18.992752	2	cue_nonsocial_low	n/a	16	-7	n/a	n/a	n/a
25.906801	2	cue_social	n/a	16	-7	n/a	n/a	n/a
25.906801	2	cue_social_low	n/a	16	-10	n/a	n/a	n/a
32.727478	2	cue_social	n/a	16	-7	n/a	n/a	n/a
32.727478	2	cue_social_low	n/a	16	-10	n/a	n/a	n/a
41.909270	2	cue_nonsocial	n/a	32	6	n/a	n/a	n/a
41.909270	2	cue_nonsocial_high	n/a	32	9	n/a	n/a	n/a
49.559513	2	cue_nonsocial	n/a	32	6	n/a	n/a	n/a
49.559513	2	cue_nonsocial_high	n/a	32	9	n/a	n/a	n/a
56.399930	2	cue_nonsocial	n/a	16	-10	n/a	n/a	n/a
56.399930	2	cue_nonsocial_low	n/a	16	-7	n/a	n/a	n/a
65.699190	2	cue_social	n/a	16	-7	n/a	n/a	n/a
65.699190	2	cue_social_low	n/a	16	-10	n/a	n/a	n/a
73.355150	2	cue_social	n/a	32	9	n/a	n/a	n/a
73.355150	2	cue_social_high	n/a	32	6	n/a	n/a	n/a
82.608320	2	cue_social	n/a	16	-7	n/a	n/a	n/a
82.608320	2	cue_social_low	n/a	16	-10	n/a	n/a	n/a
89.375920	2	cue_nonsocial	n/a	32	6	n/a	n/a	n/a
89.375920	2	cue_nonsocial_high	n/a	32	9	n/a	n/a	n/a
96.209120	2	cue_nonsocial	n/a	32	6	n/a	n/a	n/a
96.209120	2	cue_nonsocial_high	n/a	32	9	n/a	n/a	n/a
105.475830	2	cue_nonsocial	n/a	32	6	n/a	n/a	n/a
105.475830	2	cue_nonsocial_high	n/a	32	9	n/a	n/a	n/a
112.309300	2	cue_nonsocial	n/a	32	6	n/a	n/a	n/a
112.309300	2	cue_nonsocial_high	n/a	32	9	n/a	n/a	n/a
121.624600	2	cue_social	n/a	16	-7	n/a	n/a	n/a
121.624600	2	cue_social_low	n/a	16	-10	n/a	n/a	n/a
128.392580	2	cue_nonsocial	n/a	16	-10	n/a	n/a	n/a
128.392580	2	cue_nonsocial_low	n/a	16	-7	n/a	n/a	n/a
139.341810	2	cue_social	n/a	16	-7	n/a	n/a	n/a
139.341810	2	cue_social_low	n/a	16	-10	n/a	n/a	n/a
146.151030	2	cue_social	n/a	32	9	n/a	n/a	n/a
146.151030	2	cue_social_high	n/a	32	6	n/a	n/a	n/a
152.925690	2	cue_nonsocial	n/a	32	6	n/a	n/a	n/a
152.925690	2	cue_nonsocial_high	n/a	32	9	n/a	n/a	n/a
160.628710	2	cue_social	n/a	16	-7	n/a	n/a	n/a
160.628710	2	cue_social_low	n/a	16	-10	n/a	n/a	n/a
168.225710	2	cue_nonsocial	n/a	16	-10	n/a	n/a	n/a
168.225710	2	cue_nonsocial_low	n/a	16	-7	n/a	n/a	n/a
175.132190	2	cue_social	n/a	32	9	n/a	n/a	n/a
175.132190	2	cue_social_high	n/a	32	6	n/a	n/a	n/a
181.950210	2	cue_social	n/a	32	9	n/a	n/a	n/a
181.950210	2	cue_social_high	n/a	32	6	n/a	n/a	n/a
188.778240	2	cue_social	n/a	32	9	n/a	n/a	n/a
188.778240	2	cue_social_high	n/a	32	6	n/a	n/a	n/a
199.592680	2	cue_nonsocial	n/a	32	6	n/a	n/a	n/a
199.592680	2	cue_nonsocial_high	n/a	32	9	n/a	n/a	n/a
207.312420	2	cue_social	n/a	32	9	n/a	n/a	n/a
207.312420	2	cue_social_high	n/a	32	6	n/a	n/a	n/a
214.892490	2	cue_nonsocial	n/a	32	6	n/a	n/a	n/a
214.892490	2	cue_nonsocial_high	n/a	32	9	n/a	n/a	n/a
221.788200	2	cue_social	n/a	16	-7	n/a	n/a	n/a
221.788200	2	cue_social_low	n/a	16	-10	n/a	n/a	n/a
228.613040	2	cue_social	n/a	16	-7	n/a	n/a	n/a
228.613040	2	cue_social_low	n/a	16	-10	n/a	n/a	n/a
235.392140	2	cue_nonsocial	n/a	16	-10	n/a	n/a	n/a
235.392140	2	cue_nonsocial_low	n/a	16	-7	n/a	n/a	n/a
242.280580	2	cue_social	n/a	32	9	n/a	n/a	n/a
242.280580	2	cue_social_high	n/a	32	6	n/a	n/a	n/a
249.924030	2	cue_social	n/a	32	9	n/a	n/a	n/a
249.924030	2	cue_social_high	n/a	32	6	n/a	n/a	n/a
256.769700	2	cue_social	n/a	32	9	n/a	n/a	n/a
256.769700	2	cue_social_high	n/a	32	6	n/a	n/a	n/a
263.542200	2	cue_nonsocial	n/a	32	6	n/a	n/a	n/a
263.542200	2	cue_nonsocial_high	n/a	32	9	n/a	n/a	n/a
272.828100	2	cue_social	n/a	16	-7	n/a	n/a	n/a
272.828100	2	cue_social_low	n/a	16	-10	n/a	n/a	n/a
279.625640	2	cue_nonsocial	n/a	16	-10	n/a	n/a	n/a
279.625640	2	cue_nonsocial_low	n/a	16	-7	n/a	n/a	n/a
286.510900	2	cue_social	n/a	32	9	n/a	n/a	n/a
286.510900	2	cue_social_high	n/a	32	6	n/a	n/a	n/a
294.123540	2	cue_social	n/a	32	9	n/a	n/a	n/a
294.123540	2	cue_social_high	n/a	32	6	n/a	n/a	n/a
306.591950	2	cue_nonsocial	n/a	16	-10	n/a	n/a	n/a
306.591950	2	cue_nonsocial_low	n/a	16	-7	n/a	n/a	n/a
313.424930	2	cue_nonsocial	n/a	16	-10	n/a	n/a	n/a
313.424930	2	cue_nonsocial_low	n/a	16	-7	n/a	n/a	n/a
320.315460	2	cue_social	n/a	16	-7	n/a	n/a	n/a
320.315460	2	cue_social_low	n/a	16	-10	n/a	n/a	n/a
327.892060	2	cue_nonsocial	n/a	16	-10	n/a	n/a	n/a
327.892060	2	cue_nonsocial_low	n/a	16	-7	n/a	n/a	n/a
334.725200	2	cue_nonsocial	n/a	32	6	n/a	n/a	n/a
334.725200	2	cue_nonsocial_high	n/a	32	9	n/a	n/a	n/a
343.975460	2	cue_nonsocial	n/a	32	6	n/a	n/a	n/a
343.975460	2	cue_nonsocial_high	n/a	32	9	n/a	n/a	n/a
354.841700	2	cue_nonsocial	n/a	32	6	n/a	n/a	n/a
354.841700	2	cue_nonsocial_high	n/a	32	9	n/a	n/a	n/a
362.546570	2	cue_social	n/a	16	-7	n/a	n/a	n/a
362.546570	2	cue_social_low	n/a	16	-10	n/a	n/a	n/a
370.176360	2	cue_social	n/a	16	-7	n/a	n/a	n/a
370.176360	2	cue_social_low	n/a	16	-10	n/a	n/a	n/a
6.515727	2.466474	dec_nonsocial_choice	2.466474	32.000000	n/a	16	2.682292e-01	2.682292e-01
6.515727	2.466474	dec_choice	2.466474	32.000000	n/a	16	2.682292e-01	2.682292e-01
6.515727	2.466474	dec_nonsocial_accept	2.466474	32.000000	n/a	16	2.004310e-01	2.004310e-01
6.515727	2.466474	dec_accept	2.466474	32.000000	n/a	16	1.778846e-01	1.778846e-01
6.515727	2.466474	dec_nonsocial_high	2.466474	32.000000	n/a	16	2.682292e-01	2.682292e-01
6.515727	2.466474	dec_nonsocial_accept_high	2.466474	32.000000	n/a	16	1.778846e-01	1.778846e-01
13.349825	1.315579	dec_nonsocial_choice	1.315579	32.000000	n/a	8	1.822917e-02	1.822917e-02
13.349825	1.315579	dec_choice	1.315579	32.000000	n/a	8	1.822917e-02	1.822917e-02
13.349825	1.315579	dec_nonsocial_accept	1.315579	32.000000	n/a	8	-4.956897e-02	-4.956897e-02
13.349825	1.315579	dec_accept	1.315579	32.000000	n/a	8	-7.211538e-02	-7.211538e-02
13.349825	1.315579	dec_nonsocial_accept_high	1.315579	32.000000	n/a	8	-3.125000e-02	-3.125000e-02
21.000378	1.148644	dec_nonsocial_choice	1.148644	16.000000	n/a	0	0	-2.317708e-01
21.000378	1.148644	dec_choice	1.148644	16.000000	n/a	0	0	-2.317708e-01
21.000378	1.148644	dec_nonsocial_reject	1.148644	16.000000	n/a	0	0	-3.289474e-03
21.000378	1.148644	dec_reject	1.148644	16.000000	n/a	0	0	0
21.000378	1.148644	dec_nonsocial_reject_low	1.148644	16.000000	n/a	2	-7.812500e-03	-1.328125e-01
27.832514	1.150384	dec_social_choice	1.150384	16.000000	n/a	8	2.682292e-01	2.682292e-01
27.832514	1.150384	dec_choice	1.150384	16.000000	n/a	8	2.682292e-01	2.682292e-01
27.832514	1.150384	dec_social_accept	1.150384	16.000000	n/a	8	2.004310e-01	2.004310e-01
27.832514	1.150384	dec_accept	1.150384	16.000000	n/a	8	2.187500e-01	2.187500e-01
27.832514	1.150384	dec_social_accept_high	1.150384	16.000000	n/a	8	2.682292e-01	2.682292e-01
34.666267	1.749339	dec_social_choice	1.749339	16.000000	n/a	8	2.682292e-01	2.682292e-01
34.666267	1.749339	dec_choice	1.749339	16.000000	n/a	8	2.682292e-01	2.682292e-01
34.666267	1.749339	dec_social_accept	1.749339	16.000000	n/a	8	2.004310e-01	2.004310e-01
34.666267	1.749339	dec_accept	1.749339	16.000000	n/a	8	2.187500e-01	2.187500e-01
34.666267	1.749339	dec_social_high	1.749339	16.000000	n/a	8	2.682292e-01	2.682292e-01
34.666267	1.749339	dec_social_accept_high	1.749339	16.000000	n/a	8	2.682292e-01	2.682292e-01
43.916860	1.132443	dec_nonsocial_choice	1.132443	32.000000	n/a	8	1.822917e-02	1.822917e-02
43.916860	1.132443	dec_choice	1.132443	32.000000	n/a	8	1.822917e-02	1.822917e-02
43.916860	1.132443	dec_nonsocial_accept	1.132443	32.000000	n/a	8	-4.956897e-02	-4.956897e-02
43.916860	1.132443	dec_accept	1.132443	32.000000	n/a	8	-7.211538e-02	-7.211538e-02
43.916860	1.132443	dec_nonsocial_high	1.132443	32.000000	n/a	8	1.822917e-02	1.822917e-02
43.916860	1.132443	dec_nonsocial_accept_high	1.132443	32.000000	n/a	8	-7.211538e-02	-7.211538e-02
51.566055	1.215924	dec_nonsocial_choice	1.215924	32.000000	n/a	0	0	-2.317708e-01
51.566055	1.215924	dec_choice	1.215924	32.000000	n/a	0	0	-2.317708e-01
51.566055	1.215924	dec_nonsocial_reject	1.215924	32.000000	n/a	0	0	3.717105e-01
51.566055	1.215924	dec_reject	1.215924	32.000000	n/a	0	0	3.750000e-01
51.566055	1.215924	dec_nonsocial_reject_low	1.215924	32.000000	n/a	16	3.671875e-01	-1.328125e-01
58.399315	1.133247	dec_nonsocial_choice	1.133247	16.000000	n/a	2	-1.067708e-01	-1.067708e-01
58.399315	1.133247	dec_choice	1.133247	16.000000	n/a	2	-1.067708e-01	-1.067708e-01
58.399315	1.133247	dec_nonsocial_accept	1.133247	16.000000	n/a	2	-1.745690e-01	-1.745690e-01
58.399315	1.133247	dec_accept	1.133247	16.000000	n/a	2	-1.971154e-01	-1.971154e-01
58.399315	1.133247	dec_nonsocial_low	1.133247	16.000000	n/a	2	-1.067708e-01	-1.067708e-01
58.399315	1.133247	dec_nonsocial_accept_low	1.133247	16.000000	n/a	2	-1.971154e-01	-1.971154e-01
67.649950	1.799070	dec_social_choice	1.799070	16.000000	n/a	2	-1.067708e-01	-1.067708e-01
67.649950	1.799070	dec_choice	1.799070	16.000000	n/a	2	-1.067708e-01	-1.067708e-01
67.649950	1.799070	dec_social_accept	1.799070	16.000000	n/a	2	-1.745690e-01	-1.745690e-01
67.649950	1.799070	dec_accept	1.799070	16.000000	n/a	2	-1.562500e-01	-1.562500e-01
67.649950	1.799070	dec_social_low	1.799070	16.000000	n/a	2	-1.067708e-01	-1.067708e-01
67.649950	1.799070	dec_social_accept_low	1.799070	16.000000	n/a	2	-1.067708e-01	-1.067708e-01
75.299780	1.182638	dec_social_choice	1.182638	32.000000	n/a	8	1.822917e-02	1.822917e-02
75.299780	1.182638	dec_choice	1.182638	32.000000	n/a	8	1.822917e-02	1.822917e-02
75.299780	1.182638	dec_social_accept	1.182638	32.000000	n/a	8	-4.956897e-02	-4.956897e-02
75.299780	1.182638	dec_accept	1.182638	32.000000	n/a	8	-3.125000e-02	-3.125000e-02
75.299780	1.182638	dec_social_accept_high	1.182638	32.000000	n/a	8	1.822917e-02	1.822917e-02
84.549150	1.315959	dec_social_choice	1.315959	16.000000	n/a	2	-1.067708e-01	-1.067708e-01
84.549150	1.315959	dec_choice	1.315959	16.000000	n/a	2	-1.067708e-01	-1.067708e-01
84.549150	1.315959	dec_social_accept	1.315959	16.000000	n/a	2	-1.745690e-01	-1.745690e-01
84.549150	1.315959	dec_accept	1.315959	16.000000	n/a	2	-1.562500e-01	-1.562500e-01
84.549150	1.315959	dec_social_accept_low	1.315959	16.000000	n/a	2	-1.067708e-01	-1.067708e-01
91.381996	1.117085	dec_nonsocial_choice	1.117085	32.000000	n/a	8	1.822917e-02	1.822917e-02
91.381996	1.117085	dec_choice	1.117085	32.000000	n/a	8	1.822917e-02	1.822917e-02
91.381996	1.117085	dec_nonsocial_accept	1.117085	32.000000	n/a	8	-4.956897e-02	-4.956897e-02
91.381996	1.117085	dec_accept	1.117085	32.000000	n/a	8	-7.211538e-02	-7.211538e-02
91.381996	1.117085	dec_nonsocial_accept_high	1.117085	32.000000	n/a	8	-3.125000e-02	-3.125000e-02
98.215970	1.449833	dec_nonsocial_choice	1.449833	32.000000	n/a	0	0	-2.317708e-01
98.215970	1.449833	dec_choice	1.449833	32.000000	n/a	0	0	-2.317708e-01
98.215970	1.449833	dec_nonsocial_reject	1.449833	32.000000	n/a	0	0	-3.453947e-02
98.215970	1.449833	dec_reject	1.449833	32.000000	n/a	0	0	-3.125000e-02
98.215970	1.449833	dec_nonsocial_reject_low	1.449833	32.000000	n/a	3	-3.906250e-02	-1.328125e-01
107.482550	1.183150	dec_nonsocial_choice	1.183150	32.000000	n/a	8	1.822917e-02	1.822917e-02
107.482550	1.183150	dec_choice	1.183150	32.000000	n/a	8	1.822917e-02	1.822917e-02
107.482550	1.183150	dec_nonsocial_accept	1.183150	32.000000	n/a	8	-4.956897e-02	-4.956897e-02
107.482550	1.183150	dec_accept	1.183150	32.000000	n/a	8	-7.211538e-02	-7.211538e-02
107.482550	1.183150	dec_nonsocial_accept_high	1.183150	32.000000	n/a	8	-3.125000e-02	-3.125000e-02
114.316070	1.382914	dec_nonsocial_choice	1.382914	32.000000	n/a	0	0	-2.317708e-01
114.316070	1.382914	dec_choice	1.382914	32.000000	n/a	0	0	-2.317708e-01
114.316070	1.382914	dec_nonsocial_reject	1.382914	32.000000	n/a	0	0	-6.578947e-02
114.316070	1.382914	dec_reject	1.382914	32.000000	n/a	0	0	-6.250000e-02
114.316070	1.382914	dec_nonsocial_low	1.382914	32.000000	n/a	0	-2.317708e-01	-2.317708e-01
114.316070	1.382914	dec_nonsocial_reject_low	1.382914	32.000000	n/a	2	-6.250000e-02	-1.250000e-01
123.565920	1.365956	dec_social_choice	1.365956	16.000000	n/a	8	2.682292e-01	2.682292e-01
123.565920	1.365956	dec_choice	1.365956	16.000000	n/a	8	2.682292e-01	2.682292e-01
123.565920	1.365956	dec_social_accept	1.365956	16.000000	n/a	8	2.004310e-01	2.004310e-01
123.565920	1.365956	dec_accept	1.365956	16.000000	n/a	8	2.187500e-01	2.187500e-01
123.565920	1.365956	dec_social_accept_high	1.365956	16.000000	n/a	8	2.682292e-01	2.682292e-01
130.399030	0.899835	dec_nonsocial_choice	0.899835	16.000000	n/a	8	2.682292e-01	2.682292e-01
130.399030	0.899835	dec_choice	0.899835	16.000000	n/a	8	2.682292e-01	2.682292e-01
130.399030	0.899835	dec_nonsocial_accept	0.899835	16.000000	n/a	8	2.004310e-01	2.004310e-01
130.399030	0.899835	dec_accept	0.899835	16.000000	n/a	8	1.778846e-01	1.778846e-01
130.399030	0.899835	dec_nonsocial_accept_high	0.899835	16.000000	n/a	8	2.187500e-01	2.187500e-01
141.265170	1.600509	dec_social_choice	1.600509	16.000000	n/a	2	-1.067708e-01	-1.067708e-01
141.265170	1.600509	dec_choice	1.600509	16.000000	n/a	2	-1.067708e-01	-1.067708e-01
141.265170	1.600509	dec_social_accept	1.600509	16.000000	n/a	2	-1.745690e-01	-1.745690e-01
141.265170	1.600509	dec_accept	1.600509	16.000000	n/a	2	-1.562500e-01	-1.562500e-01
141.265170	1.600509	dec_social_low	1.600509	16.000000	n/a	2	-1.067708e-01	-1.067708e-01
141.265170	1.600509	dec_social_accept_low	1.600509	16.000000	n/a	2	-1.067708e-01	-1.067708e-01
148.099200	1.166066	dec_social_choice	1.166066	32.000000	n/a	8	1.822917e-02	1.822917e-02
148.099200	1.166066	dec_choice	1.166066	32.000000	n/a	8	1.822917e-02	1.822917e-02
148.099200	1.166066	dec_social_accept	1.166066	32.000000	n/a	8	-4.956897e-02	-4.956897e-02
148.099200	1.166066	dec_accept	1.166066	32.000000	n/a	8	-3.125000e-02	-3.125000e-02
148.099200	1.166066	dec_social_high	1.166066	32.000000	n/a	8	1.822917e-02	1.822917e-02
148.099200	1.166066	dec_social_accept_high	1.166066	32.000000	n/a	8	1.822917e-02	1.822917e-02
154.932050	1.933611	dec_nonsocial_choice	1.933611	32.000000	n/a	8	1.822917e-02	1.822917e-02
154.932050	1.933611	dec_choice	1.933611	32.000000	n/a	8	1.822917e-02	1.822917e-02
154.932050	1.933611	dec_nonsocial_accept	1.933611	32.000000	n/a	8	-4.956897e-02	-4.956897e-02
154.932050	1.933611	dec_accept	1.933611	32.000000	n/a	8	-7.211538e-02	-7.211538e-02
154.932050	1.933611	dec_nonsocial_accept_high	1.933611	32.000000	n/a	8	-3.125000e-02	-3.125000e-02
162.581470	2.134079	dec_social_choice	2.134079	16.000000	n/a	1	-1.692708e-01	-1.692708e-01
162.581470	2.134079	dec_choice	2.134079	16.000000	n/a	1	-1.692708e-01	-1.692708e-01
162.581470	2.134079	dec_social_accept	2.134079	16.000000	n/a	1	-2.370690e-01	-2.370690e-01
162.581470	2.134079	dec_accept	2.134079	16.000000	n/a	1	-2.187500e-01	-2.187500e-01
162.581470	2.134079	dec_social_low	2.134079	16.000000	n/a	1	-1.692708e-01	-1.692708e-01
162.581470	2.134079	dec_social_accept_low	2.134079	16.000000	n/a	1	-1.692708e-01	-1.692708e-01
170.232730	2.365711	dec_nonsocial_choice	2.365711	16.000000	n/a	0	0	-2.317708e-01
170.232730	2.365711	dec_choice	2.365711	16.000000	n/a	0	0	-2.317708e-01
170.232730	2.365711	dec_nonsocial_reject	2.365711	16.000000	n/a	0	0	-3.289474e-03
170.232730	2.365711	dec_reject	2.365711	16.000000	n/a	0	0	0
170.232730	2.365711	dec_nonsocial_reject_low	2.365711	16.000000	n/a	2	-7.812500e-03	-1.328125e-01
177.065100	1.650791	dec_social_choice	1.650791	32.000000	n/a	0	0	-2.317708e-01
177.065100	1.650791	dec_choice	1.650791	32.000000	n/a	0	0	-2.317708e-01
177.065100	1.650791	dec_social_reject	1.650791	32.000000	n/a	0	0	-6.578947e-02
177.065100	1.650791	dec_reject	1.650791	32.000000	n/a	0	0	-7.031250e-02
177.065100	1.650791	dec_social_low	1.650791	32.000000	n/a	0	-2.317708e-01	-2.317708e-01
177.065100	1.650791	dec_social_reject_low	1.650791	32.000000	n/a	2	-1.692708e-01	-2.317708e-01
183.898040	1.434119	dec_social_choice	1.434119	32.000000	n/a	0	0	-2.317708e-01
183.898040	1.434119	dec_choice	1.434119	32.000000	n/a	0	0	-2.317708e-01
183.898040	1.434119	dec_social_reject	1.434119	32.000000	n/a	0	0	-6.578947e-02
183.898040	1.434119	dec_reject	1.434119	32.000000	n/a	0	0	-7.031250e-02
183.898040	1.434119	dec_social_low	1.434119	32.000000	n/a	0	-2.317708e-01	-2.317708e-01
183.898040	1.434119	dec_social_reject_low	1.434119	32.000000	n/a	2	-1.692708e-01	-2.317708e-01
190.732590	1.732995	dec_social_choice	1.732995	32.000000	n/a	16	2.682292e-01	2.682292e-01
190.732590	1.732995	dec_choice	1.732995	32.000000	n/a	16	2.682292e-01	2.682292e-01
190.732590	1.732995	dec_social_accept	1.732995	32.000000	n/a	16	2.004310e-01	2.004310e-01
190.732590	1.732995	dec_accept	1.732995	32.000000	n/a	16	2.187500e-01	2.187500e-01
190.732590	1.732995	dec_social_high	1.732995	32.000000	n/a	16	2.682292e-01	2.682292e-01
190.732590	1.732995	dec_social_accept_high	1.732995	32.000000	n/a	16	2.682292e-01	2.682292e-01
201.598850	2.116263	dec_nonsocial_choice	2.116263	32.000000	n/a	16	2.682292e-01	2.682292e-01
201.598850	2.116263	dec_choice	2.116263	32.000000	n/a	16	2.682292e-01	2.682292e-01
201.598850	2.116263	dec_nonsocial_accept	2.116263	32.000000	n/a	16	2.004310e-01	2.004310e-01
201.598850	2.116263	dec_accept	2.116263	32.000000	n/a	16	1.778846e-01	1.778846e-01
201.598850	2.116263	dec_nonsocial_high	2.116263	32.000000	n/a	16	2.682292e-01	2.682292e-01
201.598850	2.116263	dec_nonsocial_accept_high	2.116263	32.000000	n/a	16	1.778846e-01	1.778846e-01
209.247820	1.950732	dec_social_choice	1.950732	32.000000	n/a	0	0	-2.317708e-01
209.247820	1.950732	dec_choice	1.950732	32.000000	n/a	0	0	-2.317708e-01
209.247820	1.950732	dec_social_reject	1.950732	32.000000	n/a	0	0	-3.453947e-02
209.247820	1.950732	dec_reject	1.950732	32.000000	n/a	0	0	-3.906250e-02
209.247820	1.950732	dec_social_reject_low	1.950732	32.000000	n/a	3	-1.380208e-01	-2.317708e-01
216.899830	1.399117	dec_nonsocial_choice	1.399117	32.000000	n/a	0	0	-2.317708e-01
216.899830	1.399117	dec_choice	1.399117	32.000000	n/a	0	0	-2.317708e-01
216.899830	1.399117	dec_nonsocial_reject	1.399117	32.000000	n/a	0	0	-6.578947e-02
216.899830	1.399117	dec_reject	1.399117	32.000000	n/a	0	0	-6.250000e-02
216.899830	1.399117	dec_nonsocial_reject_low	1.399117	32.000000	n/a	2	-7.031250e-02	-1.328125e-01
223.733050	1.698914	dec_social_choice	1.698914	16.000000	n/a	0	0	-2.317708e-01
223.733050	1.698914	dec_choice	1.698914	16.000000	n/a	0	0	-2.317708e-01
223.733050	1.698914	dec_social_reject	1.698914	16.000000	n/a	0	0	-3.289474e-03
223.733050	1.698914	dec_reject	1.698914	16.000000	n/a	0	0	-7.812500e-03
223.733050	1.698914	dec_social_low	1.698914	16.000000	n/a	0	-2.317708e-01	-2.317708e-01
223.733050	1.698914	dec_social_reject_low	1.698914	16.000000	n/a	2	-1.067708e-01	-2.317708e-01
230.565810	2.099604	dec_social_choice	2.099604	16.000000	n/a	0	0	-2.317708e-01
230.565810	2.099604	dec_choice	2.099604	16.000000	n/a	0	0	-2.317708e-01
230.565810	2.099604	dec_social_reject	2.099604	16.000000	n/a	0	0	3.717105e-01
230.565810	2.099604	dec_reject	2.099604	16.000000	n/a	0	0	3.671875e-01
230.565810	2.099604	dec_social_reject_low	2.099604	16.000000	n/a	8	2.682292e-01	-2.317708e-01
237.397930	1.100774	dec_nonsocial_choice	1.100774	16.000000	n/a	4	1.822917e-02	1.822917e-02
237.397930	1.100774	dec_choice	1.100774	16.000000	n/a	4	1.822917e-02	1.822917e-02
237.397930	1.100774	dec_nonsocial_accept	1.100774	16.000000	n/a	4	-4.956897e-02	-4.956897e-02
237.397930	1.100774	dec_accept	1.100774	16.000000	n/a	4	-7.211538e-02	-7.211538e-02
237.397930	1.100774	dec_nonsocial_accept_high	1.100774	16.000000	n/a	4	-3.125000e-02	-3.125000e-02
244.231950	1.083551	dec_social_choice	1.083551	32.000000	n/a	8	1.822917e-02	1.822917e-02
244.231950	1.083551	dec_choice	1.083551	32.000000	n/a	8	1.822917e-02	1.822917e-02
244.231950	1.083551	dec_social_accept	1.083551	32.000000	n/a	8	-4.956897e-02	-4.956897e-02
244.231950	1.083551	dec_accept	1.083551	32.000000	n/a	8	-3.125000e-02	-3.125000e-02
244.231950	1.083551	dec_social_accept_high	1.083551	32.000000	n/a	8	1.822917e-02	1.822917e-02
251.882950	2.165153	dec_social_choice	2.165153	32.000000	n/a	2	-1.692708e-01	-1.692708e-01
251.882950	2.165153	dec_choice	2.165153	32.000000	n/a	2	-1.692708e-01	-1.692708e-01
251.882950	2.165153	dec_social_accept	2.165153	32.000000	n/a	2	-2.370690e-01	-2.370690e-01
251.882950	2.165153	dec_accept	2.165153	32.000000	n/a	2	-2.187500e-01	-2.187500e-01
251.882950	2.165153	dec_social_low	2.165153	32.000000	n/a	2	-1.692708e-01	-1.692708e-01
251.882950	2.165153	dec_social_accept_low	2.165153	32.000000	n/a	2	-1.692708e-01	-1.692708e-01
258.716460	1.715042	dec_social_choice	1.715042	32.000000	n/a	8	1.822917e-02	1.822917e-02
258.716460	1.715042	dec_choice	1.715042	32.000000	n/a	8	1.822917e-02	1.822917e-02
258.716460	1.715042	dec_social_accept	1.715042	32.000000	n/a	8	-4.956897e-02	-4.956897e-02
258.716460	1.715042	dec_accept	1.715042	32.000000	n/a	8	-3.125000e-02	-3.125000e-02
258.716460	1.715042	dec_social_accept_high	1.715042	32.000000	n/a	8	1.822917e-02	1.822917e-02
265.547970	1.983754	dec_nonsocial_choice	1.983754	32.000000	n/a	2	-1.692708e-01	-1.692708e-01
265.547970	1.983754	dec_choice	1.983754	32.000000	n/a	2	-1.692708e-01	-1.692708e-01
265.547970	1.983754	dec_nonsocial_accept	1.983754	32.000000	n/a	2	-2.370690e-01	-2.370690e-01
265.547970	1.983754	dec_accept	1.983754	32.000000	n/a	2	-2.596154e-01	-2.596154e-01
265.547970	1.983754	dec_nonsocial_low	1.983754	32.000000	n/a	2	-1.692708e-01	-1.692708e-01
265.547970	1.983754	dec_nonsocial_accept_low	1.983754	32.000000	n/a	2	-2.596154e-01	-2.596154e-01
274.798920	1.249682	dec_social_choice	1.249682	16.000000	n/a	4	1.822917e-02	1.822917e-02
274.798920	1.249682	dec_choice	1.249682	16.000000	n/a	4	1.822917e-02	1.822917e-02
274.798920	1.249682	dec_social_accept	1.249682	16.000000	n/a	4	-4.956897e-02	-4.956897e-02
274.798920	1.249682	dec_accept	1.249682	16.000000	n/a	4	-3.125000e-02	-3.125000e-02
274.798920	1.249682	dec_social_high	1.249682	16.000000	n/a	4	1.822917e-02	1.822917e-02
274.798920	1.249682	dec_social_accept_high	1.249682	16.000000	n/a	4	1.822917e-02	1.822917e-02
281.631930	1.934011	dec_nonsocial_choice	1.934011	16.000000	n/a	8	2.682292e-01	2.682292e-01
281.631930	1.934011	dec_choice	1.934011	16.000000	n/a	8	2.682292e-01	2.682292e-01
281.631930	1.934011	dec_nonsocial_accept	1.934011	16.000000	n/a	8	2.004310e-01	2.004310e-01
281.631930	1.934011	dec_accept	1.934011	16.000000	n/a	8	1.778846e-01	1.778846e-01
281.631930	1.934011	dec_nonsocial_high	1.934011	16.000000	n/a	8	2.682292e-01	2.682292e-01
281.631930	1.934011	dec_nonsocial_accept_high	1.934011	16.000000	n/a	8	1.778846e-01	1.778846e-01
288.465000	1.383650	dec_social_choice	1.383650	32.000000	n/a	0	0	-2.317708e-01
288.465000	1.383650	dec_choice	1.383650	32.000000	n/a	0	0	-2.317708e-01
288.465000	1.383650	dec_social_reject	1.383650	32.000000	n/a	0	0	-6.578947e-02
288.465000	1.383650	dec_reject	1.383650	32.000000	n/a	0	0	-7.031250e-02
288.465000	1.383650	dec_social_low	1.383650	32.000000	n/a	0	-2.317708e-01	-2.317708e-01
288.465000	1.383650	dec_social_reject_low	1.383650	32.000000	n/a	2	-1.692708e-01	-2.317708e-01
296.115660	1.315740	dec_social_choice	1.315740	32.000000	n/a	0	0	-2.317708e-01
296.115660	1.315740	dec_choice	1.315740	32.000000	n/a	0	0	-2.317708e-01
296.115660	1.315740	dec_social_reject	1.315740	32.000000	n/a	0	0	-3.453947e-02
296.115660	1.315740	dec_reject	1.315740	32.000000	n/a	0	0	-3.906250e-02
296.115660	1.315740	dec_social_low	1.315740	32.000000	n/a	0	-2.317708e-01	-2.317708e-01
296.115660	1.315740	dec_social_reject_low	1.315740	32.000000	n/a	3	-1.380208e-01	-2.317708e-01
308.599300	1.532457	dec_nonsocial_choice	1.532457	16.000000	n/a	8	2.682292e-01	2.682292e-01
308.599300	1.532457	dec_choice	1.532457	16.000000	n/a	8	2.682292e-01	2.682292e-01
308.599300	1.532457	dec_nonsocial_accept	1.532457	16.000000	n/a	8	2.004310e-01	2.004310e-01
308.599300	1.532457	dec_accept	1.532457	16.000000	n/a	8	1.778846e-01	1.778846e-01
308.599300	1.532457	dec_nonsocial_high	1.532457	16.000000	n/a	8	2.682292e-01	2.682292e-01
308.599300	1.532457	dec_nonsocial_accept_high	1.532457	16.000000	n/a	8	1.778846e-01	1.778846e-01
315.432000	1.066081	dec_nonsocial_choice	1.066081	16.000000	n/a	0	0	-2.317708e-01
315.432000	1.066081	dec_choice	1.066081	16.000000	n/a	0	0	-2.317708e-01
315.432000	1.066081	dec_nonsocial_reject	1.066081	16.000000	n/a	0	0	-3.289474e-03
315.432000	1.066081	dec_reject	1.066081	16.000000	n/a	0	0	0
315.432000	1.066081	dec_nonsocial_reject_low	1.066081	16.000000	n/a	2	-7.812500e-03	-1.328125e-01
322.264830	1.200378	dec_social_choice	1.200378	16.000000	n/a	8	2.682292e-01	2.682292e-01
322.264830	1.200378	dec_choice	1.200378	16.000000	n/a	8	2.682292e-01	2.682292e-01
322.264830	1.200378	dec_social_accept	1.200378	16.000000	n/a	8	2.004310e-01	2.004310e-01
322.264830	1.200378	dec_accept	1.200378	16.000000	n/a	8	2.187500e-01	2.187500e-01
322.264830	1.200378	dec_social_high	1.200378	16.000000	n/a	8	2.682292e-01	2.682292e-01
322.264830	1.200378	dec_social_accept_high	1.200378	16.000000	n/a	8	2.682292e-01	2.682292e-01
329.898160	1.216505	dec_nonsocial_choice	1.216505	16.000000	n/a	0	0	-2.317708e-01
329.898160	1.216505	dec_choice	1.216505	16.000000	n/a	0	0	-2.317708e-01
329.898160	1.216505	dec_nonsocial_reject	1.216505	16.000000	n/a	0	0	-6.578947e-02
329.898160	1.216505	dec_reject	1.216505	16.000000	n/a	0	0	-6.250000e-02
329.898160	1.216505	dec_nonsocial_low	1.216505	16.000000	n/a	0	-2.317708e-01	-2.317708e-01
329.898160	1.216505	dec_nonsocial_reject_low	1.216505	16.000000	n/a	1	-6.250000e-02	-1.250000e-01
336.731230	1.333871	dec_nonsocial_choice	1.333871	32.000000	n/a	0	0	-2.317708e-01
336.731230	1.333871	dec_choice	1.333871	32.000000	n/a	0	0	-2.317708e-01
336.731230	1.333871	dec_nonsocial_reject	1.333871	32.000000	n/a	0	0	-6.578947e-02
336.731230	1.333871	dec_reject	1.333871	32.000000	n/a	0	0	-6.250000e-02
336.731230	1.333871	dec_nonsocial_low	1.333871	32.000000	n/a	0	-2.317708e-01	-2.317708e-01
336.731230	1.333871	dec_nonsocial_reject_low	1.333871	32.000000	n/a	2	-6.250000e-02	-1.250000e-01
345.981780	1.099773	dec_nonsocial_choice	1.099773	32.000000	n/a	0	0	-2.317708e-01
345.981780	1.099773	dec_choice	1.099773	32.000000	n/a	0	0	-2.317708e-01
345.981780	1.099773	dec_nonsocial_reject	1.099773	32.000000	n/a	0	0	-3.453947e-02
345.981780	1.099773	dec_reject	1.099773	32.000000	n/a	0	0	-3.125000e-02
345.981780	1.099773	dec_nonsocial_low	1.099773	32.000000	n/a	0	-2.317708e-01	-2.317708e-01
345.981780	1.099773	dec_nonsocial_reject_low	1.099773	32.000000	n/a	3	-3.125000e-02	-1.250000e-01
356.848970	1.215725	dec_nonsocial_choice	1.215725	32.000000	n/a	0	0	-2.317708e-01
356.848970	1.215725	dec_choice	1.215725	32.000000	n/a	0	0	-2.317708e-01
356.848970	1.215725	dec_nonsocial_reject	1.215725	32.000000	n/a	0	0	-6.578947e-02
356.848970	1.215725	dec_reject	1.215725	32.000000	n/a	0	0	-6.250000e-02
356.848970	1.215725	dec_nonsocial_low	1.215725	32.000000	n/a	0	-2.317708e-01	-2.317708e-01
356.848970	1.215725	dec_nonsocial_reject_low	1.215725	32.000000	n/a	2	-6.250000e-02	-1.250000e-01
364.498350	1.233399	dec_social_choice	1.233399	16.000000	n/a	4	1.822917e-02	1.822917e-02
364.498350	1.233399	dec_choice	1.233399	16.000000	n/a	4	1.822917e-02	1.822917e-02
364.498350	1.233399	dec_social_accept	1.233399	16.000000	n/a	4	-4.956897e-02	-4.956897e-02
364.498350	1.233399	dec_accept	1.233399	16.000000	n/a	4	-3.125000e-02	-3.125000e-02
364.498350	1.233399	dec_social_high	1.233399	16.000000	n/a	4	1.822917e-02	1.822917e-02
364.498350	1.233399	dec_social_accept_high	1.233399	16.000000	n/a	4	1.822917e-02	1.822917e-02
372.148800	1.499792	dec_social_choice	1.499792	16.000000	n/a	0	0	-2.317708e-01
372.148800	1.499792	dec_choice	1.499792	16.000000	n/a	0	0	-2.317708e-01
372.148800	1.499792	dec_social_reject	1.499792	16.000000	n/a	0	0	-6.578947e-02
372.148800	1.499792	dec_reject	1.499792	16.000000	n/a	0	0	-7.031250e-02
372.148800	1.499792	dec_social_low	1.499792	16.000000	n/a	0	-2.317708e-01	-2.317708e-01
372.148800	1.499792	dec_social_reject_low	1.499792	16.000000	n/a	1	-1.692708e-01	-2.317708e-01
