onset	duration	trial_type	response_time	Endowment	Endowment_pmod	Decision	Decision_pmod	Offer_pmod
4.513904	2	cue_nonsocial	n/a	32	8	n/a	n/a	n/a
4.513904	2	cue_nonsocial_high	n/a	32	9	n/a	n/a	n/a
12.163718	2	cue_nonsocial	n/a	16	-8	n/a	n/a	n/a
12.163718	2	cue_nonsocial_low	n/a	16	-7	n/a	n/a	n/a
19.813770	2	cue_nonsocial	n/a	16	-8	n/a	n/a	n/a
19.813770	2	cue_nonsocial_low	n/a	16	-7	n/a	n/a	n/a
29.170189	2	cue_social	n/a	16	-7	n/a	n/a	n/a
29.170189	2	cue_social_low	n/a	16	-8	n/a	n/a	n/a
40.000110	2	cue_social	n/a	16	-7	n/a	n/a	n/a
40.000110	2	cue_social_low	n/a	16	-8	n/a	n/a	n/a
46.763565	2	cue_nonsocial	n/a	16	-8	n/a	n/a	n/a
46.763565	2	cue_nonsocial_low	n/a	16	-7	n/a	n/a	n/a
54.474747	2	cue_social	n/a	16	-7	n/a	n/a	n/a
54.474747	2	cue_social_low	n/a	16	-8	n/a	n/a	n/a
61.246964	2	cue_nonsocial	n/a	32	8	n/a	n/a	n/a
61.246964	2	cue_nonsocial_high	n/a	32	9	n/a	n/a	n/a
70.590805	2	cue_social	n/a	32	9	n/a	n/a	n/a
70.590805	2	cue_social_high	n/a	32	8	n/a	n/a	n/a
77.347070	2	cue_nonsocial	n/a	32	8	n/a	n/a	n/a
77.347070	2	cue_nonsocial_high	n/a	32	9	n/a	n/a	n/a
84.980380	2	cue_nonsocial	n/a	32	8	n/a	n/a	n/a
84.980380	2	cue_nonsocial_high	n/a	32	9	n/a	n/a	n/a
91.813545	2	cue_nonsocial	n/a	32	8	n/a	n/a	n/a
91.813545	2	cue_nonsocial_high	n/a	32	9	n/a	n/a	n/a
98.726006	2	cue_social	n/a	32	9	n/a	n/a	n/a
98.726006	2	cue_social_high	n/a	32	8	n/a	n/a	n/a
106.373160	2	cue_social	n/a	16	-7	n/a	n/a	n/a
106.373160	2	cue_social_low	n/a	16	-8	n/a	n/a	n/a
113.130120	2	cue_nonsocial	n/a	16	-8	n/a	n/a	n/a
113.130120	2	cue_nonsocial_low	n/a	16	-7	n/a	n/a	n/a
120.779945	2	cue_nonsocial	n/a	32	8	n/a	n/a	n/a
120.779945	2	cue_nonsocial_high	n/a	32	9	n/a	n/a	n/a
128.429690	2	cue_nonsocial	n/a	16	-8	n/a	n/a	n/a
128.429690	2	cue_nonsocial_low	n/a	16	-7	n/a	n/a	n/a
135.323300	2	cue_social	n/a	16	-7	n/a	n/a	n/a
135.323300	2	cue_social_low	n/a	16	-8	n/a	n/a	n/a
142.096860	2	cue_nonsocial	n/a	16	-8	n/a	n/a	n/a
142.096860	2	cue_nonsocial_low	n/a	16	-7	n/a	n/a	n/a
151.363710	2	cue_nonsocial	n/a	16	-8	n/a	n/a	n/a
151.363710	2	cue_nonsocial_low	n/a	16	-7	n/a	n/a	n/a
159.071550	2	cue_social	n/a	16	-7	n/a	n/a	n/a
159.071550	2	cue_social_low	n/a	16	-8	n/a	n/a	n/a
166.646510	2	cue_nonsocial	n/a	32	8	n/a	n/a	n/a
166.646510	2	cue_nonsocial_high	n/a	32	9	n/a	n/a	n/a
174.296900	2	cue_nonsocial	n/a	32	8	n/a	n/a	n/a
174.296900	2	cue_nonsocial_high	n/a	32	9	n/a	n/a	n/a
182.031600	2	cue_social	n/a	32	9	n/a	n/a	n/a
182.031600	2	cue_social_high	n/a	32	8	n/a	n/a	n/a
194.429950	2	cue_nonsocial	n/a	16	-8	n/a	n/a	n/a
194.429950	2	cue_nonsocial_low	n/a	16	-7	n/a	n/a	n/a
201.362730	2	cue_social	n/a	16	-7	n/a	n/a	n/a
201.362730	2	cue_social_low	n/a	16	-8	n/a	n/a	n/a
208.096130	2	cue_nonsocial	n/a	32	8	n/a	n/a	n/a
208.096130	2	cue_nonsocial_high	n/a	32	9	n/a	n/a	n/a
217.414460	2	cue_social	n/a	32	9	n/a	n/a	n/a
217.414460	2	cue_social_high	n/a	32	8	n/a	n/a	n/a
224.233490	2	cue_social	n/a	16	-7	n/a	n/a	n/a
224.233490	2	cue_social_low	n/a	16	-8	n/a	n/a	n/a
231.922840	2	cue_social	n/a	32	9	n/a	n/a	n/a
231.922840	2	cue_social_high	n/a	32	8	n/a	n/a	n/a
238.715230	2	cue_social	n/a	16	-7	n/a	n/a	n/a
238.715230	2	cue_social_low	n/a	16	-8	n/a	n/a	n/a
245.548230	2	cue_social	n/a	32	9	n/a	n/a	n/a
245.548230	2	cue_social_high	n/a	32	8	n/a	n/a	n/a
252.313220	2	cue_nonsocial	n/a	16	-8	n/a	n/a	n/a
252.313220	2	cue_nonsocial_low	n/a	16	-7	n/a	n/a	n/a
259.146360	2	cue_nonsocial	n/a	32	8	n/a	n/a	n/a
259.146360	2	cue_nonsocial_high	n/a	32	9	n/a	n/a	n/a
265.979950	2	cue_nonsocial	n/a	16	-8	n/a	n/a	n/a
265.979950	2	cue_nonsocial_low	n/a	16	-7	n/a	n/a	n/a
273.629850	2	cue_nonsocial	n/a	32	8	n/a	n/a	n/a
273.629850	2	cue_nonsocial_high	n/a	32	9	n/a	n/a	n/a
284.496700	2	cue_nonsocial	n/a	32	8	n/a	n/a	n/a
284.496700	2	cue_nonsocial_high	n/a	32	9	n/a	n/a	n/a
291.393000	2	cue_social	n/a	32	9	n/a	n/a	n/a
291.393000	2	cue_social_high	n/a	32	8	n/a	n/a	n/a
298.228180	2	cue_social	n/a	32	9	n/a	n/a	n/a
298.228180	2	cue_social_high	n/a	32	8	n/a	n/a	n/a
307.435500	2	cue_social	n/a	16	-7	n/a	n/a	n/a
307.435500	2	cue_social_low	n/a	16	-8	n/a	n/a	n/a
314.293330	2	cue_social	n/a	16	-7	n/a	n/a	n/a
314.293330	2	cue_social_low	n/a	16	-8	n/a	n/a	n/a
321.163270	2	cue_social	n/a	32	9	n/a	n/a	n/a
321.163270	2	cue_social_high	n/a	32	8	n/a	n/a	n/a
327.929660	2	cue_nonsocial	n/a	16	-8	n/a	n/a	n/a
327.929660	2	cue_nonsocial_low	n/a	16	-7	n/a	n/a	n/a
334.825560	2	cue_social	n/a	16	-7	n/a	n/a	n/a
334.825560	2	cue_social_low	n/a	16	-8	n/a	n/a	n/a
341.595670	2	cue_nonsocial	n/a	16	-8	n/a	n/a	n/a
341.595670	2	cue_nonsocial_low	n/a	16	-7	n/a	n/a	n/a
352.528930	2	cue_social	n/a	16	-7	n/a	n/a	n/a
352.528930	2	cue_social_low	n/a	16	-8	n/a	n/a	n/a
359.357420	2	cue_social	n/a	16	-7	n/a	n/a	n/a
359.357420	2	cue_social_low	n/a	16	-8	n/a	n/a	n/a
368.611330	2	cue_social	n/a	32	9	n/a	n/a	n/a
368.611330	2	cue_social_high	n/a	32	8	n/a	n/a	n/a
6.520080	1.650113	dec_nonsocial_choice	1.650113	32.000000	n/a	16	2.701823e-01	2.701823e-01
6.520080	1.650113	dec_choice	1.650113	32.000000	n/a	16	2.708333e-01	2.708333e-01
6.520080	1.650113	dec_nonsocial_accept	1.650113	32.000000	n/a	16	1.250000e-01	1.250000e-01
6.520080	1.650113	dec_accept	1.650113	32.000000	n/a	16	1.250000e-01	1.250000e-01
6.520080	1.650113	dec_nonsocial_accept_high	1.650113	32.000000	n/a	16	1.250000e-01	1.250000e-01
14.169524	1.800715	dec_nonsocial_choice	1.800715	16.000000	n/a	8	2.701823e-01	2.701823e-01
14.169524	1.800715	dec_choice	1.800715	16.000000	n/a	8	2.708333e-01	2.708333e-01
14.169524	1.800715	dec_nonsocial_accept	1.800715	16.000000	n/a	8	1.250000e-01	1.250000e-01
14.169524	1.800715	dec_accept	1.800715	16.000000	n/a	8	1.250000e-01	1.250000e-01
14.169524	1.800715	dec_nonsocial_accept_high	1.800715	16.000000	n/a	8	1.250000e-01	1.250000e-01
21.819721	1.916580	dec_nonsocial_choice	1.916580	16.000000	n/a	4	2.018229e-02	2.018229e-02
21.819721	1.916580	dec_choice	1.916580	16.000000	n/a	4	2.083333e-02	2.083333e-02
21.819721	1.916580	dec_nonsocial_accept	1.916580	16.000000	n/a	4	-1.250000e-01	-1.250000e-01
21.819721	1.916580	dec_accept	1.916580	16.000000	n/a	4	-1.250000e-01	-1.250000e-01
21.819721	1.916580	dec_nonsocial_accept_high	1.916580	16.000000	n/a	4	-1.250000e-01	-1.250000e-01
31.070614	1.599744	dec_social_choice	1.599744	16.000000	n/a	8	2.701823e-01	2.701823e-01
31.070614	1.599744	dec_choice	1.599744	16.000000	n/a	8	2.695312e-01	2.695312e-01
31.070614	1.599744	dec_social_accept	1.599744	16.000000	n/a	8	1.250000e-01	1.250000e-01
31.070614	1.599744	dec_accept	1.599744	16.000000	n/a	8	1.250000e-01	1.250000e-01
31.070614	1.599744	dec_social_high	1.599744	16.000000	n/a	8	2.695312e-01	2.695312e-01
31.070614	1.599744	dec_social_accept_high	1.599744	16.000000	n/a	8	2.695312e-01	2.695312e-01
41.937000	2.183563	dec_social_choice	2.183563	16.000000	n/a	4	2.018229e-02	2.018229e-02
41.937000	2.183563	dec_choice	2.183563	16.000000	n/a	4	1.953125e-02	1.953125e-02
41.937000	2.183563	dec_social_accept	2.183563	16.000000	n/a	4	-1.250000e-01	-1.250000e-01
41.937000	2.183563	dec_accept	2.183563	16.000000	n/a	4	-1.250000e-01	-1.250000e-01
41.937000	2.183563	dec_social_accept_high	2.183563	16.000000	n/a	4	1.953125e-02	1.953125e-02
48.770626	2.315755	dec_nonsocial_choice	2.315755	16.000000	n/a	0	0	-2.298177e-01
48.770626	2.315755	dec_choice	2.315755	16.000000	n/a	0	0	-2.291667e-01
48.770626	2.315755	dec_nonsocial_reject	2.315755	16.000000	n/a	0	0	-2.213542e-02
48.770626	2.315755	dec_reject	2.315755	16.000000	n/a	0	0	-2.083333e-02
48.770626	2.315755	dec_nonsocial_low	2.315755	16.000000	n/a	0	-2.291667e-01	-2.291667e-01
48.770626	2.315755	dec_nonsocial_reject_low	2.315755	16.000000	n/a	1	-2.083333e-02	-8.333333e-02
56.419710	1.416646	dec_social_choice	1.416646	16.000000	n/a	4	2.018229e-02	2.018229e-02
56.419710	1.416646	dec_choice	1.416646	16.000000	n/a	4	1.953125e-02	1.953125e-02
56.419710	1.416646	dec_social_accept	1.416646	16.000000	n/a	4	-1.250000e-01	-1.250000e-01
56.419710	1.416646	dec_accept	1.416646	16.000000	n/a	4	-1.250000e-01	-1.250000e-01
56.419710	1.416646	dec_social_accept_high	1.416646	16.000000	n/a	4	1.953125e-02	1.953125e-02
63.253803	1.965807	dec_nonsocial_choice	1.965807	32.000000	n/a	8	2.018229e-02	2.018229e-02
63.253803	1.965807	dec_choice	1.965807	32.000000	n/a	8	2.083333e-02	2.083333e-02
63.253803	1.965807	dec_nonsocial_accept	1.965807	32.000000	n/a	8	-1.250000e-01	-1.250000e-01
63.253803	1.965807	dec_accept	1.965807	32.000000	n/a	8	-1.250000e-01	-1.250000e-01
63.253803	1.965807	dec_nonsocial_accept_high	1.965807	32.000000	n/a	8	-1.250000e-01	-1.250000e-01
72.520424	1.632524	dec_social_choice	1.632524	32.000000	n/a	16	2.701823e-01	2.701823e-01
72.520424	1.632524	dec_choice	1.632524	32.000000	n/a	16	2.695312e-01	2.695312e-01
72.520424	1.632524	dec_social_accept	1.632524	32.000000	n/a	16	1.250000e-01	1.250000e-01
72.520424	1.632524	dec_accept	1.632524	32.000000	n/a	16	1.250000e-01	1.250000e-01
72.520424	1.632524	dec_social_accept_high	1.632524	32.000000	n/a	16	2.695312e-01	2.695312e-01
79.353360	1.700240	dec_nonsocial_choice	1.700240	32.000000	n/a	16	2.701823e-01	2.701823e-01
79.353360	1.700240	dec_choice	1.700240	32.000000	n/a	16	2.708333e-01	2.708333e-01
79.353360	1.700240	dec_nonsocial_accept	1.700240	32.000000	n/a	16	1.250000e-01	1.250000e-01
79.353360	1.700240	dec_accept	1.700240	32.000000	n/a	16	1.250000e-01	1.250000e-01
79.353360	1.700240	dec_nonsocial_high	1.700240	32.000000	n/a	16	2.708333e-01	2.708333e-01
79.353360	1.700240	dec_nonsocial_accept_high	1.700240	32.000000	n/a	16	1.250000e-01	1.250000e-01
86.986404	1.633735	dec_nonsocial_choice	1.633735	32.000000	n/a	0	0	-2.298177e-01
86.986404	1.633735	dec_choice	1.633735	32.000000	n/a	0	0	-2.291667e-01
86.986404	1.633735	dec_nonsocial_reject	1.633735	32.000000	n/a	0	0	9.114583e-03
86.986404	1.633735	dec_reject	1.633735	32.000000	n/a	0	0	1.041667e-02
86.986404	1.633735	dec_nonsocial_reject_low	1.633735	32.000000	n/a	3	7.812500e-03	-8.593750e-02
93.819950	1.650051	dec_nonsocial_choice	1.650051	32.000000	n/a	0	0	-2.298177e-01
93.819950	1.650051	dec_choice	1.650051	32.000000	n/a	0	0	-2.291667e-01
93.819950	1.650051	dec_nonsocial_reject	1.650051	32.000000	n/a	0	0	-2.213542e-02
93.819950	1.650051	dec_reject	1.650051	32.000000	n/a	0	0	-2.083333e-02
93.819950	1.650051	dec_nonsocial_low	1.650051	32.000000	n/a	0	-2.291667e-01	-2.291667e-01
93.819950	1.650051	dec_nonsocial_reject_low	1.650051	32.000000	n/a	2	-2.083333e-02	-8.333333e-02
100.654070	1.866025	dec_social_choice	1.866025	32.000000	n/a	0	0	-2.298177e-01
100.654070	1.866025	dec_choice	1.866025	32.000000	n/a	0	0	-2.304688e-01
100.654070	1.866025	dec_social_reject	1.866025	32.000000	n/a	0	0	-2.213542e-02
100.654070	1.866025	dec_reject	1.866025	32.000000	n/a	0	0	-2.343750e-02
100.654070	1.866025	dec_social_low	1.866025	32.000000	n/a	0	-2.304688e-01	-2.304688e-01
100.654070	1.866025	dec_social_reject_low	1.866025	32.000000	n/a	2	-1.679688e-01	-2.304688e-01
108.303190	1.166708	dec_social_choice	1.166708	16.000000	n/a	8	2.701823e-01	2.701823e-01
108.303190	1.166708	dec_choice	1.166708	16.000000	n/a	8	2.695312e-01	2.695312e-01
108.303190	1.166708	dec_social_accept	1.166708	16.000000	n/a	8	1.250000e-01	1.250000e-01
108.303190	1.166708	dec_accept	1.166708	16.000000	n/a	8	1.250000e-01	1.250000e-01
108.303190	1.166708	dec_social_high	1.166708	16.000000	n/a	8	2.695312e-01	2.695312e-01
108.303190	1.166708	dec_social_accept_high	1.166708	16.000000	n/a	8	2.695312e-01	2.695312e-01
115.136720	1.616285	dec_nonsocial_choice	1.616285	16.000000	n/a	0	0	-2.298177e-01
115.136720	1.616285	dec_choice	1.616285	16.000000	n/a	0	0	-2.291667e-01
115.136720	1.616285	dec_nonsocial_reject	1.616285	16.000000	n/a	0	0	4.036458e-02
115.136720	1.616285	dec_reject	1.616285	16.000000	n/a	0	0	4.166667e-02
115.136720	1.616285	dec_nonsocial_low	1.616285	16.000000	n/a	0	-2.291667e-01	-2.291667e-01
115.136720	1.616285	dec_nonsocial_reject_low	1.616285	16.000000	n/a	2	4.166667e-02	-8.333333e-02
122.787180	1.449447	dec_nonsocial_choice	1.449447	32.000000	n/a	0	0	-2.298177e-01
122.787180	1.449447	dec_choice	1.449447	32.000000	n/a	0	0	-2.291667e-01
122.787180	1.449447	dec_nonsocial_reject	1.449447	32.000000	n/a	0	0	9.114583e-03
122.787180	1.449447	dec_reject	1.449447	32.000000	n/a	0	0	1.041667e-02
122.787180	1.449447	dec_nonsocial_reject_low	1.449447	32.000000	n/a	3	7.812500e-03	-8.593750e-02
130.436680	1.299892	dec_nonsocial_choice	1.299892	16.000000	n/a	8	2.701823e-01	2.701823e-01
130.436680	1.299892	dec_choice	1.299892	16.000000	n/a	8	2.708333e-01	2.708333e-01
130.436680	1.299892	dec_nonsocial_accept	1.299892	16.000000	n/a	8	1.250000e-01	1.250000e-01
130.436680	1.299892	dec_accept	1.299892	16.000000	n/a	8	1.250000e-01	1.250000e-01
130.436680	1.299892	dec_nonsocial_accept_high	1.299892	16.000000	n/a	8	1.250000e-01	1.250000e-01
137.269940	1.216292	dec_social_choice	1.216292	16.000000	n/a	8	2.701823e-01	2.701823e-01
137.269940	1.216292	dec_choice	1.216292	16.000000	n/a	8	2.695312e-01	2.695312e-01
137.269940	1.216292	dec_social_accept	1.216292	16.000000	n/a	8	1.250000e-01	1.250000e-01
137.269940	1.216292	dec_accept	1.216292	16.000000	n/a	8	1.250000e-01	1.250000e-01
137.269940	1.216292	dec_social_accept_high	1.216292	16.000000	n/a	8	2.695312e-01	2.695312e-01
144.104130	1.415394	dec_nonsocial_choice	1.415394	16.000000	n/a	0	0	-2.298177e-01
144.104130	1.415394	dec_choice	1.415394	16.000000	n/a	0	0	-2.291667e-01
144.104130	1.415394	dec_nonsocial_reject	1.415394	16.000000	n/a	0	0	-2.213542e-02
144.104130	1.415394	dec_reject	1.415394	16.000000	n/a	0	0	-2.083333e-02
144.104130	1.415394	dec_nonsocial_low	1.415394	16.000000	n/a	0	-2.291667e-01	-2.291667e-01
144.104130	1.415394	dec_nonsocial_reject_low	1.415394	16.000000	n/a	1	-2.083333e-02	-8.333333e-02
153.369140	1.834032	dec_nonsocial_choice	1.834032	16.000000	n/a	4	2.018229e-02	2.018229e-02
153.369140	1.834032	dec_choice	1.834032	16.000000	n/a	4	2.083333e-02	2.083333e-02
153.369140	1.834032	dec_nonsocial_accept	1.834032	16.000000	n/a	4	-1.250000e-01	-1.250000e-01
153.369140	1.834032	dec_accept	1.834032	16.000000	n/a	4	-1.250000e-01	-1.250000e-01
153.369140	1.834032	dec_nonsocial_high	1.834032	16.000000	n/a	4	2.083333e-02	2.083333e-02
153.369140	1.834032	dec_nonsocial_accept_high	1.834032	16.000000	n/a	4	-1.250000e-01	-1.250000e-01
161.002700	1.417144	dec_social_choice	1.417144	16.000000	n/a	0	0	-2.298177e-01
161.002700	1.417144	dec_choice	1.417144	16.000000	n/a	0	0	-2.304688e-01
161.002700	1.417144	dec_social_reject	1.417144	16.000000	n/a	0	0	4.036458e-02
161.002700	1.417144	dec_reject	1.417144	16.000000	n/a	0	0	3.906250e-02
161.002700	1.417144	dec_social_low	1.417144	16.000000	n/a	0	-2.304688e-01	-2.304688e-01
161.002700	1.417144	dec_social_reject_low	1.417144	16.000000	n/a	2	-1.054688e-01	-2.304688e-01
168.653090	2.133817	dec_nonsocial_choice	2.133817	32.000000	n/a	0	0	-2.298177e-01
168.653090	2.133817	dec_choice	2.133817	32.000000	n/a	0	0	-2.291667e-01
168.653090	2.133817	dec_nonsocial_reject	2.133817	32.000000	n/a	0	0	9.114583e-03
168.653090	2.133817	dec_reject	2.133817	32.000000	n/a	0	0	1.041667e-02
168.653090	2.133817	dec_nonsocial_low	2.133817	32.000000	n/a	0	-2.291667e-01	-2.291667e-01
168.653090	2.133817	dec_nonsocial_reject_low	2.133817	32.000000	n/a	3	1.041667e-02	-8.333333e-02
176.303650	1.483008	dec_nonsocial_choice	1.483008	32.000000	n/a	8	2.018229e-02	2.018229e-02
176.303650	1.483008	dec_choice	1.483008	32.000000	n/a	8	2.083333e-02	2.083333e-02
176.303650	1.483008	dec_nonsocial_accept	1.483008	32.000000	n/a	8	-1.250000e-01	-1.250000e-01
176.303650	1.483008	dec_accept	1.483008	32.000000	n/a	8	-1.250000e-01	-1.250000e-01
176.303650	1.483008	dec_nonsocial_high	1.483008	32.000000	n/a	8	2.083333e-02	2.083333e-02
176.303650	1.483008	dec_nonsocial_accept_high	1.483008	32.000000	n/a	8	-1.250000e-01	-1.250000e-01
183.952500	1.583554	dec_social_choice	1.583554	32.000000	n/a	0	0	-2.298177e-01
183.952500	1.583554	dec_choice	1.583554	32.000000	n/a	0	0	-2.304688e-01
183.952500	1.583554	dec_social_reject	1.583554	32.000000	n/a	0	0	9.114583e-03
183.952500	1.583554	dec_reject	1.583554	32.000000	n/a	0	0	7.812500e-03
183.952500	1.583554	dec_social_low	1.583554	32.000000	n/a	0	-2.304688e-01	-2.304688e-01
183.952500	1.583554	dec_social_reject_low	1.583554	32.000000	n/a	3	-1.367188e-01	-2.304688e-01
196.436460	1.483570	dec_nonsocial_choice	1.483570	16.000000	n/a	8	2.701823e-01	2.701823e-01
196.436460	1.483570	dec_choice	1.483570	16.000000	n/a	8	2.708333e-01	2.708333e-01
196.436460	1.483570	dec_nonsocial_accept	1.483570	16.000000	n/a	8	1.250000e-01	1.250000e-01
196.436460	1.483570	dec_accept	1.483570	16.000000	n/a	8	1.250000e-01	1.250000e-01
196.436460	1.483570	dec_nonsocial_high	1.483570	16.000000	n/a	8	2.708333e-01	2.708333e-01
196.436460	1.483570	dec_nonsocial_accept_high	1.483570	16.000000	n/a	8	1.250000e-01	1.250000e-01
203.269230	1.366872	dec_social_choice	1.366872	16.000000	n/a	4	2.018229e-02	2.018229e-02
203.269230	1.366872	dec_choice	1.366872	16.000000	n/a	4	1.953125e-02	1.953125e-02
203.269230	1.366872	dec_social_accept	1.366872	16.000000	n/a	4	-1.250000e-01	-1.250000e-01
203.269230	1.366872	dec_accept	1.366872	16.000000	n/a	4	-1.250000e-01	-1.250000e-01
203.269230	1.366872	dec_social_accept_high	1.366872	16.000000	n/a	4	1.953125e-02	1.953125e-02
210.103330	1.399804	dec_nonsocial_choice	1.399804	32.000000	n/a	0	0	-2.298177e-01
210.103330	1.399804	dec_choice	1.399804	32.000000	n/a	0	0	-2.291667e-01
210.103330	1.399804	dec_nonsocial_reject	1.399804	32.000000	n/a	0	0	9.114583e-03
210.103330	1.399804	dec_reject	1.399804	32.000000	n/a	0	0	1.041667e-02
210.103330	1.399804	dec_nonsocial_low	1.399804	32.000000	n/a	0	-2.291667e-01	-2.291667e-01
210.103330	1.399804	dec_nonsocial_reject_low	1.399804	32.000000	n/a	3	1.041667e-02	-8.333333e-02
219.352970	1.883385	dec_social_choice	1.883385	32.000000	n/a	0	0	-2.298177e-01
219.352970	1.883385	dec_choice	1.883385	32.000000	n/a	0	0	-2.304688e-01
219.352970	1.883385	dec_social_reject	1.883385	32.000000	n/a	0	0	-2.213542e-02
219.352970	1.883385	dec_reject	1.883385	32.000000	n/a	0	0	-2.343750e-02
219.352970	1.883385	dec_social_low	1.883385	32.000000	n/a	0	-2.304688e-01	-2.304688e-01
219.352970	1.883385	dec_social_reject_low	1.883385	32.000000	n/a	2	-1.679688e-01	-2.304688e-01
226.185930	1.534218	dec_social_choice	1.534218	16.000000	n/a	8	2.701823e-01	2.701823e-01
226.185930	1.534218	dec_choice	1.534218	16.000000	n/a	8	2.695312e-01	2.695312e-01
226.185930	1.534218	dec_social_accept	1.534218	16.000000	n/a	8	1.250000e-01	1.250000e-01
226.185930	1.534218	dec_accept	1.534218	16.000000	n/a	8	1.250000e-01	1.250000e-01
226.185930	1.534218	dec_social_high	1.534218	16.000000	n/a	8	2.695312e-01	2.695312e-01
226.185930	1.534218	dec_social_accept_high	1.534218	16.000000	n/a	8	2.695312e-01	2.695312e-01
233.819170	1.283945	dec_social_choice	1.283945	32.000000	n/a	16	2.701823e-01	2.701823e-01
233.819170	1.283945	dec_choice	1.283945	32.000000	n/a	16	2.695312e-01	2.695312e-01
233.819170	1.283945	dec_social_accept	1.283945	32.000000	n/a	16	1.250000e-01	1.250000e-01
233.819170	1.283945	dec_accept	1.283945	32.000000	n/a	16	1.250000e-01	1.250000e-01
233.819170	1.283945	dec_social_high	1.283945	32.000000	n/a	16	2.695312e-01	2.695312e-01
233.819170	1.283945	dec_social_accept_high	1.283945	32.000000	n/a	16	2.695312e-01	2.695312e-01
240.653060	1.316192	dec_social_choice	1.316192	16.000000	n/a	0	0	-2.298177e-01
240.653060	1.316192	dec_choice	1.316192	16.000000	n/a	0	0	-2.304688e-01
240.653060	1.316192	dec_social_reject	1.316192	16.000000	n/a	0	0	-2.213542e-02
240.653060	1.316192	dec_reject	1.316192	16.000000	n/a	0	0	-2.343750e-02
240.653060	1.316192	dec_social_reject_low	1.316192	16.000000	n/a	1	-1.679688e-01	-2.304688e-01
247.486020	1.700440	dec_social_choice	1.700440	32.000000	n/a	0	0	-2.298177e-01
247.486020	1.700440	dec_choice	1.700440	32.000000	n/a	0	0	-2.304688e-01
247.486020	1.700440	dec_social_reject	1.700440	32.000000	n/a	0	0	9.114583e-03
247.486020	1.700440	dec_reject	1.700440	32.000000	n/a	0	0	7.812500e-03
247.486020	1.700440	dec_social_reject_low	1.700440	32.000000	n/a	3	-1.367188e-01	-2.304688e-01
254.320180	1.549559	dec_nonsocial_choice	1.549559	16.000000	n/a	0	0	-2.298177e-01
254.320180	1.549559	dec_choice	1.549559	16.000000	n/a	0	0	-2.291667e-01
254.320180	1.549559	dec_nonsocial_reject	1.549559	16.000000	n/a	0	0	-2.213542e-02
254.320180	1.549559	dec_reject	1.549559	16.000000	n/a	0	0	-2.083333e-02
254.320180	1.549559	dec_nonsocial_reject_low	1.549559	16.000000	n/a	1	-2.343750e-02	-8.593750e-02
261.153930	1.382550	dec_nonsocial_choice	1.382550	32.000000	n/a	8	2.018229e-02	2.018229e-02
261.153930	1.382550	dec_choice	1.382550	32.000000	n/a	8	2.083333e-02	2.083333e-02
261.153930	1.382550	dec_nonsocial_accept	1.382550	32.000000	n/a	8	-1.250000e-01	-1.250000e-01
261.153930	1.382550	dec_accept	1.382550	32.000000	n/a	8	-1.250000e-01	-1.250000e-01
261.153930	1.382550	dec_nonsocial_accept_high	1.382550	32.000000	n/a	8	-1.250000e-01	-1.250000e-01
267.987430	1.532156	dec_nonsocial_choice	1.532156	16.000000	n/a	0	0	-2.298177e-01
267.987430	1.532156	dec_choice	1.532156	16.000000	n/a	0	0	-2.291667e-01
267.987430	1.532156	dec_nonsocial_reject	1.532156	16.000000	n/a	0	0	4.036458e-02
267.987430	1.532156	dec_reject	1.532156	16.000000	n/a	0	0	4.166667e-02
267.987430	1.532156	dec_nonsocial_low	1.532156	16.000000	n/a	0	-2.291667e-01	-2.291667e-01
267.987430	1.532156	dec_nonsocial_reject_low	1.532156	16.000000	n/a	2	4.166667e-02	-8.333333e-02
275.636100	1.283659	dec_nonsocial_choice	1.283659	32.000000	n/a	0	0	-2.298177e-01
275.636100	1.283659	dec_choice	1.283659	32.000000	n/a	0	0	-2.291667e-01
275.636100	1.283659	dec_nonsocial_reject	1.283659	32.000000	n/a	0	0	-2.213542e-02
275.636100	1.283659	dec_reject	1.283659	32.000000	n/a	0	0	-2.083333e-02
275.636100	1.283659	dec_nonsocial_low	1.283659	32.000000	n/a	0	-2.291667e-01	-2.291667e-01
275.636100	1.283659	dec_nonsocial_reject_low	1.283659	32.000000	n/a	2	-2.083333e-02	-8.333333e-02
286.502470	1.266708	dec_nonsocial_choice	1.266708	32.000000	n/a	0	0	-2.298177e-01
286.502470	1.266708	dec_choice	1.266708	32.000000	n/a	0	0	-2.291667e-01
286.502470	1.266708	dec_nonsocial_reject	1.266708	32.000000	n/a	0	0	-2.213542e-02
286.502470	1.266708	dec_reject	1.266708	32.000000	n/a	0	0	-2.083333e-02
286.502470	1.266708	dec_nonsocial_low	1.266708	32.000000	n/a	0	-2.291667e-01	-2.291667e-01
286.502470	1.266708	dec_nonsocial_reject_low	1.266708	32.000000	n/a	2	-2.083333e-02	-8.333333e-02
293.336060	1.600333	dec_social_choice	1.600333	32.000000	n/a	0	0	-2.298177e-01
293.336060	1.600333	dec_choice	1.600333	32.000000	n/a	0	0	-2.304688e-01
293.336060	1.600333	dec_social_reject	1.600333	32.000000	n/a	0	0	-2.213542e-02
293.336060	1.600333	dec_reject	1.600333	32.000000	n/a	0	0	-2.343750e-02
293.336060	1.600333	dec_social_reject_low	1.600333	32.000000	n/a	2	-1.679688e-01	-2.304688e-01
300.169800	1.399865	dec_social_choice	1.399865	32.000000	n/a	0	0	-2.298177e-01
300.169800	1.399865	dec_choice	1.399865	32.000000	n/a	0	0	-2.304688e-01
300.169800	1.399865	dec_social_reject	1.399865	32.000000	n/a	0	0	-2.213542e-02
300.169800	1.399865	dec_reject	1.399865	32.000000	n/a	0	0	-2.343750e-02
300.169800	1.399865	dec_social_low	1.399865	32.000000	n/a	0	-2.304688e-01	-2.304688e-01
300.169800	1.399865	dec_social_reject_low	1.399865	32.000000	n/a	2	-1.679688e-01	-2.304688e-01
309.437100	1.732581	dec_social_choice	1.732581	16.000000	n/a	0	0	-2.298177e-01
309.437100	1.732581	dec_choice	1.732581	16.000000	n/a	0	0	-2.304688e-01
309.437100	1.732581	dec_social_reject	1.732581	16.000000	n/a	0	0	-2.213542e-02
309.437100	1.732581	dec_reject	1.732581	16.000000	n/a	0	0	-2.343750e-02
309.437100	1.732581	dec_social_low	1.732581	16.000000	n/a	0	-2.304688e-01	-2.304688e-01
309.437100	1.732581	dec_social_reject_low	1.732581	16.000000	n/a	1	-1.679688e-01	-2.304688e-01
316.269260	1.133199	dec_social_choice	1.133199	16.000000	n/a	4	2.018229e-02	2.018229e-02
316.269260	1.133199	dec_choice	1.133199	16.000000	n/a	4	1.953125e-02	1.953125e-02
316.269260	1.133199	dec_social_accept	1.133199	16.000000	n/a	4	-1.250000e-01	-1.250000e-01
316.269260	1.133199	dec_accept	1.133199	16.000000	n/a	4	-1.250000e-01	-1.250000e-01
316.269260	1.133199	dec_social_accept_high	1.133199	16.000000	n/a	4	1.953125e-02	1.953125e-02
323.103100	1.233249	dec_social_choice	1.233249	32.000000	n/a	8	2.018229e-02	2.018229e-02
323.103100	1.233249	dec_choice	1.233249	32.000000	n/a	8	1.953125e-02	1.953125e-02
323.103100	1.233249	dec_social_accept	1.233249	32.000000	n/a	8	-1.250000e-01	-1.250000e-01
323.103100	1.233249	dec_accept	1.233249	32.000000	n/a	8	-1.250000e-01	-1.250000e-01
323.103100	1.233249	dec_social_accept_high	1.233249	32.000000	n/a	8	1.953125e-02	1.953125e-02
329.936070	0.916357	dec_nonsocial_choice	0.916357	16.000000	n/a	8	2.701823e-01	2.701823e-01
329.936070	0.916357	dec_choice	0.916357	16.000000	n/a	8	2.708333e-01	2.708333e-01
329.936070	0.916357	dec_nonsocial_accept	0.916357	16.000000	n/a	8	1.250000e-01	1.250000e-01
329.936070	0.916357	dec_accept	0.916357	16.000000	n/a	8	1.250000e-01	1.250000e-01
329.936070	0.916357	dec_nonsocial_accept_high	0.916357	16.000000	n/a	8	1.250000e-01	1.250000e-01
336.770570	1.415016	dec_social_choice	1.415016	16.000000	n/a	4	2.018229e-02	2.018229e-02
336.770570	1.415016	dec_choice	1.415016	16.000000	n/a	4	1.953125e-02	1.953125e-02
336.770570	1.415016	dec_social_accept	1.415016	16.000000	n/a	4	-1.250000e-01	-1.250000e-01
336.770570	1.415016	dec_accept	1.415016	16.000000	n/a	4	-1.250000e-01	-1.250000e-01
336.770570	1.415016	dec_social_high	1.415016	16.000000	n/a	4	1.953125e-02	1.953125e-02
336.770570	1.415016	dec_social_accept_high	1.415016	16.000000	n/a	4	1.953125e-02	1.953125e-02
343.603030	1.483194	dec_nonsocial_choice	1.483194	16.000000	n/a	4	2.018229e-02	2.018229e-02
343.603030	1.483194	dec_choice	1.483194	16.000000	n/a	4	2.083333e-02	2.083333e-02
343.603030	1.483194	dec_nonsocial_accept	1.483194	16.000000	n/a	4	-1.250000e-01	-1.250000e-01
343.603030	1.483194	dec_accept	1.483194	16.000000	n/a	4	-1.250000e-01	-1.250000e-01
343.603030	1.483194	dec_nonsocial_high	1.483194	16.000000	n/a	4	2.083333e-02	2.083333e-02
343.603030	1.483194	dec_nonsocial_accept_high	1.483194	16.000000	n/a	4	-1.250000e-01	-1.250000e-01
354.469480	1.699915	dec_social_choice	1.699915	16.000000	n/a	0	0	-2.298177e-01
354.469480	1.699915	dec_choice	1.699915	16.000000	n/a	0	0	-2.304688e-01
354.469480	1.699915	dec_social_reject	1.699915	16.000000	n/a	0	0	4.036458e-02
354.469480	1.699915	dec_reject	1.699915	16.000000	n/a	0	0	3.906250e-02
354.469480	1.699915	dec_social_low	1.699915	16.000000	n/a	0	-2.304688e-01	-2.304688e-01
354.469480	1.699915	dec_social_reject_low	1.699915	16.000000	n/a	2	-1.054688e-01	-2.304688e-01
361.302860	1.949955	dec_social_choice	1.949955	16.000000	n/a	0	0	-2.298177e-01
361.302860	1.949955	dec_choice	1.949955	16.000000	n/a	0	0	-2.304688e-01
361.302860	1.949955	dec_social_reject	1.949955	16.000000	n/a	0	0	4.036458e-02
361.302860	1.949955	dec_reject	1.949955	16.000000	n/a	0	0	3.906250e-02
361.302860	1.949955	dec_social_reject_low	1.949955	16.000000	n/a	2	-1.054688e-01	-2.304688e-01
370.553600	1.698961	dec_social_choice	1.698961	32.000000	n/a	0	0	-2.298177e-01
370.553600	1.698961	dec_choice	1.698961	32.000000	n/a	0	0	-2.304688e-01
370.553600	1.698961	dec_social_reject	1.698961	32.000000	n/a	0	0	9.114583e-03
370.553600	1.698961	dec_reject	1.698961	32.000000	n/a	0	0	7.812500e-03
370.553600	1.698961	dec_social_low	1.698961	32.000000	n/a	0	-2.304688e-01	-2.304688e-01
370.553600	1.698961	dec_social_reject_low	1.698961	32.000000	n/a	3	-1.367188e-01	-2.304688e-01
