onset	duration	trial_type	rt	resp	gender	image_left	image_right
0.600558100035414	3.00036329985596	decision	1.5333497000392526	right	D	DD017.jpg	DD018.jpg
4.15020929998718	1.00012729992159	loss	n/a	n/a	n/a	DD017.jpg	DD018.jpg
11.0835732999258	3.00133350002579	decision	2.2824307000264525	right	D	DD035.jpg	DD036.jpg
14.6335034000222	1.00008079991676	win	n/a	n/a	n/a	DD035.jpg	DD036.jpg
21.5503950999118	3.0018424000591	decision	2.0324707000982016	left	D	DD021.jpg	DD022.jpg
25.1002380000427	1.0166211000178	loss	n/a	n/a	n/a	DD021.jpg	DD022.jpg
32.033590799896	3.00129150017165	decision	1.5323787999805063	right	S	SD025.jpg	SD026.jpg
35.5835680998862	1.01666580000892	loss	n/a	n/a	n/a	SD025.jpg	SD026.jpg
38.3172923000529	3.00130030000582	decision	1.7826125998981297	left	S	SD027.jpg	SD028.jpg
41.8666960000992	1.01679339981638	loss	n/a	n/a	n/a	SD027.jpg	SD028.jpg
44.6001869998872	3.00191780016758	decision	1.7826484001707286	right	S	SD023.jpg	SD024.jpg
48.1501513998955	1.00000820006244	win	n/a	n/a	n/a	SD023.jpg	SD024.jpg
50.8668945999816	3.00214889994822	decision	2.032937099924311	right	D	DD037.jpg	DD038.jpg
54.4168312998954	1.01663159998134	win	n/a	n/a	n/a	DD037.jpg	DD038.jpg
59.2667284999043	3.00073700002395	decision	2.0331215001642704	left	S	SD011.jpg	SD012.jpg
62.8166435000021	1.00003929995	loss	n/a	n/a	n/a	SD011.jpg	SD012.jpg
67.6338456999511	3.0021423001308	decision	2.2817762000486255	left	D	DD009.jpg	DD010.jpg
71.1841303999536	1.01596989994869	win	n/a	n/a	n/a	DD009.jpg	DD010.jpg
73.9167696000077	3.00067800004035	decision	1.7830978999845684	left	D	DD027.jpg	DD028.jpg
77.4667307999916	1.01670120004565	win	n/a	n/a	n/a	DD027.jpg	DD028.jpg
82.3167202998884	3.0011903999839	decision	2.0325959001202136	left	D	DD015.jpg	DD016.jpg
85.8666133000515	1.01673859986477	loss	n/a	n/a	n/a	DD015.jpg	DD016.jpg
92.8001975999214	3.00069480016828	decision	2.533614099957049	left	S	SD029.jpg	SD030.jpg
96.3500975000206	1.0165625999216	loss	n/a	n/a	n/a	SD029.jpg	SD030.jpg
101.183760100044	3.00216999999247	decision	2.282895299838856	left	S	SD015.jpg	SD016.jpg
104.733377400087	1.0166207998991	win	n/a	n/a	n/a	SD015.jpg	SD016.jpg
111.666836699937	3.00110190012492	decision	2.282393400091678	left	S	SD007.jpg	SD008.jpg
115.216778399888	1.01651670015417	win	n/a	n/a	n/a	SD007.jpg	SD008.jpg
120.050167100038	3.00177229987457	decision	2.532734999898821	right	S	SD017.jpg	SD018.jpg
123.600007100031	1.00002030003816	win	n/a	n/a	n/a	SD017.jpg	SD018.jpg
126.316706799902	3.00091690011322	decision	2.5331739000976086	right	D	DD033.jpg	DD034.jpg
129.866534800036	1.01666059996933	win	n/a	n/a	n/a	DD033.jpg	DD034.jpg
132.616925599985	3.00111560011283	decision	2.5350003999192268	left	D	DD007.jpg	DD008.jpg
136.166606999934	1.00014699995518	loss	n/a	n/a	n/a	DD007.jpg	DD008.jpg
138.883354600053	3.00116820004769	decision	2.033454000018537	left	D	DD023.jpg	DD024.jpg
142.433243300067	1.00003089988604	loss	n/a	n/a	n/a	DD023.jpg	DD024.jpg
155.666987800039	3.00077939988114	decision	2.032145299948752	right	S	SD009.jpg	SD010.jpg
159.216708600055	1.01650369982235	loss	n/a	n/a	n/a	SD009.jpg	SD010.jpg
164.049933000002	3.00109570007771	decision	2.5330590000376105	left	D	DD001.jpg	DD002.jpg
167.599968600087	1.01642789994366	win	n/a	n/a	n/a	DD001.jpg	DD002.jpg
170.367459800094	3.0008700999897	decision	1.7820089999586344	right	S	SD019.jpg	SD020.jpg
173.91655720002	1.01656050002202	loss	n/a	n/a	n/a	SD019.jpg	SD020.jpg
180.866558199981	3.00114629999734	decision	2.0324890001211315	right	D	DD031.jpg	DD032.jpg
184.416575999931	1.01661569997668	loss	n/a	n/a	n/a	DD031.jpg	DD032.jpg
189.249818299897	3.00103240017779	decision	2.283116300124675	left	S	SD005.jpg	SD006.jpg
192.799744799966	1.01666480000131	win	n/a	n/a	n/a	SD005.jpg	SD006.jpg
195.566571200034	3.00104600004852	decision	2.0323826998937875	right	D	DD019.jpg	DD020.jpg
199.116499800002	1.01669279998168	win	n/a	n/a	n/a	DD019.jpg	DD020.jpg
206.049720499897	3.00114330020733	decision	1.7831766000017524	right	S	SD013.jpg	SD014.jpg
209.599588399986	1.00017419992946	loss	n/a	n/a	n/a	SD013.jpg	SD014.jpg
216.516359000001	3.00091430009343	decision	1.7830676001030952	left	S	SD031.jpg	SD032.jpg
220.06670570001	1.01632709987462	loss	n/a	n/a	n/a	SD031.jpg	SD032.jpg
224.899748299969	3.00129880011082	decision	2.283219699980691	left	D	DD039.jpg	DD040.jpg
228.449672299903	1.00002959999256	loss	n/a	n/a	n/a	DD039.jpg	DD040.jpg
231.1830837999	3.30033680004999	decision	3.2998232000973076	right	D	DD005.jpg	DD006.jpg
235.033073399914	1.01720200013369	loss	n/a	n/a	n/a	DD005.jpg	DD006.jpg
241.966760199983	3.00112459994853	decision	1.782785400049761	right	S	SD037.jpg	SD038.jpg
245.516705200076	1.01629469986074	loss	n/a	n/a	n/a	SD037.jpg	SD038.jpg
248.249728499912	3.00112120015547	decision	1.7831385000608861	left	S	SD039.jpg	SD040.jpg
251.799552500015	1.00022639986128	win	n/a	n/a	n/a	SD039.jpg	SD040.jpg
254.516424400033	3.00129609997384	decision	2.0337155000306666	left	S	SD033.jpg	SD034.jpg
258.06665719999	1.01638039993122	loss	n/a	n/a	n/a	SD033.jpg	SD034.jpg
260.799706100021	3.00082989991643	decision	1.782843800028786	left	D	DD013.jpg	DD014.jpg
264.349908499978	1.01641579996794	win	n/a	n/a	n/a	DD013.jpg	DD014.jpg
269.18327430007	3.00154919992201	decision	1.7827022999990731	left	S	SD001.jpg	SD002.jpg
272.732879899908	1.0000730000902	win	n/a	n/a	n/a	SD001.jpg	SD002.jpg
275.449654399883	3.00148840015754	decision	2.0332022001966834	right	D	DD003.jpg	DD004.jpg
278.9996046999	1.0000044000335	win	n/a	n/a	n/a	DD003.jpg	DD004.jpg
283.816225500079	3.00106559996493	decision	2.033575000008568	right	S	SD003.jpg	SD004.jpg
287.366338700056	1.01647030003369	win	n/a	n/a	n/a	SD003.jpg	SD004.jpg
294.300129999872	3.00135950022377	decision	1.5326748001389205	right	D	DD025.jpg	DD026.jpg
297.849657299928	1.01640040008351	win	n/a	n/a	n/a	DD025.jpg	DD026.jpg
304.799669499975	3.00111049995758	decision	1.2835701999720186	right	S	SD035.jpg	SD036.jpg
308.349404500099	1.00003499980085	win	n/a	n/a	n/a	SD035.jpg	SD036.jpg
311.066283199936	3.00151710002683	decision	2.2829376000445336	left	D	DD011.jpg	DD012.jpg
314.616458599921	1.01628109999001	loss	n/a	n/a	n/a	DD011.jpg	DD012.jpg
317.34956360003	3.03620389988646	decision-missed	n/a	n/a	S	SD021.jpg	SD022.jpg
320.932796800043	1.01669449987821	win	n/a	n/a	n/a	SD021.jpg	SD022.jpg
325.766176499892	3.00182700017467	decision	1.2836496999952942	right	D	DD029.jpg	DD030.jpg
329.316426800098	1.00005029980093	loss	n/a	n/a	n/a	DD029.jpg	DD030.jpg
