onset	duration	trial_type	response_time	Endowment	Endowment_pmod	Decision	Decision_pmod	Offer_pmod
4.599278	2	cue_social	n/a	32	7	n/a	n/a	n/a
4.599278	2	cue_social_high	n/a	32	7	n/a	n/a	n/a
13.850609	2	cue_social	n/a	16	-9	n/a	n/a	n/a
13.850609	2	cue_social_low	n/a	16	-9	n/a	n/a	n/a
21.486350	2	cue_social	n/a	16	-9	n/a	n/a	n/a
21.486350	2	cue_social_low	n/a	16	-9	n/a	n/a	n/a
28.250816	2	cue_nonsocial	n/a	32	7	n/a	n/a	n/a
28.250816	2	cue_nonsocial_high	n/a	32	7	n/a	n/a	n/a
35.969060	2	cue_social	n/a	16	-9	n/a	n/a	n/a
35.969060	2	cue_social_low	n/a	16	-9	n/a	n/a	n/a
43.550823	2	cue_nonsocial	n/a	16	-9	n/a	n/a	n/a
43.550823	2	cue_nonsocial_low	n/a	16	-9	n/a	n/a	n/a
54.417744	2	cue_nonsocial	n/a	32	7	n/a	n/a	n/a
54.417744	2	cue_nonsocial_high	n/a	32	7	n/a	n/a	n/a
65.391556	2	cue_social	n/a	32	7	n/a	n/a	n/a
65.391556	2	cue_social_high	n/a	32	7	n/a	n/a	n/a
74.629265	2	cue_social	n/a	16	-9	n/a	n/a	n/a
74.629265	2	cue_social_low	n/a	16	-9	n/a	n/a	n/a
81.384250	2	cue_nonsocial	n/a	32	7	n/a	n/a	n/a
81.384250	2	cue_nonsocial_high	n/a	32	7	n/a	n/a	n/a
88.217590	2	cue_nonsocial	n/a	32	7	n/a	n/a	n/a
88.217590	2	cue_nonsocial_high	n/a	32	7	n/a	n/a	n/a
95.051186	2	cue_nonsocial	n/a	32	7	n/a	n/a	n/a
95.051186	2	cue_nonsocial_high	n/a	32	7	n/a	n/a	n/a
104.317825	2	cue_nonsocial	n/a	16	-9	n/a	n/a	n/a
104.317825	2	cue_nonsocial_low	n/a	16	-9	n/a	n/a	n/a
111.150850	2	cue_nonsocial	n/a	32	7	n/a	n/a	n/a
111.150850	2	cue_nonsocial_high	n/a	32	7	n/a	n/a	n/a
120.487950	2	cue_social	n/a	32	7	n/a	n/a	n/a
120.487950	2	cue_social_high	n/a	32	7	n/a	n/a	n/a
128.122270	2	cue_social	n/a	32	7	n/a	n/a	n/a
128.122270	2	cue_social_high	n/a	32	7	n/a	n/a	n/a
134.867510	2	cue_nonsocial	n/a	16	-9	n/a	n/a	n/a
134.867510	2	cue_nonsocial_low	n/a	16	-9	n/a	n/a	n/a
142.591110	2	cue_social	n/a	32	7	n/a	n/a	n/a
142.591110	2	cue_social_high	n/a	32	7	n/a	n/a	n/a
151.832400	2	cue_social	n/a	32	7	n/a	n/a	n/a
151.832400	2	cue_social_high	n/a	32	7	n/a	n/a	n/a
158.583800	2	cue_nonsocial	n/a	32	7	n/a	n/a	n/a
158.583800	2	cue_nonsocial_high	n/a	32	7	n/a	n/a	n/a
166.327620	2	cue_social	n/a	16	-9	n/a	n/a	n/a
166.327620	2	cue_social_low	n/a	16	-9	n/a	n/a	n/a
178.717440	2	cue_nonsocial	n/a	16	-9	n/a	n/a	n/a
178.717440	2	cue_nonsocial_low	n/a	16	-9	n/a	n/a	n/a
185.631600	2	cue_social	n/a	16	-9	n/a	n/a	n/a
185.631600	2	cue_social_low	n/a	16	-9	n/a	n/a	n/a
192.383790	2	cue_nonsocial	n/a	16	-9	n/a	n/a	n/a
192.383790	2	cue_nonsocial_low	n/a	16	-9	n/a	n/a	n/a
199.217450	2	cue_nonsocial	n/a	16	-9	n/a	n/a	n/a
199.217450	2	cue_nonsocial_low	n/a	16	-9	n/a	n/a	n/a
206.135040	2	cue_social	n/a	32	7	n/a	n/a	n/a
206.135040	2	cue_social_high	n/a	32	7	n/a	n/a	n/a
213.802870	2	cue_social	n/a	32	7	n/a	n/a	n/a
213.802870	2	cue_social_high	n/a	32	7	n/a	n/a	n/a
220.557970	2	cue_social	n/a	16	-9	n/a	n/a	n/a
220.557970	2	cue_social_low	n/a	16	-9	n/a	n/a	n/a
227.367140	2	cue_nonsocial	n/a	32	7	n/a	n/a	n/a
227.367140	2	cue_nonsocial_high	n/a	32	7	n/a	n/a	n/a
234.200580	2	cue_nonsocial	n/a	32	7	n/a	n/a	n/a
234.200580	2	cue_nonsocial_high	n/a	32	7	n/a	n/a	n/a
241.098310	2	cue_social	n/a	16	-9	n/a	n/a	n/a
241.098310	2	cue_social_low	n/a	16	-9	n/a	n/a	n/a
248.683690	2	cue_nonsocial	n/a	32	7	n/a	n/a	n/a
248.683690	2	cue_nonsocial_high	n/a	32	7	n/a	n/a	n/a
256.333700	2	cue_nonsocial	n/a	16	-9	n/a	n/a	n/a
256.333700	2	cue_nonsocial_low	n/a	16	-9	n/a	n/a	n/a
264.044370	2	cue_social	n/a	32	7	n/a	n/a	n/a
264.044370	2	cue_social_high	n/a	32	7	n/a	n/a	n/a
273.289640	2	cue_social	n/a	32	7	n/a	n/a	n/a
273.289640	2	cue_social_high	n/a	32	7	n/a	n/a	n/a
280.067100	2	cue_nonsocial	n/a	32	7	n/a	n/a	n/a
280.067100	2	cue_nonsocial_high	n/a	32	7	n/a	n/a	n/a
286.916560	2	cue_social	n/a	16	-9	n/a	n/a	n/a
286.916560	2	cue_social_low	n/a	16	-9	n/a	n/a	n/a
293.733860	2	cue_nonsocial	n/a	32	7	n/a	n/a	n/a
293.733860	2	cue_nonsocial_high	n/a	32	7	n/a	n/a	n/a
301.445530	2	cue_social	n/a	32	7	n/a	n/a	n/a
301.445530	2	cue_social_high	n/a	32	7	n/a	n/a	n/a
309.033500	2	cue_nonsocial	n/a	16	-9	n/a	n/a	n/a
309.033500	2	cue_nonsocial_low	n/a	16	-9	n/a	n/a	n/a
316.666560	2	cue_nonsocial	n/a	32	7	n/a	n/a	n/a
316.666560	2	cue_nonsocial_high	n/a	32	7	n/a	n/a	n/a
323.585050	2	cue_social	n/a	32	7	n/a	n/a	n/a
323.585050	2	cue_social_high	n/a	32	7	n/a	n/a	n/a
330.396100	2	cue_social	n/a	16	-9	n/a	n/a	n/a
330.396100	2	cue_social_low	n/a	16	-9	n/a	n/a	n/a
337.166840	2	cue_nonsocial	n/a	16	-9	n/a	n/a	n/a
337.166840	2	cue_nonsocial_low	n/a	16	-9	n/a	n/a	n/a
346.416840	2	cue_nonsocial	n/a	32	7	n/a	n/a	n/a
346.416840	2	cue_nonsocial_high	n/a	32	7	n/a	n/a	n/a
353.331760	2	cue_social	n/a	16	-9	n/a	n/a	n/a
353.331760	2	cue_social_low	n/a	16	-9	n/a	n/a	n/a
360.083560	2	cue_nonsocial	n/a	16	-9	n/a	n/a	n/a
360.083560	2	cue_nonsocial_low	n/a	16	-9	n/a	n/a	n/a
367.010100	2	cue_social	n/a	32	7	n/a	n/a	n/a
367.010100	2	cue_social_high	n/a	32	7	n/a	n/a	n/a
6.523385	2.101068	dec_social_choice	2.101068	32.000000	n/a	0	0	-2.298177e-01
6.523385	2.101068	dec_choice	2.101068	32.000000	n/a	0	0	-2.304688e-01
6.523385	2.101068	dec_social_reject	2.101068	32.000000	n/a	0	0	-1.222826e-02
6.523385	2.101068	dec_reject	2.101068	32.000000	n/a	0	0	-1.988636e-02
6.523385	2.101068	dec_social_reject_low	2.101068	32.000000	n/a	3	-1.367188e-01	-2.304688e-01
15.773888	1.716835	dec_social_choice	1.716835	16.000000	n/a	8	2.701823e-01	2.701823e-01
15.773888	1.716835	dec_choice	1.716835	16.000000	n/a	8	2.695312e-01	2.695312e-01
15.773888	1.716835	dec_social_accept	1.716835	16.000000	n/a	8	1.562500e-01	1.562500e-01
15.773888	1.716835	dec_accept	1.716835	16.000000	n/a	8	1.706731e-01	1.706731e-01
15.773888	1.716835	dec_social_high	1.716835	16.000000	n/a	8	2.695312e-01	2.695312e-01
15.773888	1.716835	dec_social_accept_high	1.716835	16.000000	n/a	8	2.695312e-01	2.695312e-01
23.424765	1.649330	dec_social_choice	1.649330	16.000000	n/a	2	-1.048177e-01	-1.048177e-01
23.424765	1.649330	dec_choice	1.649330	16.000000	n/a	2	-1.054688e-01	-1.054688e-01
23.424765	1.649330	dec_social_accept	1.649330	16.000000	n/a	2	-2.187500e-01	-2.187500e-01
23.424765	1.649330	dec_accept	1.649330	16.000000	n/a	2	-2.043269e-01	-2.043269e-01
23.424765	1.649330	dec_social_low	1.649330	16.000000	n/a	2	-1.054688e-01	-1.054688e-01
23.424765	1.649330	dec_social_accept_low	1.649330	16.000000	n/a	2	-1.054688e-01	-1.054688e-01
30.257880	1.399650	dec_nonsocial_choice	1.399650	32.000000	n/a	16	2.701823e-01	2.701823e-01
30.257880	1.399650	dec_choice	1.399650	32.000000	n/a	16	2.708333e-01	2.708333e-01
30.257880	1.399650	dec_nonsocial_accept	1.399650	32.000000	n/a	16	1.562500e-01	1.562500e-01
30.257880	1.399650	dec_accept	1.399650	32.000000	n/a	16	1.406250e-01	1.406250e-01
30.257880	1.399650	dec_nonsocial_accept_high	1.399650	32.000000	n/a	16	1.706731e-01	1.706731e-01
37.907013	1.650343	dec_social_choice	1.650343	16.000000	n/a	0	0	-2.298177e-01
37.907013	1.650343	dec_choice	1.650343	16.000000	n/a	0	0	-2.304688e-01
37.907013	1.650343	dec_social_reject	1.650343	16.000000	n/a	0	0	1.902174e-02
37.907013	1.650343	dec_reject	1.650343	16.000000	n/a	0	0	1.136364e-02
37.907013	1.650343	dec_social_low	1.650343	16.000000	n/a	0	-2.304688e-01	-2.304688e-01
37.907013	1.650343	dec_social_reject_low	1.650343	16.000000	n/a	2	-1.054688e-01	-2.304688e-01
45.558300	1.199031	dec_nonsocial_choice	1.199031	16.000000	n/a	0	0	-2.298177e-01
45.558300	1.199031	dec_choice	1.199031	16.000000	n/a	0	0	-2.291667e-01
45.558300	1.199031	dec_nonsocial_reject	1.199031	16.000000	n/a	0	0	1.902174e-02
45.558300	1.199031	dec_reject	1.199031	16.000000	n/a	0	0	2.604167e-02
45.558300	1.199031	dec_nonsocial_low	1.199031	16.000000	n/a	0	-2.291667e-01	-2.291667e-01
45.558300	1.199031	dec_nonsocial_reject_low	1.199031	16.000000	n/a	2	2.604167e-02	-9.895833e-02
56.425220	1.198925	dec_nonsocial_choice	1.198925	32.000000	n/a	2	-1.673177e-01	-1.673177e-01
56.425220	1.198925	dec_choice	1.198925	32.000000	n/a	2	-1.666667e-01	-1.666667e-01
56.425220	1.198925	dec_nonsocial_accept	1.198925	32.000000	n/a	2	-2.812500e-01	-2.812500e-01
56.425220	1.198925	dec_accept	1.198925	32.000000	n/a	2	-2.968750e-01	-2.968750e-01
56.425220	1.198925	dec_nonsocial_accept_low	1.198925	32.000000	n/a	2	-2.668269e-01	-2.668269e-01
67.290910	1.433524	dec_social_choice	1.433524	32.000000	n/a	0	0	-2.298177e-01
67.290910	1.433524	dec_choice	1.433524	32.000000	n/a	0	0	-2.304688e-01
67.290910	1.433524	dec_social_reject	1.433524	32.000000	n/a	0	0	-4.347826e-02
67.290910	1.433524	dec_reject	1.433524	32.000000	n/a	0	0	-5.113636e-02
67.290910	1.433524	dec_social_low	1.433524	32.000000	n/a	0	-2.304688e-01	-2.304688e-01
67.290910	1.433524	dec_social_reject_low	1.433524	32.000000	n/a	2	-1.679688e-01	-2.304688e-01
76.556630	1.367826	dec_social_choice	1.367826	16.000000	n/a	0	0	-2.298177e-01
76.556630	1.367826	dec_choice	1.367826	16.000000	n/a	0	0	-2.304688e-01
76.556630	1.367826	dec_social_reject	1.367826	16.000000	n/a	0	0	-4.347826e-02
76.556630	1.367826	dec_reject	1.367826	16.000000	n/a	0	0	-5.113636e-02
76.556630	1.367826	dec_social_reject_low	1.367826	16.000000	n/a	1	-1.679688e-01	-2.304688e-01
83.390030	1.150743	dec_nonsocial_choice	1.150743	32.000000	n/a	8	2.018229e-02	2.018229e-02
83.390030	1.150743	dec_choice	1.150743	32.000000	n/a	8	2.083333e-02	2.083333e-02
83.390030	1.150743	dec_nonsocial_accept	1.150743	32.000000	n/a	8	-9.375000e-02	-9.375000e-02
83.390030	1.150743	dec_accept	1.150743	32.000000	n/a	8	-1.093750e-01	-1.093750e-01
83.390030	1.150743	dec_nonsocial_high	1.150743	32.000000	n/a	8	2.083333e-02	2.083333e-02
83.390030	1.150743	dec_nonsocial_accept_high	1.150743	32.000000	n/a	8	-1.093750e-01	-1.093750e-01
90.224930	0.815302	dec_nonsocial_choice	0.815302	32.000000	n/a	0	0	-2.298177e-01
90.224930	0.815302	dec_choice	0.815302	32.000000	n/a	0	0	-2.291667e-01
90.224930	0.815302	dec_nonsocial_reject	0.815302	32.000000	n/a	0	0	-1.222826e-02
90.224930	0.815302	dec_reject	0.815302	32.000000	n/a	0	0	-5.208333e-03
90.224930	0.815302	dec_nonsocial_reject_low	0.815302	32.000000	n/a	3	-1.988636e-02	-1.136364e-01
97.058420	1.348876	dec_nonsocial_choice	1.348876	32.000000	n/a	0	0	-2.298177e-01
97.058420	1.348876	dec_choice	1.348876	32.000000	n/a	0	0	-2.291667e-01
97.058420	1.348876	dec_nonsocial_reject	1.348876	32.000000	n/a	0	0	-1.222826e-02
97.058420	1.348876	dec_reject	1.348876	32.000000	n/a	0	0	-5.208333e-03
97.058420	1.348876	dec_nonsocial_reject_low	1.348876	32.000000	n/a	3	-1.988636e-02	-1.136364e-01
106.323906	1.116486	dec_nonsocial_choice	1.116486	16.000000	n/a	8	2.701823e-01	2.701823e-01
106.323906	1.116486	dec_choice	1.116486	16.000000	n/a	8	2.708333e-01	2.708333e-01
106.323906	1.116486	dec_nonsocial_accept	1.116486	16.000000	n/a	8	1.562500e-01	1.562500e-01
106.323906	1.116486	dec_accept	1.116486	16.000000	n/a	8	1.406250e-01	1.406250e-01
106.323906	1.116486	dec_nonsocial_high	1.116486	16.000000	n/a	8	2.708333e-01	2.708333e-01
106.323906	1.116486	dec_nonsocial_accept_high	1.116486	16.000000	n/a	8	1.406250e-01	1.406250e-01
113.157974	0.999402	dec_nonsocial_choice	0.999402	32.000000	n/a	8	2.018229e-02	2.018229e-02
113.157974	0.999402	dec_choice	0.999402	32.000000	n/a	8	2.083333e-02	2.083333e-02
113.157974	0.999402	dec_nonsocial_accept	0.999402	32.000000	n/a	8	-9.375000e-02	-9.375000e-02
113.157974	0.999402	dec_accept	0.999402	32.000000	n/a	8	-1.093750e-01	-1.093750e-01
113.157974	0.999402	dec_nonsocial_high	0.999402	32.000000	n/a	8	2.083333e-02	2.083333e-02
113.157974	0.999402	dec_nonsocial_accept_high	0.999402	32.000000	n/a	8	-1.093750e-01	-1.093750e-01
122.405990	1.551346	dec_social_choice	1.551346	32.000000	n/a	8	2.018229e-02	2.018229e-02
122.405990	1.551346	dec_choice	1.551346	32.000000	n/a	8	1.953125e-02	1.953125e-02
122.405990	1.551346	dec_social_accept	1.551346	32.000000	n/a	8	-9.375000e-02	-9.375000e-02
122.405990	1.551346	dec_accept	1.551346	32.000000	n/a	8	-7.932692e-02	-7.932692e-02
122.405990	1.551346	dec_social_accept_high	1.551346	32.000000	n/a	8	1.953125e-02	1.953125e-02
130.040910	1.399858	dec_social_choice	1.399858	32.000000	n/a	16	2.701823e-01	2.701823e-01
130.040910	1.399858	dec_choice	1.399858	32.000000	n/a	16	2.695312e-01	2.695312e-01
130.040910	1.399858	dec_social_accept	1.399858	32.000000	n/a	16	1.562500e-01	1.562500e-01
130.040910	1.399858	dec_accept	1.399858	32.000000	n/a	16	1.706731e-01	1.706731e-01
130.040910	1.399858	dec_social_high	1.399858	32.000000	n/a	16	2.695312e-01	2.695312e-01
130.040910	1.399858	dec_social_accept_high	1.399858	32.000000	n/a	16	2.695312e-01	2.695312e-01
136.874150	0.933092	dec_nonsocial_choice	0.933092	16.000000	n/a	8	2.701823e-01	2.701823e-01
136.874150	0.933092	dec_choice	0.933092	16.000000	n/a	8	2.708333e-01	2.708333e-01
136.874150	0.933092	dec_nonsocial_accept	0.933092	16.000000	n/a	8	1.562500e-01	1.562500e-01
136.874150	0.933092	dec_accept	0.933092	16.000000	n/a	8	1.406250e-01	1.406250e-01
136.874150	0.933092	dec_nonsocial_high	0.933092	16.000000	n/a	8	2.708333e-01	2.708333e-01
136.874150	0.933092	dec_nonsocial_accept_high	0.933092	16.000000	n/a	8	1.406250e-01	1.406250e-01
144.507110	1.166451	dec_social_choice	1.166451	32.000000	n/a	0	0	-2.298177e-01
144.507110	1.166451	dec_choice	1.166451	32.000000	n/a	0	0	-2.304688e-01
144.507110	1.166451	dec_social_reject	1.166451	32.000000	n/a	0	0	-4.347826e-02
144.507110	1.166451	dec_reject	1.166451	32.000000	n/a	0	0	-5.113636e-02
144.507110	1.166451	dec_social_low	1.166451	32.000000	n/a	0	-2.304688e-01	-2.304688e-01
144.507110	1.166451	dec_social_reject_low	1.166451	32.000000	n/a	2	-1.679688e-01	-2.304688e-01
153.755940	1.501332	dec_social_choice	1.501332	32.000000	n/a	8	2.018229e-02	2.018229e-02
153.755940	1.501332	dec_choice	1.501332	32.000000	n/a	8	1.953125e-02	1.953125e-02
153.755940	1.501332	dec_social_accept	1.501332	32.000000	n/a	8	-9.375000e-02	-9.375000e-02
153.755940	1.501332	dec_accept	1.501332	32.000000	n/a	8	-7.932692e-02	-7.932692e-02
153.755940	1.501332	dec_social_high	1.501332	32.000000	n/a	8	1.953125e-02	1.953125e-02
153.755940	1.501332	dec_social_accept_high	1.501332	32.000000	n/a	8	1.953125e-02	1.953125e-02
160.590820	1.033122	dec_nonsocial_choice	1.033122	32.000000	n/a	0	0	-2.298177e-01
160.590820	1.033122	dec_choice	1.033122	32.000000	n/a	0	0	-2.291667e-01
160.590820	1.033122	dec_nonsocial_reject	1.033122	32.000000	n/a	0	0	-4.347826e-02
160.590820	1.033122	dec_reject	1.033122	32.000000	n/a	0	0	-3.645833e-02
160.590820	1.033122	dec_nonsocial_reject_low	1.033122	32.000000	n/a	2	-5.113636e-02	-1.136364e-01
168.239970	1.283869	dec_social_choice	1.283869	16.000000	n/a	8	2.701823e-01	2.701823e-01
168.239970	1.283869	dec_choice	1.283869	16.000000	n/a	8	2.695312e-01	2.695312e-01
168.239970	1.283869	dec_social_accept	1.283869	16.000000	n/a	8	1.562500e-01	1.562500e-01
168.239970	1.283869	dec_accept	1.283869	16.000000	n/a	8	1.706731e-01	1.706731e-01
168.239970	1.283869	dec_social_high	1.283869	16.000000	n/a	8	2.695312e-01	2.695312e-01
168.239970	1.283869	dec_social_accept_high	1.283869	16.000000	n/a	8	2.695312e-01	2.695312e-01
180.722980	1.834354	dec_nonsocial_choice	1.834354	16.000000	n/a	4	2.018229e-02	2.018229e-02
180.722980	1.834354	dec_choice	1.834354	16.000000	n/a	4	2.083333e-02	2.083333e-02
180.722980	1.834354	dec_nonsocial_accept	1.834354	16.000000	n/a	4	-9.375000e-02	-9.375000e-02
180.722980	1.834354	dec_accept	1.834354	16.000000	n/a	4	-1.093750e-01	-1.093750e-01
180.722980	1.834354	dec_nonsocial_accept_high	1.834354	16.000000	n/a	4	-7.932692e-02	-7.932692e-02
187.556080	1.433825	dec_social_choice	1.433825	16.000000	n/a	0	0	-2.298177e-01
187.556080	1.433825	dec_choice	1.433825	16.000000	n/a	0	0	-2.304688e-01
187.556080	1.433825	dec_social_reject	1.433825	16.000000	n/a	0	0	1.902174e-02
187.556080	1.433825	dec_reject	1.433825	16.000000	n/a	0	0	1.136364e-02
187.556080	1.433825	dec_social_low	1.433825	16.000000	n/a	0	-2.304688e-01	-2.304688e-01
187.556080	1.433825	dec_social_reject_low	1.433825	16.000000	n/a	2	-1.054688e-01	-2.304688e-01
194.390550	1.199913	dec_nonsocial_choice	1.199913	16.000000	n/a	0	0	-2.298177e-01
194.390550	1.199913	dec_choice	1.199913	16.000000	n/a	0	0	-2.291667e-01
194.390550	1.199913	dec_nonsocial_reject	1.199913	16.000000	n/a	0	0	-4.347826e-02
194.390550	1.199913	dec_reject	1.199913	16.000000	n/a	0	0	-3.645833e-02
194.390550	1.199913	dec_nonsocial_low	1.199913	16.000000	n/a	0	-2.291667e-01	-2.291667e-01
194.390550	1.199913	dec_nonsocial_reject_low	1.199913	16.000000	n/a	1	-3.645833e-02	-9.895833e-02
201.223970	1.600104	dec_nonsocial_choice	1.600104	16.000000	n/a	4	2.018229e-02	2.018229e-02
201.223970	1.600104	dec_choice	1.600104	16.000000	n/a	4	2.083333e-02	2.083333e-02
201.223970	1.600104	dec_nonsocial_accept	1.600104	16.000000	n/a	4	-9.375000e-02	-9.375000e-02
201.223970	1.600104	dec_accept	1.600104	16.000000	n/a	4	-1.093750e-01	-1.093750e-01
201.223970	1.600104	dec_nonsocial_high	1.600104	16.000000	n/a	4	2.083333e-02	2.083333e-02
201.223970	1.600104	dec_nonsocial_accept_high	1.600104	16.000000	n/a	4	-1.093750e-01	-1.093750e-01
208.056930	1.533100	dec_social_choice	1.533100	32.000000	n/a	2	-1.673177e-01	-1.673177e-01
208.056930	1.533100	dec_choice	1.533100	32.000000	n/a	2	-1.679688e-01	-1.679688e-01
208.056930	1.533100	dec_social_accept	1.533100	32.000000	n/a	2	-2.812500e-01	-2.812500e-01
208.056930	1.533100	dec_accept	1.533100	32.000000	n/a	2	-2.668269e-01	-2.668269e-01
208.056930	1.533100	dec_social_accept_low	1.533100	32.000000	n/a	2	-1.679688e-01	-1.679688e-01
215.707340	1.766050	dec_social_choice	1.766050	32.000000	n/a	16	2.701823e-01	2.701823e-01
215.707340	1.766050	dec_choice	1.766050	32.000000	n/a	16	2.695312e-01	2.695312e-01
215.707340	1.766050	dec_social_accept	1.766050	32.000000	n/a	16	1.562500e-01	1.562500e-01
215.707340	1.766050	dec_accept	1.766050	32.000000	n/a	16	1.706731e-01	1.706731e-01
215.707340	1.766050	dec_social_accept_high	1.766050	32.000000	n/a	16	2.695312e-01	2.695312e-01
222.540020	1.167104	dec_social_choice	1.167104	16.000000	n/a	0	0	-2.298177e-01
222.540020	1.167104	dec_choice	1.167104	16.000000	n/a	0	0	-2.304688e-01
222.540020	1.167104	dec_social_reject	1.167104	16.000000	n/a	0	0	-4.347826e-02
222.540020	1.167104	dec_reject	1.167104	16.000000	n/a	0	0	-5.113636e-02
222.540020	1.167104	dec_social_reject_low	1.167104	16.000000	n/a	1	-1.679688e-01	-2.304688e-01
229.374800	1.315144	dec_nonsocial_choice	1.315144	32.000000	n/a	16	2.701823e-01	2.701823e-01
229.374800	1.315144	dec_choice	1.315144	32.000000	n/a	16	2.708333e-01	2.708333e-01
229.374800	1.315144	dec_nonsocial_accept	1.315144	32.000000	n/a	16	1.562500e-01	1.562500e-01
229.374800	1.315144	dec_accept	1.315144	32.000000	n/a	16	1.406250e-01	1.406250e-01
229.374800	1.315144	dec_nonsocial_accept_high	1.315144	32.000000	n/a	16	1.706731e-01	1.706731e-01
236.206630	1.300496	dec_nonsocial_choice	1.300496	32.000000	n/a	16	2.701823e-01	2.701823e-01
236.206630	1.300496	dec_choice	1.300496	32.000000	n/a	16	2.708333e-01	2.708333e-01
236.206630	1.300496	dec_nonsocial_accept	1.300496	32.000000	n/a	16	1.562500e-01	1.562500e-01
236.206630	1.300496	dec_accept	1.300496	32.000000	n/a	16	1.406250e-01	1.406250e-01
236.206630	1.300496	dec_nonsocial_accept_high	1.300496	32.000000	n/a	16	1.706731e-01	1.706731e-01
243.040040	1.866575	dec_social_choice	1.866575	16.000000	n/a	0	0	-2.298177e-01
243.040040	1.866575	dec_choice	1.866575	16.000000	n/a	0	0	-2.304688e-01
243.040040	1.866575	dec_social_reject	1.866575	16.000000	n/a	0	0	1.440217e-01
243.040040	1.866575	dec_reject	1.866575	16.000000	n/a	0	0	1.363636e-01
243.040040	1.866575	dec_social_low	1.866575	16.000000	n/a	0	-2.304688e-01	-2.304688e-01
243.040040	1.866575	dec_social_reject_low	1.866575	16.000000	n/a	4	1.953125e-02	-2.304688e-01
250.691100	1.599135	dec_nonsocial_choice	1.599135	32.000000	n/a	16	2.701823e-01	2.701823e-01
250.691100	1.599135	dec_choice	1.599135	32.000000	n/a	16	2.708333e-01	2.708333e-01
250.691100	1.599135	dec_nonsocial_accept	1.599135	32.000000	n/a	16	1.562500e-01	1.562500e-01
250.691100	1.599135	dec_accept	1.599135	32.000000	n/a	16	1.406250e-01	1.406250e-01
250.691100	1.599135	dec_nonsocial_high	1.599135	32.000000	n/a	16	2.708333e-01	2.708333e-01
250.691100	1.599135	dec_nonsocial_accept_high	1.599135	32.000000	n/a	16	1.406250e-01	1.406250e-01
258.340030	1.950362	dec_nonsocial_choice	1.950362	16.000000	n/a	4	2.018229e-02	2.018229e-02
258.340030	1.950362	dec_choice	1.950362	16.000000	n/a	4	2.083333e-02	2.083333e-02
258.340030	1.950362	dec_nonsocial_accept	1.950362	16.000000	n/a	4	-9.375000e-02	-9.375000e-02
258.340030	1.950362	dec_accept	1.950362	16.000000	n/a	4	-1.093750e-01	-1.093750e-01
258.340030	1.950362	dec_nonsocial_high	1.950362	16.000000	n/a	4	2.083333e-02	2.083333e-02
258.340030	1.950362	dec_nonsocial_accept_high	1.950362	16.000000	n/a	4	-1.093750e-01	-1.093750e-01
265.989530	1.550528	dec_social_choice	1.550528	32.000000	n/a	3	-1.360677e-01	-1.360677e-01
265.989530	1.550528	dec_choice	1.550528	32.000000	n/a	3	-1.367188e-01	-1.367188e-01
265.989530	1.550528	dec_social_accept	1.550528	32.000000	n/a	3	-2.500000e-01	-2.500000e-01
265.989530	1.550528	dec_accept	1.550528	32.000000	n/a	3	-2.355769e-01	-2.355769e-01
265.989530	1.550528	dec_social_low	1.550528	32.000000	n/a	3	-1.367188e-01	-1.367188e-01
265.989530	1.550528	dec_social_accept_low	1.550528	32.000000	n/a	3	-1.367188e-01	-1.367188e-01
275.239900	1.566703	dec_social_choice	1.566703	32.000000	n/a	8	2.018229e-02	2.018229e-02
275.239900	1.566703	dec_choice	1.566703	32.000000	n/a	8	1.953125e-02	1.953125e-02
275.239900	1.566703	dec_social_accept	1.566703	32.000000	n/a	8	-9.375000e-02	-9.375000e-02
275.239900	1.566703	dec_accept	1.566703	32.000000	n/a	8	-7.932692e-02	-7.932692e-02
275.239900	1.566703	dec_social_high	1.566703	32.000000	n/a	8	1.953125e-02	1.953125e-02
275.239900	1.566703	dec_social_accept_high	1.566703	32.000000	n/a	8	1.953125e-02	1.953125e-02
282.073940	1.049766	dec_nonsocial_choice	1.049766	32.000000	n/a	0	0	-2.298177e-01
282.073940	1.049766	dec_choice	1.049766	32.000000	n/a	0	0	-2.291667e-01
282.073940	1.049766	dec_nonsocial_reject	1.049766	32.000000	n/a	0	0	-4.347826e-02
282.073940	1.049766	dec_reject	1.049766	32.000000	n/a	0	0	-3.645833e-02
282.073940	1.049766	dec_nonsocial_reject_low	1.049766	32.000000	n/a	2	-5.113636e-02	-1.136364e-01
288.907440	2.582825	dec_social_choice	2.582825	16.000000	n/a	8	2.701823e-01	2.701823e-01
288.907440	2.582825	dec_choice	2.582825	16.000000	n/a	8	2.695312e-01	2.695312e-01
288.907440	2.582825	dec_social_accept	2.582825	16.000000	n/a	8	1.562500e-01	1.562500e-01
288.907440	2.582825	dec_accept	2.582825	16.000000	n/a	8	1.706731e-01	1.706731e-01
288.907440	2.582825	dec_social_high	2.582825	16.000000	n/a	8	2.695312e-01	2.695312e-01
288.907440	2.582825	dec_social_accept_high	2.582825	16.000000	n/a	8	2.695312e-01	2.695312e-01
295.740500	1.199716	dec_nonsocial_choice	1.199716	32.000000	n/a	0	0	-2.298177e-01
295.740500	1.199716	dec_choice	1.199716	32.000000	n/a	0	0	-2.291667e-01
295.740500	1.199716	dec_nonsocial_reject	1.199716	32.000000	n/a	0	0	-1.222826e-02
295.740500	1.199716	dec_reject	1.199716	32.000000	n/a	0	0	-5.208333e-03
295.740500	1.199716	dec_nonsocial_low	1.199716	32.000000	n/a	0	-2.291667e-01	-2.291667e-01
295.740500	1.199716	dec_nonsocial_reject_low	1.199716	32.000000	n/a	3	-5.208333e-03	-9.895833e-02
303.389830	1.166456	dec_social_choice	1.166456	32.000000	n/a	8	2.018229e-02	2.018229e-02
303.389830	1.166456	dec_choice	1.166456	32.000000	n/a	8	1.953125e-02	1.953125e-02
303.389830	1.166456	dec_social_accept	1.166456	32.000000	n/a	8	-9.375000e-02	-9.375000e-02
303.389830	1.166456	dec_accept	1.166456	32.000000	n/a	8	-7.932692e-02	-7.932692e-02
303.389830	1.166456	dec_social_high	1.166456	32.000000	n/a	8	1.953125e-02	1.953125e-02
303.389830	1.166456	dec_social_accept_high	1.166456	32.000000	n/a	8	1.953125e-02	1.953125e-02
311.039920	1.350113	dec_nonsocial_choice	1.350113	16.000000	n/a	0	0	-2.298177e-01
311.039920	1.350113	dec_choice	1.350113	16.000000	n/a	0	0	-2.291667e-01
311.039920	1.350113	dec_nonsocial_reject	1.350113	16.000000	n/a	0	0	-4.347826e-02
311.039920	1.350113	dec_reject	1.350113	16.000000	n/a	0	0	-3.645833e-02
311.039920	1.350113	dec_nonsocial_low	1.350113	16.000000	n/a	0	-2.291667e-01	-2.291667e-01
311.039920	1.350113	dec_nonsocial_reject_low	1.350113	16.000000	n/a	1	-3.645833e-02	-9.895833e-02
318.673920	1.115490	dec_nonsocial_choice	1.115490	32.000000	n/a	0	0	-2.298177e-01
318.673920	1.115490	dec_choice	1.115490	32.000000	n/a	0	0	-2.291667e-01
318.673920	1.115490	dec_nonsocial_reject	1.115490	32.000000	n/a	0	0	-4.347826e-02
318.673920	1.115490	dec_reject	1.115490	32.000000	n/a	0	0	-3.645833e-02
318.673920	1.115490	dec_nonsocial_low	1.115490	32.000000	n/a	0	-2.291667e-01	-2.291667e-01
318.673920	1.115490	dec_nonsocial_reject_low	1.115490	32.000000	n/a	2	-3.645833e-02	-9.895833e-02
325.506440	1.233000	dec_social_choice	1.233000	32.000000	n/a	0	0	-2.298177e-01
325.506440	1.233000	dec_choice	1.233000	32.000000	n/a	0	0	-2.304688e-01
325.506440	1.233000	dec_social_reject	1.233000	32.000000	n/a	0	0	-1.222826e-02
325.506440	1.233000	dec_reject	1.233000	32.000000	n/a	0	0	-1.988636e-02
325.506440	1.233000	dec_social_low	1.233000	32.000000	n/a	0	-2.304688e-01	-2.304688e-01
325.506440	1.233000	dec_social_reject_low	1.233000	32.000000	n/a	3	-1.367188e-01	-2.304688e-01
332.340180	1.966129	dec_social_choice	1.966129	16.000000	n/a	0	0	-2.298177e-01
332.340180	1.966129	dec_choice	1.966129	16.000000	n/a	0	0	-2.304688e-01
332.340180	1.966129	dec_social_reject	1.966129	16.000000	n/a	0	0	1.440217e-01
332.340180	1.966129	dec_reject	1.966129	16.000000	n/a	0	0	1.363636e-01
332.340180	1.966129	dec_social_reject_low	1.966129	16.000000	n/a	4	1.953125e-02	-2.304688e-01
339.173220	1.500292	dec_nonsocial_choice	1.500292	16.000000	n/a	0	0	-2.298177e-01
339.173220	1.500292	dec_choice	1.500292	16.000000	n/a	0	0	-2.291667e-01
339.173220	1.500292	dec_nonsocial_reject	1.500292	16.000000	n/a	0	0	1.440217e-01
339.173220	1.500292	dec_reject	1.500292	16.000000	n/a	0	0	1.510417e-01
339.173220	1.500292	dec_nonsocial_low	1.500292	16.000000	n/a	0	-2.291667e-01	-2.291667e-01
339.173220	1.500292	dec_nonsocial_reject_low	1.500292	16.000000	n/a	4	1.510417e-01	-9.895833e-02
348.423650	1.899708	dec_nonsocial_choice	1.899708	32.000000	n/a	0	0	-2.298177e-01
348.423650	1.899708	dec_choice	1.899708	32.000000	n/a	0	0	-2.291667e-01
348.423650	1.899708	dec_nonsocial_reject	1.899708	32.000000	n/a	0	0	-1.222826e-02
348.423650	1.899708	dec_reject	1.899708	32.000000	n/a	0	0	-5.208333e-03
348.423650	1.899708	dec_nonsocial_reject_low	1.899708	32.000000	n/a	3	-1.988636e-02	-1.136364e-01
355.256840	1.232788	dec_social_choice	1.232788	16.000000	n/a	0	0	-2.298177e-01
355.256840	1.232788	dec_choice	1.232788	16.000000	n/a	0	0	-2.304688e-01
355.256840	1.232788	dec_social_reject	1.232788	16.000000	n/a	0	0	-4.347826e-02
355.256840	1.232788	dec_reject	1.232788	16.000000	n/a	0	0	-5.113636e-02
355.256840	1.232788	dec_social_low	1.232788	16.000000	n/a	0	-2.304688e-01	-2.304688e-01
355.256840	1.232788	dec_social_reject_low	1.232788	16.000000	n/a	1	-1.679688e-01	-2.304688e-01
362.090200	1.283260	dec_nonsocial_choice	1.283260	16.000000	n/a	0	0	-2.298177e-01
362.090200	1.283260	dec_choice	1.283260	16.000000	n/a	0	0	-2.291667e-01
362.090200	1.283260	dec_nonsocial_reject	1.283260	16.000000	n/a	0	0	1.902174e-02
362.090200	1.283260	dec_reject	1.283260	16.000000	n/a	0	0	2.604167e-02
362.090200	1.283260	dec_nonsocial_low	1.283260	16.000000	n/a	0	-2.291667e-01	-2.291667e-01
362.090200	1.283260	dec_nonsocial_reject_low	1.283260	16.000000	n/a	2	2.604167e-02	-9.895833e-02
368.923300	1.100126	dec_social_choice	1.100126	32.000000	n/a	16	2.701823e-01	2.701823e-01
368.923300	1.100126	dec_choice	1.100126	32.000000	n/a	16	2.695312e-01	2.695312e-01
368.923300	1.100126	dec_social_accept	1.100126	32.000000	n/a	16	1.562500e-01	1.562500e-01
368.923300	1.100126	dec_accept	1.100126	32.000000	n/a	16	1.706731e-01	1.706731e-01
368.923300	1.100126	dec_social_accept_high	1.100126	32.000000	n/a	16	2.695312e-01	2.695312e-01
