onset	duration	trial_type	response_time	Endowment	Endowment_pmod	Decision	Decision_pmod	Offer_pmod
4.505827	2	cue_nonsocial	n/a	16	-9	n/a	n/a	n/a
4.505827	2	cue_nonsocial_low	n/a	16	-7	n/a	n/a	n/a
11.440265	2	cue_social	n/a	32	9	n/a	n/a	n/a
11.440265	2	cue_social_high	n/a	32	7	n/a	n/a	n/a
19.075197	2	cue_social	n/a	16	-7	n/a	n/a	n/a
19.075197	2	cue_social_low	n/a	16	-9	n/a	n/a	n/a
26.639530	2	cue_nonsocial	n/a	32	7	n/a	n/a	n/a
26.639530	2	cue_nonsocial_high	n/a	32	9	n/a	n/a	n/a
33.472267	2	cue_nonsocial	n/a	32	7	n/a	n/a	n/a
33.472267	2	cue_nonsocial_high	n/a	32	9	n/a	n/a	n/a
40.306316	2	cue_nonsocial	n/a	32	7	n/a	n/a	n/a
40.306316	2	cue_nonsocial_high	n/a	32	9	n/a	n/a	n/a
47.139652	2	cue_nonsocial	n/a	16	-9	n/a	n/a	n/a
47.139652	2	cue_nonsocial_low	n/a	16	-7	n/a	n/a	n/a
58.095665	2	cue_social	n/a	32	9	n/a	n/a	n/a
58.095665	2	cue_social_high	n/a	32	7	n/a	n/a	n/a
70.582460	2	cue_social	n/a	32	9	n/a	n/a	n/a
70.582460	2	cue_social_high	n/a	32	7	n/a	n/a	n/a
78.212270	2	cue_social	n/a	16	-7	n/a	n/a	n/a
78.212270	2	cue_social_low	n/a	16	-9	n/a	n/a	n/a
84.972850	2	cue_nonsocial	n/a	16	-9	n/a	n/a	n/a
84.972850	2	cue_nonsocial_low	n/a	16	-7	n/a	n/a	n/a
92.689026	2	cue_social	n/a	32	9	n/a	n/a	n/a
92.689026	2	cue_social_high	n/a	32	7	n/a	n/a	n/a
101.872760	2	cue_nonsocial	n/a	16	-9	n/a	n/a	n/a
101.872760	2	cue_nonsocial_low	n/a	16	-7	n/a	n/a	n/a
108.705666	2	cue_nonsocial	n/a	32	7	n/a	n/a	n/a
108.705666	2	cue_nonsocial_high	n/a	32	9	n/a	n/a	n/a
117.972664	2	cue_nonsocial	n/a	32	7	n/a	n/a	n/a
117.972664	2	cue_nonsocial_high	n/a	32	9	n/a	n/a	n/a
128.839420	2	cue_nonsocial	n/a	16	-9	n/a	n/a	n/a
128.839420	2	cue_nonsocial_low	n/a	16	-7	n/a	n/a	n/a
135.763890	2	cue_social	n/a	32	9	n/a	n/a	n/a
135.763890	2	cue_social_high	n/a	32	7	n/a	n/a	n/a
144.939450	2	cue_nonsocial	n/a	32	7	n/a	n/a	n/a
144.939450	2	cue_nonsocial_high	n/a	32	9	n/a	n/a	n/a
151.890080	2	cue_social	n/a	16	-7	n/a	n/a	n/a
151.890080	2	cue_social_low	n/a	16	-9	n/a	n/a	n/a
158.605260	2	cue_nonsocial	n/a	16	-9	n/a	n/a	n/a
158.605260	2	cue_nonsocial_low	n/a	16	-7	n/a	n/a	n/a
165.531070	2	cue_social	n/a	16	-7	n/a	n/a	n/a
165.531070	2	cue_social_low	n/a	16	-9	n/a	n/a	n/a
172.356100	2	cue_social	n/a	16	-7	n/a	n/a	n/a
172.356100	2	cue_social_low	n/a	16	-9	n/a	n/a	n/a
183.138750	2	cue_nonsocial	n/a	32	7	n/a	n/a	n/a
183.138750	2	cue_nonsocial_high	n/a	32	9	n/a	n/a	n/a
189.972560	2	cue_nonsocial	n/a	32	7	n/a	n/a	n/a
189.972560	2	cue_nonsocial_high	n/a	32	9	n/a	n/a	n/a
196.870880	2	cue_social	n/a	32	9	n/a	n/a	n/a
196.870880	2	cue_social_high	n/a	32	7	n/a	n/a	n/a
203.699000	2	cue_social	n/a	16	-7	n/a	n/a	n/a
203.699000	2	cue_social_low	n/a	16	-9	n/a	n/a	n/a
210.472400	2	cue_nonsocial	n/a	32	7	n/a	n/a	n/a
210.472400	2	cue_nonsocial_high	n/a	32	9	n/a	n/a	n/a
217.371580	2	cue_social	n/a	16	-7	n/a	n/a	n/a
217.371580	2	cue_social_low	n/a	16	-9	n/a	n/a	n/a
226.629930	2	cue_social	n/a	16	-7	n/a	n/a	n/a
226.629930	2	cue_social_low	n/a	16	-9	n/a	n/a	n/a
235.895970	2	cue_social	n/a	32	9	n/a	n/a	n/a
235.895970	2	cue_social_high	n/a	32	7	n/a	n/a	n/a
243.455670	2	cue_nonsocial	n/a	32	7	n/a	n/a	n/a
243.455670	2	cue_nonsocial_high	n/a	32	9	n/a	n/a	n/a
250.289120	2	cue_nonsocial	n/a	16	-9	n/a	n/a	n/a
250.289120	2	cue_nonsocial_low	n/a	16	-7	n/a	n/a	n/a
257.939150	2	cue_nonsocial	n/a	32	7	n/a	n/a	n/a
257.939150	2	cue_nonsocial_high	n/a	32	9	n/a	n/a	n/a
264.843840	2	cue_social	n/a	16	-7	n/a	n/a	n/a
264.843840	2	cue_social_low	n/a	16	-9	n/a	n/a	n/a
272.422270	2	cue_nonsocial	n/a	16	-9	n/a	n/a	n/a
272.422270	2	cue_nonsocial_low	n/a	16	-7	n/a	n/a	n/a
280.131230	2	cue_social	n/a	16	-7	n/a	n/a	n/a
280.131230	2	cue_social_low	n/a	16	-9	n/a	n/a	n/a
286.905600	2	cue_nonsocial	n/a	16	-9	n/a	n/a	n/a
286.905600	2	cue_nonsocial_low	n/a	16	-7	n/a	n/a	n/a
293.738830	2	cue_nonsocial	n/a	16	-9	n/a	n/a	n/a
293.738830	2	cue_nonsocial_low	n/a	16	-7	n/a	n/a	n/a
301.448730	2	cue_social	n/a	32	9	n/a	n/a	n/a
301.448730	2	cue_social_high	n/a	32	7	n/a	n/a	n/a
310.701870	2	cue_social	n/a	16	-7	n/a	n/a	n/a
310.701870	2	cue_social_low	n/a	16	-9	n/a	n/a	n/a
317.577270	2	cue_social	n/a	32	9	n/a	n/a	n/a
317.577270	2	cue_social_high	n/a	32	7	n/a	n/a	n/a
326.738740	2	cue_nonsocial	n/a	32	7	n/a	n/a	n/a
326.738740	2	cue_nonsocial_high	n/a	32	9	n/a	n/a	n/a
333.632230	2	cue_social	n/a	16	-7	n/a	n/a	n/a
333.632230	2	cue_social_low	n/a	16	-9	n/a	n/a	n/a
341.222000	2	cue_nonsocial	n/a	32	7	n/a	n/a	n/a
341.222000	2	cue_nonsocial_high	n/a	32	9	n/a	n/a	n/a
348.157230	2	cue_social	n/a	32	9	n/a	n/a	n/a
348.157230	2	cue_social_high	n/a	32	7	n/a	n/a	n/a
355.705020	2	cue_nonsocial	n/a	32	7	n/a	n/a	n/a
355.705020	2	cue_nonsocial_high	n/a	32	9	n/a	n/a	n/a
362.606080	2	cue_social	n/a	32	9	n/a	n/a	n/a
362.606080	2	cue_social_high	n/a	32	7	n/a	n/a	n/a
370.237370	2	cue_social	n/a	16	-7	n/a	n/a	n/a
370.237370	2	cue_social_low	n/a	16	-9	n/a	n/a	n/a
6.512935	1.599696	dec_nonsocial_choice	1.599696	16.000000	n/a	1	-1.673177e-01	-1.673177e-01
6.512935	1.599696	dec_choice	1.599696	16.000000	n/a	1	-1.653646e-01	-1.653646e-01
6.512935	1.599696	dec_nonsocial_accept	1.599696	16.000000	n/a	1	-2.731481e-01	-2.731481e-01
6.512935	1.599696	dec_accept	1.599696	16.000000	n/a	1	-2.678571e-01	-2.678571e-01
6.512935	1.599696	dec_nonsocial_accept_low	1.599696	16.000000	n/a	1	-2.788462e-01	-2.788462e-01
13.345821	1.649995	dec_social_choice	1.649995	32.000000	n/a	8	2.018229e-02	2.018229e-02
13.345821	1.649995	dec_choice	1.649995	32.000000	n/a	8	1.822917e-02	1.822917e-02
13.345821	1.649995	dec_social_accept	1.649995	32.000000	n/a	8	-8.564815e-02	-8.564815e-02
13.345821	1.649995	dec_accept	1.649995	32.000000	n/a	8	-9.134615e-02	-9.134615e-02
13.345821	1.649995	dec_social_high	1.649995	32.000000	n/a	8	1.822917e-02	1.822917e-02
13.345821	1.649995	dec_social_accept_high	1.649995	32.000000	n/a	8	1.822917e-02	1.822917e-02
20.996181	2.082725	dec_social_choice	2.082725	16.000000	n/a	8	2.701823e-01	2.701823e-01
20.996181	2.082725	dec_choice	2.082725	16.000000	n/a	8	2.682292e-01	2.682292e-01
20.996181	2.082725	dec_social_accept	2.082725	16.000000	n/a	8	1.643519e-01	1.643519e-01
20.996181	2.082725	dec_accept	2.082725	16.000000	n/a	8	1.586538e-01	1.586538e-01
20.996181	2.082725	dec_social_accept_high	2.082725	16.000000	n/a	8	2.682292e-01	2.682292e-01
28.645744	2.950154	dec_nonsocial_choice	2.950154	32.000000	n/a	0	0	-2.298177e-01
28.645744	2.950154	dec_choice	2.950154	32.000000	n/a	0	0	-2.278646e-01
28.645744	2.950154	dec_nonsocial_reject	2.950154	32.000000	n/a	0	0	-3.125000e-02
28.645744	2.950154	dec_reject	2.950154	32.000000	n/a	0	0	-2.187500e-02
28.645744	2.950154	dec_nonsocial_low	2.950154	32.000000	n/a	0	-2.278646e-01	-2.278646e-01
28.645744	2.950154	dec_nonsocial_reject_low	2.950154	32.000000	n/a	2	-2.187500e-02	-8.437500e-02
35.479458	1.899589	dec_nonsocial_choice	1.899589	32.000000	n/a	0	0	-2.298177e-01
35.479458	1.899589	dec_choice	1.899589	32.000000	n/a	0	0	-2.278646e-01
35.479458	1.899589	dec_nonsocial_reject	1.899589	32.000000	n/a	0	0	0
35.479458	1.899589	dec_reject	1.899589	32.000000	n/a	0	0	9.375000e-03
35.479458	1.899589	dec_nonsocial_low	1.899589	32.000000	n/a	0	-2.278646e-01	-2.278646e-01
35.479458	1.899589	dec_nonsocial_reject_low	1.899589	32.000000	n/a	3	9.375000e-03	-8.437500e-02
42.312798	1.899782	dec_nonsocial_choice	1.899782	32.000000	n/a	8	2.018229e-02	2.018229e-02
42.312798	1.899782	dec_choice	1.899782	32.000000	n/a	8	2.213542e-02	2.213542e-02
42.312798	1.899782	dec_nonsocial_accept	1.899782	32.000000	n/a	8	-8.564815e-02	-8.564815e-02
42.312798	1.899782	dec_accept	1.899782	32.000000	n/a	8	-8.035714e-02	-8.035714e-02
42.312798	1.899782	dec_nonsocial_high	1.899782	32.000000	n/a	8	2.213542e-02	2.213542e-02
42.312798	1.899782	dec_nonsocial_accept_high	1.899782	32.000000	n/a	8	-8.035714e-02	-8.035714e-02
49.146145	1.833143	dec_nonsocial_choice	1.833143	16.000000	n/a	8	2.701823e-01	2.701823e-01
49.146145	1.833143	dec_choice	1.833143	16.000000	n/a	8	2.721354e-01	2.721354e-01
49.146145	1.833143	dec_nonsocial_accept	1.833143	16.000000	n/a	8	1.643519e-01	1.643519e-01
49.146145	1.833143	dec_accept	1.833143	16.000000	n/a	8	1.696429e-01	1.696429e-01
49.146145	1.833143	dec_nonsocial_high	1.833143	16.000000	n/a	8	2.721354e-01	2.721354e-01
49.146145	1.833143	dec_nonsocial_accept_high	1.833143	16.000000	n/a	8	1.696429e-01	1.696429e-01
60.011894	2.434313	dec_social_choice	2.434313	32.000000	n/a	0	0	-2.298177e-01
60.011894	2.434313	dec_choice	2.434313	32.000000	n/a	0	0	-2.317708e-01
60.011894	2.434313	dec_social_reject	2.434313	32.000000	n/a	0	0	1.562500e-01
60.011894	2.434313	dec_reject	2.434313	32.000000	n/a	0	0	1.477273e-01
60.011894	2.434313	dec_social_low	2.434313	32.000000	n/a	0	-2.317708e-01	-2.317708e-01
60.011894	2.434313	dec_social_reject_low	2.434313	32.000000	n/a	8	1.822917e-02	-2.317708e-01
72.496610	2.415497	dec_social_choice	2.415497	32.000000	n/a	0	0	-2.298177e-01
72.496610	2.415497	dec_choice	2.415497	32.000000	n/a	0	0	-2.317708e-01
72.496610	2.415497	dec_social_reject	2.415497	32.000000	n/a	0	0	-3.125000e-02
72.496610	2.415497	dec_reject	2.415497	32.000000	n/a	0	0	-3.977273e-02
72.496610	2.415497	dec_social_low	2.415497	32.000000	n/a	0	-2.317708e-01	-2.317708e-01
72.496610	2.415497	dec_social_reject_low	2.415497	32.000000	n/a	2	-1.692708e-01	-2.317708e-01
80.145744	1.749932	dec_social_choice	1.749932	16.000000	n/a	4	2.018229e-02	2.018229e-02
80.145744	1.749932	dec_choice	1.749932	16.000000	n/a	4	1.822917e-02	1.822917e-02
80.145744	1.749932	dec_social_accept	1.749932	16.000000	n/a	4	-8.564815e-02	-8.564815e-02
80.145744	1.749932	dec_accept	1.749932	16.000000	n/a	4	-9.134615e-02	-9.134615e-02
80.145744	1.749932	dec_social_accept_high	1.749932	16.000000	n/a	4	1.822917e-02	1.822917e-02
86.979030	1.283494	dec_nonsocial_choice	1.283494	16.000000	n/a	8	2.701823e-01	2.701823e-01
86.979030	1.283494	dec_choice	1.283494	16.000000	n/a	8	2.721354e-01	2.721354e-01
86.979030	1.283494	dec_nonsocial_accept	1.283494	16.000000	n/a	8	1.643519e-01	1.643519e-01
86.979030	1.283494	dec_accept	1.283494	16.000000	n/a	8	1.696429e-01	1.696429e-01
86.979030	1.283494	dec_nonsocial_high	1.283494	16.000000	n/a	8	2.721354e-01	2.721354e-01
86.979030	1.283494	dec_nonsocial_accept_high	1.283494	16.000000	n/a	8	1.696429e-01	1.696429e-01
94.629555	1.999237	dec_social_choice	1.999237	32.000000	n/a	0	0	-2.298177e-01
94.629555	1.999237	dec_choice	1.999237	32.000000	n/a	0	0	-2.317708e-01
94.629555	1.999237	dec_social_reject	1.999237	32.000000	n/a	0	0	-3.125000e-02
94.629555	1.999237	dec_reject	1.999237	32.000000	n/a	0	0	-3.977273e-02
94.629555	1.999237	dec_social_reject_low	1.999237	32.000000	n/a	2	-1.692708e-01	-2.317708e-01
103.879510	1.615903	dec_nonsocial_choice	1.615903	16.000000	n/a	1	-1.673177e-01	-1.673177e-01
103.879510	1.615903	dec_choice	1.615903	16.000000	n/a	1	-1.653646e-01	-1.653646e-01
103.879510	1.615903	dec_nonsocial_accept	1.615903	16.000000	n/a	1	-2.731481e-01	-2.731481e-01
103.879510	1.615903	dec_accept	1.615903	16.000000	n/a	1	-2.678571e-01	-2.678571e-01
103.879510	1.615903	dec_nonsocial_low	1.615903	16.000000	n/a	1	-1.653646e-01	-1.653646e-01
103.879510	1.615903	dec_nonsocial_accept_low	1.615903	16.000000	n/a	1	-2.678571e-01	-2.678571e-01
110.713080	2.015345	dec_nonsocial_choice	2.015345	32.000000	n/a	0	0	-2.298177e-01
110.713080	2.015345	dec_choice	2.015345	32.000000	n/a	0	0	-2.278646e-01
110.713080	2.015345	dec_nonsocial_reject	2.015345	32.000000	n/a	0	0	0
110.713080	2.015345	dec_reject	2.015345	32.000000	n/a	0	0	9.375000e-03
110.713080	2.015345	dec_nonsocial_low	2.015345	32.000000	n/a	0	-2.278646e-01	-2.278646e-01
110.713080	2.015345	dec_nonsocial_reject_low	2.015345	32.000000	n/a	3	9.375000e-03	-8.437500e-02
119.979040	1.516581	dec_nonsocial_choice	1.516581	32.000000	n/a	16	2.701823e-01	2.701823e-01
119.979040	1.516581	dec_choice	1.516581	32.000000	n/a	16	2.721354e-01	2.721354e-01
119.979040	1.516581	dec_nonsocial_accept	1.516581	32.000000	n/a	16	1.643519e-01	1.643519e-01
119.979040	1.516581	dec_accept	1.516581	32.000000	n/a	16	1.696429e-01	1.696429e-01
119.979040	1.516581	dec_nonsocial_high	1.516581	32.000000	n/a	16	2.721354e-01	2.721354e-01
119.979040	1.516581	dec_nonsocial_accept_high	1.516581	32.000000	n/a	16	1.696429e-01	1.696429e-01
130.845250	1.366553	dec_nonsocial_choice	1.366553	16.000000	n/a	4	2.018229e-02	2.018229e-02
130.845250	1.366553	dec_choice	1.366553	16.000000	n/a	4	2.213542e-02	2.213542e-02
130.845250	1.366553	dec_nonsocial_accept	1.366553	16.000000	n/a	4	-8.564815e-02	-8.564815e-02
130.845250	1.366553	dec_accept	1.366553	16.000000	n/a	4	-8.035714e-02	-8.035714e-02
130.845250	1.366553	dec_nonsocial_high	1.366553	16.000000	n/a	4	2.213542e-02	2.213542e-02
130.845250	1.366553	dec_nonsocial_accept_high	1.366553	16.000000	n/a	4	-8.035714e-02	-8.035714e-02
137.679920	1.832653	dec_social_choice	1.832653	32.000000	n/a	0	0	-2.298177e-01
137.679920	1.832653	dec_choice	1.832653	32.000000	n/a	0	0	-2.317708e-01
137.679920	1.832653	dec_social_reject	1.832653	32.000000	n/a	0	0	0
137.679920	1.832653	dec_reject	1.832653	32.000000	n/a	0	0	-8.522727e-03
137.679920	1.832653	dec_social_low	1.832653	32.000000	n/a	0	-2.317708e-01	-2.317708e-01
137.679920	1.832653	dec_social_reject_low	1.832653	32.000000	n/a	3	-1.380208e-01	-2.317708e-01
146.946140	1.482950	dec_nonsocial_choice	1.482950	32.000000	n/a	8	2.018229e-02	2.018229e-02
146.946140	1.482950	dec_choice	1.482950	32.000000	n/a	8	2.213542e-02	2.213542e-02
146.946140	1.482950	dec_nonsocial_accept	1.482950	32.000000	n/a	8	-8.564815e-02	-8.564815e-02
146.946140	1.482950	dec_accept	1.482950	32.000000	n/a	8	-8.035714e-02	-8.035714e-02
146.946140	1.482950	dec_nonsocial_high	1.482950	32.000000	n/a	8	2.213542e-02	2.213542e-02
146.946140	1.482950	dec_nonsocial_accept_high	1.482950	32.000000	n/a	8	-8.035714e-02	-8.035714e-02
153.779560	1.265922	dec_social_choice	1.265922	16.000000	n/a	1	-1.673177e-01	-1.673177e-01
153.779560	1.265922	dec_choice	1.265922	16.000000	n/a	1	-1.692708e-01	-1.692708e-01
153.779560	1.265922	dec_social_accept	1.265922	16.000000	n/a	1	-2.731481e-01	-2.731481e-01
153.779560	1.265922	dec_accept	1.265922	16.000000	n/a	1	-2.788462e-01	-2.788462e-01
153.779560	1.265922	dec_social_low	1.265922	16.000000	n/a	1	-1.692708e-01	-1.692708e-01
153.779560	1.265922	dec_social_accept_low	1.265922	16.000000	n/a	1	-1.692708e-01	-1.692708e-01
160.613200	2.149142	dec_nonsocial_choice	2.149142	16.000000	n/a	8	2.701823e-01	2.701823e-01
160.613200	2.149142	dec_choice	2.149142	16.000000	n/a	8	2.721354e-01	2.721354e-01
160.613200	2.149142	dec_nonsocial_accept	2.149142	16.000000	n/a	8	1.643519e-01	1.643519e-01
160.613200	2.149142	dec_accept	2.149142	16.000000	n/a	8	1.696429e-01	1.696429e-01
160.613200	2.149142	dec_nonsocial_high	2.149142	16.000000	n/a	8	2.721354e-01	2.721354e-01
160.613200	2.149142	dec_nonsocial_accept_high	2.149142	16.000000	n/a	8	1.696429e-01	1.696429e-01
167.445110	2.001428	dec_social_choice	2.001428	16.000000	n/a	8	2.701823e-01	2.701823e-01
167.445110	2.001428	dec_choice	2.001428	16.000000	n/a	8	2.682292e-01	2.682292e-01
167.445110	2.001428	dec_social_accept	2.001428	16.000000	n/a	8	1.643519e-01	1.643519e-01
167.445110	2.001428	dec_accept	2.001428	16.000000	n/a	8	1.586538e-01	1.586538e-01
167.445110	2.001428	dec_social_accept_high	2.001428	16.000000	n/a	8	2.682292e-01	2.682292e-01
174.278960	1.749929	dec_social_choice	1.749929	16.000000	n/a	2	-1.048177e-01	-1.048177e-01
174.278960	1.749929	dec_choice	1.749929	16.000000	n/a	2	-1.067708e-01	-1.067708e-01
174.278960	1.749929	dec_social_accept	1.749929	16.000000	n/a	2	-2.106481e-01	-2.106481e-01
174.278960	1.749929	dec_accept	1.749929	16.000000	n/a	2	-2.163462e-01	-2.163462e-01
174.278960	1.749929	dec_social_accept_low	1.749929	16.000000	n/a	2	-1.067708e-01	-1.067708e-01
185.145510	1.466312	dec_nonsocial_choice	1.466312	32.000000	n/a	0	0	-2.298177e-01
185.145510	1.466312	dec_choice	1.466312	32.000000	n/a	0	0	-2.278646e-01
185.145510	1.466312	dec_nonsocial_reject	1.466312	32.000000	n/a	0	0	0
185.145510	1.466312	dec_reject	1.466312	32.000000	n/a	0	0	9.375000e-03
185.145510	1.466312	dec_nonsocial_low	1.466312	32.000000	n/a	0	-2.278646e-01	-2.278646e-01
185.145510	1.466312	dec_nonsocial_reject_low	1.466312	32.000000	n/a	3	9.375000e-03	-8.437500e-02
191.978780	1.300027	dec_nonsocial_choice	1.300027	32.000000	n/a	16	2.701823e-01	2.701823e-01
191.978780	1.300027	dec_choice	1.300027	32.000000	n/a	16	2.721354e-01	2.721354e-01
191.978780	1.300027	dec_nonsocial_accept	1.300027	32.000000	n/a	16	1.643519e-01	1.643519e-01
191.978780	1.300027	dec_accept	1.300027	32.000000	n/a	16	1.696429e-01	1.696429e-01
191.978780	1.300027	dec_nonsocial_accept_high	1.300027	32.000000	n/a	16	1.586538e-01	1.586538e-01
198.812030	2.100287	dec_social_choice	2.100287	32.000000	n/a	8	2.018229e-02	2.018229e-02
198.812030	2.100287	dec_choice	2.100287	32.000000	n/a	8	1.822917e-02	1.822917e-02
198.812030	2.100287	dec_social_accept	2.100287	32.000000	n/a	8	-8.564815e-02	-8.564815e-02
198.812030	2.100287	dec_accept	2.100287	32.000000	n/a	8	-9.134615e-02	-9.134615e-02
198.812030	2.100287	dec_social_high	2.100287	32.000000	n/a	8	1.822917e-02	1.822917e-02
198.812030	2.100287	dec_social_accept_high	2.100287	32.000000	n/a	8	1.822917e-02	1.822917e-02
205.646620	1.482231	dec_social_choice	1.482231	16.000000	n/a	8	2.701823e-01	2.701823e-01
205.646620	1.482231	dec_choice	1.482231	16.000000	n/a	8	2.682292e-01	2.682292e-01
205.646620	1.482231	dec_social_accept	1.482231	16.000000	n/a	8	1.643519e-01	1.643519e-01
205.646620	1.482231	dec_accept	1.482231	16.000000	n/a	8	1.586538e-01	1.586538e-01
205.646620	1.482231	dec_social_accept_high	1.482231	16.000000	n/a	8	2.682292e-01	2.682292e-01
212.478870	1.865996	dec_nonsocial_choice	1.865996	32.000000	n/a	0	0	-2.298177e-01
212.478870	1.865996	dec_choice	1.865996	32.000000	n/a	0	0	-2.278646e-01
212.478870	1.865996	dec_nonsocial_reject	1.865996	32.000000	n/a	0	0	-3.125000e-02
212.478870	1.865996	dec_reject	1.865996	32.000000	n/a	0	0	-2.187500e-02
212.478870	1.865996	dec_nonsocial_reject_low	1.865996	32.000000	n/a	2	-3.977273e-02	-1.022727e-01
219.312070	2.316237	dec_social_choice	2.316237	16.000000	n/a	0	0	-2.298177e-01
219.312070	2.316237	dec_choice	2.316237	16.000000	n/a	0	0	-2.317708e-01
219.312070	2.316237	dec_social_reject	2.316237	16.000000	n/a	0	0	3.125000e-02
219.312070	2.316237	dec_reject	2.316237	16.000000	n/a	0	0	2.272727e-02
219.312070	2.316237	dec_social_reject_low	2.316237	16.000000	n/a	2	-1.067708e-01	-2.317708e-01
228.561630	2.100187	dec_social_choice	2.100187	16.000000	n/a	0	0	-2.298177e-01
228.561630	2.100187	dec_choice	2.100187	16.000000	n/a	0	0	-2.317708e-01
228.561630	2.100187	dec_social_reject	2.100187	16.000000	n/a	0	0	3.125000e-02
228.561630	2.100187	dec_reject	2.100187	16.000000	n/a	0	0	2.272727e-02
228.561630	2.100187	dec_social_reject_low	2.100187	16.000000	n/a	2	-1.067708e-01	-2.317708e-01
237.812850	1.332603	dec_social_choice	1.332603	32.000000	n/a	8	2.018229e-02	2.018229e-02
237.812850	1.332603	dec_choice	1.332603	32.000000	n/a	8	1.822917e-02	1.822917e-02
237.812850	1.332603	dec_social_accept	1.332603	32.000000	n/a	8	-8.564815e-02	-8.564815e-02
237.812850	1.332603	dec_accept	1.332603	32.000000	n/a	8	-9.134615e-02	-9.134615e-02
237.812850	1.332603	dec_social_high	1.332603	32.000000	n/a	8	1.822917e-02	1.822917e-02
237.812850	1.332603	dec_social_accept_high	1.332603	32.000000	n/a	8	1.822917e-02	1.822917e-02
245.462570	1.432587	dec_nonsocial_choice	1.432587	32.000000	n/a	0	0	-2.298177e-01
245.462570	1.432587	dec_choice	1.432587	32.000000	n/a	0	0	-2.278646e-01
245.462570	1.432587	dec_nonsocial_reject	1.432587	32.000000	n/a	0	0	-3.125000e-02
245.462570	1.432587	dec_reject	1.432587	32.000000	n/a	0	0	-2.187500e-02
245.462570	1.432587	dec_nonsocial_low	1.432587	32.000000	n/a	0	-2.278646e-01	-2.278646e-01
245.462570	1.432587	dec_nonsocial_reject_low	1.432587	32.000000	n/a	2	-2.187500e-02	-8.437500e-02
252.295760	1.532936	dec_nonsocial_choice	1.532936	16.000000	n/a	8	2.701823e-01	2.701823e-01
252.295760	1.532936	dec_choice	1.532936	16.000000	n/a	8	2.721354e-01	2.721354e-01
252.295760	1.532936	dec_nonsocial_accept	1.532936	16.000000	n/a	8	1.643519e-01	1.643519e-01
252.295760	1.532936	dec_accept	1.532936	16.000000	n/a	8	1.696429e-01	1.696429e-01
252.295760	1.532936	dec_nonsocial_high	1.532936	16.000000	n/a	8	2.721354e-01	2.721354e-01
252.295760	1.532936	dec_nonsocial_accept_high	1.532936	16.000000	n/a	8	1.696429e-01	1.696429e-01
259.945040	1.616748	dec_nonsocial_choice	1.616748	32.000000	n/a	0	0	-2.298177e-01
259.945040	1.616748	dec_choice	1.616748	32.000000	n/a	0	0	-2.278646e-01
259.945040	1.616748	dec_nonsocial_reject	1.616748	32.000000	n/a	0	0	-3.125000e-02
259.945040	1.616748	dec_reject	1.616748	32.000000	n/a	0	0	-2.187500e-02
259.945040	1.616748	dec_nonsocial_reject_low	1.616748	32.000000	n/a	2	-3.977273e-02	-1.022727e-01
266.779020	1.649628	dec_social_choice	1.649628	16.000000	n/a	0	0	-2.298177e-01
266.779020	1.649628	dec_choice	1.649628	16.000000	n/a	0	0	-2.317708e-01
266.779020	1.649628	dec_social_reject	1.649628	16.000000	n/a	0	0	3.125000e-02
266.779020	1.649628	dec_reject	1.649628	16.000000	n/a	0	0	2.272727e-02
266.779020	1.649628	dec_social_reject_low	1.649628	16.000000	n/a	2	-1.067708e-01	-2.317708e-01
274.428530	2.033436	dec_nonsocial_choice	2.033436	16.000000	n/a	4	2.018229e-02	2.018229e-02
274.428530	2.033436	dec_choice	2.033436	16.000000	n/a	4	2.213542e-02	2.213542e-02
274.428530	2.033436	dec_nonsocial_accept	2.033436	16.000000	n/a	4	-8.564815e-02	-8.564815e-02
274.428530	2.033436	dec_accept	2.033436	16.000000	n/a	4	-8.035714e-02	-8.035714e-02
274.428530	2.033436	dec_nonsocial_accept_high	2.033436	16.000000	n/a	4	-9.134615e-02	-9.134615e-02
282.079040	0.949338	dec_social_choice	0.949338	16.000000	n/a	4	2.018229e-02	2.018229e-02
282.079040	0.949338	dec_choice	0.949338	16.000000	n/a	4	1.822917e-02	1.822917e-02
282.079040	0.949338	dec_social_accept	0.949338	16.000000	n/a	4	-8.564815e-02	-8.564815e-02
282.079040	0.949338	dec_accept	0.949338	16.000000	n/a	4	-9.134615e-02	-9.134615e-02
282.079040	0.949338	dec_social_accept_high	0.949338	16.000000	n/a	4	1.822917e-02	1.822917e-02
288.911220	1.234047	dec_nonsocial_choice	1.234047	16.000000	n/a	4	2.018229e-02	2.018229e-02
288.911220	1.234047	dec_choice	1.234047	16.000000	n/a	4	2.213542e-02	2.213542e-02
288.911220	1.234047	dec_nonsocial_accept	1.234047	16.000000	n/a	4	-8.564815e-02	-8.564815e-02
288.911220	1.234047	dec_accept	1.234047	16.000000	n/a	4	-8.035714e-02	-8.035714e-02
288.911220	1.234047	dec_nonsocial_high	1.234047	16.000000	n/a	4	2.213542e-02	2.213542e-02
288.911220	1.234047	dec_nonsocial_accept_high	1.234047	16.000000	n/a	4	-8.035714e-02	-8.035714e-02
295.745940	2.232664	dec_nonsocial_choice	2.232664	16.000000	n/a	0	0	-2.298177e-01
295.745940	2.232664	dec_choice	2.232664	16.000000	n/a	0	0	-2.278646e-01
295.745940	2.232664	dec_nonsocial_reject	2.232664	16.000000	n/a	0	0	3.125000e-02
295.745940	2.232664	dec_reject	2.232664	16.000000	n/a	0	0	4.062500e-02
295.745940	2.232664	dec_nonsocial_reject_low	2.232664	16.000000	n/a	2	2.272727e-02	-1.022727e-01
303.394930	1.650259	dec_social_choice	1.650259	32.000000	n/a	0	0	-2.298177e-01
303.394930	1.650259	dec_choice	1.650259	32.000000	n/a	0	0	-2.317708e-01
303.394930	1.650259	dec_social_reject	1.650259	32.000000	n/a	0	0	0
303.394930	1.650259	dec_reject	1.650259	32.000000	n/a	0	0	-8.522727e-03
303.394930	1.650259	dec_social_reject_low	1.650259	32.000000	n/a	3	-1.380208e-01	-2.317708e-01
312.645870	1.382810	dec_social_choice	1.382810	16.000000	n/a	0	0	-2.298177e-01
312.645870	1.382810	dec_choice	1.382810	16.000000	n/a	0	0	-2.317708e-01
312.645870	1.382810	dec_social_reject	1.382810	16.000000	n/a	0	0	-3.125000e-02
312.645870	1.382810	dec_reject	1.382810	16.000000	n/a	0	0	-3.977273e-02
312.645870	1.382810	dec_social_low	1.382810	16.000000	n/a	0	-2.317708e-01	-2.317708e-01
312.645870	1.382810	dec_social_reject_low	1.382810	16.000000	n/a	1	-1.692708e-01	-2.317708e-01
319.479130	2.182772	dec_social_choice	2.182772	32.000000	n/a	0	0	-2.298177e-01
319.479130	2.182772	dec_choice	2.182772	32.000000	n/a	0	0	-2.317708e-01
319.479130	2.182772	dec_social_reject	2.182772	32.000000	n/a	0	0	-3.125000e-02
319.479130	2.182772	dec_reject	2.182772	32.000000	n/a	0	0	-3.977273e-02
319.479130	2.182772	dec_social_reject_low	2.182772	32.000000	n/a	2	-1.692708e-01	-2.317708e-01
328.745900	1.882541	dec_nonsocial_choice	1.882541	32.000000	n/a	0	0	-2.298177e-01
328.745900	1.882541	dec_choice	1.882541	32.000000	n/a	0	0	-2.278646e-01
328.745900	1.882541	dec_nonsocial_reject	1.882541	32.000000	n/a	0	0	0
328.745900	1.882541	dec_reject	1.882541	32.000000	n/a	0	0	9.375000e-03
328.745900	1.882541	dec_nonsocial_low	1.882541	32.000000	n/a	0	-2.278646e-01	-2.278646e-01
328.745900	1.882541	dec_nonsocial_reject_low	1.882541	32.000000	n/a	3	9.375000e-03	-8.437500e-02
335.579250	1.415471	dec_social_choice	1.415471	16.000000	n/a	8	2.701823e-01	2.701823e-01
335.579250	1.415471	dec_choice	1.415471	16.000000	n/a	8	2.682292e-01	2.682292e-01
335.579250	1.415471	dec_social_accept	1.415471	16.000000	n/a	8	1.643519e-01	1.643519e-01
335.579250	1.415471	dec_accept	1.415471	16.000000	n/a	8	1.586538e-01	1.586538e-01
335.579250	1.415471	dec_social_accept_high	1.415471	16.000000	n/a	8	2.682292e-01	2.682292e-01
343.229030	2.032653	dec_nonsocial_choice	2.032653	32.000000	n/a	0	0	-2.298177e-01
343.229030	2.032653	dec_choice	2.032653	32.000000	n/a	0	0	-2.278646e-01
343.229030	2.032653	dec_nonsocial_reject	2.032653	32.000000	n/a	0	0	0
343.229030	2.032653	dec_reject	2.032653	32.000000	n/a	0	0	9.375000e-03
343.229030	2.032653	dec_nonsocial_low	2.032653	32.000000	n/a	0	-2.278646e-01	-2.278646e-01
343.229030	2.032653	dec_nonsocial_reject_low	2.032653	32.000000	n/a	3	9.375000e-03	-8.437500e-02
350.061070	1.950724	dec_social_choice	1.950724	32.000000	n/a	0	0	-2.298177e-01
350.061070	1.950724	dec_choice	1.950724	32.000000	n/a	0	0	-2.317708e-01
350.061070	1.950724	dec_social_reject	1.950724	32.000000	n/a	0	0	-3.125000e-02
350.061070	1.950724	dec_reject	1.950724	32.000000	n/a	0	0	-3.977273e-02
350.061070	1.950724	dec_social_reject_low	1.950724	32.000000	n/a	2	-1.692708e-01	-2.317708e-01
357.711820	1.616136	dec_nonsocial_choice	1.616136	32.000000	n/a	8	2.018229e-02	2.018229e-02
357.711820	1.616136	dec_choice	1.616136	32.000000	n/a	8	2.213542e-02	2.213542e-02
357.711820	1.616136	dec_nonsocial_accept	1.616136	32.000000	n/a	8	-8.564815e-02	-8.564815e-02
357.711820	1.616136	dec_accept	1.616136	32.000000	n/a	8	-8.035714e-02	-8.035714e-02
357.711820	1.616136	dec_nonsocial_accept_high	1.616136	32.000000	n/a	8	-9.134615e-02	-9.134615e-02
364.544620	1.866728	dec_social_choice	1.866728	32.000000	n/a	16	2.701823e-01	2.701823e-01
364.544620	1.866728	dec_choice	1.866728	32.000000	n/a	16	2.682292e-01	2.682292e-01
364.544620	1.866728	dec_social_accept	1.866728	32.000000	n/a	16	1.643519e-01	1.643519e-01
364.544620	1.866728	dec_accept	1.866728	32.000000	n/a	16	1.586538e-01	1.586538e-01
364.544620	1.866728	dec_social_high	1.866728	32.000000	n/a	16	2.682292e-01	2.682292e-01
364.544620	1.866728	dec_social_accept_high	1.866728	32.000000	n/a	16	2.682292e-01	2.682292e-01
372.195400	1.999567	dec_social_choice	1.999567	16.000000	n/a	8	2.701823e-01	2.701823e-01
372.195400	1.999567	dec_choice	1.999567	16.000000	n/a	8	2.682292e-01	2.682292e-01
372.195400	1.999567	dec_social_accept	1.999567	16.000000	n/a	8	1.643519e-01	1.643519e-01
372.195400	1.999567	dec_accept	1.999567	16.000000	n/a	8	1.586538e-01	1.586538e-01
372.195400	1.999567	dec_social_high	1.999567	16.000000	n/a	8	2.682292e-01	2.682292e-01
372.195400	1.999567	dec_social_accept_high	1.999567	16.000000	n/a	8	2.682292e-01	2.682292e-01
