onset	duration	trial_type	response_time	Endowment	Endowment_pmod	Decision	Decision_pmod	Offer_pmod
4.518919	2	cue_nonsocial	n/a	32	8	n/a	n/a	n/a
4.518919	2	cue_nonsocial_high	n/a	32	7	n/a	n/a	n/a
12.168122	2	cue_nonsocial	n/a	32	8	n/a	n/a	n/a
12.168122	2	cue_nonsocial_high	n/a	32	7	n/a	n/a	n/a
19.001835	2	cue_nonsocial	n/a	32	8	n/a	n/a	n/a
19.001835	2	cue_nonsocial_high	n/a	32	7	n/a	n/a	n/a
25.907005	2	cue_social	n/a	32	7	n/a	n/a	n/a
25.907005	2	cue_social_high	n/a	32	8	n/a	n/a	n/a
33.485214	2	cue_nonsocial	n/a	16	-8	n/a	n/a	n/a
33.485214	2	cue_nonsocial_low	n/a	16	-9	n/a	n/a	n/a
40.376680	2	cue_social	n/a	32	7	n/a	n/a	n/a
40.376680	2	cue_social_high	n/a	32	8	n/a	n/a	n/a
47.219110	2	cue_social	n/a	32	7	n/a	n/a	n/a
47.219110	2	cue_social_high	n/a	32	8	n/a	n/a	n/a
54.802097	2	cue_nonsocial	n/a	32	8	n/a	n/a	n/a
54.802097	2	cue_nonsocial_high	n/a	32	7	n/a	n/a	n/a
61.707508	2	cue_social	n/a	16	-9	n/a	n/a	n/a
61.707508	2	cue_social_low	n/a	16	-8	n/a	n/a	n/a
69.285640	2	cue_nonsocial	n/a	32	8	n/a	n/a	n/a
69.285640	2	cue_nonsocial_high	n/a	32	7	n/a	n/a	n/a
78.552086	2	cue_nonsocial	n/a	16	-8	n/a	n/a	n/a
78.552086	2	cue_nonsocial_low	n/a	16	-9	n/a	n/a	n/a
85.444060	2	cue_social	n/a	32	7	n/a	n/a	n/a
85.444060	2	cue_social_high	n/a	32	8	n/a	n/a	n/a
93.035150	2	cue_nonsocial	n/a	32	8	n/a	n/a	n/a
93.035150	2	cue_nonsocial_high	n/a	32	7	n/a	n/a	n/a
100.685540	2	cue_nonsocial	n/a	16	-8	n/a	n/a	n/a
100.685540	2	cue_nonsocial_low	n/a	16	-9	n/a	n/a	n/a
108.335310	2	cue_nonsocial	n/a	16	-8	n/a	n/a	n/a
108.335310	2	cue_nonsocial_low	n/a	16	-9	n/a	n/a	n/a
115.226690	2	cue_social	n/a	16	-9	n/a	n/a	n/a
115.226690	2	cue_social_low	n/a	16	-8	n/a	n/a	n/a
124.486046	2	cue_social	n/a	16	-9	n/a	n/a	n/a
124.486046	2	cue_social_low	n/a	16	-8	n/a	n/a	n/a
131.310800	2	cue_social	n/a	16	-9	n/a	n/a	n/a
131.310800	2	cue_social_low	n/a	16	-8	n/a	n/a	n/a
138.918290	2	cue_nonsocial	n/a	16	-8	n/a	n/a	n/a
138.918290	2	cue_nonsocial_low	n/a	16	-9	n/a	n/a	n/a
145.810780	2	cue_social	n/a	32	7	n/a	n/a	n/a
145.810780	2	cue_social_high	n/a	32	8	n/a	n/a	n/a
153.402010	2	cue_nonsocial	n/a	16	-8	n/a	n/a	n/a
153.402010	2	cue_nonsocial_low	n/a	16	-9	n/a	n/a	n/a
160.303120	2	cue_social	n/a	16	-9	n/a	n/a	n/a
160.303120	2	cue_social_low	n/a	16	-8	n/a	n/a	n/a
167.126460	2	cue_social	n/a	32	7	n/a	n/a	n/a
167.126460	2	cue_social_high	n/a	32	8	n/a	n/a	n/a
173.901430	2	cue_nonsocial	n/a	16	-8	n/a	n/a	n/a
173.901430	2	cue_nonsocial_low	n/a	16	-9	n/a	n/a	n/a
186.458980	2	cue_social	n/a	32	7	n/a	n/a	n/a
186.458980	2	cue_social_high	n/a	32	8	n/a	n/a	n/a
194.034480	2	cue_nonsocial	n/a	32	8	n/a	n/a	n/a
194.034480	2	cue_nonsocial_high	n/a	32	7	n/a	n/a	n/a
201.668470	2	cue_nonsocial	n/a	32	8	n/a	n/a	n/a
201.668470	2	cue_nonsocial_high	n/a	32	7	n/a	n/a	n/a
208.501770	2	cue_nonsocial	n/a	32	8	n/a	n/a	n/a
208.501770	2	cue_nonsocial_high	n/a	32	7	n/a	n/a	n/a
217.842440	2	cue_social	n/a	32	7	n/a	n/a	n/a
217.842440	2	cue_social_high	n/a	32	8	n/a	n/a	n/a
227.063570	2	cue_social	n/a	16	-9	n/a	n/a	n/a
227.063570	2	cue_social_low	n/a	16	-8	n/a	n/a	n/a
236.357470	2	cue_social	n/a	16	-9	n/a	n/a	n/a
236.357470	2	cue_social_low	n/a	16	-8	n/a	n/a	n/a
245.608810	2	cue_social	n/a	32	7	n/a	n/a	n/a
245.608810	2	cue_social_high	n/a	32	8	n/a	n/a	n/a
252.485020	2	cue_social	n/a	32	7	n/a	n/a	n/a
252.485020	2	cue_social_high	n/a	32	8	n/a	n/a	n/a
259.217800	2	cue_nonsocial	n/a	16	-8	n/a	n/a	n/a
259.217800	2	cue_nonsocial_low	n/a	16	-9	n/a	n/a	n/a
270.146150	2	cue_social	n/a	16	-9	n/a	n/a	n/a
270.146150	2	cue_social_low	n/a	16	-8	n/a	n/a	n/a
276.917800	2	cue_nonsocial	n/a	16	-8	n/a	n/a	n/a
276.917800	2	cue_nonsocial_low	n/a	16	-9	n/a	n/a	n/a
287.784450	2	cue_nonsocial	n/a	32	8	n/a	n/a	n/a
287.784450	2	cue_nonsocial_high	n/a	32	7	n/a	n/a	n/a
295.468170	2	cue_social	n/a	32	7	n/a	n/a	n/a
295.468170	2	cue_social_high	n/a	32	8	n/a	n/a	n/a
302.267970	2	cue_nonsocial	n/a	16	-8	n/a	n/a	n/a
302.267970	2	cue_nonsocial_low	n/a	16	-9	n/a	n/a	n/a
309.100950	2	cue_nonsocial	n/a	16	-8	n/a	n/a	n/a
309.100950	2	cue_nonsocial_low	n/a	16	-9	n/a	n/a	n/a
315.934480	2	cue_nonsocial	n/a	32	8	n/a	n/a	n/a
315.934480	2	cue_nonsocial_high	n/a	32	7	n/a	n/a	n/a
322.768040	2	cue_nonsocial	n/a	16	-8	n/a	n/a	n/a
322.768040	2	cue_nonsocial_low	n/a	16	-9	n/a	n/a	n/a
333.704380	2	cue_social	n/a	32	7	n/a	n/a	n/a
333.704380	2	cue_social_high	n/a	32	8	n/a	n/a	n/a
340.531000	2	cue_social	n/a	16	-9	n/a	n/a	n/a
340.531000	2	cue_social_low	n/a	16	-8	n/a	n/a	n/a
349.786740	2	cue_social	n/a	16	-9	n/a	n/a	n/a
349.786740	2	cue_social_low	n/a	16	-8	n/a	n/a	n/a
357.383850	2	cue_nonsocial	n/a	32	8	n/a	n/a	n/a
357.383850	2	cue_nonsocial_high	n/a	32	7	n/a	n/a	n/a
364.284700	2	cue_social	n/a	32	7	n/a	n/a	n/a
364.284700	2	cue_social_high	n/a	32	8	n/a	n/a	n/a
371.116550	2	cue_social	n/a	16	-9	n/a	n/a	n/a
371.116550	2	cue_social_low	n/a	16	-8	n/a	n/a	n/a
6.525162	2.716175	dec_nonsocial_choice	2.716175	32.000000	n/a	0	0	-2.293883e-01
6.525162	2.716175	dec_choice	2.716175	32.000000	n/a	0	0	-2.317708e-01
6.525162	2.716175	dec_nonsocial_reject	2.716175	32.000000	n/a	0	0	1.388889e-02
6.525162	2.716175	dec_reject	2.716175	32.000000	n/a	0	0	7.812500e-03
6.525162	2.716175	dec_nonsocial_low	2.716175	32.000000	n/a	0	-2.317708e-01	-2.317708e-01
6.525162	2.716175	dec_nonsocial_reject_low	2.716175	32.000000	n/a	3	7.812500e-03	-8.593750e-02
14.175110	1.699987	dec_nonsocial_choice	1.699987	32.000000	n/a	16	2.706117e-01	2.706117e-01
14.175110	1.699987	dec_choice	1.699987	32.000000	n/a	16	2.682292e-01	2.682292e-01
14.175110	1.699987	dec_nonsocial_accept	1.699987	32.000000	n/a	16	1.778017e-01	1.778017e-01
14.175110	1.699987	dec_accept	1.699987	32.000000	n/a	16	1.953125e-01	1.953125e-01
14.175110	1.699987	dec_nonsocial_high	1.699987	32.000000	n/a	16	2.682292e-01	2.682292e-01
14.175110	1.699987	dec_nonsocial_accept_high	1.699987	32.000000	n/a	16	1.953125e-01	1.953125e-01
21.008870	1.465611	dec_nonsocial_choice	1.465611	32.000000	n/a	0	0	-2.293883e-01
21.008870	1.465611	dec_choice	1.465611	32.000000	n/a	0	0	-2.317708e-01
21.008870	1.465611	dec_nonsocial_reject	1.465611	32.000000	n/a	0	0	1.388889e-02
21.008870	1.465611	dec_reject	1.465611	32.000000	n/a	0	0	7.812500e-03
21.008870	1.465611	dec_nonsocial_low	1.465611	32.000000	n/a	0	-2.317708e-01	-2.317708e-01
21.008870	1.465611	dec_nonsocial_reject_low	1.465611	32.000000	n/a	3	7.812500e-03	-8.593750e-02
27.841198	1.450933	dec_social_choice	1.450933	32.000000	n/a	8	2.061170e-02	2.061170e-02
27.841198	1.450933	dec_choice	1.450933	32.000000	n/a	8	2.309783e-02	2.309783e-02
27.841198	1.450933	dec_social_accept	1.450933	32.000000	n/a	8	-7.219828e-02	-7.219828e-02
27.841198	1.450933	dec_accept	1.450933	32.000000	n/a	8	-9.375000e-02	-9.375000e-02
27.841198	1.450933	dec_social_accept_high	1.450933	32.000000	n/a	8	2.309783e-02	2.309783e-02
35.491528	0.916747	dec_nonsocial_choice	0.916747	16.000000	n/a	8	2.706117e-01	2.706117e-01
35.491528	0.916747	dec_choice	0.916747	16.000000	n/a	8	2.682292e-01	2.682292e-01
35.491528	0.916747	dec_nonsocial_accept	0.916747	16.000000	n/a	8	1.778017e-01	1.778017e-01
35.491528	0.916747	dec_accept	0.916747	16.000000	n/a	8	1.953125e-01	1.953125e-01
35.491528	0.916747	dec_nonsocial_accept_high	0.916747	16.000000	n/a	8	1.562500e-01	1.562500e-01
42.325270	1.283386	dec_social_choice	1.283386	32.000000	n/a	3	-1.356383e-01	-1.356383e-01
42.325270	1.283386	dec_choice	1.283386	32.000000	n/a	3	-1.331522e-01	-1.331522e-01
42.325270	1.283386	dec_social_accept	1.283386	32.000000	n/a	3	-2.284483e-01	-2.284483e-01
42.325270	1.283386	dec_accept	1.283386	32.000000	n/a	3	-2.500000e-01	-2.500000e-01
42.325270	1.283386	dec_social_low	1.283386	32.000000	n/a	3	-1.331522e-01	-1.331522e-01
42.325270	1.283386	dec_social_accept_low	1.283386	32.000000	n/a	3	-1.331522e-01	-1.331522e-01
49.158930	1.149563	dec_social_choice	1.149563	32.000000	n/a	16	2.706117e-01	2.706117e-01
49.158930	1.149563	dec_choice	1.149563	32.000000	n/a	16	2.730978e-01	2.730978e-01
49.158930	1.149563	dec_social_accept	1.149563	32.000000	n/a	16	1.778017e-01	1.778017e-01
49.158930	1.149563	dec_accept	1.149563	32.000000	n/a	16	1.562500e-01	1.562500e-01
49.158930	1.149563	dec_social_accept_high	1.149563	32.000000	n/a	16	2.730978e-01	2.730978e-01
56.807980	1.084220	dec_nonsocial_choice	1.084220	32.000000	n/a	8	2.061170e-02	2.061170e-02
56.807980	1.084220	dec_choice	1.084220	32.000000	n/a	8	1.822917e-02	1.822917e-02
56.807980	1.084220	dec_nonsocial_accept	1.084220	32.000000	n/a	8	-7.219828e-02	-7.219828e-02
56.807980	1.084220	dec_accept	1.084220	32.000000	n/a	8	-5.468750e-02	-5.468750e-02
56.807980	1.084220	dec_nonsocial_accept_high	1.084220	32.000000	n/a	8	-9.375000e-02	-9.375000e-02
63.641663	0.933060	dec_social_choice	0.933060	16.000000	n/a	4	2.061170e-02	2.061170e-02
63.641663	0.933060	dec_choice	0.933060	16.000000	n/a	4	2.309783e-02	2.309783e-02
63.641663	0.933060	dec_social_accept	0.933060	16.000000	n/a	4	-7.219828e-02	-7.219828e-02
63.641663	0.933060	dec_accept	0.933060	16.000000	n/a	4	-9.375000e-02	-9.375000e-02
63.641663	0.933060	dec_social_accept_high	0.933060	16.000000	n/a	4	2.309783e-02	2.309783e-02
71.292175	0.965793	dec_nonsocial_choice	0.965793	32.000000	n/a	8	2.061170e-02	2.061170e-02
71.292175	0.965793	dec_choice	0.965793	32.000000	n/a	8	1.822917e-02	1.822917e-02
71.292175	0.965793	dec_nonsocial_accept	0.965793	32.000000	n/a	8	-7.219828e-02	-7.219828e-02
71.292175	0.965793	dec_accept	0.965793	32.000000	n/a	8	-5.468750e-02	-5.468750e-02
71.292175	0.965793	dec_nonsocial_accept_high	0.965793	32.000000	n/a	8	-9.375000e-02	-9.375000e-02
80.557920	1.384095	dec_nonsocial_choice	1.384095	16.000000	n/a	2	-1.043883e-01	-1.043883e-01
80.557920	1.384095	dec_choice	1.384095	16.000000	n/a	2	-1.067708e-01	-1.067708e-01
80.557920	1.384095	dec_nonsocial_accept	1.384095	16.000000	n/a	2	-1.971983e-01	-1.971983e-01
80.557920	1.384095	dec_accept	1.384095	16.000000	n/a	2	-1.796875e-01	-1.796875e-01
80.557920	1.384095	dec_nonsocial_accept_low	1.384095	16.000000	n/a	2	-2.187500e-01	-2.187500e-01
87.392050	2.399485	dec_social_choice	2.399485	32.000000	n/a	0	0	-2.293883e-01
87.392050	2.399485	dec_choice	2.399485	32.000000	n/a	0	0	-2.269022e-01
87.392050	2.399485	dec_social_reject	2.399485	32.000000	n/a	0	0	1.388889e-02
87.392050	2.399485	dec_reject	2.399485	32.000000	n/a	0	0	1.875000e-02
87.392050	2.399485	dec_social_reject_low	2.399485	32.000000	n/a	3	-1.331522e-01	-2.269022e-01
95.042890	1.482197	dec_nonsocial_choice	1.482197	32.000000	n/a	16	2.706117e-01	2.706117e-01
95.042890	1.482197	dec_choice	1.482197	32.000000	n/a	16	2.682292e-01	2.682292e-01
95.042890	1.482197	dec_nonsocial_accept	1.482197	32.000000	n/a	16	1.778017e-01	1.778017e-01
95.042890	1.482197	dec_accept	1.482197	32.000000	n/a	16	1.953125e-01	1.953125e-01
95.042890	1.482197	dec_nonsocial_high	1.482197	32.000000	n/a	16	2.682292e-01	2.682292e-01
95.042890	1.482197	dec_nonsocial_accept_high	1.482197	32.000000	n/a	16	1.953125e-01	1.953125e-01
102.692720	1.648968	dec_nonsocial_choice	1.648968	16.000000	n/a	8	2.706117e-01	2.706117e-01
102.692720	1.648968	dec_choice	1.648968	16.000000	n/a	8	2.682292e-01	2.682292e-01
102.692720	1.648968	dec_nonsocial_accept	1.648968	16.000000	n/a	8	1.778017e-01	1.778017e-01
102.692720	1.648968	dec_accept	1.648968	16.000000	n/a	8	1.953125e-01	1.953125e-01
102.692720	1.648968	dec_nonsocial_accept_high	1.648968	16.000000	n/a	8	1.562500e-01	1.562500e-01
110.340950	2.650738	dec_nonsocial_choice	2.650738	16.000000	n/a	4	2.061170e-02	2.061170e-02
110.340950	2.650738	dec_choice	2.650738	16.000000	n/a	4	1.822917e-02	1.822917e-02
110.340950	2.650738	dec_nonsocial_accept	2.650738	16.000000	n/a	4	-7.219828e-02	-7.219828e-02
110.340950	2.650738	dec_accept	2.650738	16.000000	n/a	4	-5.468750e-02	-5.468750e-02
110.340950	2.650738	dec_nonsocial_accept_high	2.650738	16.000000	n/a	4	-9.375000e-02	-9.375000e-02
117.175660	2.215545	dec_social_choice	2.215545	16.000000	n/a	2	-1.043883e-01	-1.043883e-01
117.175660	2.215545	dec_choice	2.215545	16.000000	n/a	2	-1.019022e-01	-1.019022e-01
117.175660	2.215545	dec_social_accept	2.215545	16.000000	n/a	2	-1.971983e-01	-1.971983e-01
117.175660	2.215545	dec_accept	2.215545	16.000000	n/a	2	-2.187500e-01	-2.187500e-01
117.175660	2.215545	dec_social_low	2.215545	16.000000	n/a	2	-1.019022e-01	-1.019022e-01
117.175660	2.215545	dec_social_accept_low	2.215545	16.000000	n/a	2	-1.019022e-01	-1.019022e-01
126.441590	1.616559	dec_social_choice	1.616559	16.000000	n/a	0	0	-2.293883e-01
126.441590	1.616559	dec_choice	1.616559	16.000000	n/a	0	0	-2.269022e-01
126.441590	1.616559	dec_social_reject	1.616559	16.000000	n/a	0	0	-1.736111e-02
126.441590	1.616559	dec_reject	1.616559	16.000000	n/a	0	0	-1.250000e-02
126.441590	1.616559	dec_social_reject_low	1.616559	16.000000	n/a	1	-1.644022e-01	-2.269022e-01
133.274960	1.566407	dec_social_choice	1.566407	16.000000	n/a	0	0	-2.293883e-01
133.274960	1.566407	dec_choice	1.566407	16.000000	n/a	0	0	-2.269022e-01
133.274960	1.566407	dec_social_reject	1.566407	16.000000	n/a	0	0	-1.736111e-02
133.274960	1.566407	dec_reject	1.566407	16.000000	n/a	0	0	-1.250000e-02
133.274960	1.566407	dec_social_reject_low	1.566407	16.000000	n/a	1	-1.644022e-01	-2.269022e-01
140.926060	1.098896	dec_nonsocial_choice	1.098896	16.000000	n/a	0	0	-2.293883e-01
140.926060	1.098896	dec_choice	1.098896	16.000000	n/a	0	0	-2.317708e-01
140.926060	1.098896	dec_nonsocial_reject	1.098896	16.000000	n/a	0	0	-1.736111e-02
140.926060	1.098896	dec_reject	1.098896	16.000000	n/a	0	0	-2.343750e-02
140.926060	1.098896	dec_nonsocial_reject_low	1.098896	16.000000	n/a	1	-1.250000e-02	-7.500000e-02
147.758270	1.149881	dec_social_choice	1.149881	32.000000	n/a	16	2.706117e-01	2.706117e-01
147.758270	1.149881	dec_choice	1.149881	32.000000	n/a	16	2.730978e-01	2.730978e-01
147.758270	1.149881	dec_social_accept	1.149881	32.000000	n/a	16	1.778017e-01	1.778017e-01
147.758270	1.149881	dec_accept	1.149881	32.000000	n/a	16	1.562500e-01	1.562500e-01
147.758270	1.149881	dec_social_accept_high	1.149881	32.000000	n/a	16	2.730978e-01	2.730978e-01
155.408050	1.466047	dec_nonsocial_choice	1.466047	16.000000	n/a	0	0	-2.293883e-01
155.408050	1.466047	dec_choice	1.466047	16.000000	n/a	0	0	-2.317708e-01
155.408050	1.466047	dec_nonsocial_reject	1.466047	16.000000	n/a	0	0	-1.736111e-02
155.408050	1.466047	dec_reject	1.466047	16.000000	n/a	0	0	-2.343750e-02
155.408050	1.466047	dec_nonsocial_low	1.466047	16.000000	n/a	0	-2.317708e-01	-2.317708e-01
155.408050	1.466047	dec_nonsocial_reject_low	1.466047	16.000000	n/a	1	-2.343750e-02	-8.593750e-02
162.241530	2.249855	dec_social_choice	2.249855	16.000000	n/a	8	2.706117e-01	2.706117e-01
162.241530	2.249855	dec_choice	2.249855	16.000000	n/a	8	2.730978e-01	2.730978e-01
162.241530	2.249855	dec_social_accept	2.249855	16.000000	n/a	8	1.778017e-01	1.778017e-01
162.241530	2.249855	dec_accept	2.249855	16.000000	n/a	8	1.562500e-01	1.562500e-01
162.241530	2.249855	dec_social_high	2.249855	16.000000	n/a	8	2.730978e-01	2.730978e-01
162.241530	2.249855	dec_social_accept_high	2.249855	16.000000	n/a	8	2.730978e-01	2.730978e-01
169.074950	1.416067	dec_social_choice	1.416067	32.000000	n/a	0	0	-2.293883e-01
169.074950	1.416067	dec_choice	1.416067	32.000000	n/a	0	0	-2.269022e-01
169.074950	1.416067	dec_social_reject	1.416067	32.000000	n/a	0	0	-1.736111e-02
169.074950	1.416067	dec_reject	1.416067	32.000000	n/a	0	0	-1.250000e-02
169.074950	1.416067	dec_social_reject_low	1.416067	32.000000	n/a	2	-1.644022e-01	-2.269022e-01
175.907150	1.167215	dec_nonsocial_choice	1.167215	16.000000	n/a	0	0	-2.293883e-01
175.907150	1.167215	dec_choice	1.167215	16.000000	n/a	0	0	-2.317708e-01
175.907150	1.167215	dec_nonsocial_reject	1.167215	16.000000	n/a	0	0	-1.736111e-02
175.907150	1.167215	dec_reject	1.167215	16.000000	n/a	0	0	-2.343750e-02
175.907150	1.167215	dec_nonsocial_reject_low	1.167215	16.000000	n/a	1	-1.250000e-02	-7.500000e-02
188.391040	2.283203	dec_social_choice	2.283203	32.000000	n/a	0	0	-2.293883e-01
188.391040	2.283203	dec_choice	2.283203	32.000000	n/a	0	0	-2.269022e-01
188.391040	2.283203	dec_social_reject	2.283203	32.000000	n/a	0	0	1.388889e-02
188.391040	2.283203	dec_reject	2.283203	32.000000	n/a	0	0	1.875000e-02
188.391040	2.283203	dec_social_low	2.283203	32.000000	n/a	0	-2.269022e-01	-2.269022e-01
188.391040	2.283203	dec_social_reject_low	2.283203	32.000000	n/a	3	-1.331522e-01	-2.269022e-01
196.041230	1.450145	dec_nonsocial_choice	1.450145	32.000000	n/a	8	2.061170e-02	2.061170e-02
196.041230	1.450145	dec_choice	1.450145	32.000000	n/a	8	1.822917e-02	1.822917e-02
196.041230	1.450145	dec_nonsocial_accept	1.450145	32.000000	n/a	8	-7.219828e-02	-7.219828e-02
196.041230	1.450145	dec_accept	1.450145	32.000000	n/a	8	-5.468750e-02	-5.468750e-02
196.041230	1.450145	dec_nonsocial_accept_high	1.450145	32.000000	n/a	8	-9.375000e-02	-9.375000e-02
203.674760	1.550314	dec_nonsocial_choice	1.550314	32.000000	n/a	2	-1.668883e-01	-1.668883e-01
203.674760	1.550314	dec_choice	1.550314	32.000000	n/a	2	-1.692708e-01	-1.692708e-01
203.674760	1.550314	dec_nonsocial_accept	1.550314	32.000000	n/a	2	-2.596983e-01	-2.596983e-01
203.674760	1.550314	dec_accept	1.550314	32.000000	n/a	2	-2.421875e-01	-2.421875e-01
203.674760	1.550314	dec_nonsocial_low	1.550314	32.000000	n/a	2	-1.692708e-01	-1.692708e-01
203.674760	1.550314	dec_nonsocial_accept_low	1.550314	32.000000	n/a	2	-2.421875e-01	-2.421875e-01
210.508040	2.116210	dec_nonsocial_choice	2.116210	32.000000	n/a	0	0	-2.293883e-01
210.508040	2.116210	dec_choice	2.116210	32.000000	n/a	0	0	-2.317708e-01
210.508040	2.116210	dec_nonsocial_reject	2.116210	32.000000	n/a	0	0	-1.736111e-02
210.508040	2.116210	dec_reject	2.116210	32.000000	n/a	0	0	-2.343750e-02
210.508040	2.116210	dec_nonsocial_low	2.116210	32.000000	n/a	0	-2.317708e-01	-2.317708e-01
210.508040	2.116210	dec_nonsocial_reject_low	2.116210	32.000000	n/a	2	-2.343750e-02	-8.593750e-02
219.758000	1.216102	dec_social_choice	1.216102	32.000000	n/a	16	2.706117e-01	2.706117e-01
219.758000	1.216102	dec_choice	1.216102	32.000000	n/a	16	2.730978e-01	2.730978e-01
219.758000	1.216102	dec_social_accept	1.216102	32.000000	n/a	16	1.778017e-01	1.778017e-01
219.758000	1.216102	dec_accept	1.216102	32.000000	n/a	16	1.562500e-01	1.562500e-01
219.758000	1.216102	dec_social_accept_high	1.216102	32.000000	n/a	16	2.730978e-01	2.730978e-01
229.025740	1.865101	dec_social_choice	1.865101	16.000000	n/a	4	2.061170e-02	2.061170e-02
229.025740	1.865101	dec_choice	1.865101	16.000000	n/a	4	2.309783e-02	2.309783e-02
229.025740	1.865101	dec_social_accept	1.865101	16.000000	n/a	4	-7.219828e-02	-7.219828e-02
229.025740	1.865101	dec_accept	1.865101	16.000000	n/a	4	-9.375000e-02	-9.375000e-02
229.025740	1.865101	dec_social_high	1.865101	16.000000	n/a	4	2.309783e-02	2.309783e-02
229.025740	1.865101	dec_social_accept_high	1.865101	16.000000	n/a	4	2.309783e-02	2.309783e-02
238.290770	3.250405	dec_social_choice	3.250405	16.000000	n/a	4	2.061170e-02	2.061170e-02
238.290770	3.250405	dec_choice	3.250405	16.000000	n/a	4	2.309783e-02	2.309783e-02
238.290770	3.250405	dec_social_accept	3.250405	16.000000	n/a	4	-7.219828e-02	-7.219828e-02
238.290770	3.250405	dec_accept	3.250405	16.000000	n/a	4	-9.375000e-02	-9.375000e-02
238.290770	3.250405	dec_social_accept_high	3.250405	16.000000	n/a	4	2.309783e-02	2.309783e-02
247.558700	1.182514	dec_social_choice	1.182514	32.000000	n/a	8	2.061170e-02	2.061170e-02
247.558700	1.182514	dec_choice	1.182514	32.000000	n/a	8	2.309783e-02	2.309783e-02
247.558700	1.182514	dec_social_accept	1.182514	32.000000	n/a	8	-7.219828e-02	-7.219828e-02
247.558700	1.182514	dec_accept	1.182514	32.000000	n/a	8	-9.375000e-02	-9.375000e-02
247.558700	1.182514	dec_social_accept_high	1.182514	32.000000	n/a	8	2.309783e-02	2.309783e-02
254.391920	1.599839	dec_social_choice	1.599839	32.000000	n/a	0	0	-2.293883e-01
254.391920	1.599839	dec_choice	1.599839	32.000000	n/a	0	0	-2.269022e-01
254.391920	1.599839	dec_social_reject	1.599839	32.000000	n/a	0	0	-1.736111e-02
254.391920	1.599839	dec_reject	1.599839	32.000000	n/a	0	0	-1.250000e-02
254.391920	1.599839	dec_social_reject_low	1.599839	32.000000	n/a	2	-1.644022e-01	-2.269022e-01
261.225070	1.465712	dec_nonsocial_choice	1.465712	16.000000	n/a	2	-1.043883e-01	-1.043883e-01
261.225070	1.465712	dec_choice	1.465712	16.000000	n/a	2	-1.067708e-01	-1.067708e-01
261.225070	1.465712	dec_nonsocial_accept	1.465712	16.000000	n/a	2	-1.971983e-01	-1.971983e-01
261.225070	1.465712	dec_accept	1.465712	16.000000	n/a	2	-1.796875e-01	-1.796875e-01
261.225070	1.465712	dec_nonsocial_accept_low	1.465712	16.000000	n/a	2	-2.187500e-01	-2.187500e-01
272.091200	1.383132	dec_social_choice	1.383132	16.000000	n/a	0	0	-2.293883e-01
272.091200	1.383132	dec_choice	1.383132	16.000000	n/a	0	0	-2.269022e-01
272.091200	1.383132	dec_social_reject	1.383132	16.000000	n/a	0	0	-1.736111e-02
272.091200	1.383132	dec_reject	1.383132	16.000000	n/a	0	0	-1.250000e-02
272.091200	1.383132	dec_social_low	1.383132	16.000000	n/a	0	-2.269022e-01	-2.269022e-01
272.091200	1.383132	dec_social_reject_low	1.383132	16.000000	n/a	1	-1.644022e-01	-2.269022e-01
278.923980	1.550429	dec_nonsocial_choice	1.550429	16.000000	n/a	8	2.706117e-01	2.706117e-01
278.923980	1.550429	dec_choice	1.550429	16.000000	n/a	8	2.682292e-01	2.682292e-01
278.923980	1.550429	dec_nonsocial_accept	1.550429	16.000000	n/a	8	1.778017e-01	1.778017e-01
278.923980	1.550429	dec_accept	1.550429	16.000000	n/a	8	1.953125e-01	1.953125e-01
278.923980	1.550429	dec_nonsocial_high	1.550429	16.000000	n/a	8	2.682292e-01	2.682292e-01
278.923980	1.550429	dec_nonsocial_accept_high	1.550429	16.000000	n/a	8	1.953125e-01	1.953125e-01
289.790900	1.083804	dec_nonsocial_choice	1.083804	32.000000	n/a	16	2.706117e-01	2.706117e-01
289.790900	1.083804	dec_choice	1.083804	32.000000	n/a	16	2.682292e-01	2.682292e-01
289.790900	1.083804	dec_nonsocial_accept	1.083804	32.000000	n/a	16	1.778017e-01	1.778017e-01
289.790900	1.083804	dec_accept	1.083804	32.000000	n/a	16	1.953125e-01	1.953125e-01
289.790900	1.083804	dec_nonsocial_accept_high	1.083804	32.000000	n/a	16	1.562500e-01	1.562500e-01
297.440400	2.217392	dec_social_choice	2.217392	32.000000	n/a	0	0	-2.293883e-01
297.440400	2.217392	dec_choice	2.217392	32.000000	n/a	0	0	-2.269022e-01
297.440400	2.217392	dec_social_reject	2.217392	32.000000	n/a	0	0	1.388889e-02
297.440400	2.217392	dec_reject	2.217392	32.000000	n/a	0	0	1.875000e-02
297.440400	2.217392	dec_social_reject_low	2.217392	32.000000	n/a	3	-1.331522e-01	-2.269022e-01
304.274840	2.115692	dec_nonsocial_choice	2.115692	16.000000	n/a	0	0	-2.293883e-01
304.274840	2.115692	dec_choice	2.115692	16.000000	n/a	0	0	-2.317708e-01
304.274840	2.115692	dec_nonsocial_reject	2.115692	16.000000	n/a	0	0	4.513889e-02
304.274840	2.115692	dec_reject	2.115692	16.000000	n/a	0	0	3.906250e-02
304.274840	2.115692	dec_nonsocial_low	2.115692	16.000000	n/a	0	-2.317708e-01	-2.317708e-01
304.274840	2.115692	dec_nonsocial_reject_low	2.115692	16.000000	n/a	2	3.906250e-02	-8.593750e-02
311.107850	1.583268	dec_nonsocial_choice	1.583268	16.000000	n/a	0	0	-2.293883e-01
311.107850	1.583268	dec_choice	1.583268	16.000000	n/a	0	0	-2.317708e-01
311.107850	1.583268	dec_nonsocial_reject	1.583268	16.000000	n/a	0	0	4.513889e-02
311.107850	1.583268	dec_reject	1.583268	16.000000	n/a	0	0	3.906250e-02
311.107850	1.583268	dec_nonsocial_low	1.583268	16.000000	n/a	0	-2.317708e-01	-2.317708e-01
311.107850	1.583268	dec_nonsocial_reject_low	1.583268	16.000000	n/a	2	3.906250e-02	-8.593750e-02
317.941300	1.516224	dec_nonsocial_choice	1.516224	32.000000	n/a	8	2.061170e-02	2.061170e-02
317.941300	1.516224	dec_choice	1.516224	32.000000	n/a	8	1.822917e-02	1.822917e-02
317.941300	1.516224	dec_nonsocial_accept	1.516224	32.000000	n/a	8	-7.219828e-02	-7.219828e-02
317.941300	1.516224	dec_accept	1.516224	32.000000	n/a	8	-5.468750e-02	-5.468750e-02
317.941300	1.516224	dec_nonsocial_accept_high	1.516224	32.000000	n/a	8	-9.375000e-02	-9.375000e-02
324.775270	1.349356	dec_nonsocial_choice	1.349356	16.000000	n/a	1	-1.668883e-01	-1.668883e-01
324.775270	1.349356	dec_choice	1.349356	16.000000	n/a	1	-1.692708e-01	-1.692708e-01
324.775270	1.349356	dec_nonsocial_accept	1.349356	16.000000	n/a	1	-2.596983e-01	-2.596983e-01
324.775270	1.349356	dec_accept	1.349356	16.000000	n/a	1	-2.421875e-01	-2.421875e-01
324.775270	1.349356	dec_nonsocial_low	1.349356	16.000000	n/a	1	-1.692708e-01	-1.692708e-01
324.775270	1.349356	dec_nonsocial_accept_low	1.349356	16.000000	n/a	1	-2.421875e-01	-2.421875e-01
335.640660	2.133620	dec_social_choice	2.133620	32.000000	n/a	0	0	-2.293883e-01
335.640660	2.133620	dec_choice	2.133620	32.000000	n/a	0	0	-2.269022e-01
335.640660	2.133620	dec_social_reject	2.133620	32.000000	n/a	0	0	1.388889e-02
335.640660	2.133620	dec_reject	2.133620	32.000000	n/a	0	0	1.875000e-02
335.640660	2.133620	dec_social_low	2.133620	32.000000	n/a	0	-2.269022e-01	-2.269022e-01
335.640660	2.133620	dec_social_reject_low	2.133620	32.000000	n/a	3	-1.331522e-01	-2.269022e-01
342.474640	1.615731	dec_social_choice	1.615731	16.000000	n/a	8	2.706117e-01	2.706117e-01
342.474640	1.615731	dec_choice	1.615731	16.000000	n/a	8	2.730978e-01	2.730978e-01
342.474640	1.615731	dec_social_accept	1.615731	16.000000	n/a	8	1.778017e-01	1.778017e-01
342.474640	1.615731	dec_accept	1.615731	16.000000	n/a	8	1.562500e-01	1.562500e-01
342.474640	1.615731	dec_social_high	1.615731	16.000000	n/a	8	2.730978e-01	2.730978e-01
342.474640	1.615731	dec_social_accept_high	1.615731	16.000000	n/a	8	2.730978e-01	2.730978e-01
351.741550	1.782485	dec_social_choice	1.782485	16.000000	n/a	8	2.706117e-01	2.706117e-01
351.741550	1.782485	dec_choice	1.782485	16.000000	n/a	8	2.730978e-01	2.730978e-01
351.741550	1.782485	dec_social_accept	1.782485	16.000000	n/a	8	1.778017e-01	1.778017e-01
351.741550	1.782485	dec_accept	1.782485	16.000000	n/a	8	1.562500e-01	1.562500e-01
351.741550	1.782485	dec_social_high	1.782485	16.000000	n/a	8	2.730978e-01	2.730978e-01
351.741550	1.782485	dec_social_accept_high	1.782485	16.000000	n/a	8	2.730978e-01	2.730978e-01
359.390960	1.683529	dec_nonsocial_choice	1.683529	32.000000	n/a	8	2.061170e-02	2.061170e-02
359.390960	1.683529	dec_choice	1.683529	32.000000	n/a	8	1.822917e-02	1.822917e-02
359.390960	1.683529	dec_nonsocial_accept	1.683529	32.000000	n/a	8	-7.219828e-02	-7.219828e-02
359.390960	1.683529	dec_accept	1.683529	32.000000	n/a	8	-5.468750e-02	-5.468750e-02
359.390960	1.683529	dec_nonsocial_high	1.683529	32.000000	n/a	8	1.822917e-02	1.822917e-02
359.390960	1.683529	dec_nonsocial_accept_high	1.683529	32.000000	n/a	8	-5.468750e-02	-5.468750e-02
366.224820	1.749449	dec_social_choice	1.749449	32.000000	n/a	0	0	-2.293883e-01
366.224820	1.749449	dec_choice	1.749449	32.000000	n/a	0	0	-2.269022e-01
366.224820	1.749449	dec_social_reject	1.749449	32.000000	n/a	0	0	-1.736111e-02
366.224820	1.749449	dec_reject	1.749449	32.000000	n/a	0	0	-1.250000e-02
366.224820	1.749449	dec_social_reject_low	1.749449	32.000000	n/a	2	-1.644022e-01	-2.269022e-01
373.058560	3.766946	missed_trial	3.766946	16.000000	n/a	n/a	n/a	n/a
