TrialNumber,Trial,cLeft,cRight,Partner,Reciprocate,ISI,ITI,ran,order,onset,bpress,resp,resp_onset,highlow,rt,ISIpad,ISI_onset,ISI_offset,outcome_onset,outcome_offset,duration,ITI_onset,ITI_offset
1,1,2,0,3,0,3.500000e+00,2,1.0,0.0,4.021908,2.0,2,4.6934123,high,0.6715045,2.3284955,5.216498,12.272351,12.28036,14.28445,10.262543,14.284862,16.272915
2,2,4,8,1,1,2,4,1.0,1.0,16.28949,2.0,4,19.164711,low,2.8752213,0.1247788,19.687077,23.040464,23.045773,25.050104,8.760613,25.050432,29.039839
3,3,8,0,2,0,5.000000e-01,6,1.0,2.0,29.04779,999.0,999,32.05379,999,0.0,0.0,32.060028,34.298283,999.0,999.0,969.9522,36.308857,42.299374
4,4,2,8,2,1,5.000000e-01,8,1.0,3.0,42.304207,7.0,8,44.47717,high,2.1729643,0.8270357,44.999863,47.554516,47.558,49.562683,7.2584767,49.562992,57.55439
5,5,2,8,1,1,5.000000e-01,2,1.0,4.0,57.5571,2.0,2,60.280926,low,2.723828,0.276172,60.80347,62.807377,62.81134,64.81531,7.2582083,64.81561,66.8081
6,6,4,2,1,1,5.000000e-01,2,1.0,5.0,66.81386,2.0,4,68.54042,high,1.7265629,1.2734371,69.06292,72.064125,72.06458,74.06971,7.2558517,74.07003,76.065605
7,7,4,0,3,0,2,2,1.0,6.0,76.06985,7.0,0,77.38316,low,1.3133183,1.6866817,77.905815,82.82033,82.8205,84.82407,8.7542305,84.82439,86.8202
8,8,2,0,1,1,2,2,1.0,7.0,86.82519,2.0,2,88.89069,high,2.065509,0.934491,89.41275,93.57598,93.57646,95.58052,8.755333,95.58092,97.57542
9,9,4,2,2,0,2,4,1.0,8.0,97.58262,7.0,2,100.04809,low,2.465475,0.5345248,100.57047,104.333015,104.336426,106.34054,8.757921,106.34084,110.33318
10,10,0,4,2,0,3.500000e+00,2,1.0,9.0,110.33895,2.0,0,112.80402,low,2.4650779,0.5349221,113.32712,118.58966,118.58983,120.59344,10.254487,120.59374,122.58924
11,11,2,0,1,0,2,4,1.0,10.0,122.59679,2.0,2,124.029335,high,1.4325492,1.5674508,124.55068,129.3469,129.35057,131.35475,8.757969,131.35506,135.3476
12,12,8,4,3,1,5.000000e-01,6,1.0,11.0,135.35382,2.0,8,137.2177,high,1.863882,1.136118,137.73964,140.60397,140.60783,142.61229,7.25847,142.6126,148.60423
13,13,8,0,3,1,5.000000e-01,2,1.0,12.0,148.60742,2.0,8,151.47241,high,2.8649871,0.1350129,151.99591,153.85756,153.858,155.86205,7.2546253,155.86235,157.85834
14,14,8,2,3,1,5.000000e-01,4,1.0,13.0,157.86104,7.0,2,160.31503,low,2.4539886,0.5460115,160.83757,163.11125,163.11174,165.1157,7.2546635,165.11601,169.11163
15,15,8,2,2,0,5.000000e-01,2,1.0,14.0,169.11368,2.0,8,171.27287,high,2.1592038,0.8407962,171.79497,174.3643,174.36821,176.37218,7.258497,176.37248,178.36421
16,16,0,4,3,1,2,2,1.0,15.0,178.371,7.0,4,180.89792,high,2.526914,0.473086,181.42012,185.12132,185.12505,187.12906,8.758065,187.12938,189.12079
17,17,0,4,1,1,5.000000e-01,2,1.0,16.0,189.12344,7.0,4,190.8567,high,1.7332596,1.2667404,191.37917,194.3736,194.37706,196.38026,7.2568135,196.38057,198.37521
18,18,8,4,2,0,5.000000e-01,4,1.0,17.0,198.37955,7.0,4,199.99927,low,1.6197271,1.3802729,200.52115,203.63028,203.63399,205.63838,7.2588425,205.6387,209.63033
19,19,0,8,1,0,5.000000e-01,2,1.0,18.0,209.63748,7.0,8,211.09038,high,1.4529027,1.5470973,211.6122,214.8875,214.89113,216.895,7.257529,216.89531,218.88765
20,20,2,4,1,0,5.000000e-01,8,1.0,19.0,218.89883,2.0,2,220.76544,low,1.8666139,1.1333861,221.28784,224.14948,224.14995,226.154,7.2551737,226.15431,234.14941
21,21,2,8,3,0,3.500000e+00,2,1.0,20.0,234.15408,7.0,8,235.80309,high,1.6490103,1.3509897,236.32573,242.40414,242.40779,244.41216,10.258071,244.41246,246.4052
22,22,2,0,2,1,2,2,1.0,21.0,246.40987,999.0,999,249.42493,999,0.0,0.0,249.43095,253.16139,999.0,999.0,752.59015,255.16962,257.161
23,23,8,4,3,0,5.000000e-01,4,1.0,22.0,257.16785,2.0,8,259.08386,high,1.9160243,1.0839757,259.60623,262.4193,262.42276,264.42715,7.259291,264.42755,268.4178
24,24,4,0,1,0,2,6,1.0,23.0,268.4252,7.0,0,270.92416,low,2.4989831,0.5010168,271.44598,275.17545,275.17563,277.17938,8.754198,277.1797,283.17493
25,25,2,4,3,0,2,4,1.0,24.0,283.18234,7.0,4,285.39557,high,2.2132266,0.7867735,285.9183,289.93256,289.933,291.93686,8.754518,291.93716,295.93265
26,26,8,4,1,0,5.000000e-01,2,1.0,25.0,295.9371,2.0,8,298.1184,high,2.1813047,0.8186952,298.64078,301.18802,301.19193,303.19547,7.258361,303.19577,305.18826
27,27,8,0,3,0,5.000000e-01,2,1.0,26.0,305.19284,7.0,0,306.74475,low,1.5519195,1.4480805,307.26718,310.44348,310.44366,312.44772,7.2548795,312.44803,314.4436
28,28,8,0,1,1,3.500000e+00,4,1.0,27.0,314.4462,2.0,8,316.0039,high,1.5576919,1.4423081,316.5256,322.697,322.70102,324.70532,10.259119,324.70563,328.6961
29,29,2,0,2,0,5.000000e-01,2,1.0,28.0,328.70068,2.0,2,330.79132,high,2.0906508,0.9093493,331.31427,333.9515,333.95465,335.9588,7.258139,335.9591,337.9511
30,30,4,2,2,1,5.000000e-01,2,1.0,29.0,337.95676,7.0,2,339.10144,low,1.1446815,1.8553185,339.62952,343.2071,343.2107,345.21466,7.2578998,345.21494,347.20724
31,31,0,4,2,1,3.500000e+00,6,1.0,30.0,347.21246,7.0,4,348.2771,high,1.0646312,1.9353688,348.79922,355.46295,355.46344,357.46756,10.255095,357.46786,363.46378
32,32,8,2,1,0,5.000000e-01,6,1.0,31.0,363.47122,2.0,8,364.63043,high,1.1592042,1.8407958,365.1531,368.72183,368.72568,370.73013,7.258908,370.73047,376.7221
33,33,0,2,3,1,5.000000e-01,8,1.0,32.0,376.72644,7.0,2,377.61954,high,0.8930937,2.1069064,378.14206,381.9771,381.9808,383.9848,7.258353,383.9851,391.97705
34,34,2,4,3,1,2,2,1.0,33.0,391.9824,2.0,2,393.48993,low,1.5075334,1.4924666,394.012,398.73264,398.7331,400.7371,8.754719,400.7374,402.7329
35,35,4,8,2,1,5.000000e-01,4,1.0,34.0,402.73923,7.0,8,404.031,high,1.291788,1.708212,404.55322,407.98978,407.99362,409.99722,7.2579956,409.99753,413.99005
36,36,8,0,2,1,3.500000e+00,4,1.0,35.0,413.99533,7.0,0,415.72162,low,1.7262912,1.2737088,416.24377,422.24506,422.2452,424.24878,10.253435,424.24908,428.24542
﻿TrialNumber,Trial,cLeft,cRight,Partner,Reciprocate,ISI,ITI,ran,order,onset,bpress,resp,resp_onset,highlow,rt,ISIpad,ISI_onset,ISI_offset,outcome_onset,outcome_offset,duration,ITI_onset,ITI_offset
1,1,2,0,3,0,3.500000e+00,2,1.0,0.0,4.014835,999.0,999.0,7.0197606,999.0,0.0,0.0,7.0279546,12.265235,999.0,999.0,994.98517,14.272522,16.264881
2,2,4,8,1,1,2,4,1.0,1.0,16.275126,999.0,999.0,19.285566,999.0,0.0,0.0,19.289724,23.025785,999.0,999.0,982.72485,25.035032,29.025549
3,3,8,0,2,0,5.000000e-01,6,1.0,2.0,29.035137,999.0,999.0,32.03555,999.0,0.0,0.0,32.04042,34.28568,999.0,999.0,969.96484,36.287785,42.285175
4,4,2,8,2,1,5.000000e-01,8,1.0,3.0,42.289097,999.0,999.0,45.302853,999.0,0.0,0.0,45.30855,47.539886,999.0,999.0,956.7109,49.542515,57.539238
5,5,2,8,1,1,5.000000e-01,2,1.0,4.0,57.54099,999.0,999.0,60.55228,999.0,0.0,0.0,60.56044,62.791286,999.0,999.0,941.459,64.7942,66.79166
6,6,4,2,1,1,5.000000e-01,2,1.0,5.0,--,--,--,--,--,--,--,--,--,--,--,--,--,--
7,7,4,0,3,0,2,2,0.0,--,--,--,--,--,--,--,--,--,--,--,--,--,--,--
8,8,2,0,1,1,2,2,0.0,--,--,--,--,--,--,--,--,--,--,--,--,--,--,--
9,9,4,2,2,0,2,4,0.0,--,--,--,--,--,--,--,--,--,--,--,--,--,--,--
10,10,0,4,2,0,3.500000e+00,2,0.0,--,--,--,--,--,--,--,--,--,--,--,--,--,--,--
11,11,2,0,1,0,2,4,0.0,--,--,--,--,--,--,--,--,--,--,--,--,--,--,--
12,12,8,4,3,1,5.000000e-01,6,0.0,--,--,--,--,--,--,--,--,--,--,--,--,--,--,--
13,13,8,0,3,1,5.000000e-01,2,0.0,--,--,--,--,--,--,--,--,--,--,--,--,--,--,--
14,14,8,2,3,1,5.000000e-01,4,0.0,--,--,--,--,--,--,--,--,--,--,--,--,--,--,--
15,15,8,2,2,0,5.000000e-01,2,0.0,--,--,--,--,--,--,--,--,--,--,--,--,--,--,--
16,16,0,4,3,1,2,2,0.0,--,--,--,--,--,--,--,--,--,--,--,--,--,--,--
17,17,0,4,1,1,5.000000e-01,2,0.0,--,--,--,--,--,--,--,--,--,--,--,--,--,--,--
18,18,8,4,2,0,5.000000e-01,4,0.0,--,--,--,--,--,--,--,--,--,--,--,--,--,--,--
19,19,0,8,1,0,5.000000e-01,2,0.0,--,--,--,--,--,--,--,--,--,--,--,--,--,--,--
20,20,2,4,1,0,5.000000e-01,8,0.0,--,--,--,--,--,--,--,--,--,--,--,--,--,--,--
21,21,2,8,3,0,3.500000e+00,2,0.0,--,--,--,--,--,--,--,--,--,--,--,--,--,--,--
22,22,2,0,2,1,2,2,0.0,--,--,--,--,--,--,--,--,--,--,--,--,--,--,--
23,23,8,4,3,0,5.000000e-01,4,0.0,--,--,--,--,--,--,--,--,--,--,--,--,--,--,--
24,24,4,0,1,0,2,6,0.0,--,--,--,--,--,--,--,--,--,--,--,--,--,--,--
25,25,2,4,3,0,2,4,0.0,--,--,--,--,--,--,--,--,--,--,--,--,--,--,--
26,26,8,4,1,0,5.000000e-01,2,0.0,--,--,--,--,--,--,--,--,--,--,--,--,--,--,--
27,27,8,0,3,0,5.000000e-01,2,0.0,--,--,--,--,--,--,--,--,--,--,--,--,--,--,--
28,28,8,0,1,1,3.500000e+00,4,0.0,--,--,--,--,--,--,--,--,--,--,--,--,--,--,--
29,29,2,0,2,0,5.000000e-01,2,0.0,--,--,--,--,--,--,--,--,--,--,--,--,--,--,--
30,30,4,2,2,1,5.000000e-01,2,0.0,--,--,--,--,--,--,--,--,--,--,--,--,--,--,--
31,31,0,4,2,1,3.500000e+00,6,0.0,--,--,--,--,--,--,--,--,--,--,--,--,--,--,--
32,32,8,2,1,0,5.000000e-01,6,0.0,--,--,--,--,--,--,--,--,--,--,--,--,--,--,--
33,33,0,2,3,1,5.000000e-01,8,0.0,--,--,--,--,--,--,--,--,--,--,--,--,--,--,--
34,34,2,4,3,1,2,2,0.0,--,--,--,--,--,--,--,--,--,--,--,--,--,--,--
35,35,4,8,2,1,5.000000e-01,4,0.0,--,--,--,--,--,--,--,--,--,--,--,--,--,--,--
36,36,8,0,2,1,3.500000e+00,4,0.0,--,--,--,--,--,--,--,--,--,--,--,--,--,--,--
﻿TrialNumber,Trial,cLeft,cRight,Partner,Reciprocate,ISI,ITI,ran,order,onset,bpress,resp,resp_onset,highlow,rt,ISIpad,ISI_onset,ISI_offset,outcome_onset,outcome_offset,duration,ITI_onset,ITI_offset
1,1,2,0,3,0,3.500000e+00,2,1.0,0.0,4.016954,999.0,999.0,7.02445,999.0,0.0,0.0,7.0280104,12.267607,999.0,999.0,994.98303,14.290769,16.266764
2,2,4,8,1,1,2,4,1.0,1.0,16.276028,999.0,999.0,19.29184,999.0,0.0,0.0,19.297075,23.026701,999.0,999.0,982.724,25.040628,29.026743
3,3,8,0,2,0,5.000000e-01,6,1.0,2.0,29.033815,999.0,999.0,32.041416,999.0,0.0,0.0,32.046005,34.28464,999.0,999.0,969.9662,36.290436,42.284298
4,4,2,8,2,1,5.000000e-01,8,1.0,3.0,--,--,--,--,--,--,--,--,--,--,--,--,--,--
5,5,2,8,1,1,5.000000e-01,2,0.0,--,--,--,--,--,--,--,--,--,--,--,--,--,--,--
6,6,4,2,1,1,5.000000e-01,2,0.0,--,--,--,--,--,--,--,--,--,--,--,--,--,--,--
7,7,4,0,3,0,2,2,0.0,--,--,--,--,--,--,--,--,--,--,--,--,--,--,--
8,8,2,0,1,1,2,2,0.0,--,--,--,--,--,--,--,--,--,--,--,--,--,--,--
9,9,4,2,2,0,2,4,0.0,--,--,--,--,--,--,--,--,--,--,--,--,--,--,--
10,10,0,4,2,0,3.500000e+00,2,0.0,--,--,--,--,--,--,--,--,--,--,--,--,--,--,--
11,11,2,0,1,0,2,4,0.0,--,--,--,--,--,--,--,--,--,--,--,--,--,--,--
12,12,8,4,3,1,5.000000e-01,6,0.0,--,--,--,--,--,--,--,--,--,--,--,--,--,--,--
13,13,8,0,3,1,5.000000e-01,2,0.0,--,--,--,--,--,--,--,--,--,--,--,--,--,--,--
14,14,8,2,3,1,5.000000e-01,4,0.0,--,--,--,--,--,--,--,--,--,--,--,--,--,--,--
15,15,8,2,2,0,5.000000e-01,2,0.0,--,--,--,--,--,--,--,--,--,--,--,--,--,--,--
16,16,0,4,3,1,2,2,0.0,--,--,--,--,--,--,--,--,--,--,--,--,--,--,--
17,17,0,4,1,1,5.000000e-01,2,0.0,--,--,--,--,--,--,--,--,--,--,--,--,--,--,--
18,18,8,4,2,0,5.000000e-01,4,0.0,--,--,--,--,--,--,--,--,--,--,--,--,--,--,--
19,19,0,8,1,0,5.000000e-01,2,0.0,--,--,--,--,--,--,--,--,--,--,--,--,--,--,--
20,20,2,4,1,0,5.000000e-01,8,0.0,--,--,--,--,--,--,--,--,--,--,--,--,--,--,--
21,21,2,8,3,0,3.500000e+00,2,0.0,--,--,--,--,--,--,--,--,--,--,--,--,--,--,--
22,22,2,0,2,1,2,2,0.0,--,--,--,--,--,--,--,--,--,--,--,--,--,--,--
23,23,8,4,3,0,5.000000e-01,4,0.0,--,--,--,--,--,--,--,--,--,--,--,--,--,--,--
24,24,4,0,1,0,2,6,0.0,--,--,--,--,--,--,--,--,--,--,--,--,--,--,--
25,25,2,4,3,0,2,4,0.0,--,--,--,--,--,--,--,--,--,--,--,--,--,--,--
26,26,8,4,1,0,5.000000e-01,2,0.0,--,--,--,--,--,--,--,--,--,--,--,--,--,--,--
27,27,8,0,3,0,5.000000e-01,2,0.0,--,--,--,--,--,--,--,--,--,--,--,--,--,--,--
28,28,8,0,1,1,3.500000e+00,4,0.0,--,--,--,--,--,--,--,--,--,--,--,--,--,--,--
29,29,2,0,2,0,5.000000e-01,2,0.0,--,--,--,--,--,--,--,--,--,--,--,--,--,--,--
30,30,4,2,2,1,5.000000e-01,2,0.0,--,--,--,--,--,--,--,--,--,--,--,--,--,--,--
31,31,0,4,2,1,3.500000e+00,6,0.0,--,--,--,--,--,--,--,--,--,--,--,--,--,--,--
32,32,8,2,1,0,5.000000e-01,6,0.0,--,--,--,--,--,--,--,--,--,--,--,--,--,--,--
33,33,0,2,3,1,5.000000e-01,8,0.0,--,--,--,--,--,--,--,--,--,--,--,--,--,--,--
34,34,2,4,3,1,2,2,0.0,--,--,--,--,--,--,--,--,--,--,--,--,--,--,--
35,35,4,8,2,1,5.000000e-01,4,0.0,--,--,--,--,--,--,--,--,--,--,--,--,--,--,--
36,36,8,0,2,1,3.500000e+00,4,0.0,--,--,--,--,--,--,--,--,--,--,--,--,--,--,--
